"rt","stimulus","response","trial_type","trial_index","time_elapsed","internal_node_id","swb_1","swb_2","swb_3","swb_4","swb_5","LOT_1","LOT_2","LOT_3","LOT_4","LOT_5","LOT_6","IPC_1","IPC_2","IPC_3","IPC_4","IPC_5","IPC_6","IPC_7","IPC_8","MorIden_1","MorIden_2","MorIden_3","MorIden_4","MorIden_5","MorIden_6","MorIden_7","MorIden_8","MorIden_9","MorIden_10","moralSeImag_1","moralSeImag_2","moralSeImag_3","moralSeImag_4","moralSeImag_5","moralSeImag_6","moralSeImag_7","moralSeImag_8","moralSeImag_9","sde_1","sde_2","sde_3","sde_4","sde_5","sde_6","sde_7","sde_8","sde_9","sde_10","trap2","sde_11","sde_12","sde_13","sde_14","sde_15","sde_16","sde_17","sde_18","sde_19","sde_20","IM_1","IM_2","IM_3","IM_4","IM_5","IM_6","IM_7","IM_8","IM_9","IM_10","IM_11","IM_12","IM_13","IM_14","IM_15","IM_16","IM_17","IM_18","IM_19","IM_20","subj_idx","friend_name","ParticipantID","Sex","Word","Word2","value","success","timeout","failed_images","failed_audio","failed_video","user_agent","responses","item_order","radio_event_ids","radio_event_times","key_event_times","mouse_event_times","straightlining","zigzagging","honeypot","task_id","screen_id","time_stamp","response_type","key_press","avg_frame_time","center_x","center_y","person","word","valence","domain","math","correct_response","correct","status","identity","view_history","duration","Image","condition","question_order","trap2_item"
"9908","
   <p><div style='color:white; font-size: 25px'>您好，欢迎参加本次实验。</div></p>
   <p><div style='color:white; font-size: 25px'>为充分保障您的权利，请确保您已经知晓并同意《参与实验同意书》以及《数据公开知情同意书》。</div></p>
   <p><div style='color:white; font-size: 25px'>如果您未见过上述内容，请咨询实验员。</div></p>
   <p style='color:white; font-size: 25px'>如果您选择继续实验，则表示您已经清楚两份知情同意书的内容并同意。</p>
   <p><div style = ""color: pink;font-size:30px;"">请确保您记得day0的实验编号，您将在本次实验输入该编号，若您忘记，请咨询实验员后作答。</div></p>
   <p><div style = ""color:lightblue;font-size:25px;"">请您尽可能认真地作答，我们将依据您在各问卷和按键任务中的作答质量发放报酬。</div></p>
   <p> <div style = ""color: green""><按空格键至下页></div> </p>
   "," ","html-keyboard-response","0","9922","0.0-0.0","6","6","7","6","6","4","1","4","4","4","5","1","1","0","2","-1","1","1","1","5","5","5","5","4","4","5","4","5","5","6","8","6","8","5","6","8","7","8","5","6","2","3","7","2","6","1","5","2","1","5","2","7","3","5","4","5","4","2","6","3","5","3","2","2","6","2","7","3","5","6","3","3","3","2","3","1","7","3","3","763753736781959170","周","319","Male","[""坏我"",""好我"",""坏他"",""好他""]","[""弱我"",""强我"",""弱他"",""强他""]","","","","","","","","","","","","","","","","","","","","","","","","","","","","","","","","","","","","","","",""
"","","","call-function","1","9927","0.0-1.0-0.0","6","6","7","6","6","4","1","4","4","4","5","1","1","0","2","-1","1","1","1","5","5","5","5","4","4","5","4","5","5","6","8","6","8","5","6","8","7","8","5","6","2","3","7","2","6","1","5","2","1","5","2","7","3","5","4","5","4","2","6","3","5","3","2","2","6","2","7","3","5","6","3","3","3","2","3","1","7","3","3","763753736781959170","周","319","Male","[""坏我"",""好我"",""坏他"",""好他""]","[""弱我"",""强我"",""弱他"",""强他""]","","","","","","","","","","","","","","","","","","","","","","","","","","","","","","","","","","","","","","",""
"27833","","[{""name"":""Sex"",""value"":""0""},{""name"":""friend_name"",""value"":""周""},{""name"":""ParticipantID"",""value"":""319""}]","survey-html-form","2","37765","0.0-1.0-1.0","6","6","7","6","6","4","1","4","4","4","5","1","1","0","2","-1","1","1","1","5","5","5","5","4","4","5","4","5","5","6","8","6","8","5","6","8","7","8","5","6","2","3","7","2","6","1","5","2","1","5","2","7","3","5","4","5","4","2","6","3","5","3","2","2","6","2","7","3","5","6","3","3","3","2","3","1","7","3","3","763753736781959170","周","319","Male","[""坏我"",""好我"",""坏他"",""好他""]","[""弱我"",""强我"",""弱他"",""强他""]","","","","","","","","","","","","","","","","","","","","","","","","","","","","","","","","","","","","","","",""
"","","","preload","3","38342","0.0-2.0","6","6","7","6","6","4","1","4","4","4","5","1","1","0","2","-1","1","1","1","5","5","5","5","4","4","5","4","5","5","6","8","6","8","5","6","8","7","8","5","6","2","3","7","2","6","1","5","2","1","5","2","7","3","5","4","5","4","2","6","3","5","3","2","2","6","2","7","3","5","6","3","3","3","2","3","1","7","3","3","763753736781959170","周","319","Male","[""坏我"",""好我"",""坏他"",""好他""]","[""弱我"",""强我"",""弱他"",""强他""]","","true","false","[]","[]","[]","","","","","","","","","","","","","","","","","","","","","","","","","","","","","","","","",""
"","","","fullscreen","4","63275","0.0-3.0","6","6","7","6","6","4","1","4","4","4","5","1","1","0","2","-1","1","1","1","5","5","5","5","4","4","5","4","5","5","6","8","6","8","5","6","8","7","8","5","6","2","3","7","2","6","1","5","2","1","5","2","7","3","5","4","5","4","2","6","3","5","3","2","2","6","2","7","3","5","6","3","3","3","2","3","1","7","3","3","763753736781959170","周","319","Male","[""坏我"",""好我"",""坏他"",""好他""]","[""弱我"",""强我"",""弱他"",""强他""]","","true","","","","","{}","","","","","","","","","","","","","","","","","","","","","","","","","","","","","","","",""
"16852.89999999944","","{""Q01"":""6"",""Q02"":""6"",""Q03"":""7"",""Q04"":""6"",""Q05"":""6""}","survey-template","5","80138","0.0-4.0","6","6","7","6","6","4","1","4","4","4","5","1","1","0","2","-1","1","1","1","5","5","5","5","4","4","5","4","5","5","6","8","6","8","5","6","8","7","8","5","6","2","3","7","2","6","1","5","2","1","5","2","7","3","5","4","5","4","2","6","3","5","3","2","2","6","2","7","3","5","6","3","3","3","2","3","1","7","3","3","763753736781959170","周","319","Male","[""坏我"",""好我"",""坏他"",""好他""]","[""弱我"",""强我"",""弱他"",""强他""]","","","","","","","","{""Q01"":""6"",""Q02"":""6"",""Q03"":""7"",""Q04"":""6"",""Q05"":""6""}","[0,1,2,3,4]","[""Q01"",""Q02"",""Q03"",""Q04"",""Q05""]","[5712.5,7388.799999999814,11141.699999999255,13816.799999999814,15047.599999999627]","[]","[5712.5,7388.799999999814,11141.699999999255,13816.799999999814,15047.599999999627,16849.599999999627]","0.8","0.5","0","","","","","","","","","","","","","","","","","","","","","","",""
"17375.900000000373","","{""Q01"":""4"",""Q02"":""1"",""Q03"":""4"",""Q04"":""4"",""Q05"":""4"",""Q06"":""5""}","survey-template","6","97534","0.0-5.0","6","6","7","6","6","4","1","4","4","4","5","1","1","0","2","-1","1","1","1","5","5","5","5","4","4","5","4","5","5","6","8","6","8","5","6","8","7","8","5","6","2","3","7","2","6","1","5","2","1","5","2","7","3","5","4","5","4","2","6","3","5","3","2","2","6","2","7","3","5","6","3","3","3","2","3","1","7","3","3","763753736781959170","周","319","Male","[""坏我"",""好我"",""坏他"",""好他""]","[""弱我"",""强我"",""弱他"",""强他""]","","","","","","","","{""Q01"":""4"",""Q02"":""1"",""Q03"":""4"",""Q04"":""4"",""Q05"":""4"",""Q06"":""5""}","[0,1,2,3,4,5]","[""Q01"",""Q02"",""Q03"",""Q04"",""Q05"",""Q06""]","[2992.9000000003725,5618.299999999814,8106.799999999814,10801.900000000373,12308.700000000186,15584.400000000373]","[]","[2992.9000000003725,5618.299999999814,8106.799999999814,10801.900000000373,12308.700000000186,14962.099999999627,15584.400000000373,17370.299999999814]","0.3333333333333333","0.4","0","","","","","","","","","","","","","","","","","","","","","","",""
"22291.300000000745","","{""Q01"":""1"",""Q02"":""1"",""Q03"":""0"",""Q04"":""2"",""Q05"":""-1"",""Q06"":""1"",""Q07"":""1"",""Q08"":""1""}","survey-template","7","119854","0.0-6.0","6","6","7","6","6","4","1","4","4","4","5","1","1","0","2","-1","1","1","1","5","5","5","5","4","4","5","4","5","5","6","8","6","8","5","6","8","7","8","5","6","2","3","7","2","6","1","5","2","1","5","2","7","3","5","4","5","4","2","6","3","5","3","2","2","6","2","7","3","5","6","3","3","3","2","3","1","7","3","3","763753736781959170","周","319","Male","[""坏我"",""好我"",""坏他"",""好他""]","[""弱我"",""强我"",""弱他"",""强他""]","","","","","","","","{""Q01"":""1"",""Q02"":""1"",""Q03"":""0"",""Q04"":""2"",""Q05"":""-1"",""Q06"":""1"",""Q07"":""1"",""Q08"":""1""}","[0,1,2,3,4,5,6,7]","[""Q01"",""Q02"",""Q03"",""Q04"",""Q05"",""Q06"",""Q07"",""Q08""]","[3404.4000000003725,6535.600000000559,12119.200000000186,13676.300000000745,16298.700000000186,17859.900000000373,19787.300000000745,21157.10000000056]","[]","[3404.4000000003725,6535.600000000559,12119.200000000186,13676.300000000745,16298.700000000186,17859.900000000373,19787.300000000745,21157.10000000056,22282.60000000056]","0.625","0.14285714285714285","0","","","","","","","","","","","","","","","","","","","","","","",""
"25448","
    <p><div style='color:white;font-size:35px; line-height:20px;'>词汇评估任务</div></p><br>
    <p><div style='color:white;font-size:25px; line-height:20px;'>请再次回忆该亲密的朋友，你们至少2年前就认识了，并且最近2年经常见面。</div></p>
    <p><div style='color:white;font-size:25px; line-height:20px;'>在本实验中，您将会看到一些形容词。</div></p>
    <p><div style='color:yellow;font-size:25px; line-height:20px;'>您的任务是判断这些形容词是否符合对您自己或您的朋友的描述。</div></p><p style='font-size:35px'>符合按<span style=""color:lightgreen""> j 键</span>，不符合按<span style=""color:red""> f 键</span></p>","0","html-button-response","8","145322","0.0-7.0-0.0","6","6","7","6","6","4","1","4","4","4","5","1","1","0","2","-1","1","1","1","5","5","5","5","4","4","5","4","5","5","6","8","6","8","5","6","8","7","8","5","6","2","3","7","2","6","1","5","2","1","5","2","7","3","5","4","5","4","2","6","3","5","3","2","2","6","2","7","3","5","6","3","3","3","2","3","1","7","3","3","763753736781959170","周","319","Male","[""坏我"",""好我"",""坏他"",""好他""]","[""弱我"",""强我"",""弱他"",""强他""]","","","","","","","","","","","","","","","","","SRET_EW","EW_instructions","Sat Dec 09 2023 14:20:46 GMT+0800 (中国标准时间)","","","","","","","","","","","","","","","","","","","",""
"null","","null","psychophysics","9","148375","0.0-7.0-1.0-0.0","6","6","7","6","6","4","1","4","4","4","5","1","1","0","2","-1","1","1","1","5","5","5","5","4","4","5","4","5","5","6","8","6","8","5","6","8","7","8","5","6","2","3","7","2","6","1","5","2","1","5","2","7","3","5","4","5","4","2","6","3","5","3","2","2","6","2","7","3","5","6","3","3","3","2","3","1","7","3","3","763753736781959170","周","319","Male","[""坏我"",""好我"",""坏他"",""好他""]","[""弱我"",""强我"",""弱他"",""强他""]","","","","","","","","","","","","","","","","","SRET_EW","EW_practice","","key","null","22.979469696969538","758.3333534223067","422.22223340729164","朋友","徇私","Negative","morality","","","","","","","","","","",""
"683","","j","psychophysics","10","150082","0.0-7.0-1.0-0.1","6","6","7","6","6","4","1","4","4","4","5","1","1","0","2","-1","1","1","1","5","5","5","5","4","4","5","4","5","5","6","8","6","8","5","6","8","7","8","5","6","2","3","7","2","6","1","5","2","1","5","2","7","3","5","4","5","4","2","6","3","5","3","2","2","6","2","7","3","5","6","3","3","3","2","3","1","7","3","3","763753736781959170","周","319","Male","[""坏我"",""好我"",""坏他"",""好他""]","[""弱我"",""强我"",""弱他"",""强他""]","","","","","","","","yes","","","","","","","","","SRET_EW","EW_practice","","key","j","22.07572727272697","758.3333534223067","422.22223340729164","自己","严谨","Positive","ability","","","","","","","","","","",""
"852","","f","psychophysics","11","151949","0.0-7.0-1.0-0.2","6","6","7","6","6","4","1","4","4","4","5","1","1","0","2","-1","1","1","1","5","5","5","5","4","4","5","4","5","5","6","8","6","8","5","6","8","7","8","5","6","2","3","7","2","6","1","5","2","1","5","2","7","3","5","4","5","4","2","6","3","5","3","2","2","6","2","7","3","5","6","3","3","3","2","3","1","7","3","3","763753736781959170","周","319","Male","[""坏我"",""好我"",""坏他"",""好他""]","[""弱我"",""强我"",""弱他"",""强他""]","","","","","","","","no","","","","","","","","","SRET_EW","EW_practice","","key","f","23.41745569620243","758.3333534223067","422.22223340729164","自己","刻板","Negative","ability","","","","","","","","","","",""
"731","","j","psychophysics","12","153702","0.0-7.0-1.0-0.3","6","6","7","6","6","4","1","4","4","4","5","1","1","0","2","-1","1","1","1","5","5","5","5","4","4","5","4","5","5","6","8","6","8","5","6","8","7","8","5","6","2","3","7","2","6","1","5","2","1","5","2","7","3","5","4","5","4","2","6","3","5","3","2","2","6","2","7","3","5","6","3","3","3","2","3","1","7","3","3","763753736781959170","周","319","Male","[""坏我"",""好我"",""坏他"",""好他""]","[""弱我"",""强我"",""弱他"",""强他""]","","","","","","","","yes","","","","","","","","","SRET_EW","EW_practice","","key","j","21.94000000000012","758.3333534223067","422.22223340729164","朋友","忠实","Positive","morality","","","","","","","","","","",""
"6042","
    <p><div style='color:white;font-size:35px; line-height:20px;'>请您再次阅读实验要求</div></p><br>
    <p><div style='color:white;font-size:25px; line-height:20px;'>请回忆某一个亲密的朋友，你们至少2年前就认识了，并且最近2年经常见面。</div></p>
    <p><div style='color:white;font-size:25px; line-height:20px;'>在本实验中，您将会看到一些形容词。</div></p>
    <p><div style='color:yellow;font-size:25px; line-height:20px;'>您的任务是判断这些形容词是否符合对您自己或您的朋友的描述。</div></p>
    <p><div class='footer' style='font-size:25px; line-height:20px;'>如果对本实验还有不清楚之处，请立即向实验员咨询。</p><p style='font-size:25px; line-height:20px;'>如果您明白了规则：</p><p style='font-size:22px; line-height:20px;'>请按 继续 进入正式实验</p>
    </div>
    <p style='font-size:35px'>符合按<span style=""color:lightgreen""> j 键</span>，不符合按<span style=""color:red""> f 键</span></p>","0","html-button-response","13","159751","0.0-7.0-2.0","6","6","7","6","6","4","1","4","4","4","5","1","1","0","2","-1","1","1","1","5","5","5","5","4","4","5","4","5","5","6","8","6","8","5","6","8","7","8","5","6","2","3","7","2","6","1","5","2","1","5","2","7","3","5","4","5","4","2","6","3","5","3","2","2","6","2","7","3","5","6","3","3","3","2","3","1","7","3","3","763753736781959170","周","319","Male","[""坏我"",""好我"",""坏他"",""好他""]","[""弱我"",""强我"",""弱他"",""强他""]","","","","","","","","","","","","","","","","","SRET_EW","prac_instructions","Sat Dec 09 2023 14:20:46 GMT+0800 (中国标准时间)","","","","","","","","","","","","","","","","","","","",""
"911","","f","psychophysics","14","161745","0.0-7.0-3.0-0.0","6","6","7","6","6","4","1","4","4","4","5","1","1","0","2","-1","1","1","1","5","5","5","5","4","4","5","4","5","5","6","8","6","8","5","6","8","7","8","5","6","2","3","7","2","6","1","5","2","1","5","2","7","3","5","4","5","4","2","6","3","5","3","2","2","6","2","7","3","5","6","3","3","3","2","3","1","7","3","3","763753736781959170","周","319","Male","[""坏我"",""好我"",""坏他"",""好他""]","[""弱我"",""强我"",""弱他"",""强他""]","","","","","","","","no","","","","","","","","","SRET","EW_formal","","key","f","23.96985365853683","758.3333534223067","422.22223340729164","自己","说谎","Negative","morality","","","","","","","","","","",""
"668","","j","psychophysics","15","163420","0.0-7.0-3.0-0.1","6","6","7","6","6","4","1","4","4","4","5","1","1","0","2","-1","1","1","1","5","5","5","5","4","4","5","4","5","5","6","8","6","8","5","6","8","7","8","5","6","2","3","7","2","6","1","5","2","1","5","2","7","3","5","4","5","4","2","6","3","5","3","2","2","6","2","7","3","5","6","3","3","3","2","3","1","7","3","3","763753736781959170","周","319","Male","[""坏我"",""好我"",""坏他"",""好他""]","[""弱我"",""强我"",""弱他"",""强他""]","","","","","","","","yes","","","","","","","","","SRET","EW_formal","","key","j","22.29558108108098","758.3333534223067","422.22223340729164","自己","坚贞","Positive","morality","","","","","","","","","","",""
"736","","f","psychophysics","16","165170","0.0-7.0-3.0-0.2","6","6","7","6","6","4","1","4","4","4","5","1","1","0","2","-1","1","1","1","5","5","5","5","4","4","5","4","5","5","6","8","6","8","5","6","8","7","8","5","6","2","3","7","2","6","1","5","2","1","5","2","7","3","5","4","5","4","2","6","3","5","3","2","2","6","2","7","3","5","6","3","3","3","2","3","1","7","3","3","763753736781959170","周","319","Male","[""坏我"",""好我"",""坏他"",""好他""]","[""弱我"",""强我"",""弱他"",""强他""]","","","","","","","","no","","","","","","","","","SRET","EW_formal","","key","f","22.508584415584323","758.3333534223067","422.22223340729164","朋友","迷糊","Negative","ability","","","","","","","","","","",""
"766","","j","psychophysics","17","166983","0.0-7.0-3.0-0.3","6","6","7","6","6","4","1","4","4","4","5","1","1","0","2","-1","1","1","1","5","5","5","5","4","4","5","4","5","5","6","8","6","8","5","6","8","7","8","5","6","2","3","7","2","6","1","5","2","1","5","2","7","3","5","4","5","4","2","6","3","5","3","2","2","6","2","7","3","5","6","3","3","3","2","3","1","7","3","3","763753736781959170","周","319","Male","[""坏我"",""好我"",""坏他"",""好他""]","[""弱我"",""强我"",""弱他"",""强他""]","","","","","","","","yes","","","","","","","","","SRET","EW_formal","","key","j","23.463223684210742","758.3333534223067","422.22223340729164","朋友","务实","Positive","ability","","","","","","","","","","",""
"690","","f","psychophysics","18","168689","0.0-7.0-3.0-0.4","6","6","7","6","6","4","1","4","4","4","5","1","1","0","2","-1","1","1","1","5","5","5","5","4","4","5","4","5","5","6","8","6","8","5","6","8","7","8","5","6","2","3","7","2","6","1","5","2","1","5","2","7","3","5","4","5","4","2","6","3","5","3","2","2","6","2","7","3","5","6","3","3","3","2","3","1","7","3","3","763753736781959170","周","319","Male","[""坏我"",""好我"",""坏他"",""好他""]","[""弱我"",""强我"",""弱他"",""强他""]","","","","","","","","no","","","","","","","","","SRET","EW_formal","","key","f","22.146736842105287","758.3333534223067","422.22223340729164","自己","贪污","Negative","morality","","","","","","","","","","",""
"1168","","f","psychophysics","19","170877","0.0-7.0-3.0-0.5","6","6","7","6","6","4","1","4","4","4","5","1","1","0","2","-1","1","1","1","5","5","5","5","4","4","5","4","5","5","6","8","6","8","5","6","8","7","8","5","6","2","3","7","2","6","1","5","2","1","5","2","7","3","5","4","5","4","2","6","3","5","3","2","2","6","2","7","3","5","6","3","3","3","2","3","1","7","3","3","763753736781959170","周","319","Male","[""坏我"",""好我"",""坏他"",""好他""]","[""弱我"",""强我"",""弱他"",""强他""]","","","","","","","","no","","","","","","","","","SRET","EW_formal","","key","f","22.3355773195877","758.3333534223067","422.22223340729164","朋友","屈才","Negative","ability","","","","","","","","","","",""
"1482","","f","psychophysics","20","173381","0.0-7.0-3.0-0.6","6","6","7","6","6","4","1","4","4","4","5","1","1","0","2","-1","1","1","1","5","5","5","5","4","4","5","4","5","5","6","8","6","8","5","6","8","7","8","5","6","2","3","7","2","6","1","5","2","1","5","2","7","3","5","4","5","4","2","6","3","5","3","2","2","6","2","7","3","5","6","3","3","3","2","3","1","7","3","3","763753736781959170","周","319","Male","[""坏我"",""好我"",""坏他"",""好他""]","[""弱我"",""强我"",""弱他"",""强他""]","","","","","","","","no","","","","","","","","","SRET","EW_formal","","key","f","23.206224299065614","758.3333534223067","422.22223340729164","朋友","外行","Negative","ability","","","","","","","","","","",""
"712","","f","psychophysics","21","175142","0.0-7.0-3.0-0.7","6","6","7","6","6","4","1","4","4","4","5","1","1","0","2","-1","1","1","1","5","5","5","5","4","4","5","4","5","5","6","8","6","8","5","6","8","7","8","5","6","2","3","7","2","6","1","5","2","1","5","2","7","3","5","4","5","4","2","6","3","5","3","2","2","6","2","7","3","5","6","3","3","3","2","3","1","7","3","3","763753736781959170","周","319","Male","[""坏我"",""好我"",""坏他"",""好他""]","[""弱我"",""强我"",""弱他"",""强他""]","","","","","","","","no","","","","","","","","","SRET","EW_formal","","key","f","22.804539473684073","758.3333534223067","422.22223340729164","朋友","无能","Negative","ability","","","","","","","","","","",""
"768","","f","psychophysics","22","176941","0.0-7.0-3.0-0.8","6","6","7","6","6","4","1","4","4","4","5","1","1","0","2","-1","1","1","1","5","5","5","5","4","4","5","4","5","5","6","8","6","8","5","6","8","7","8","5","6","2","3","7","2","6","1","5","2","1","5","2","7","3","5","4","5","4","2","6","3","5","3","2","2","6","2","7","3","5","6","3","3","3","2","3","1","7","3","3","763753736781959170","周","319","Male","[""坏我"",""好我"",""坏他"",""好他""]","[""弱我"",""强我"",""弱他"",""强他""]","","","","","","","","no","","","","","","","","","SRET","EW_formal","","key","f","22.94416883116884","758.3333534223067","422.22223340729164","朋友","拜金","Negative","morality","","","","","","","","","","",""
"870","","j","psychophysics","23","178827","0.0-7.0-3.0-0.9","6","6","7","6","6","4","1","4","4","4","5","1","1","0","2","-1","1","1","1","5","5","5","5","4","4","5","4","5","5","6","8","6","8","5","6","8","7","8","5","6","2","3","7","2","6","1","5","2","1","5","2","7","3","5","4","5","4","2","6","3","5","3","2","2","6","2","7","3","5","6","3","3","3","2","3","1","7","3","3","763753736781959170","周","319","Male","[""坏我"",""好我"",""坏他"",""好他""]","[""弱我"",""强我"",""弱他"",""强他""]","","","","","","","","yes","","","","","","","","","SRET","EW_formal","","key","j","22.48845783132549","758.3333534223067","422.22223340729164","自己","畏难","Negative","ability","","","","","","","","","","",""
"772","","j","psychophysics","24","180622","0.0-7.0-3.0-0.10","6","6","7","6","6","4","1","4","4","4","5","1","1","0","2","-1","1","1","1","5","5","5","5","4","4","5","4","5","5","6","8","6","8","5","6","8","7","8","5","6","2","3","7","2","6","1","5","2","1","5","2","7","3","5","4","5","4","2","6","3","5","3","2","2","6","2","7","3","5","6","3","3","3","2","3","1","7","3","3","763753736781959170","周","319","Male","[""坏我"",""好我"",""坏他"",""好他""]","[""弱我"",""强我"",""弱他"",""强他""]","","","","","","","","yes","","","","","","","","","SRET","EW_formal","","key","j","22.36208860759507","758.3333534223067","422.22223340729164","自己","侠义","Positive","morality","","","","","","","","","","",""
"776","","j","psychophysics","25","182403","0.0-7.0-3.0-0.11","6","6","7","6","6","4","1","4","4","4","5","1","1","0","2","-1","1","1","1","5","5","5","5","4","4","5","4","5","5","6","8","6","8","5","6","8","7","8","5","6","2","3","7","2","6","1","5","2","1","5","2","7","3","5","4","5","4","2","6","3","5","3","2","2","6","2","7","3","5","6","3","3","3","2","3","1","7","3","3","763753736781959170","周","319","Male","[""坏我"",""好我"",""坏他"",""好他""]","[""弱我"",""强我"",""弱他"",""强他""]","","","","","","","","yes","","","","","","","","","SRET","EW_formal","","key","j","24.3041388888887","758.3333534223067","422.22223340729164","朋友","善心","Positive","morality","","","","","","","","","","",""
"732","","j","psychophysics","26","184160","0.0-7.0-3.0-0.12","6","6","7","6","6","4","1","4","4","4","5","1","1","0","2","-1","1","1","1","5","5","5","5","4","4","5","4","5","5","6","8","6","8","5","6","8","7","8","5","6","2","3","7","2","6","1","5","2","1","5","2","7","3","5","4","5","4","2","6","3","5","3","2","2","6","2","7","3","5","6","3","3","3","2","3","1","7","3","3","763753736781959170","周","319","Male","[""坏我"",""好我"",""坏他"",""好他""]","[""弱我"",""强我"",""弱他"",""强他""]","","","","","","","","yes","","","","","","","","","SRET","EW_formal","","key","j","22.220538461538336","758.3333534223067","422.22223340729164","朋友","仁爱","Positive","morality","","","","","","","","","","",""
"1282","","j","psychophysics","27","186457","0.0-7.0-3.0-0.13","6","6","7","6","6","4","1","4","4","4","5","1","1","0","2","-1","1","1","1","5","5","5","5","4","4","5","4","5","5","6","8","6","8","5","6","8","7","8","5","6","2","3","7","2","6","1","5","2","1","5","2","7","3","5","4","5","4","2","6","3","5","3","2","2","6","2","7","3","5","6","3","3","3","2","3","1","7","3","3","763753736781959170","周","319","Male","[""坏我"",""好我"",""坏他"",""好他""]","[""弱我"",""强我"",""弱他"",""强他""]","","","","","","","","yes","","","","","","","","","SRET","EW_formal","","key","j","22.894555555555424","758.3333534223067","422.22223340729164","朋友","有力","Positive","ability","","","","","","","","","","",""
"835","","j","psychophysics","28","188307","0.0-7.0-3.0-0.14","6","6","7","6","6","4","1","4","4","4","5","1","1","0","2","-1","1","1","1","5","5","5","5","4","4","5","4","5","5","6","8","6","8","5","6","8","7","8","5","6","2","3","7","2","6","1","5","2","1","5","2","7","3","5","4","5","4","2","6","3","5","3","2","2","6","2","7","3","5","6","3","3","3","2","3","1","7","3","3","763753736781959170","周","319","Male","[""坏我"",""好我"",""坏他"",""好他""]","[""弱我"",""强我"",""弱他"",""强他""]","","","","","","","","yes","","","","","","","","","SRET","EW_formal","","key","j","22.427543209876468","758.3333534223067","422.22223340729164","朋友","清廉","Positive","morality","","","","","","","","","","",""
"724","","j","psychophysics","29","190072","0.0-7.0-3.0-0.15","6","6","7","6","6","4","1","4","4","4","5","1","1","0","2","-1","1","1","1","5","5","5","5","4","4","5","4","5","5","6","8","6","8","5","6","8","7","8","5","6","2","3","7","2","6","1","5","2","1","5","2","7","3","5","4","5","4","2","6","3","5","3","2","2","6","2","7","3","5","6","3","3","3","2","3","1","7","3","3","763753736781959170","周","319","Male","[""坏我"",""好我"",""坏他"",""好他""]","[""弱我"",""强我"",""弱他"",""强他""]","","","","","","","","yes","","","","","","","","","SRET","EW_formal","","key","j","23.022486842105298","758.3333534223067","422.22223340729164","自己","孝顺","Positive","morality","","","","","","","","","","",""
"733","","j","psychophysics","30","191994","0.0-7.0-3.0-0.16","6","6","7","6","6","4","1","4","4","4","5","1","1","0","2","-1","1","1","1","5","5","5","5","4","4","5","4","5","5","6","8","6","8","5","6","8","7","8","5","6","2","3","7","2","6","1","5","2","1","5","2","7","3","5","4","5","4","2","6","3","5","3","2","2","6","2","7","3","5","6","3","3","3","2","3","1","7","3","3","763753736781959170","周","319","Male","[""坏我"",""好我"",""坏他"",""好他""]","[""弱我"",""强我"",""弱他"",""强他""]","","","","","","","","yes","","","","","","","","","SRET","EW_formal","","key","j","26.02560273972611","758.3333534223067","422.22223340729164","自己","毅力","Positive","ability","","","","","","","","","","",""
"737","","j","psychophysics","31","193754","0.0-7.0-3.0-0.17","6","6","7","6","6","4","1","4","4","4","5","1","1","0","2","-1","1","1","1","5","5","5","5","4","4","5","4","5","5","6","8","6","8","5","6","8","7","8","5","6","2","3","7","2","6","1","5","2","1","5","2","7","3","5","4","5","4","2","6","3","5","3","2","2","6","2","7","3","5","6","3","3","3","2","3","1","7","3","3","763753736781959170","周","319","Male","[""坏我"",""好我"",""坏他"",""好他""]","[""弱我"",""强我"",""弱他"",""强他""]","","","","","","","","yes","","","","","","","","","SRET","EW_formal","","key","j","23.42067567567574","758.3333534223067","422.22223340729164","朋友","自律","Positive","ability","","","","","","","","","","",""
"673","","j","psychophysics","32","195434","0.0-7.0-3.0-0.18","6","6","7","6","6","4","1","4","4","4","5","1","1","0","2","-1","1","1","1","5","5","5","5","4","4","5","4","5","5","6","8","6","8","5","6","8","7","8","5","6","2","3","7","2","6","1","5","2","1","5","2","7","3","5","4","5","4","2","6","3","5","3","2","2","6","2","7","3","5","6","3","3","3","2","3","1","7","3","3","763753736781959170","周","319","Male","[""坏我"",""好我"",""坏他"",""好他""]","[""弱我"",""强我"",""弱他"",""强他""]","","","","","","","","yes","","","","","","","","","SRET","EW_formal","","key","j","23.14712499999991","758.3333534223067","422.22223340729164","朋友","君子","Positive","morality","","","","","","","","","","",""
"555","","j","psychophysics","33","197009","0.0-7.0-3.0-0.19","6","6","7","6","6","4","1","4","4","4","5","1","1","0","2","-1","1","1","1","5","5","5","5","4","4","5","4","5","5","6","8","6","8","5","6","8","7","8","5","6","2","3","7","2","6","1","5","2","1","5","2","7","3","5","4","5","4","2","6","3","5","3","2","2","6","2","7","3","5","6","3","3","3","2","3","1","7","3","3","763753736781959170","周","319","Male","[""坏我"",""好我"",""坏他"",""好他""]","[""弱我"",""强我"",""弱他"",""强他""]","","","","","","","","yes","","","","","","","","","SRET","EW_formal","","key","j","23.483969696969847","758.3333534223067","422.22223340729164","自己","守信","Positive","morality","","","","","","","","","","",""
"1477","","j","psychophysics","34","199494","0.0-7.0-3.0-0.20","6","6","7","6","6","4","1","4","4","4","5","1","1","0","2","-1","1","1","1","5","5","5","5","4","4","5","4","5","5","6","8","6","8","5","6","8","7","8","5","6","2","3","7","2","6","1","5","2","1","5","2","7","3","5","4","5","4","2","6","3","5","3","2","2","6","2","7","3","5","6","3","3","3","2","3","1","7","3","3","763753736781959170","周","319","Male","[""坏我"",""好我"",""坏他"",""好他""]","[""弱我"",""强我"",""弱他"",""强他""]","","","","","","","","yes","","","","","","","","","SRET","EW_formal","","key","j","22.89624299065435","758.3333534223067","422.22223340729164","自己","高明","Positive","ability","","","","","","","","","","",""
"758","","f","psychophysics","35","201279","0.0-7.0-3.0-0.21","6","6","7","6","6","4","1","4","4","4","5","1","1","0","2","-1","1","1","1","5","5","5","5","4","4","5","4","5","5","6","8","6","8","5","6","8","7","8","5","6","2","3","7","2","6","1","5","2","1","5","2","7","3","5","4","5","4","2","6","3","5","3","2","2","6","2","7","3","5","6","3","3","3","2","3","1","7","3","3","763753736781959170","周","319","Male","[""坏我"",""好我"",""坏他"",""好他""]","[""弱我"",""强我"",""弱他"",""强他""]","","","","","","","","no","","","","","","","","","SRET","EW_formal","","key","f","23.97182191780821","758.3333534223067","422.22223340729164","自己","诡诈","Negative","morality","","","","","","","","","","",""
"880","","f","psychophysics","36","203189","0.0-7.0-3.0-0.22","6","6","7","6","6","4","1","4","4","4","5","1","1","0","2","-1","1","1","1","5","5","5","5","4","4","5","4","5","5","6","8","6","8","5","6","8","7","8","5","6","2","3","7","2","6","1","5","2","1","5","2","7","3","5","4","5","4","2","6","3","5","3","2","2","6","2","7","3","5","6","3","3","3","2","3","1","7","3","3","763753736781959170","周","319","Male","[""坏我"",""好我"",""坏他"",""好他""]","[""弱我"",""强我"",""弱他"",""强他""]","","","","","","","","no","","","","","","","","","SRET","EW_formal","","key","f","26.391888888889095","758.3333534223067","422.22223340729164","朋友","缺德","Negative","morality","","","","","","","","","","",""
"866","","j","psychophysics","37","205075","0.0-7.0-3.0-0.23","6","6","7","6","6","4","1","4","4","4","5","1","1","0","2","-1","1","1","1","5","5","5","5","4","4","5","4","5","5","6","8","6","8","5","6","8","7","8","5","6","2","3","7","2","6","1","5","2","1","5","2","7","3","5","4","5","4","2","6","3","5","3","2","2","6","2","7","3","5","6","3","3","3","2","3","1","7","3","3","763753736781959170","周","319","Male","[""坏我"",""好我"",""坏他"",""好他""]","[""弱我"",""强我"",""弱他"",""强他""]","","","","","","","","yes","","","","","","","","","SRET","EW_formal","","key","j","24.99866216216194","758.3333534223067","422.22223340729164","朋友","果断","Positive","ability","","","","","","","","","","",""
"737","","f","psychophysics","38","206841","0.0-7.0-3.0-0.24","6","6","7","6","6","4","1","4","4","4","5","1","1","0","2","-1","1","1","1","5","5","5","5","4","4","5","4","5","5","6","8","6","8","5","6","8","7","8","5","6","2","3","7","2","6","1","5","2","1","5","2","7","3","5","4","5","4","2","6","3","5","3","2","2","6","2","7","3","5","6","3","3","3","2","3","1","7","3","3","763753736781959170","周","319","Male","[""坏我"",""好我"",""坏他"",""好他""]","[""弱我"",""强我"",""弱他"",""强他""]","","","","","","","","no","","","","","","","","","SRET","EW_formal","","key","f","25.119536231884368","758.3333534223067","422.22223340729164","朋友","刻薄","Negative","morality","","","","","","","","","","",""
"1173","","f","psychophysics","39","209032","0.0-7.0-3.0-0.25","6","6","7","6","6","4","1","4","4","4","5","1","1","0","2","-1","1","1","1","5","5","5","5","4","4","5","4","5","5","6","8","6","8","5","6","8","7","8","5","6","2","3","7","2","6","1","5","2","1","5","2","7","3","5","4","5","4","2","6","3","5","3","2","2","6","2","7","3","5","6","3","3","3","2","3","1","7","3","3","763753736781959170","周","319","Male","[""坏我"",""好我"",""坏他"",""好他""]","[""弱我"",""强我"",""弱他"",""强他""]","","","","","","","","no","","","","","","","","","SRET","EW_formal","","key","f","23.807417582417646","758.3333534223067","422.22223340729164","自己","无为","Negative","ability","","","","","","","","","","",""
"811","","f","psychophysics","40","210848","0.0-7.0-3.0-0.26","6","6","7","6","6","4","1","4","4","4","5","1","1","0","2","-1","1","1","1","5","5","5","5","4","4","5","4","5","5","6","8","6","8","5","6","8","7","8","5","6","2","3","7","2","6","1","5","2","1","5","2","7","3","5","4","5","4","2","6","3","5","3","2","2","6","2","7","3","5","6","3","3","3","2","3","1","7","3","3","763753736781959170","周","319","Male","[""坏我"",""好我"",""坏他"",""好他""]","[""弱我"",""强我"",""弱他"",""强他""]","","","","","","","","no","","","","","","","","","SRET","EW_formal","","key","f","23.997600000000094","758.3333534223067","422.22223340729164","朋友","奸诈","Negative","morality","","","","","","","","","","",""
"1347","","j","psychophysics","41","213219","0.0-7.0-3.0-0.27","6","6","7","6","6","4","1","4","4","4","5","1","1","0","2","-1","1","1","1","5","5","5","5","4","4","5","4","5","5","6","8","6","8","5","6","8","7","8","5","6","2","3","7","2","6","1","5","2","1","5","2","7","3","5","4","5","4","2","6","3","5","3","2","2","6","2","7","3","5","6","3","3","3","2","3","1","7","3","3","763753736781959170","周","319","Male","[""坏我"",""好我"",""坏他"",""好他""]","[""弱我"",""强我"",""弱他"",""强他""]","","","","","","","","yes","","","","","","","","","SRET","EW_formal","","key","j","23.567787878787982","758.3333534223067","422.22223340729164","自己","拖拉","Negative","ability","","","","","","","","","","",""
"747","","j","psychophysics","42","214971","0.0-7.0-3.0-0.28","6","6","7","6","6","4","1","4","4","4","5","1","1","0","2","-1","1","1","1","5","5","5","5","4","4","5","4","5","5","6","8","6","8","5","6","8","7","8","5","6","2","3","7","2","6","1","5","2","1","5","2","7","3","5","4","5","4","2","6","3","5","3","2","2","6","2","7","3","5","6","3","3","3","2","3","1","7","3","3","763753736781959170","周","319","Male","[""坏我"",""好我"",""坏他"",""好他""]","[""弱我"",""强我"",""弱他"",""强他""]","","","","","","","","yes","","","","","","","","","SRET","EW_formal","","key","j","23.74372602739748","758.3333534223067","422.22223340729164","朋友","专注","Positive","ability","","","","","","","","","","",""
"778","","j","psychophysics","43","216773","0.0-7.0-3.0-0.29","6","6","7","6","6","4","1","4","4","4","5","1","1","0","2","-1","1","1","1","5","5","5","5","4","4","5","4","5","5","6","8","6","8","5","6","8","7","8","5","6","2","3","7","2","6","1","5","2","1","5","2","7","3","5","4","5","4","2","6","3","5","3","2","2","6","2","7","3","5","6","3","3","3","2","3","1","7","3","3","763753736781959170","周","319","Male","[""坏我"",""好我"",""坏他"",""好他""]","[""弱我"",""强我"",""弱他"",""强他""]","","","","","","","","yes","","","","","","","","","SRET","EW_formal","","key","j","23.77526666666653","758.3333534223067","422.22223340729164","自己","宽容","Positive","morality","","","","","","","","","","",""
"644","","j","psychophysics","44","218428","0.0-7.0-3.0-0.30","6","6","7","6","6","4","1","4","4","4","5","1","1","0","2","-1","1","1","1","5","5","5","5","4","4","5","4","5","5","6","8","6","8","5","6","8","7","8","5","6","2","3","7","2","6","1","5","2","1","5","2","7","3","5","4","5","4","2","6","3","5","3","2","2","6","2","7","3","5","6","3","3","3","2","3","1","7","3","3","763753736781959170","周","319","Male","[""坏我"",""好我"",""坏他"",""好他""]","[""弱我"",""强我"",""弱他"",""强他""]","","","","","","","","yes","","","","","","","","","SRET","EW_formal","","key","j","23.331685714285623","758.3333534223067","422.22223340729164","自己","勤恳","Positive","morality","","","","","","","","","","",""
"812","","f","psychophysics","45","220262","0.0-7.0-3.0-0.31","6","6","7","6","6","4","1","4","4","4","5","1","1","0","2","-1","1","1","1","5","5","5","5","4","4","5","4","5","5","6","8","6","8","5","6","8","7","8","5","6","2","3","7","2","6","1","5","2","1","5","2","7","3","5","4","5","4","2","6","3","5","3","2","2","6","2","7","3","5","6","3","3","3","2","3","1","7","3","3","763753736781959170","周","319","Male","[""坏我"",""好我"",""坏他"",""好他""]","[""弱我"",""强我"",""弱他"",""强他""]","","","","","","","","no","","","","","","","","","SRET","EW_formal","","key","f","23.289897435897355","758.3333534223067","422.22223340729164","朋友","独断","Negative","ability","","","","","","","","","","",""
"806","","f","psychophysics","46","222105","0.0-7.0-3.0-0.32","6","6","7","6","6","4","1","4","4","4","5","1","1","0","2","-1","1","1","1","5","5","5","5","4","4","5","4","5","5","6","8","6","8","5","6","8","7","8","5","6","2","3","7","2","6","1","5","2","1","5","2","7","3","5","4","5","4","2","6","3","5","3","2","2","6","2","7","3","5","6","3","3","3","2","3","1","7","3","3","763753736781959170","周","319","Male","[""坏我"",""好我"",""坏他"",""好他""]","[""弱我"",""强我"",""弱他"",""强他""]","","","","","","","","no","","","","","","","","","SRET","EW_formal","","key","f","23.902249999999952","758.3333534223067","422.22223340729164","朋友","不孝","Negative","morality","","","","","","","","","","",""
"1513","","f","psychophysics","47","224626","0.0-7.0-3.0-0.33","6","6","7","6","6","4","1","4","4","4","5","1","1","0","2","-1","1","1","1","5","5","5","5","4","4","5","4","5","5","6","8","6","8","5","6","8","7","8","5","6","2","3","7","2","6","1","5","2","1","5","2","7","3","5","4","5","4","2","6","3","5","3","2","2","6","2","7","3","5","6","3","3","3","2","3","1","7","3","3","763753736781959170","周","319","Male","[""坏我"",""好我"",""坏他"",""好他""]","[""弱我"",""强我"",""弱他"",""强他""]","","","","","","","","no","","","","","","","","","SRET","EW_formal","","key","f","23.87680769230792","758.3333534223067","422.22223340729164","自己","干练","Positive","ability","","","","","","","","","","",""
"897","","f","psychophysics","48","226546","0.0-7.0-3.0-0.34","6","6","7","6","6","4","1","4","4","4","5","1","1","0","2","-1","1","1","1","5","5","5","5","4","4","5","4","5","5","6","8","6","8","5","6","8","7","8","5","6","2","3","7","2","6","1","5","2","1","5","2","7","3","5","4","5","4","2","6","3","5","3","2","2","6","2","7","3","5","6","3","3","3","2","3","1","7","3","3","763753736781959170","周","319","Male","[""坏我"",""好我"",""坏他"",""好他""]","[""弱我"",""强我"",""弱他"",""强他""]","","","","","","","","no","","","","","","","","","SRET","EW_formal","","key","f","24.04882278480999","758.3333534223067","422.22223340729164","自己","混账","Negative","morality","","","","","","","","","","",""
"751","","j","psychophysics","49","228303","0.0-7.0-3.0-0.35","6","6","7","6","6","4","1","4","4","4","5","1","1","0","2","-1","1","1","1","5","5","5","5","4","4","5","4","5","5","6","8","6","8","5","6","8","7","8","5","6","2","3","7","2","6","1","5","2","1","5","2","7","3","5","4","5","4","2","6","3","5","3","2","2","6","2","7","3","5","6","3","3","3","2","3","1","7","3","3","763753736781959170","周","319","Male","[""坏我"",""好我"",""坏他"",""好他""]","[""弱我"",""强我"",""弱他"",""强他""]","","","","","","","","yes","","","","","","","","","SRET","EW_formal","","key","j","23.42137837837839","758.3333534223067","422.22223340729164","朋友","谦逊","Positive","morality","","","","","","","","","","",""
"908","","f","psychophysics","50","230222","0.0-7.0-3.0-0.36","6","6","7","6","6","4","1","4","4","4","5","1","1","0","2","-1","1","1","1","5","5","5","5","4","4","5","4","5","5","6","8","6","8","5","6","8","7","8","5","6","2","3","7","2","6","1","5","2","1","5","2","7","3","5","4","5","4","2","6","3","5","3","2","2","6","2","7","3","5","6","3","3","3","2","3","1","7","3","3","763753736781959170","周","319","Male","[""坏我"",""好我"",""坏他"",""好他""]","[""弱我"",""强我"",""弱他"",""强他""]","","","","","","","","no","","","","","","","","","SRET","EW_formal","","key","f","23.169548780488054","758.3333534223067","422.22223340729164","朋友","阴毒","Negative","morality","","","","","","","","","","",""
"644","","j","psychophysics","51","231890","0.0-7.0-3.0-0.37","6","6","7","6","6","4","1","4","4","4","5","1","1","0","2","-1","1","1","1","5","5","5","5","4","4","5","4","5","5","6","8","6","8","5","6","8","7","8","5","6","2","3","7","2","6","1","5","2","1","5","2","7","3","5","4","5","4","2","6","3","5","3","2","2","6","2","7","3","5","6","3","3","3","2","3","1","7","3","3","763753736781959170","周","319","Male","[""坏我"",""好我"",""坏他"",""好他""]","[""弱我"",""强我"",""弱他"",""强他""]","","","","","","","","yes","","","","","","","","","SRET","EW_formal","","key","j","23.911376811594337","758.3333534223067","422.22223340729164","自己","高尚","Positive","morality","","","","","","","","","","",""
"697","","f","psychophysics","52","233610","0.0-7.0-3.0-0.38","6","6","7","6","6","4","1","4","4","4","5","1","1","0","2","-1","1","1","1","5","5","5","5","4","4","5","4","5","5","6","8","6","8","5","6","8","7","8","5","6","2","3","7","2","6","1","5","2","1","5","2","7","3","5","4","5","4","2","6","3","5","3","2","2","6","2","7","3","5","6","3","3","3","2","3","1","7","3","3","763753736781959170","周","319","Male","[""坏我"",""好我"",""坏他"",""好他""]","[""弱我"",""强我"",""弱他"",""强他""]","","","","","","","","no","","","","","","","","","SRET","EW_formal","","key","f","24.284728571428733","758.3333534223067","422.22223340729164","朋友","虚假","Negative","morality","","","","","","","","","","",""
"1245","","f","psychophysics","53","235871","0.0-7.0-3.0-0.39","6","6","7","6","6","4","1","4","4","4","5","1","1","0","2","-1","1","1","1","5","5","5","5","4","4","5","4","5","5","6","8","6","8","5","6","8","7","8","5","6","2","3","7","2","6","1","5","2","1","5","2","7","3","5","4","5","4","2","6","3","5","3","2","2","6","2","7","3","5","6","3","3","3","2","3","1","7","3","3","763753736781959170","周","319","Male","[""坏我"",""好我"",""坏他"",""好他""]","[""弱我"",""强我"",""弱他"",""强他""]","","","","","","","","no","","","","","","","","","SRET","EW_formal","","key","f","23.022948453608198","758.3333534223067","422.22223340729164","自己","短浅","Negative","ability","","","","","","","","","","",""
"719","","f","psychophysics","54","237611","0.0-7.0-3.0-0.40","6","6","7","6","6","4","1","4","4","4","5","1","1","0","2","-1","1","1","1","5","5","5","5","4","4","5","4","5","5","6","8","6","8","5","6","8","7","8","5","6","2","3","7","2","6","1","5","2","1","5","2","7","3","5","4","5","4","2","6","3","5","3","2","2","6","2","7","3","5","6","3","3","3","2","3","1","7","3","3","763753736781959170","周","319","Male","[""坏我"",""好我"",""坏他"",""好他""]","[""弱我"",""强我"",""弱他"",""强他""]","","","","","","","","no","","","","","","","","","SRET","EW_formal","","key","f","23.514547945205553","758.3333534223067","422.22223340729164","朋友","窝囊","Negative","ability","","","","","","","","","","",""
"977","","f","psychophysics","55","239608","0.0-7.0-3.0-0.41","6","6","7","6","6","4","1","4","4","4","5","1","1","0","2","-1","1","1","1","5","5","5","5","4","4","5","4","5","5","6","8","6","8","5","6","8","7","8","5","6","2","3","7","2","6","1","5","2","1","5","2","7","3","5","4","5","4","2","6","3","5","3","2","2","6","2","7","3","5","6","3","3","3","2","3","1","7","3","3","763753736781959170","周","319","Male","[""坏我"",""好我"",""坏他"",""好他""]","[""弱我"",""强我"",""弱他"",""强他""]","","","","","","","","no","","","","","","","","","SRET","EW_formal","","key","f","23.137941176470314","758.3333534223067","422.22223340729164","朋友","拙笨","Negative","ability","","","","","","","","","","",""
"813","","f","psychophysics","56","241436","0.0-7.0-3.0-0.42","6","6","7","6","6","4","1","4","4","4","5","1","1","0","2","-1","1","1","1","5","5","5","5","4","4","5","4","5","5","6","8","6","8","5","6","8","7","8","5","6","2","3","7","2","6","1","5","2","1","5","2","7","3","5","4","5","4","2","6","3","5","3","2","2","6","2","7","3","5","6","3","3","3","2","3","1","7","3","3","763753736781959170","周","319","Male","[""坏我"",""好我"",""坏他"",""好他""]","[""弱我"",""强我"",""弱他"",""强他""]","","","","","","","","no","","","","","","","","","SRET","EW_formal","","key","f","24.22009333333311","758.3333534223067","422.22223340729164","朋友","邪恶","Negative","morality","","","","","","","","","","",""
"894","","j","psychophysics","57","243347","0.0-7.0-3.0-0.43","6","6","7","6","6","4","1","4","4","4","5","1","1","0","2","-1","1","1","1","5","5","5","5","4","4","5","4","5","5","6","8","6","8","5","6","8","7","8","5","6","2","3","7","2","6","1","5","2","1","5","2","7","3","5","4","5","4","2","6","3","5","3","2","2","6","2","7","3","5","6","3","3","3","2","3","1","7","3","3","763753736781959170","周","319","Male","[""坏我"",""好我"",""坏他"",""好他""]","[""弱我"",""强我"",""弱他"",""强他""]","","","","","","","","yes","","","","","","","","","SRET","EW_formal","","key","j","23.837810126582347","758.3333534223067","422.22223340729164","朋友","忠良","Positive","morality","","","","","","","","","","",""
"854","","j","psychophysics","58","245217","0.0-7.0-3.0-0.44","6","6","7","6","6","4","1","4","4","4","5","1","1","0","2","-1","1","1","1","5","5","5","5","4","4","5","4","5","5","6","8","6","8","5","6","8","7","8","5","6","2","3","7","2","6","1","5","2","1","5","2","7","3","5","4","5","4","2","6","3","5","3","2","2","6","2","7","3","5","6","3","3","3","2","3","1","7","3","3","763753736781959170","周","319","Male","[""坏我"",""好我"",""坏他"",""好他""]","[""弱我"",""强我"",""弱他"",""强他""]","","","","","","","","yes","","","","","","","","","SRET","EW_formal","","key","j","23.123387499999808","758.3333534223067","422.22223340729164","朋友","娴熟","Positive","ability","","","","","","","","","","",""
"586","","j","psychophysics","59","246815","0.0-7.0-3.0-0.45","6","6","7","6","6","4","1","4","4","4","5","1","1","0","2","-1","1","1","1","5","5","5","5","4","4","5","4","5","5","6","8","6","8","5","6","8","7","8","5","6","2","3","7","2","6","1","5","2","1","5","2","7","3","5","4","5","4","2","6","3","5","3","2","2","6","2","7","3","5","6","3","3","3","2","3","1","7","3","3","763753736781959170","周","319","Male","[""坏我"",""好我"",""坏他"",""好他""]","[""弱我"",""强我"",""弱他"",""强他""]","","","","","","","","yes","","","","","","","","","SRET","EW_formal","","key","j","23.986863636363662","758.3333534223067","422.22223340729164","朋友","文明","Positive","morality","","","","","","","","","","",""
"693","","j","psychophysics","60","248518","0.0-7.0-3.0-0.46","6","6","7","6","6","4","1","4","4","4","5","1","1","0","2","-1","1","1","1","5","5","5","5","4","4","5","4","5","5","6","8","6","8","5","6","8","7","8","5","6","2","3","7","2","6","1","5","2","1","5","2","7","3","5","4","5","4","2","6","3","5","3","2","2","6","2","7","3","5","6","3","3","3","2","3","1","7","3","3","763753736781959170","周","319","Male","[""坏我"",""好我"",""坏他"",""好他""]","[""弱我"",""强我"",""弱他"",""强他""]","","","","","","","","yes","","","","","","","","","SRET","EW_formal","","key","j","23.37679166666688","758.3333534223067","422.22223340729164","自己","慷慨","Positive","morality","","","","","","","","","","",""
"1232","","f","psychophysics","61","250775","0.0-7.0-3.0-0.47","6","6","7","6","6","4","1","4","4","4","5","1","1","0","2","-1","1","1","1","5","5","5","5","4","4","5","4","5","5","6","8","6","8","5","6","8","7","8","5","6","2","3","7","2","6","1","5","2","1","5","2","7","3","5","4","5","4","2","6","3","5","3","2","2","6","2","7","3","5","6","3","3","3","2","3","1","7","3","3","763753736781959170","周","319","Male","[""坏我"",""好我"",""坏他"",""好他""]","[""弱我"",""强我"",""弱他"",""强他""]","","","","","","","","no","","","","","","","","","SRET","EW_formal","","key","f","23.088020833333456","758.3333534223067","422.22223340729164","朋友","差生","Negative","ability","","","","","","","","","","",""
"795","","j","psychophysics","62","252588","0.0-7.0-3.0-0.48","6","6","7","6","6","4","1","4","4","4","5","1","1","0","2","-1","1","1","1","5","5","5","5","4","4","5","4","5","5","6","8","6","8","5","6","8","7","8","5","6","2","3","7","2","6","1","5","2","1","5","2","7","3","5","4","5","4","2","6","3","5","3","2","2","6","2","7","3","5","6","3","3","3","2","3","1","7","3","3","763753736781959170","周","319","Male","[""坏我"",""好我"",""坏他"",""好他""]","[""弱我"",""强我"",""弱他"",""强他""]","","","","","","","","yes","","","","","","","","","SRET","EW_formal","","key","j","23.158727272727386","758.3333534223067","422.22223340729164","朋友","精干","Positive","ability","","","","","","","","","","",""
"1051","","j","psychophysics","63","254643","0.0-7.0-3.0-0.49","6","6","7","6","6","4","1","4","4","4","5","1","1","0","2","-1","1","1","1","5","5","5","5","4","4","5","4","5","5","6","8","6","8","5","6","8","7","8","5","6","2","3","7","2","6","1","5","2","1","5","2","7","3","5","4","5","4","2","6","3","5","3","2","2","6","2","7","3","5","6","3","3","3","2","3","1","7","3","3","763753736781959170","周","319","Male","[""坏我"",""好我"",""坏他"",""好他""]","[""弱我"",""强我"",""弱他"",""强他""]","","","","","","","","yes","","","","","","","","","SRET","EW_formal","","key","j","23.92065882352968","758.3333534223067","422.22223340729164","自己","拖延","Negative","ability","","","","","","","","","","",""
"771","","j","psychophysics","64","256424","0.0-7.0-3.0-0.50","6","6","7","6","6","4","1","4","4","4","5","1","1","0","2","-1","1","1","1","5","5","5","5","4","4","5","4","5","5","6","8","6","8","5","6","8","7","8","5","6","2","3","7","2","6","1","5","2","1","5","2","7","3","5","4","5","4","2","6","3","5","3","2","2","6","2","7","3","5","6","3","3","3","2","3","1","7","3","3","763753736781959170","周","319","Male","[""坏我"",""好我"",""坏他"",""好他""]","[""弱我"",""强我"",""弱他"",""强他""]","","","","","","","","yes","","","","","","","","","SRET","EW_formal","","key","j","23.553773333333666","758.3333534223067","422.22223340729164","自己","独立","Positive","ability","","","","","","","","","","",""
"null","","null","psychophysics","65","259454","0.0-7.0-3.0-0.51","6","6","7","6","6","4","1","4","4","4","5","1","1","0","2","-1","1","1","1","5","5","5","5","4","4","5","4","5","5","6","8","6","8","5","6","8","7","8","5","6","2","3","7","2","6","1","5","2","1","5","2","7","3","5","4","5","4","2","6","3","5","3","2","2","6","2","7","3","5","6","3","3","3","2","3","1","7","3","3","763753736781959170","周","319","Male","[""坏我"",""好我"",""坏他"",""好他""]","[""弱我"",""强我"",""弱他"",""强他""]","","","","","","","","","","","","","","","","","SRET","EW_formal","","key","null","22.899","758.3333534223067","422.22223340729164","朋友","业余","Negative","ability","","","","","","","","","","",""
"679","","j","psychophysics","66","261162","0.0-7.0-3.0-0.52","6","6","7","6","6","4","1","4","4","4","5","1","1","0","2","-1","1","1","1","5","5","5","5","4","4","5","4","5","5","6","8","6","8","5","6","8","7","8","5","6","2","3","7","2","6","1","5","2","1","5","2","7","3","5","4","5","4","2","6","3","5","3","2","2","6","2","7","3","5","6","3","3","3","2","3","1","7","3","3","763753736781959170","周","319","Male","[""坏我"",""好我"",""坏他"",""好他""]","[""弱我"",""强我"",""弱他"",""强他""]","","","","","","","","yes","","","","","","","","","SRET","EW_formal","","key","j","22.827726027397247","758.3333534223067","422.22223340729164","自己","变通","Positive","ability","","","","","","","","","","",""
"942","","f","psychophysics","67","263123","0.0-7.0-3.0-0.53","6","6","7","6","6","4","1","4","4","4","5","1","1","0","2","-1","1","1","1","5","5","5","5","4","4","5","4","5","5","6","8","6","8","5","6","8","7","8","5","6","2","3","7","2","6","1","5","2","1","5","2","7","3","5","4","5","4","2","6","3","5","3","2","2","6","2","7","3","5","6","3","3","3","2","3","1","7","3","3","763753736781959170","周","319","Male","[""坏我"",""好我"",""坏他"",""好他""]","[""弱我"",""强我"",""弱他"",""强他""]","","","","","","","","no","","","","","","","","","SRET","EW_formal","","key","f","23.575134146341732","758.3333534223067","422.22223340729164","自己","迂拙","Negative","ability","","","","","","","","","","",""
"589","","j","psychophysics","68","264724","0.0-7.0-3.0-0.54","6","6","7","6","6","4","1","4","4","4","5","1","1","0","2","-1","1","1","1","5","5","5","5","4","4","5","4","5","5","6","8","6","8","5","6","8","7","8","5","6","2","3","7","2","6","1","5","2","1","5","2","7","3","5","4","5","4","2","6","3","5","3","2","2","6","2","7","3","5","6","3","3","3","2","3","1","7","3","3","763753736781959170","周","319","Male","[""坏我"",""好我"",""坏他"",""好他""]","[""弱我"",""强我"",""弱他"",""强他""]","","","","","","","","yes","","","","","","","","","SRET","EW_formal","","key","j","23.98884848484886","758.3333534223067","422.22223340729164","朋友","勤奋","Positive","ability","","","","","","","","","","",""
"916","","f","psychophysics","69","266645","0.0-7.0-3.0-0.55","6","6","7","6","6","4","1","4","4","4","5","1","1","0","2","-1","1","1","1","5","5","5","5","4","4","5","4","5","5","6","8","6","8","5","6","8","7","8","5","6","2","3","7","2","6","1","5","2","1","5","2","7","3","5","4","5","4","2","6","3","5","3","2","2","6","2","7","3","5","6","3","3","3","2","3","1","7","3","3","763753736781959170","周","319","Male","[""坏我"",""好我"",""坏他"",""好他""]","[""弱我"",""强我"",""弱他"",""强他""]","","","","","","","","no","","","","","","","","","SRET","EW_formal","","key","f","23.453703703703702","758.3333534223067","422.22223340729164","自己","不良","Negative","morality","","","","","","","","","","",""
"835","","f","psychophysics","70","268487","0.0-7.0-3.0-0.56","6","6","7","6","6","4","1","4","4","4","5","1","1","0","2","-1","1","1","1","5","5","5","5","4","4","5","4","5","5","6","8","6","8","5","6","8","7","8","5","6","2","3","7","2","6","1","5","2","1","5","2","7","3","5","4","5","4","2","6","3","5","3","2","2","6","2","7","3","5","6","3","3","3","2","3","1","7","3","3","763753736781959170","周","319","Male","[""坏我"",""好我"",""坏他"",""好他""]","[""弱我"",""强我"",""弱他"",""强他""]","","","","","","","","no","","","","","","","","","SRET","EW_formal","","key","f","24.548540540540596","758.3333534223067","422.22223340729164","自己","蛇蝎","Negative","morality","","","","","","","","","","",""
"627","","j","psychophysics","71","270137","0.0-7.0-3.0-0.57","6","6","7","6","6","4","1","4","4","4","5","1","1","0","2","-1","1","1","1","5","5","5","5","4","4","5","4","5","5","6","8","6","8","5","6","8","7","8","5","6","2","3","7","2","6","1","5","2","1","5","2","7","3","5","4","5","4","2","6","3","5","3","2","2","6","2","7","3","5","6","3","3","3","2","3","1","7","3","3","763753736781959170","周","319","Male","[""坏我"",""好我"",""坏他"",""好他""]","[""弱我"",""强我"",""弱他"",""强他""]","","","","","","","","yes","","","","","","","","","SRET","EW_formal","","key","j","22.766971830986144","758.3333534223067","422.22223340729164","朋友","聪明","Positive","ability","","","","","","","","","","",""
"769","","f","psychophysics","72","271934","0.0-7.0-3.0-0.58","6","6","7","6","6","4","1","4","4","4","5","1","1","0","2","-1","1","1","1","5","5","5","5","4","4","5","4","5","5","6","8","6","8","5","6","8","7","8","5","6","2","3","7","2","6","1","5","2","1","5","2","7","3","5","4","5","4","2","6","3","5","3","2","2","6","2","7","3","5","6","3","3","3","2","3","1","7","3","3","763753736781959170","周","319","Male","[""坏我"",""好我"",""坏他"",""好他""]","[""弱我"",""强我"",""弱他"",""强他""]","","","","","","","","no","","","","","","","","","SRET","EW_formal","","key","f","23.552666666666823","758.3333534223067","422.22223340729164","朋友","愚痴","Negative","ability","","","","","","","","","","",""
"773","","f","psychophysics","73","273720","0.0-7.0-3.0-0.59","6","6","7","6","6","4","1","4","4","4","5","1","1","0","2","-1","1","1","1","5","5","5","5","4","4","5","4","5","5","6","8","6","8","5","6","8","7","8","5","6","2","3","7","2","6","1","5","2","1","5","2","7","3","5","4","5","4","2","6","3","5","3","2","2","6","2","7","3","5","6","3","3","3","2","3","1","7","3","3","763753736781959170","周","319","Male","[""坏我"",""好我"",""坏他"",""好他""]","[""弱我"",""强我"",""弱他"",""强他""]","","","","","","","","no","","","","","","","","","SRET","EW_formal","","key","f","23.24271052631574","758.3333534223067","422.22223340729164","自己","虚伪","Negative","morality","","","","","","","","","","",""
"735","","j","psychophysics","74","275463","0.0-7.0-3.0-0.60","6","6","7","6","6","4","1","4","4","4","5","1","1","0","2","-1","1","1","1","5","5","5","5","4","4","5","4","5","5","6","8","6","8","5","6","8","7","8","5","6","2","3","7","2","6","1","5","2","1","5","2","7","3","5","4","5","4","2","6","3","5","3","2","2","6","2","7","3","5","6","3","3","3","2","3","1","7","3","3","763753736781959170","周","319","Male","[""坏我"",""好我"",""坏他"",""好他""]","[""弱我"",""强我"",""弱他"",""强他""]","","","","","","","","yes","","","","","","","","","SRET","EW_formal","","key","j","22.885840000000318","758.3333534223067","422.22223340729164","自己","廉明","Positive","morality","","","","","","","","","","",""
"716","","f","psychophysics","75","277196","0.0-7.0-3.0-0.61","6","6","7","6","6","4","1","4","4","4","5","1","1","0","2","-1","1","1","1","5","5","5","5","4","4","5","4","5","5","6","8","6","8","5","6","8","7","8","5","6","2","3","7","2","6","1","5","2","1","5","2","7","3","5","4","5","4","2","6","3","5","3","2","2","6","2","7","3","5","6","3","3","3","2","3","1","7","3","3","763753736781959170","周","319","Male","[""坏我"",""好我"",""坏他"",""好他""]","[""弱我"",""强我"",""弱他"",""强他""]","","","","","","","","no","","","","","","","","","SRET","EW_formal","","key","f","22.889226666666413","758.3333534223067","422.22223340729164","自己","下流","Negative","morality","","","","","","","","","","",""
"601","","j","psychophysics","76","278818","0.0-7.0-3.0-0.62","6","6","7","6","6","4","1","4","4","4","5","1","1","0","2","-1","1","1","1","5","5","5","5","4","4","5","4","5","5","6","8","6","8","5","6","8","7","8","5","6","2","3","7","2","6","1","5","2","1","5","2","7","3","5","4","5","4","2","6","3","5","3","2","2","6","2","7","3","5","6","3","3","3","2","3","1","7","3","3","763753736781959170","周","319","Male","[""坏我"",""好我"",""坏他"",""好他""]","[""弱我"",""强我"",""弱他"",""强他""]","","","","","","","","yes","","","","","","","","","SRET","EW_formal","","key","j","22.21990277777756","758.3333534223067","422.22223340729164","自己","刚正","Positive","morality","","","","","","","","","","",""
"683","","j","psychophysics","77","280521","0.0-7.0-3.0-0.63","6","6","7","6","6","4","1","4","4","4","5","1","1","0","2","-1","1","1","1","5","5","5","5","4","4","5","4","5","5","6","8","6","8","5","6","8","7","8","5","6","2","3","7","2","6","1","5","2","1","5","2","7","3","5","4","5","4","2","6","3","5","3","2","2","6","2","7","3","5","6","3","3","3","2","3","1","7","3","3","763753736781959170","周","319","Male","[""坏我"",""好我"",""坏他"",""好他""]","[""弱我"",""强我"",""弱他"",""强他""]","","","","","","","","yes","","","","","","","","","SRET","EW_formal","","key","j","22.518851351351604","758.3333534223067","422.22223340729164","朋友","敬业","Positive","morality","","","","","","","","","","",""
"738","","f","psychophysics","78","282272","0.0-7.0-3.0-0.64","6","6","7","6","6","4","1","4","4","4","5","1","1","0","2","-1","1","1","1","5","5","5","5","4","4","5","4","5","5","6","8","6","8","5","6","8","7","8","5","6","2","3","7","2","6","1","5","2","1","5","2","7","3","5","4","5","4","2","6","3","5","3","2","2","6","2","7","3","5","6","3","3","3","2","3","1","7","3","3","763753736781959170","周","319","Male","[""坏我"",""好我"",""坏他"",""好他""]","[""弱我"",""强我"",""弱他"",""强他""]","","","","","","","","no","","","","","","","","","SRET","EW_formal","","key","f","23.10906666666735","758.3333534223067","422.22223340729164","自己","毛糙","Negative","ability","","","","","","","","","","",""
"577","","j","psychophysics","79","283873","0.0-7.0-3.0-0.65","6","6","7","6","6","4","1","4","4","4","5","1","1","0","2","-1","1","1","1","5","5","5","5","4","4","5","4","5","5","6","8","6","8","5","6","8","7","8","5","6","2","3","7","2","6","1","5","2","1","5","2","7","3","5","4","5","4","2","6","3","5","3","2","2","6","2","7","3","5","6","3","3","3","2","3","1","7","3","3","763753736781959170","周","319","Male","[""坏我"",""好我"",""坏他"",""好他""]","[""弱我"",""强我"",""弱他"",""强他""]","","","","","","","","yes","","","","","","","","","SRET","EW_formal","","key","j","23.28258823529348","758.3333534223067","422.22223340729164","自己","高效","Positive","ability","","","","","","","","","","",""
"692","","f","psychophysics","80","285572","0.0-7.0-3.0-0.66","6","6","7","6","6","4","1","4","4","4","5","1","1","0","2","-1","1","1","1","5","5","5","5","4","4","5","4","5","5","6","8","6","8","5","6","8","7","8","5","6","2","3","7","2","6","1","5","2","1","5","2","7","3","5","4","5","4","2","6","3","5","3","2","2","6","2","7","3","5","6","3","3","3","2","3","1","7","3","3","763753736781959170","周","319","Male","[""坏我"",""好我"",""坏他"",""好他""]","[""弱我"",""强我"",""弱他"",""强他""]","","","","","","","","no","","","","","","","","","SRET","EW_formal","","key","f","22.830452054794016","758.3333534223067","422.22223340729164","朋友","偏私","Negative","morality","","","","","","","","","","",""
"699","","f","psychophysics","81","287299","0.0-7.0-3.0-0.67","6","6","7","6","6","4","1","4","4","4","5","1","1","0","2","-1","1","1","1","5","5","5","5","4","4","5","4","5","5","6","8","6","8","5","6","8","7","8","5","6","2","3","7","2","6","1","5","2","1","5","2","7","3","5","4","5","4","2","6","3","5","3","2","2","6","2","7","3","5","6","3","3","3","2","3","1","7","3","3","763753736781959170","周","319","Male","[""坏我"",""好我"",""坏他"",""好他""]","[""弱我"",""强我"",""弱他"",""强他""]","","","","","","","","no","","","","","","","","","SRET","EW_formal","","key","f","23.60944444444451","758.3333534223067","422.22223340729164","朋友","恶劣","Negative","morality","","","","","","","","","","",""
"1047","","f","psychophysics","82","289360","0.0-7.0-3.0-0.68","6","6","7","6","6","4","1","4","4","4","5","1","1","0","2","-1","1","1","1","5","5","5","5","4","4","5","4","5","5","6","8","6","8","5","6","8","7","8","5","6","2","3","7","2","6","1","5","2","1","5","2","7","3","5","4","5","4","2","6","3","5","3","2","2","6","2","7","3","5","6","3","3","3","2","3","1","7","3","3","763753736781959170","周","319","Male","[""坏我"",""好我"",""坏他"",""好他""]","[""弱我"",""强我"",""弱他"",""强他""]","","","","","","","","no","","","","","","","","","SRET","EW_formal","","key","f","23.836581395348794","758.3333534223067","422.22223340729164","自己","罪恶","Negative","morality","","","","","","","","","","",""
"1199","","f","psychophysics","83","291575","0.0-7.0-3.0-0.69","6","6","7","6","6","4","1","4","4","4","5","1","1","0","2","-1","1","1","1","5","5","5","5","4","4","5","4","5","5","6","8","6","8","5","6","8","7","8","5","6","2","3","7","2","6","1","5","2","1","5","2","7","3","5","4","5","4","2","6","3","5","3","2","2","6","2","7","3","5","6","3","3","3","2","3","1","7","3","3","763753736781959170","周","319","Male","[""坏我"",""好我"",""坏他"",""好他""]","[""弱我"",""强我"",""弱他"",""强他""]","","","","","","","","no","","","","","","","","","SRET","EW_formal","","key","f","24.1725274725276","758.3333534223067","422.22223340729164","自己","果决","Positive","ability","","","","","","","","","","",""
"1129","","f","psychophysics","84","293734","0.0-7.0-3.0-0.70","6","6","7","6","6","4","1","4","4","4","5","1","1","0","2","-1","1","1","1","5","5","5","5","4","4","5","4","5","5","6","8","6","8","5","6","8","7","8","5","6","2","3","7","2","6","1","5","2","1","5","2","7","3","5","4","5","4","2","6","3","5","3","2","2","6","2","7","3","5","6","3","3","3","2","3","1","7","3","3","763753736781959170","周","319","Male","[""坏我"",""好我"",""坏他"",""好他""]","[""弱我"",""强我"",""弱他"",""强他""]","","","","","","","","no","","","","","","","","","SRET","EW_formal","","key","f","23.18793478260847","758.3333534223067","422.22223340729164","自己","才尽","Negative","ability","","","","","","","","","","",""
"742","","j","psychophysics","85","295488","0.0-7.0-3.0-0.71","6","6","7","6","6","4","1","4","4","4","5","1","1","0","2","-1","1","1","1","5","5","5","5","4","4","5","4","5","5","6","8","6","8","5","6","8","7","8","5","6","2","3","7","2","6","1","5","2","1","5","2","7","3","5","4","5","4","2","6","3","5","3","2","2","6","2","7","3","5","6","3","3","3","2","3","1","7","3","3","763753736781959170","周","319","Male","[""坏我"",""好我"",""坏他"",""好他""]","[""弱我"",""强我"",""弱他"",""强他""]","","","","","","","","yes","","","","","","","","","SRET","EW_formal","","key","j","23.84201388888889","758.3333534223067","422.22223340729164","朋友","诚信","Positive","morality","","","","","","","","","","",""
"886","","j","psychophysics","86","297399","0.0-7.0-3.0-0.72","6","6","7","6","6","4","1","4","4","4","5","1","1","0","2","-1","1","1","1","5","5","5","5","4","4","5","4","5","5","6","8","6","8","5","6","8","7","8","5","6","2","3","7","2","6","1","5","2","1","5","2","7","3","5","4","5","4","2","6","3","5","3","2","2","6","2","7","3","5","6","3","3","3","2","3","1","7","3","3","763753736781959170","周","319","Male","[""坏我"",""好我"",""坏他"",""好他""]","[""弱我"",""强我"",""弱他"",""强他""]","","","","","","","","yes","","","","","","","","","SRET","EW_formal","","key","j","23.540462499999556","758.3333534223067","422.22223340729164","自己","全才","Positive","ability","","","","","","","","","","",""
"649","","j","psychophysics","87","299069","0.0-7.0-3.0-0.73","6","6","7","6","6","4","1","4","4","4","5","1","1","0","2","-1","1","1","1","5","5","5","5","4","4","5","4","5","5","6","8","6","8","5","6","8","7","8","5","6","2","3","7","2","6","1","5","2","1","5","2","7","3","5","4","5","4","2","6","3","5","3","2","2","6","2","7","3","5","6","3","3","3","2","3","1","7","3","3","763753736781959170","周","319","Male","[""坏我"",""好我"",""坏他"",""好他""]","[""弱我"",""强我"",""弱他"",""强他""]","","","","","","","","yes","","","","","","","","","SRET","EW_formal","","key","j","22.914152777777215","758.3333534223067","422.22223340729164","自己","上进","Positive","ability","","","","","","","","","","",""
"1049","","f","psychophysics","88","301135","0.0-7.0-3.0-0.74","6","6","7","6","6","4","1","4","4","4","5","1","1","0","2","-1","1","1","1","5","5","5","5","4","4","5","4","5","5","6","8","6","8","5","6","8","7","8","5","6","2","3","7","2","6","1","5","2","1","5","2","7","3","5","4","5","4","2","6","3","5","3","2","2","6","2","7","3","5","6","3","3","3","2","3","1","7","3","3","763753736781959170","周","319","Male","[""坏我"",""好我"",""坏他"",""好他""]","[""弱我"",""强我"",""弱他"",""强他""]","","","","","","","","no","","","","","","","","","SRET","EW_formal","","key","f","22.59078888888859","758.3333534223067","422.22223340729164","自己","迟钝","Negative","ability","","","","","","","","","","",""
"755","","f","psychophysics","89","302908","0.0-7.0-3.0-0.75","6","6","7","6","6","4","1","4","4","4","5","1","1","0","2","-1","1","1","1","5","5","5","5","4","4","5","4","5","5","6","8","6","8","5","6","8","7","8","5","6","2","3","7","2","6","1","5","2","1","5","2","7","3","5","4","5","4","2","6","3","5","3","2","2","6","2","7","3","5","6","3","3","3","2","3","1","7","3","3","763753736781959170","周","319","Male","[""坏我"",""好我"",""坏他"",""好他""]","[""弱我"",""强我"",""弱他"",""强他""]","","","","","","","","no","","","","","","","","","SRET","EW_formal","","key","f","23.0249210526312","758.3333534223067","422.22223340729164","自己","小人","Negative","morality","","","","","","","","","","",""
"860","","f","psychophysics","90","304777","0.0-7.0-3.0-0.76","6","6","7","6","6","4","1","4","4","4","5","1","1","0","2","-1","1","1","1","5","5","5","5","4","4","5","4","5","5","6","8","6","8","5","6","8","7","8","5","6","2","3","7","2","6","1","5","2","1","5","2","7","3","5","4","5","4","2","6","3","5","3","2","2","6","2","7","3","5","6","3","3","3","2","3","1","7","3","3","763753736781959170","周","319","Male","[""坏我"",""好我"",""坏他"",""好他""]","[""弱我"",""强我"",""弱他"",""强他""]","","","","","","","","no","","","","","","","","","SRET","EW_formal","","key","f","23.12346250000046","758.3333534223067","422.22223340729164","朋友","愚钝","Negative","ability","","","","","","","","","","",""
"1235","","j","psychophysics","91","307022","0.0-7.0-3.0-0.77","6","6","7","6","6","4","1","4","4","4","5","1","1","0","2","-1","1","1","1","5","5","5","5","4","4","5","4","5","5","6","8","6","8","5","6","8","7","8","5","6","2","3","7","2","6","1","5","2","1","5","2","7","3","5","4","5","4","2","6","3","5","3","2","2","6","2","7","3","5","6","3","3","3","2","3","1","7","3","3","763753736781959170","周","319","Male","[""坏我"",""好我"",""坏他"",""好他""]","[""弱我"",""强我"",""弱他"",""强他""]","","","","","","","","yes","","","","","","","","","SRET","EW_formal","","key","j","23.26341666666667","758.3333534223067","422.22223340729164","朋友","思辨","Positive","ability","","","","","","","","","","",""
"631","","j","psychophysics","92","308674","0.0-7.0-3.0-0.78","6","6","7","6","6","4","1","4","4","4","5","1","1","0","2","-1","1","1","1","5","5","5","5","4","4","5","4","5","5","6","8","6","8","5","6","8","7","8","5","6","2","3","7","2","6","1","5","2","1","5","2","7","3","5","4","5","4","2","6","3","5","3","2","2","6","2","7","3","5","6","3","3","3","2","3","1","7","3","3","763753736781959170","周","319","Male","[""坏我"",""好我"",""坏他"",""好他""]","[""弱我"",""强我"",""弱他"",""强他""]","","","","","","","","yes","","","","","","","","","SRET","EW_formal","","key","j","23.00112676056279","758.3333534223067","422.22223340729164","朋友","刻苦","Positive","ability","","","","","","","","","","",""
"517","","j","psychophysics","93","310205","0.0-7.0-3.0-0.79","6","6","7","6","6","4","1","4","4","4","5","1","1","0","2","-1","1","1","1","5","5","5","5","4","4","5","4","5","5","6","8","6","8","5","6","8","7","8","5","6","2","3","7","2","6","1","5","2","1","5","2","7","3","5","4","5","4","2","6","3","5","3","2","2","6","2","7","3","5","6","3","3","3","2","3","1","7","3","3","763753736781959170","周","319","Male","[""坏我"",""好我"",""坏他"",""好他""]","[""弱我"",""强我"",""弱他"",""强他""]","","","","","","","","yes","","","","","","","","","SRET","EW_formal","","key","j","22.63849253731314","758.3333534223067","422.22223340729164","朋友","守法","Positive","morality","","","","","","","","","","",""
"810","","f","psychophysics","94","312020","0.0-7.0-3.0-0.80","6","6","7","6","6","4","1","4","4","4","5","1","1","0","2","-1","1","1","1","5","5","5","5","4","4","5","4","5","5","6","8","6","8","5","6","8","7","8","5","6","2","3","7","2","6","1","5","2","1","5","2","7","3","5","4","5","4","2","6","3","5","3","2","2","6","2","7","3","5","6","3","3","3","2","3","1","7","3","3","763753736781959170","周","319","Male","[""坏我"",""好我"",""坏他"",""好他""]","[""弱我"",""强我"",""弱他"",""强他""]","","","","","","","","no","","","","","","","","","SRET","EW_formal","","key","f","23.37594805194848","758.3333534223067","422.22223340729164","自己","歹毒","Negative","morality","","","","","","","","","","",""
"954","","f","psychophysics","95","313981","0.0-7.0-3.0-0.81","6","6","7","6","6","4","1","4","4","4","5","1","1","0","2","-1","1","1","1","5","5","5","5","4","4","5","4","5","5","6","8","6","8","5","6","8","7","8","5","6","2","3","7","2","6","1","5","2","1","5","2","7","3","5","4","5","4","2","6","3","5","3","2","2","6","2","7","3","5","6","3","3","3","2","3","1","7","3","3","763753736781959170","周","319","Male","[""坏我"",""好我"",""坏他"",""好他""]","[""弱我"",""强我"",""弱他"",""强他""]","","","","","","","","no","","","","","","","","","SRET","EW_formal","","key","f","23.29314457831332","758.3333534223067","422.22223340729164","自己","马虎","Negative","ability","","","","","","","","","","",""
"604","","j","psychophysics","96","315607","0.0-7.0-3.0-0.82","6","6","7","6","6","4","1","4","4","4","5","1","1","0","2","-1","1","1","1","5","5","5","5","4","4","5","4","5","5","6","8","6","8","5","6","8","7","8","5","6","2","3","7","2","6","1","5","2","1","5","2","7","3","5","4","5","4","2","6","3","5","3","2","2","6","2","7","3","5","6","3","3","3","2","3","1","7","3","3","763753736781959170","周","319","Male","[""坏我"",""好我"",""坏他"",""好他""]","[""弱我"",""强我"",""弱他"",""强他""]","","","","","","","","yes","","","","","","","","","SRET","EW_formal","","key","j","23.63174626865657","758.3333534223067","422.22223340729164","自己","爱国","Positive","morality","","","","","","","","","","",""
"887","","f","psychophysics","97","317504","0.0-7.0-3.0-0.83","6","6","7","6","6","4","1","4","4","4","5","1","1","0","2","-1","1","1","1","5","5","5","5","4","4","5","4","5","5","6","8","6","8","5","6","8","7","8","5","6","2","3","7","2","6","1","5","2","1","5","2","7","3","5","4","5","4","2","6","3","5","3","2","2","6","2","7","3","5","6","3","3","3","2","3","1","7","3","3","763753736781959170","周","319","Male","[""坏我"",""好我"",""坏他"",""好他""]","[""弱我"",""强我"",""弱他"",""强他""]","","","","","","","","no","","","","","","","","","SRET","EW_formal","","key","f","22.965878048780368","758.3333534223067","422.22223340729164","自己","无敌","Positive","ability","","","","","","","","","","",""
"714","","j","psychophysics","98","319233","0.0-7.0-3.0-0.84","6","6","7","6","6","4","1","4","4","4","5","1","1","0","2","-1","1","1","1","5","5","5","5","4","4","5","4","5","5","6","8","6","8","5","6","8","7","8","5","6","2","3","7","2","6","1","5","2","1","5","2","7","3","5","4","5","4","2","6","3","5","3","2","2","6","2","7","3","5","6","3","3","3","2","3","1","7","3","3","763753736781959170","周","319","Male","[""坏我"",""好我"",""坏他"",""好他""]","[""弱我"",""强我"",""弱他"",""强他""]","","","","","","","","yes","","","","","","","","","SRET","EW_formal","","key","j","22.970932432432264","758.3333534223067","422.22223340729164","朋友","素养","Positive","morality","","","","","","","","","","",""
"655","","j","psychophysics","99","320899","0.0-7.0-3.0-0.85","6","6","7","6","6","4","1","4","4","4","5","1","1","0","2","-1","1","1","1","5","5","5","5","4","4","5","4","5","5","6","8","6","8","5","6","8","7","8","5","6","2","3","7","2","6","1","5","2","1","5","2","7","3","5","4","5","4","2","6","3","5","3","2","2","6","2","7","3","5","6","3","3","3","2","3","1","7","3","3","763753736781959170","周","319","Male","[""坏我"",""好我"",""坏他"",""好他""]","[""弱我"",""强我"",""弱他"",""强他""]","","","","","","","","yes","","","","","","","","","SRET","EW_formal","","key","j","22.371164383562057","758.3333534223067","422.22223340729164","自己","主见","Positive","ability","","","","","","","","","","",""
"792","","f","psychophysics","100","322698","0.0-7.0-3.0-0.86","6","6","7","6","6","4","1","4","4","4","5","1","1","0","2","-1","1","1","1","5","5","5","5","4","4","5","4","5","5","6","8","6","8","5","6","8","7","8","5","6","2","3","7","2","6","1","5","2","1","5","2","7","3","5","4","5","4","2","6","3","5","3","2","2","6","2","7","3","5","6","3","3","3","2","3","1","7","3","3","763753736781959170","周","319","Male","[""坏我"",""好我"",""坏他"",""好他""]","[""弱我"",""强我"",""弱他"",""强他""]","","","","","","","","no","","","","","","","","","SRET","EW_formal","","key","f","22.940999999999935","758.3333534223067","422.22223340729164","朋友","低俗","Negative","morality","","","","","","","","","","",""
"792","","f","psychophysics","101","324511","0.0-7.0-3.0-0.87","6","6","7","6","6","4","1","4","4","4","5","1","1","0","2","-1","1","1","1","5","5","5","5","4","4","5","4","5","5","6","8","6","8","5","6","8","7","8","5","6","2","3","7","2","6","1","5","2","1","5","2","7","3","5","4","5","4","2","6","3","5","3","2","2","6","2","7","3","5","6","3","3","3","2","3","1","7","3","3","763753736781959170","周","319","Male","[""坏我"",""好我"",""坏他"",""好他""]","[""弱我"",""强我"",""弱他"",""强他""]","","","","","","","","no","","","","","","","","","SRET","EW_formal","","key","f","22.860487179487393","758.3333534223067","422.22223340729164","自己","缓慢","Negative","ability","","","","","","","","","","",""
"26097","
    <p><div style='color:white;font-size:35px; line-height:20px;'>计算任务</div></p><br>
    <p><div style='color:red;font-size:25px; line-height:20px;'>接下来，您将看到一些四则运算题，<b>请从键盘选择 0-9 进行反应。</b></div></p>
    <p><div style='color:red;font-size:25px; line-height:20px;'>请尽可能快地进行计算，计算的速度和正确率将影响报酬的发放。</div></p>
    <p><div class='footer' style='color:white;font-size:25px; line-height:20px;'>如果对本实验还有不清楚之处，请立即向实验员咨询。</p><p style='color:white;font-size:25px; line-height:20px;'>如果您明白了规则：</p><p style='color:white;font-size:22px; line-height:20px;'>请按 继续 进入练习</p>
    </div>
    ","0","html-button-response","102","350615","0.0-7.0-4.0","6","6","7","6","6","4","1","4","4","4","5","1","1","0","2","-1","1","1","1","5","5","5","5","4","4","5","4","5","5","6","8","6","8","5","6","8","7","8","5","6","2","3","7","2","6","1","5","2","1","5","2","7","3","5","4","5","4","2","6","3","5","3","2","2","6","2","7","3","5","6","3","3","3","2","3","1","7","3","3","763753736781959170","周","319","Male","[""坏我"",""好我"",""坏他"",""好他""]","[""弱我"",""强我"",""弱他"",""强他""]","","","","","","","","","","","","","","","","","SRET_math","math_instructions","Sat Dec 09 2023 14:20:46 GMT+0800 (中国标准时间)","","","","","","","","","","","","","","","","","","","",""
"2276","","2","psychophysics","103","352912","0.0-7.0-5.0-0.0","6","6","7","6","6","4","1","4","4","4","5","1","1","0","2","-1","1","1","1","5","5","5","5","4","4","5","4","5","5","6","8","6","8","5","6","8","7","8","5","6","2","3","7","2","6","1","5","2","1","5","2","7","3","5","4","5","4","2","6","3","5","3","2","2","6","2","7","3","5","6","3","3","3","2","3","1","7","3","3","763753736781959170","周","319","Male","[""坏我"",""好我"",""坏他"",""好他""]","[""弱我"",""强我"",""弱他"",""强他""]","","","","","","","","2","","","","","","","","","SRET","SRET_math_calculate","","key","2","22.831350000000093","758.3333534223067","422.22223340729164","","","","","18/9= ?","2","1","","","","","","","",""
"2271","","7","psychophysics","104","355208","0.0-7.0-5.0-0.1","6","6","7","6","6","4","1","4","4","4","5","1","1","0","2","-1","1","1","1","5","5","5","5","4","4","5","4","5","5","6","8","6","8","5","6","8","7","8","5","6","2","3","7","2","6","1","5","2","1","5","2","7","3","5","4","5","4","2","6","3","5","3","2","2","6","2","7","3","5","6","3","3","3","2","3","1","7","3","3","763753736781959170","周","319","Male","[""坏我"",""好我"",""坏他"",""好他""]","[""弱我"",""强我"",""弱他"",""强他""]","","","","","","","","7","","","","","","","","","SRET","SRET_math_calculate","","key","7","22.38561764705867","758.3333534223067","422.22223340729164","","","","","1+6= ?","7","1","","","","","","","",""
"2109","","5","psychophysics","105","357341","0.0-7.0-5.0-0.2","6","6","7","6","6","4","1","4","4","4","5","1","1","0","2","-1","1","1","1","5","5","5","5","4","4","5","4","5","5","6","8","6","8","5","6","8","7","8","5","6","2","3","7","2","6","1","5","2","1","5","2","7","3","5","4","5","4","2","6","3","5","3","2","2","6","2","7","3","5","6","3","3","3","2","3","1","7","3","3","763753736781959170","周","319","Male","[""坏我"",""好我"",""坏他"",""好他""]","[""弱我"",""强我"",""弱他"",""强他""]","","","","","","","","5","","","","","","","","","SRET","SRET_math_calculate","","key","5","22.51595744680851","758.3333534223067","422.22223340729164","","","","","3+2= ?","5","1","","","","","","","",""
"2192","","4","psychophysics","106","359560","0.0-7.0-5.0-0.3","6","6","7","6","6","4","1","4","4","4","5","1","1","0","2","-1","1","1","1","5","5","5","5","4","4","5","4","5","5","6","8","6","8","5","6","8","7","8","5","6","2","3","7","2","6","1","5","2","1","5","2","7","3","5","4","5","4","2","6","3","5","3","2","2","6","2","7","3","5","6","3","3","3","2","3","1","7","3","3","763753736781959170","周","319","Male","[""坏我"",""好我"",""坏他"",""好他""]","[""弱我"",""强我"",""弱他"",""强他""]","","","","","","","","4","","","","","","","","","SRET","SRET_math_calculate","","key","4","22.448000000000395","758.3333534223067","422.22223340729164","","","","","4*1= ?","4","1","","","","","","","",""
"2113","","8","psychophysics","107","361695","0.0-7.0-5.0-0.4","6","6","7","6","6","4","1","4","4","4","5","1","1","0","2","-1","1","1","1","5","5","5","5","4","4","5","4","5","5","6","8","6","8","5","6","8","7","8","5","6","2","3","7","2","6","1","5","2","1","5","2","7","3","5","4","5","4","2","6","3","5","3","2","2","6","2","7","3","5","6","3","3","3","2","3","1","7","3","3","763753736781959170","周","319","Male","[""坏我"",""好我"",""坏他"",""好他""]","[""弱我"",""强我"",""弱他"",""强他""]","","","","","","","","8","","","","","","","","","SRET","SRET_math_calculate","","key","8","23.779999999999816","758.3333534223067","422.22223340729164","","","","","3+5= ?","8","1","","","","","","","",""
"2672","","1","psychophysics","108","364389","0.0-7.0-5.0-0.5","6","6","7","6","6","4","1","4","4","4","5","1","1","0","2","-1","1","1","1","5","5","5","5","4","4","5","4","5","5","6","8","6","8","5","6","8","7","8","5","6","2","3","7","2","6","1","5","2","1","5","2","7","3","5","4","5","4","2","6","3","5","3","2","2","6","2","7","3","5","6","3","3","3","2","3","1","7","3","3","763753736781959170","周","319","Male","[""坏我"",""好我"",""坏他"",""好他""]","[""弱我"",""强我"",""弱他"",""强他""]","","","","","","","","1","","","","","","","","","SRET","SRET_math_calculate","","key","1","22.359274999999617","758.3333534223067","422.22223340729164","","","","","30-29= ?","1","1","","","","","","","",""
"2499","","9","psychophysics","109","366912","0.0-7.0-5.0-0.6","6","6","7","6","6","4","1","4","4","4","5","1","1","0","2","-1","1","1","1","5","5","5","5","4","4","5","4","5","5","6","8","6","8","5","6","8","7","8","5","6","2","3","7","2","6","1","5","2","1","5","2","7","3","5","4","5","4","2","6","3","5","3","2","2","6","2","7","3","5","6","3","3","3","2","3","1","7","3","3","763753736781959170","周","319","Male","[""坏我"",""好我"",""坏他"",""好他""]","[""弱我"",""强我"",""弱他"",""强他""]","","","","","","","","9","","","","","","","","","SRET","SRET_math_calculate","","key","9","23.36227102803717","758.3333534223067","422.22223340729164","","","","","8+1= ?","9","1","","","","","","","",""
"2359","","5","psychophysics","110","369292","0.0-7.0-5.0-0.7","6","6","7","6","6","4","1","4","4","4","5","1","1","0","2","-1","1","1","1","5","5","5","5","4","4","5","4","5","5","6","8","6","8","5","6","8","7","8","5","6","2","3","7","2","6","1","5","2","1","5","2","7","3","5","4","5","4","2","6","3","5","3","2","2","6","2","7","3","5","6","3","3","3","2","3","1","7","3","3","763753736781959170","周","319","Male","[""坏我"",""好我"",""坏他"",""好他""]","[""弱我"",""强我"",""弱他"",""强他""]","","","","","","","","5","","","","","","","","","SRET","SRET_math_calculate","","key","5","22.75475961538457","758.3333534223067","422.22223340729164","","","","","5/1= ?","5","1","","","","","","","",""
"2368","","2","psychophysics","111","371685","0.0-7.0-5.0-0.8","6","6","7","6","6","4","1","4","4","4","5","1","1","0","2","-1","1","1","1","5","5","5","5","4","4","5","4","5","5","6","8","6","8","5","6","8","7","8","5","6","2","3","7","2","6","1","5","2","1","5","2","7","3","5","4","5","4","2","6","3","5","3","2","2","6","2","7","3","5","6","3","3","3","2","3","1","7","3","3","763753736781959170","周","319","Male","[""坏我"",""好我"",""坏他"",""好他""]","[""弱我"",""强我"",""弱他"",""强他""]","","","","","","","","2","","","","","","","","","SRET","SRET_math_calculate","","key","2","22.756701923077344","758.3333534223067","422.22223340729164","","","","","90/45= ?","2","1","","","","","","","",""
"2057","","4","psychophysics","112","373797","0.0-7.0-5.0-0.9","6","6","7","6","6","4","1","4","4","4","5","1","1","0","2","-1","1","1","1","5","5","5","5","4","4","5","4","5","5","6","8","6","8","5","6","8","7","8","5","6","2","3","7","2","6","1","5","2","1","5","2","7","3","5","4","5","4","2","6","3","5","3","2","2","6","2","7","3","5","6","3","3","3","2","3","1","7","3","3","763753736781959170","周","319","Male","[""坏我"",""好我"",""坏他"",""好他""]","[""弱我"",""强我"",""弱他"",""强他""]","","","","","","","","4","","","","","","","","","SRET","SRET_math_calculate","","key","4","22.6439782608694","758.3333534223067","422.22223340729164","","","","","9-5= ?","4","1","","","","","","","",""
"2415","","5","psychophysics","113","376233","0.0-7.0-5.0-0.10","6","6","7","6","6","4","1","4","4","4","5","1","1","0","2","-1","1","1","1","5","5","5","5","4","4","5","4","5","5","6","8","6","8","5","6","8","7","8","5","6","2","3","7","2","6","1","5","2","1","5","2","7","3","5","4","5","4","2","6","3","5","3","2","2","6","2","7","3","5","6","3","3","3","2","3","1","7","3","3","763753736781959170","周","319","Male","[""坏我"",""好我"",""坏他"",""好他""]","[""弱我"",""强我"",""弱他"",""强他""]","","","","","","","","5","","","","","","","","","SRET","SRET_math_calculate","","key","5","22.64006603773593","758.3333534223067","422.22223340729164","","","","","12-7= ?","5","1","","","","","","","",""
"2689","","0","psychophysics","114","378948","0.0-7.0-5.0-0.11","6","6","7","6","6","4","1","4","4","4","5","1","1","0","2","-1","1","1","1","5","5","5","5","4","4","5","4","5","5","6","8","6","8","5","6","8","7","8","5","6","2","3","7","2","6","1","5","2","1","5","2","7","3","5","4","5","4","2","6","3","5","3","2","2","6","2","7","3","5","6","3","3","3","2","3","1","7","3","3","763753736781959170","周","319","Male","[""坏我"",""好我"",""坏他"",""好他""]","[""弱我"",""强我"",""弱他"",""强他""]","","","","","","","","0","","","","","","","","","SRET","SRET_math_calculate","","key","0","22.73853389830506","758.3333534223067","422.22223340729164","","","","","6*0= ?","0","1","","","","","","","",""
"4396","","8","psychophysics","115","383366","0.0-7.0-5.0-0.12","6","6","7","6","6","4","1","4","4","4","5","1","1","0","2","-1","1","1","1","5","5","5","5","4","4","5","4","5","5","6","8","6","8","5","6","8","7","8","5","6","2","3","7","2","6","1","5","2","1","5","2","7","3","5","4","5","4","2","6","3","5","3","2","2","6","2","7","3","5","6","3","3","3","2","3","1","7","3","3","763753736781959170","周","319","Male","[""坏我"",""好我"",""坏他"",""好他""]","[""弱我"",""强我"",""弱他"",""强他""]","","","","","","","","8","","","","","","","","","SRET","SRET_math_calculate","","key","8","22.915416666666715","758.3333534223067","422.22223340729164","","","","","32-23= ?","9","0","","","","","","","",""
"2787","","8","psychophysics","116","386176","0.0-7.0-5.0-0.13","6","6","7","6","6","4","1","4","4","4","5","1","1","0","2","-1","1","1","1","5","5","5","5","4","4","5","4","5","5","6","8","6","8","5","6","8","7","8","5","6","2","3","7","2","6","1","5","2","1","5","2","7","3","5","4","5","4","2","6","3","5","3","2","2","6","2","7","3","5","6","3","3","3","2","3","1","7","3","3","763753736781959170","周","319","Male","[""坏我"",""好我"",""坏他"",""好他""]","[""弱我"",""强我"",""弱他"",""强他""]","","","","","","","","8","","","","","","","","","SRET","SRET_math_calculate","","key","8","22.81336065573755","758.3333534223067","422.22223340729164","","","","","8*1= ?","8","1","","","","","","","",""
"2624","","7","psychophysics","117","388822","0.0-7.0-5.0-0.14","6","6","7","6","6","4","1","4","4","4","5","1","1","0","2","-1","1","1","1","5","5","5","5","4","4","5","4","5","5","6","8","6","8","5","6","8","7","8","5","6","2","3","7","2","6","1","5","2","1","5","2","7","3","5","4","5","4","2","6","3","5","3","2","2","6","2","7","3","5","6","3","3","3","2","3","1","7","3","3","763753736781959170","周","319","Male","[""坏我"",""好我"",""坏他"",""好他""]","[""弱我"",""强我"",""弱他"",""强他""]","","","","","","","","7","","","","","","","","","SRET","SRET_math_calculate","","key","7","22.895339130435097","758.3333534223067","422.22223340729164","","","","","7*1=  ?","7","1","","","","","","","",""
"2091","","3","psychophysics","118","390938","0.0-7.0-5.0-0.15","6","6","7","6","6","4","1","4","4","4","5","1","1","0","2","-1","1","1","1","5","5","5","5","4","4","5","4","5","5","6","8","6","8","5","6","8","7","8","5","6","2","3","7","2","6","1","5","2","1","5","2","7","3","5","4","5","4","2","6","3","5","3","2","2","6","2","7","3","5","6","3","3","3","2","3","1","7","3","3","763753736781959170","周","319","Male","[""坏我"",""好我"",""坏他"",""好他""]","[""弱我"",""强我"",""弱他"",""强他""]","","","","","","","","3","","","","","","","","","SRET","SRET_math_calculate","","key","3","23.07543956043946","758.3333534223067","422.22223340729164","","","","","1+2= ?","3","1","","","","","","","",""
"2226","","6","psychophysics","119","393186","0.0-7.0-5.0-0.16","6","6","7","6","6","4","1","4","4","4","5","1","1","0","2","-1","1","1","1","5","5","5","5","4","4","5","4","5","5","6","8","6","8","5","6","8","7","8","5","6","2","3","7","2","6","1","5","2","1","5","2","7","3","5","4","5","4","2","6","3","5","3","2","2","6","2","7","3","5","6","3","3","3","2","3","1","7","3","3","763753736781959170","周","319","Male","[""坏我"",""好我"",""坏他"",""好他""]","[""弱我"",""强我"",""弱他"",""强他""]","","","","","","","","6","","","","","","","","","SRET","SRET_math_calculate","","key","6","23.262270833333485","758.3333534223067","422.22223340729164","","","","","4+2= ?","6","1","","","","","","","",""
"2318","","9","psychophysics","120","395536","0.0-7.0-5.0-0.17","6","6","7","6","6","4","1","4","4","4","5","1","1","0","2","-1","1","1","1","5","5","5","5","4","4","5","4","5","5","6","8","6","8","5","6","8","7","8","5","6","2","3","7","2","6","1","5","2","1","5","2","7","3","5","4","5","4","2","6","3","5","3","2","2","6","2","7","3","5","6","3","3","3","2","3","1","7","3","3","763753736781959170","周","319","Male","[""坏我"",""好我"",""坏他"",""好他""]","[""弱我"",""强我"",""弱他"",""强他""]","","","","","","","","9","","","","","","","","","SRET","SRET_math_calculate","","key","9","23.566898989899205","758.3333534223067","422.22223340729164","","","","","6+3= ?","9","1","","","","","","","",""
"2496","","3","psychophysics","121","398055","0.0-7.0-5.0-0.18","6","6","7","6","6","4","1","4","4","4","5","1","1","0","2","-1","1","1","1","5","5","5","5","4","4","5","4","5","5","6","8","6","8","5","6","8","7","8","5","6","2","3","7","2","6","1","5","2","1","5","2","7","3","5","4","5","4","2","6","3","5","3","2","2","6","2","7","3","5","6","3","3","3","2","3","1","7","3","3","763753736781959170","周","319","Male","[""坏我"",""好我"",""坏他"",""好他""]","[""弱我"",""强我"",""弱他"",""强他""]","","","","","","","","3","","","","","","","","","SRET","SRET_math_calculate","","key","3","23.146740740740725","758.3333534223067","422.22223340729164","","","","","6/2= ?","3","1","","","","","","","",""
"2120","","3","psychophysics","122","400198","0.0-7.0-5.0-0.19","6","6","7","6","6","4","1","4","4","4","5","1","1","0","2","-1","1","1","1","5","5","5","5","4","4","5","4","5","5","6","8","6","8","5","6","8","7","8","5","6","2","3","7","2","6","1","5","2","1","5","2","7","3","5","4","5","4","2","6","3","5","3","2","2","6","2","7","3","5","6","3","3","3","2","3","1","7","3","3","763753736781959170","周","319","Male","[""坏我"",""好我"",""坏他"",""好他""]","[""弱我"",""强我"",""弱他"",""强他""]","","","","","","","","3","","","","","","","","","SRET","SRET_math_calculate","","key","3","22.692734042552864","758.3333534223067","422.22223340729164","","","","","12/4= ?","3","1","","","","","","","",""
"2201","","8","psychophysics","123","402422","0.0-7.0-5.0-0.20","6","6","7","6","6","4","1","4","4","4","5","1","1","0","2","-1","1","1","1","5","5","5","5","4","4","5","4","5","5","6","8","6","8","5","6","8","7","8","5","6","2","3","7","2","6","1","5","2","1","5","2","7","3","5","4","5","4","2","6","3","5","3","2","2","6","2","7","3","5","6","3","3","3","2","3","1","7","3","3","763753736781959170","周","319","Male","[""坏我"",""好我"",""坏他"",""好他""]","[""弱我"",""强我"",""弱他"",""强他""]","","","","","","","","8","","","","","","","","","SRET","SRET_math_calculate","","key","8","23.654182795698688","758.3333534223067","422.22223340729164","","","","","4+4= ?","8","1","","","","","","","",""
"2867","","9","psychophysics","124","405315","0.0-7.0-5.0-0.21","6","6","7","6","6","4","1","4","4","4","5","1","1","0","2","-1","1","1","1","5","5","5","5","4","4","5","4","5","5","6","8","6","8","5","6","8","7","8","5","6","2","3","7","2","6","1","5","2","1","5","2","7","3","5","4","5","4","2","6","3","5","3","2","2","6","2","7","3","5","6","3","3","3","2","3","1","7","3","3","763753736781959170","周","319","Male","[""坏我"",""好我"",""坏他"",""好他""]","[""弱我"",""强我"",""弱他"",""强他""]","","","","","","","","9","","","","","","","","","SRET","SRET_math_calculate","","key","9","22.393718750000062","758.3333534223067","422.22223340729164","","","","","3+6= ?","9","1","","","","","","","",""
"1972","","7","psychophysics","125","407311","0.0-7.0-5.0-0.22","6","6","7","6","6","4","1","4","4","4","5","1","1","0","2","-1","1","1","1","5","5","5","5","4","4","5","4","5","5","6","8","6","8","5","6","8","7","8","5","6","2","3","7","2","6","1","5","2","1","5","2","7","3","5","4","5","4","2","6","3","5","3","2","2","6","2","7","3","5","6","3","3","3","2","3","1","7","3","3","763753736781959170","周","319","Male","[""坏我"",""好我"",""坏他"",""好他""]","[""弱我"",""强我"",""弱他"",""强他""]","","","","","","","","7","","","","","","","","","SRET","SRET_math_calculate","","key","7","24.89350632911392","758.3333534223067","422.22223340729164","","","","","9-2= ?","7","1","","","","","","","",""
"1958","","3","psychophysics","126","409296","0.0-7.0-5.0-0.23","6","6","7","6","6","4","1","4","4","4","5","1","1","0","2","-1","1","1","1","5","5","5","5","4","4","5","4","5","5","6","8","6","8","5","6","8","7","8","5","6","2","3","7","2","6","1","5","2","1","5","2","7","3","5","4","5","4","2","6","3","5","3","2","2","6","2","7","3","5","6","3","3","3","2","3","1","7","3","3","763753736781959170","周","319","Male","[""坏我"",""好我"",""坏他"",""好他""]","[""弱我"",""强我"",""弱他"",""强他""]","","","","","","","","3","","","","","","","","","SRET","SRET_math_calculate","","key","3","22.672011627907036","758.3333534223067","422.22223340729164","","","","","3*1= ?","3","1","","","","","","","",""
"1959","","6","psychophysics","127","411279","0.0-7.0-5.0-0.24","6","6","7","6","6","4","1","4","4","4","5","1","1","0","2","-1","1","1","1","5","5","5","5","4","4","5","4","5","5","6","8","6","8","5","6","8","7","8","5","6","2","3","7","2","6","1","5","2","1","5","2","7","3","5","4","5","4","2","6","3","5","3","2","2","6","2","7","3","5","6","3","3","3","2","3","1","7","3","3","763753736781959170","周","319","Male","[""坏我"",""好我"",""坏他"",""好他""]","[""弱我"",""强我"",""弱他"",""强他""]","","","","","","","","6","","","","","","","","","SRET","SRET_math_calculate","","key","6","22.411390804598007","758.3333534223067","422.22223340729164","","","","","8-2= ?","6","1","","","","","","","",""
"1984","","3","psychophysics","128","413283","0.0-7.0-5.0-0.25","6","6","7","6","6","4","1","4","4","4","5","1","1","0","2","-1","1","1","1","5","5","5","5","4","4","5","4","5","5","6","8","6","8","5","6","8","7","8","5","6","2","3","7","2","6","1","5","2","1","5","2","7","3","5","4","5","4","2","6","3","5","3","2","2","6","2","7","3","5","6","3","3","3","2","3","1","7","3","3","763753736781959170","周","319","Male","[""坏我"",""好我"",""坏他"",""好他""]","[""弱我"",""强我"",""弱他"",""强他""]","","","","","","","","3","","","","","","","","","SRET","SRET_math_calculate","","key","3","22.7942413793102","758.3333534223067","422.22223340729164","","","","","8-5= ?","3","1","","","","","","","",""
"2062","","2","psychophysics","129","415371","0.0-7.0-5.0-0.26","6","6","7","6","6","4","1","4","4","4","5","1","1","0","2","-1","1","1","1","5","5","5","5","4","4","5","4","5","5","6","8","6","8","5","6","8","7","8","5","6","2","3","7","2","6","1","5","2","1","5","2","7","3","5","4","5","4","2","6","3","5","3","2","2","6","2","7","3","5","6","3","3","3","2","3","1","7","3","3","763753736781959170","周","319","Male","[""坏我"",""好我"",""坏他"",""好他""]","[""弱我"",""强我"",""弱他"",""强他""]","","","","","","","","2","","","","","","","","","SRET","SRET_math_calculate","","key","2","22.711230769230866","758.3333534223067","422.22223340729164","","","","","22/11= ?","2","1","","","","","","","",""
"2185","","9","psychophysics","130","417582","0.0-7.0-5.0-0.27","6","6","7","6","6","4","1","4","4","4","5","1","1","0","2","-1","1","1","1","5","5","5","5","4","4","5","4","5","5","6","8","6","8","5","6","8","7","8","5","6","2","3","7","2","6","1","5","2","1","5","2","7","3","5","4","5","4","2","6","3","5","3","2","2","6","2","7","3","5","6","3","3","3","2","3","1","7","3","3","763753736781959170","周","319","Male","[""坏我"",""好我"",""坏他"",""好他""]","[""弱我"",""强我"",""弱他"",""强他""]","","","","","","","","9","","","","","","","","","SRET","SRET_math_calculate","","key","9","23.402553191489634","758.3333534223067","422.22223340729164","","","","","1+8= ?","9","1","","","","","","","",""
"2113","","8","psychophysics","131","419720","0.0-7.0-5.0-0.28","6","6","7","6","6","4","1","4","4","4","5","1","1","0","2","-1","1","1","1","5","5","5","5","4","4","5","4","5","5","6","8","6","8","5","6","8","7","8","5","6","2","3","7","2","6","1","5","2","1","5","2","7","3","5","4","5","4","2","6","3","5","3","2","2","6","2","7","3","5","6","3","3","3","2","3","1","7","3","3","763753736781959170","周","319","Male","[""坏我"",""好我"",""坏他"",""好他""]","[""弱我"",""强我"",""弱他"",""强他""]","","","","","","","","8","","","","","","","","","SRET","SRET_math_calculate","","key","8","22.760032258064097","758.3333534223067","422.22223340729164","","","","","5+3= ?","8","1","","","","","","","",""
"1902","","9","psychophysics","132","421646","0.0-7.0-5.0-0.29","6","6","7","6","6","4","1","4","4","4","5","1","1","0","2","-1","1","1","1","5","5","5","5","4","4","5","4","5","5","6","8","6","8","5","6","8","7","8","5","6","2","3","7","2","6","1","5","2","1","5","2","7","3","5","4","5","4","2","6","3","5","3","2","2","6","2","7","3","5","6","3","3","3","2","3","1","7","3","3","763753736781959170","周","319","Male","[""坏我"",""好我"",""坏他"",""好他""]","[""弱我"",""强我"",""弱他"",""强他""]","","","","","","","","9","","","","","","","","","SRET","SRET_math_calculate","","key","9","22.891554216866897","758.3333534223067","422.22223340729164","","","","","5+4= ?","9","1","","","","","","","",""
"1924","","5","psychophysics","133","423594","0.0-7.0-5.0-0.30","6","6","7","6","6","4","1","4","4","4","5","1","1","0","2","-1","1","1","1","5","5","5","5","4","4","5","4","5","5","6","8","6","8","5","6","8","7","8","5","6","2","3","7","2","6","1","5","2","1","5","2","7","3","5","4","5","4","2","6","3","5","3","2","2","6","2","7","3","5","6","3","3","3","2","3","1","7","3","3","763753736781959170","周","319","Male","[""坏我"",""好我"",""坏他"",""好他""]","[""弱我"",""强我"",""弱他"",""强他""]","","","","","","","","5","","","","","","","","","SRET","SRET_math_calculate","","key","5","23.08956626506034","758.3333534223067","422.22223340729164","","","","","4+1= ?","5","1","","","","","","","",""
"2022","","7","psychophysics","134","425641","0.0-7.0-5.0-0.31","6","6","7","6","6","4","1","4","4","4","5","1","1","0","2","-1","1","1","1","5","5","5","5","4","4","5","4","5","5","6","8","6","8","5","6","8","7","8","5","6","2","3","7","2","6","1","5","2","1","5","2","7","3","5","4","5","4","2","6","3","5","3","2","2","6","2","7","3","5","6","3","3","3","2","3","1","7","3","3","763753736781959170","周","319","Male","[""坏我"",""好我"",""坏他"",""好他""]","[""弱我"",""强我"",""弱他"",""强他""]","","","","","","","","7","","","","","","","","","SRET","SRET_math_calculate","","key","7","22.158626373626348","758.3333534223067","422.22223340729164","","","","","4+3= ?","7","1","","","","","","","",""
"1803","","7","psychophysics","135","427468","0.0-7.0-5.0-0.32","6","6","7","6","6","4","1","4","4","4","5","1","1","0","2","-1","1","1","1","5","5","5","5","4","4","5","4","5","5","6","8","6","8","5","6","8","7","8","5","6","2","3","7","2","6","1","5","2","1","5","2","7","3","5","4","5","4","2","6","3","5","3","2","2","6","2","7","3","5","6","3","3","3","2","3","1","7","3","3","763753736781959170","周","319","Male","[""坏我"",""好我"",""坏他"",""好他""]","[""弱我"",""强我"",""弱他"",""强他""]","","","","","","","","7","","","","","","","","","SRET","SRET_math_calculate","","key","7","23.074974358974334","758.3333534223067","422.22223340729164","","","","","3+4= ?","7","1","","","","","","","",""
"1787","","6","psychophysics","136","429278","0.0-7.0-5.0-0.33","6","6","7","6","6","4","1","4","4","4","5","1","1","0","2","-1","1","1","1","5","5","5","5","4","4","5","4","5","5","6","8","6","8","5","6","8","7","8","5","6","2","3","7","2","6","1","5","2","1","5","2","7","3","5","4","5","4","2","6","3","5","3","2","2","6","2","7","3","5","6","3","3","3","2","3","1","7","3","3","763753736781959170","周","319","Male","[""坏我"",""好我"",""坏他"",""好他""]","[""弱我"",""强我"",""弱他"",""强他""]","","","","","","","","6","","","","","","","","","SRET","SRET_math_calculate","","key","6","22.860782051282094","758.3333534223067","422.22223340729164","","","","","3+3= ?","6","1","","","","","","","",""
"2213","","4","psychophysics","137","431513","0.0-7.0-5.0-0.34","6","6","7","6","6","4","1","4","4","4","5","1","1","0","2","-1","1","1","1","5","5","5","5","4","4","5","4","5","5","6","8","6","8","5","6","8","7","8","5","6","2","3","7","2","6","1","5","2","1","5","2","7","3","5","4","5","4","2","6","3","5","3","2","2","6","2","7","3","5","6","3","3","3","2","3","1","7","3","3","763753736781959170","周","319","Male","[""坏我"",""好我"",""坏他"",""好他""]","[""弱我"",""强我"",""弱他"",""强他""]","","","","","","","","4","","","","","","","","","SRET","SRET_math_calculate","","key","4","22.67847422680388","758.3333534223067","422.22223340729164","","","","","20/5= ?","4","1","","","","","","","",""
