"rt","stimulus","response","trial_type","trial_index","time_elapsed","internal_node_id","swb_1","swb_2","swb_3","swb_4","swb_5","LOT_1","LOT_2","LOT_3","LOT_4","LOT_5","LOT_6","IPC_1","IPC_2","IPC_3","IPC_4","IPC_5","IPC_6","IPC_7","IPC_8","MorIden_1","MorIden_2","MorIden_3","MorIden_4","MorIden_5","MorIden_6","MorIden_7","MorIden_8","MorIden_9","MorIden_10","moralSeImag_1","moralSeImag_2","moralSeImag_3","moralSeImag_4","moralSeImag_5","moralSeImag_6","moralSeImag_7","moralSeImag_8","moralSeImag_9","sde_1","sde_2","sde_3","sde_4","sde_5","sde_6","sde_7","sde_8","sde_9","sde_10","trap2","sde_11","sde_12","sde_13","sde_14","sde_15","sde_16","sde_17","sde_18","sde_19","sde_20","IM_1","IM_2","IM_3","IM_4","IM_5","IM_6","IM_7","IM_8","IM_9","IM_10","IM_11","IM_12","IM_13","IM_14","IM_15","IM_16","IM_17","IM_18","IM_19","IM_20","subj_idx","friend_name","ParticipantID","Sex","Word","Word2","value","success","timeout","failed_images","failed_audio","failed_video","user_agent","responses","item_order","radio_event_ids","radio_event_times","key_event_times","mouse_event_times","straightlining","zigzagging","honeypot","task_id","screen_id","time_stamp","response_type","key_press","avg_frame_time","center_x","center_y","person","word","valence","domain","math","correct_response","correct","status","view_history","identity","duration","Image","condition","question_order","trap2_item"
"41888","
   <p><div style='color:white; font-size: 25px'>您好，欢迎参加本次实验。</div></p>
   <p><div style='color:white; font-size: 25px'>为充分保障您的权利，请确保您已经知晓并同意《参与实验同意书》以及《数据公开知情同意书》。</div></p>
   <p><div style='color:white; font-size: 25px'>如果您未见过上述内容，请咨询实验员。</div></p>
   <p style='color:white; font-size: 25px'>如果您选择继续实验，则表示您已经清楚两份知情同意书的内容并同意。</p>
   <p><div style = ""color: pink;font-size:30px;"">请确保您记得day0的实验编号，您将在本次实验输入该编号，若您忘记，请咨询实验员后作答。</div></p>
   <p><div style = ""color:lightblue;font-size:25px;"">请您尽可能认真地作答，我们将依据您在各问卷和按键任务中的作答质量发放报酬。</div></p>
   <p> <div style = ""color: green""><按空格键至下页></div> </p>
   "," ","html-keyboard-response","0","41890","0.0-0.0","6","6","6","6","5","5","3","4","4","5","5","2","-2","1","1","1","2","2","2","5","5","5","5","5","5","5","5","4","4","7","8","7","8","7","7","5","5","5","5","6","3","7","5","5","4","1","5","7","1","4","3","6","6","3","5","4","2","5","6","5","4","3","5","6","3","7","7","6","7","6","5","6","7","7","7","7","6","5","6","776002406046765058","罗","595","Female","[""坏她"",""好我"",""好她"",""坏我""]","[""弱她"",""强我"",""强她"",""弱我""]","","","","","","","","","","","","","","","","","","","","","","","","","","","","","","","","","","","","","","",""
"","","","call-function","1","41892","0.0-1.0-0.0","6","6","6","6","5","5","3","4","4","5","5","2","-2","1","1","1","2","2","2","5","5","5","5","5","5","5","5","4","4","7","8","7","8","7","7","5","5","5","5","6","3","7","5","5","4","1","5","7","1","4","3","6","6","3","5","4","2","5","6","5","4","3","5","6","3","7","7","6","7","6","5","6","7","7","7","7","6","5","6","776002406046765058","罗","595","Female","[""坏她"",""好我"",""好她"",""坏我""]","[""弱她"",""强我"",""强她"",""弱我""]","","","","","","","","","","","","","","","","","","","","","","","","","","","","","","","","","","","","","","",""
"21908","","[{""name"":""Sex"",""value"":""1""},{""name"":""friend_name"",""value"":""罗""},{""name"":""ParticipantID"",""value"":""595""}]","survey-html-form","2","63801","0.0-1.0-1.0","6","6","6","6","5","5","3","4","4","5","5","2","-2","1","1","1","2","2","2","5","5","5","5","5","5","5","5","4","4","7","8","7","8","7","7","5","5","5","5","6","3","7","5","5","4","1","5","7","1","4","3","6","6","3","5","4","2","5","6","5","4","3","5","6","3","7","7","6","7","6","5","6","7","7","7","7","6","5","6","776002406046765058","罗","595","Female","[""坏她"",""好我"",""好她"",""坏我""]","[""弱她"",""强我"",""强她"",""弱我""]","","","","","","","","","","","","","","","","","","","","","","","","","","","","","","","","","","","","","","",""
"","","","preload","3","64114","0.0-2.0","6","6","6","6","5","5","3","4","4","5","5","2","-2","1","1","1","2","2","2","5","5","5","5","5","5","5","5","4","4","7","8","7","8","7","7","5","5","5","5","6","3","7","5","5","4","1","5","7","1","4","3","6","6","3","5","4","2","5","6","5","4","3","5","6","3","7","7","6","7","6","5","6","7","7","7","7","6","5","6","776002406046765058","罗","595","Female","[""坏她"",""好我"",""好她"",""坏我""]","[""弱她"",""强我"",""强她"",""弱我""]","","true","false","[]","[]","[]","","","","","","","","","","","","","","","","","","","","","","","","","","","","","","","","",""
"","","","fullscreen","4","92813","0.0-3.0","6","6","6","6","5","5","3","4","4","5","5","2","-2","1","1","1","2","2","2","5","5","5","5","5","5","5","5","4","4","7","8","7","8","7","7","5","5","5","5","6","3","7","5","5","4","1","5","7","1","4","3","6","6","3","5","4","2","5","6","5","4","3","5","6","3","7","7","6","7","6","5","6","7","7","7","7","6","5","6","776002406046765058","罗","595","Female","[""坏她"",""好我"",""好她"",""坏我""]","[""弱她"",""强我"",""强她"",""弱我""]","","true","","","","","{}","","","","","","","","","","","","","","","","","","","","","","","","","","","","","","","",""
"11705.699999999953","","{""Q01"":""6"",""Q02"":""6"",""Q03"":""6"",""Q04"":""6"",""Q05"":""5""}","survey-template","5","104522","0.0-4.0","6","6","6","6","5","5","3","4","4","5","5","2","-2","1","1","1","2","2","2","5","5","5","5","5","5","5","5","4","4","7","8","7","8","7","7","5","5","5","5","6","3","7","5","5","4","1","5","7","1","4","3","6","6","3","5","4","2","5","6","5","4","3","5","6","3","7","7","6","7","6","5","6","7","7","7","7","6","5","6","776002406046765058","罗","595","Female","[""坏她"",""好我"",""好她"",""坏我""]","[""弱她"",""强我"",""强她"",""弱我""]","","","","","","","","{""Q01"":""6"",""Q02"":""6"",""Q03"":""6"",""Q04"":""6"",""Q05"":""5""}","[0,1,2,3,4]","[""Q01"",""Q02"",""Q03"",""Q04"",""Q05""]","[2768.5,4536.199999999953,5416.399999999907,8136.300000000047,10240.399999999907]","[]","[2768.5,4536.199999999953,5416.399999999907,8136.300000000047,10240.399999999907,11704.600000000093]","0.8","0.25","0","","","","","","","","","","","","","","","","","","","","","","",""
"34539.799999999814","","{""Q01"":""5"",""Q02"":""3"",""Q03"":""4"",""Q04"":""4"",""Q05"":""5"",""Q06"":""5""}","survey-template","6","139066","0.0-5.0","6","6","6","6","5","5","3","4","4","5","5","2","-2","1","1","1","2","2","2","5","5","5","5","5","5","5","5","4","4","7","8","7","8","7","7","5","5","5","5","6","3","7","5","5","4","1","5","7","1","4","3","6","6","3","5","4","2","5","6","5","4","3","5","6","3","7","7","6","7","6","5","6","7","7","7","7","6","5","6","776002406046765058","罗","595","Female","[""坏她"",""好我"",""好她"",""坏我""]","[""弱她"",""强我"",""强她"",""弱我""]","","","","","","","","{""Q01"":""5"",""Q02"":""3"",""Q03"":""4"",""Q04"":""4"",""Q05"":""5"",""Q06"":""5""}","[0,1,2,3,4,5]","[""Q01"",""Q02"",""Q03"",""Q04"",""Q05"",""Q06""]","[8211,16251.399999999907,18290.899999999907,20274.799999999814,25154.799999999814,28378.699999999953]","[]","[8211,16251.399999999907,18290.899999999907,20274.799999999814,24250.799999999814,25154.799999999814,28378.699999999953,34538.89999999991]","0.3333333333333333","0.6","0","","","","","","","","","","","","","","","","","","","","","","",""
"23932.799999999814","","{""Q01"":""2"",""Q02"":""-2"",""Q03"":""1"",""Q04"":""1"",""Q05"":""1"",""Q06"":""2"",""Q07"":""2"",""Q08"":""2""}","survey-template","7","163001","0.0-6.0","6","6","6","6","5","5","3","4","4","5","5","2","-2","1","1","1","2","2","2","5","5","5","5","5","5","5","5","4","4","7","8","7","8","7","7","5","5","5","5","6","3","7","5","5","4","1","5","7","1","4","3","6","6","3","5","4","2","5","6","5","4","3","5","6","3","7","7","6","7","6","5","6","7","7","7","7","6","5","6","776002406046765058","罗","595","Female","[""坏她"",""好我"",""好她"",""坏我""]","[""弱她"",""强我"",""强她"",""弱我""]","","","","","","","","{""Q01"":""2"",""Q02"":""-2"",""Q03"":""1"",""Q04"":""1"",""Q05"":""1"",""Q06"":""2"",""Q07"":""2"",""Q08"":""2""}","[0,1,2,3,4,5,6,7]","[""Q01"",""Q02"",""Q03"",""Q04"",""Q05"",""Q06"",""Q07"",""Q08""]","[2931.7999999998137,6995.799999999814,10043.799999999814,12643.799999999814,14411.699999999953,16355.799999999814,18227.799999999814,19771.699999999953]","[]","[2931.7999999998137,6995.799999999814,10043.799999999814,12643.799999999814,14411.699999999953,16355.799999999814,18227.799999999814,19771.699999999953,23931.699999999953]","0.5","0.14285714285714285","0","","","","","","","","","","","","","","","","","","","","","","",""
"35564","
    <p><div style='color:white;font-size:35px; line-height:20px;'>词汇评估任务</div></p><br>
    <p><div style='color:white;font-size:25px; line-height:20px;'>请再次回忆该亲密的朋友，你们至少2年前就认识了，并且最近2年经常见面。</div></p>
    <p><div style='color:white;font-size:25px; line-height:20px;'>在本实验中，您将会看到一些形容词。</div></p>
    <p><div style='color:yellow;font-size:25px; line-height:20px;'>您的任务是判断这些形容词是否符合对您自己或您的朋友的描述。</div></p><p style='font-size:35px'>符合按<span style=""color:lightgreen""> j 键</span>，不符合按<span style=""color:red""> f 键</span></p>","0","html-button-response","8","198568","0.0-7.0-0.0","6","6","6","6","5","5","3","4","4","5","5","2","-2","1","1","1","2","2","2","5","5","5","5","5","5","5","5","4","4","7","8","7","8","7","7","5","5","5","5","6","3","7","5","5","4","1","5","7","1","4","3","6","6","3","5","4","2","5","6","5","4","3","5","6","3","7","7","6","7","6","5","6","7","7","7","7","6","5","6","776002406046765058","罗","595","Female","[""坏她"",""好我"",""好她"",""坏我""]","[""弱她"",""强我"",""强她"",""弱我""]","","","","","","","","","","","","","","","","","SRET_EW","EW_instructions","Sun Dec 10 2023 15:25:51 GMT+0800 (中国标准时间)","","","","","","","","","","","","","","","","","","","",""
"null","","null","psychophysics","9","201573","0.0-7.0-1.0-0.0","6","6","6","6","5","5","3","4","4","5","5","2","-2","1","1","1","2","2","2","5","5","5","5","5","5","5","5","4","4","7","8","7","8","7","7","5","5","5","5","6","3","7","5","5","4","1","5","7","1","4","3","6","6","3","5","4","2","5","6","5","4","3","5","6","3","7","7","6","7","6","5","6","7","7","7","7","6","5","6","776002406046765058","罗","595","Female","[""坏她"",""好我"",""好她"",""坏我""]","[""弱她"",""强我"",""强她"",""弱我""]","","","","","","","","","","","","","","","","","SRET_EW","EW_practice","","key","null","25.02508333333341","960","536","自己","刻板","Negative","ability","","","","","","","","","","",""
"null","","null","psychophysics","10","204575","0.0-7.0-1.0-0.1","6","6","6","6","5","5","3","4","4","5","5","2","-2","1","1","1","2","2","2","5","5","5","5","5","5","5","5","4","4","7","8","7","8","7","7","5","5","5","5","6","3","7","5","5","4","1","5","7","1","4","3","6","6","3","5","4","2","5","6","5","4","3","5","6","3","7","7","6","7","6","5","6","7","7","7","7","6","5","6","776002406046765058","罗","595","Female","[""坏她"",""好我"",""好她"",""坏我""]","[""弱她"",""强我"",""强她"",""弱我""]","","","","","","","","","","","","","","","","","SRET_EW","EW_practice","","key","null","16.871892655367297","960","536","自己","严谨","Positive","ability","","","","","","","","","","",""
"1927","","j","psychophysics","11","207504","0.0-7.0-1.0-0.2","6","6","6","6","5","5","3","4","4","5","5","2","-2","1","1","1","2","2","2","5","5","5","5","5","5","5","5","4","4","7","8","7","8","7","7","5","5","5","5","6","3","7","5","5","4","1","5","7","1","4","3","6","6","3","5","4","2","5","6","5","4","3","5","6","3","7","7","6","7","6","5","6","7","7","7","7","6","5","6","776002406046765058","罗","595","Female","[""坏她"",""好我"",""好她"",""坏我""]","[""弱她"",""强我"",""强她"",""弱我""]","","","","","","","","yes","","","","","","","","","SRET_EW","EW_practice","","key","j","16.683425287356307","960","536","朋友","忠实","Positive","morality","","","","","","","","","","",""
"null","","null","psychophysics","12","210506","0.0-7.0-1.0-0.3","6","6","6","6","5","5","3","4","4","5","5","2","-2","1","1","1","2","2","2","5","5","5","5","5","5","5","5","4","4","7","8","7","8","7","7","5","5","5","5","6","3","7","5","5","4","1","5","7","1","4","3","6","6","3","5","4","2","5","6","5","4","3","5","6","3","7","7","6","7","6","5","6","7","7","7","7","6","5","6","776002406046765058","罗","595","Female","[""坏她"",""好我"",""好她"",""坏我""]","[""弱她"",""强我"",""强她"",""弱我""]","","","","","","","","","","","","","","","","","SRET_EW","EW_practice","","key","null","16.683284916201224","960","536","朋友","徇私","Negative","morality","","","","","","","","","","",""
"32044","
    <p><div style='color:white;font-size:35px; line-height:20px;'>请您再次阅读实验要求</div></p><br>
    <p><div style='color:white;font-size:25px; line-height:20px;'>请回忆某一个亲密的朋友，你们至少2年前就认识了，并且最近2年经常见面。</div></p>
    <p><div style='color:white;font-size:25px; line-height:20px;'>在本实验中，您将会看到一些形容词。</div></p>
    <p><div style='color:yellow;font-size:25px; line-height:20px;'>您的任务是判断这些形容词是否符合对您自己或您的朋友的描述。</div></p>
    <p><div class='footer' style='font-size:25px; line-height:20px;'>如果对本实验还有不清楚之处，请立即向实验员咨询。</p><p style='font-size:25px; line-height:20px;'>如果您明白了规则：</p><p style='font-size:22px; line-height:20px;'>请按 继续 进入正式实验</p>
    </div>
    <p style='font-size:35px'>符合按<span style=""color:lightgreen""> j 键</span>，不符合按<span style=""color:red""> f 键</span></p>","0","html-button-response","13","242552","0.0-7.0-2.0","6","6","6","6","5","5","3","4","4","5","5","2","-2","1","1","1","2","2","2","5","5","5","5","5","5","5","5","4","4","7","8","7","8","7","7","5","5","5","5","6","3","7","5","5","4","1","5","7","1","4","3","6","6","3","5","4","2","5","6","5","4","3","5","6","3","7","7","6","7","6","5","6","7","7","7","7","6","5","6","776002406046765058","罗","595","Female","[""坏她"",""好我"",""好她"",""坏我""]","[""弱她"",""强我"",""强她"",""弱我""]","","","","","","","","","","","","","","","","","SRET_EW","prac_instructions","Sun Dec 10 2023 15:25:51 GMT+0800 (中国标准时间)","","","","","","","","","","","","","","","","","","","",""
"1198","","j","psychophysics","14","244751","0.0-7.0-3.0-0.0","6","6","6","6","5","5","3","4","4","5","5","2","-2","1","1","1","2","2","2","5","5","5","5","5","5","5","5","4","4","7","8","7","8","7","7","5","5","5","5","6","3","7","5","5","4","1","5","7","1","4","3","6","6","3","5","4","2","5","6","5","4","3","5","6","3","7","7","6","7","6","5","6","7","7","7","7","6","5","6","776002406046765058","罗","595","Female","[""坏她"",""好我"",""好她"",""坏我""]","[""弱她"",""强我"",""强她"",""弱我""]","","","","","","","","yes","","","","","","","","","SRET","EW_formal","","key","j","16.683386363636323","960","536","朋友","务实","Positive","ability","","","","","","","","","","",""
"1214","","f","psychophysics","15","246967","0.0-7.0-3.0-0.1","6","6","6","6","5","5","3","4","4","5","5","2","-2","1","1","1","2","2","2","5","5","5","5","5","5","5","5","4","4","7","8","7","8","7","7","5","5","5","5","6","3","7","5","5","4","1","5","7","1","4","3","6","6","3","5","4","2","5","6","5","4","3","5","6","3","7","7","6","7","6","5","6","7","7","7","7","6","5","6","776002406046765058","罗","595","Female","[""坏她"",""好我"",""好她"",""坏我""]","[""弱她"",""强我"",""强她"",""弱我""]","","","","","","","","no","","","","","","","","","SRET","EW_formal","","key","f","16.68328787878801","960","536","自己","说谎","Negative","morality","","","","","","","","","","",""
"1654","","j","psychophysics","16","249623","0.0-7.0-3.0-0.2","6","6","6","6","5","5","3","4","4","5","5","2","-2","1","1","1","2","2","2","5","5","5","5","5","5","5","5","4","4","7","8","7","8","7","7","5","5","5","5","6","3","7","5","5","4","1","5","7","1","4","3","6","6","3","5","4","2","5","6","5","4","3","5","6","3","7","7","6","7","6","5","6","7","7","7","7","6","5","6","776002406046765058","罗","595","Female","[""坏她"",""好我"",""好她"",""坏我""]","[""弱她"",""强我"",""强她"",""弱我""]","","","","","","","","yes","","","","","","","","","SRET","EW_formal","","key","j","16.78984713375811","960","536","朋友","迷糊","Negative","ability","","","","","","","","","","",""
"1502","","j","psychophysics","17","252128","0.0-7.0-3.0-0.3","6","6","6","6","5","5","3","4","4","5","5","2","-2","1","1","1","2","2","2","5","5","5","5","5","5","5","5","4","4","7","8","7","8","7","7","5","5","5","5","6","3","7","5","5","4","1","5","7","1","4","3","6","6","3","5","4","2","5","6","5","4","3","5","6","3","7","7","6","7","6","5","6","7","7","7","7","6","5","6","776002406046765058","罗","595","Female","[""坏她"",""好我"",""好她"",""坏我""]","[""弱她"",""强我"",""强她"",""弱我""]","","","","","","","","yes","","","","","","","","","SRET","EW_formal","","key","j","16.683550335570384","960","536","自己","坚贞","Positive","morality","","","","","","","","","","",""
"null","","null","psychophysics","18","255130","0.0-7.0-3.0-0.4","6","6","6","6","5","5","3","4","4","5","5","2","-2","1","1","1","2","2","2","5","5","5","5","5","5","5","5","4","4","7","8","7","8","7","7","5","5","5","5","6","3","7","5","5","4","1","5","7","1","4","3","6","6","3","5","4","2","5","6","5","4","3","5","6","3","7","7","6","7","6","5","6","7","7","7","7","6","5","6","776002406046765058","罗","595","Female","[""坏她"",""好我"",""好她"",""坏我""]","[""弱她"",""强我"",""强她"",""弱我""]","","","","","","","","","","","","","","","","","SRET","EW_formal","","key","null","16.683581005586618","960","536","自己","才尽","Negative","ability","","","","","","","","","","",""
"1827","","j","psychophysics","19","257959","0.0-7.0-3.0-0.5","6","6","6","6","5","5","3","4","4","5","5","2","-2","1","1","1","2","2","2","5","5","5","5","5","5","5","5","4","4","7","8","7","8","7","7","5","5","5","5","6","3","7","5","5","4","1","5","7","1","4","3","6","6","3","5","4","2","5","6","5","4","3","5","6","3","7","7","6","7","6","5","6","7","7","7","7","6","5","6","776002406046765058","罗","595","Female","[""坏她"",""好我"",""好她"",""坏我""]","[""弱她"",""强我"",""强她"",""弱我""]","","","","","","","","yes","","","","","","","","","SRET","EW_formal","","key","j","16.683544378698226","960","536","自己","侠义","Positive","morality","","","","","","","","","","",""
"1583","","f","psychophysics","20","260543","0.0-7.0-3.0-0.6","6","6","6","6","5","5","3","4","4","5","5","2","-2","1","1","1","2","2","2","5","5","5","5","5","5","5","5","4","4","7","8","7","8","7","7","5","5","5","5","6","3","7","5","5","4","1","5","7","1","4","3","6","6","3","5","4","2","5","6","5","4","3","5","6","3","7","7","6","7","6","5","6","7","7","7","7","6","5","6","776002406046765058","罗","595","Female","[""坏她"",""好我"",""好她"",""坏我""]","[""弱她"",""强我"",""强她"",""弱我""]","","","","","","","","no","","","","","","","","","SRET","EW_formal","","key","f","16.683355263157864","960","536","朋友","浅薄","Negative","ability","","","","","","","","","","",""
"1814","","f","psychophysics","21","263360","0.0-7.0-3.0-0.7","6","6","6","6","5","5","3","4","4","5","5","2","-2","1","1","1","2","2","2","5","5","5","5","5","5","5","5","4","4","7","8","7","8","7","7","5","5","5","5","6","3","7","5","5","4","1","5","7","1","4","3","6","6","3","5","4","2","5","6","5","4","3","5","6","3","7","7","6","7","6","5","6","7","7","7","7","6","5","6","776002406046765058","罗","595","Female","[""坏她"",""好我"",""好她"",""坏我""]","[""弱她"",""强我"",""强她"",""弱我""]","","","","","","","","no","","","","","","","","","SRET","EW_formal","","key","f","16.6834491017964","960","536","朋友","慈悲","Positive","morality","","","","","","","","","","",""
"1446","","j","psychophysics","22","265807","0.0-7.0-3.0-0.8","6","6","6","6","5","5","3","4","4","5","5","2","-2","1","1","1","2","2","2","5","5","5","5","5","5","5","5","4","4","7","8","7","8","7","7","5","5","5","5","6","3","7","5","5","4","1","5","7","1","4","3","6","6","3","5","4","2","5","6","5","4","3","5","6","3","7","7","6","7","6","5","6","7","7","7","7","6","5","6","776002406046765058","罗","595","Female","[""坏她"",""好我"",""好她"",""坏我""]","[""弱她"",""强我"",""强她"",""弱我""]","","","","","","","","yes","","","","","","","","","SRET","EW_formal","","key","j","16.68304794520532","960","536","朋友","聪明","Positive","ability","","","","","","","","","","",""
"null","","null","psychophysics","23","268810","0.0-7.0-3.0-0.9","6","6","6","6","5","5","3","4","4","5","5","2","-2","1","1","1","2","2","2","5","5","5","5","5","5","5","5","4","4","7","8","7","8","7","7","5","5","5","5","6","3","7","5","5","4","1","5","7","1","4","3","6","6","3","5","4","2","5","6","5","4","3","5","6","3","7","7","6","7","6","5","6","7","7","7","7","6","5","6","776002406046765058","罗","595","Female","[""坏她"",""好我"",""好她"",""坏我""]","[""弱她"",""强我"",""强她"",""弱我""]","","","","","","","","","","","","","","","","","SRET","EW_formal","","key","null","16.68294972067051","960","536","朋友","精干","Positive","ability","","","","","","","","","","",""
"1140","","f","psychophysics","24","270951","0.0-7.0-3.0-0.10","6","6","6","6","5","5","3","4","4","5","5","2","-2","1","1","1","2","2","2","5","5","5","5","5","5","5","5","4","4","7","8","7","8","7","7","5","5","5","5","6","3","7","5","5","4","1","5","7","1","4","3","6","6","3","5","4","2","5","6","5","4","3","5","6","3","7","7","6","7","6","5","6","7","7","7","7","6","5","6","776002406046765058","罗","595","Female","[""坏她"",""好我"",""好她"",""坏我""]","[""弱她"",""强我"",""强她"",""弱我""]","","","","","","","","no","","","","","","","","","SRET","EW_formal","","key","f","16.683724409448693","960","536","朋友","正气","Positive","morality","","","","","","","","","","",""
"null","","null","psychophysics","25","273955","0.0-7.0-3.0-0.11","6","6","6","6","5","5","3","4","4","5","5","2","-2","1","1","1","2","2","2","5","5","5","5","5","5","5","5","4","4","7","8","7","8","7","7","5","5","5","5","6","3","7","5","5","4","1","5","7","1","4","3","6","6","3","5","4","2","5","6","5","4","3","5","6","3","7","7","6","7","6","5","6","7","7","7","7","6","5","6","776002406046765058","罗","595","Female","[""坏她"",""好我"",""好她"",""坏我""]","[""弱她"",""强我"",""强她"",""弱我""]","","","","","","","","","","","","","","","","","SRET","EW_formal","","key","null","16.683111731843585","960","536","自己","高尚","Positive","morality","","","","","","","","","","",""
"1706","","f","psychophysics","26","276664","0.0-7.0-3.0-0.12","6","6","6","6","5","5","3","4","4","5","5","2","-2","1","1","1","2","2","2","5","5","5","5","5","5","5","5","4","4","7","8","7","8","7","7","5","5","5","5","6","3","7","5","5","4","1","5","7","1","4","3","6","6","3","5","4","2","5","6","5","4","3","5","6","3","7","7","6","7","6","5","6","7","7","7","7","6","5","6","776002406046765058","罗","595","Female","[""坏她"",""好我"",""好她"",""坏我""]","[""弱她"",""强我"",""强她"",""弱我""]","","","","","","","","no","","","","","","","","","SRET","EW_formal","","key","f","16.683487654320842","960","536","朋友","孝顺","Positive","morality","","","","","","","","","","",""
"1327","","j","psychophysics","27","278991","0.0-7.0-3.0-0.13","6","6","6","6","5","5","3","4","4","5","5","2","-2","1","1","1","2","2","2","5","5","5","5","5","5","5","5","4","4","7","8","7","8","7","7","5","5","5","5","6","3","7","5","5","4","1","5","7","1","4","3","6","6","3","5","4","2","5","6","5","4","3","5","6","3","7","7","6","7","6","5","6","7","7","7","7","6","5","6","776002406046765058","罗","595","Female","[""坏她"",""好我"",""好她"",""坏我""]","[""弱她"",""强我"",""强她"",""弱我""]","","","","","","","","yes","","","","","","","","","SRET","EW_formal","","key","j","16.683724637681525","960","536","自己","努力","Positive","ability","","","","","","","","","","",""
"951","","f","psychophysics","28","280943","0.0-7.0-3.0-0.14","6","6","6","6","5","5","3","4","4","5","5","2","-2","1","1","1","2","2","2","5","5","5","5","5","5","5","5","4","4","7","8","7","8","7","7","5","5","5","5","6","3","7","5","5","4","1","5","7","1","4","3","6","6","3","5","4","2","5","6","5","4","3","5","6","3","7","7","6","7","6","5","6","7","7","7","7","6","5","6","776002406046765058","罗","595","Female","[""坏她"",""好我"",""好她"",""坏我""]","[""弱她"",""强我"",""强她"",""弱我""]","","","","","","","","no","","","","","","","","","SRET","EW_formal","","key","f","16.683629310344635","960","536","自己","差生","Negative","ability","","","","","","","","","","",""
"1284","","f","psychophysics","29","283255","0.0-7.0-3.0-0.15","6","6","6","6","5","5","3","4","4","5","5","2","-2","1","1","1","2","2","2","5","5","5","5","5","5","5","5","4","4","7","8","7","8","7","7","5","5","5","5","6","3","7","5","5","4","1","5","7","1","4","3","6","6","3","5","4","2","5","6","5","4","3","5","6","3","7","7","6","7","6","5","6","7","7","7","7","6","5","6","776002406046765058","罗","595","Female","[""坏她"",""好我"",""好她"",""坏我""]","[""弱她"",""强我"",""强她"",""弱我""]","","","","","","","","no","","","","","","","","","SRET","EW_formal","","key","f","16.682876811593946","960","536","自己","庸碌","Negative","ability","","","","","","","","","","",""
"1111","","f","psychophysics","30","285368","0.0-7.0-3.0-0.16","6","6","6","6","5","5","3","4","4","5","5","2","-2","1","1","1","2","2","2","5","5","5","5","5","5","5","5","4","4","7","8","7","8","7","7","5","5","5","5","6","3","7","5","5","4","1","5","7","1","4","3","6","6","3","5","4","2","5","6","5","4","3","5","6","3","7","7","6","7","6","5","6","7","7","7","7","6","5","6","776002406046765058","罗","595","Female","[""坏她"",""好我"",""好她"",""坏我""]","[""弱她"",""强我"",""强她"",""弱我""]","","","","","","","","no","","","","","","","","","SRET","EW_formal","","key","f","16.683365079365018","960","536","自己","奸险","Negative","morality","","","","","","","","","","",""
"1197","","f","psychophysics","31","287568","0.0-7.0-3.0-0.17","6","6","6","6","5","5","3","4","4","5","5","2","-2","1","1","1","2","2","2","5","5","5","5","5","5","5","5","4","4","7","8","7","8","7","7","5","5","5","5","6","3","7","5","5","4","1","5","7","1","4","3","6","6","3","5","4","2","5","6","5","4","3","5","6","3","7","7","6","7","6","5","6","7","7","7","7","6","5","6","776002406046765058","罗","595","Female","[""坏她"",""好我"",""好她"",""坏我""]","[""弱她"",""强我"",""强她"",""弱我""]","","","","","","","","no","","","","","","","","","SRET","EW_formal","","key","f","16.68347692307658","960","536","自己","短视","Negative","ability","","","","","","","","","","",""
"1359","","j","psychophysics","32","289927","0.0-7.0-3.0-0.18","6","6","6","6","5","5","3","4","4","5","5","2","-2","1","1","1","2","2","2","5","5","5","5","5","5","5","5","4","4","7","8","7","8","7","7","5","5","5","5","6","3","7","5","5","4","1","5","7","1","4","3","6","6","3","5","4","2","5","6","5","4","3","5","6","3","7","7","6","7","6","5","6","7","7","7","7","6","5","6","776002406046765058","罗","595","Female","[""坏她"",""好我"",""好她"",""坏我""]","[""弱她"",""强我"",""强她"",""弱我""]","","","","","","","","yes","","","","","","","","","SRET","EW_formal","","key","j","16.683014184397113","960","536","朋友","敬业","Positive","morality","","","","","","","","","","",""
"null","","null","psychophysics","33","292930","0.0-7.0-3.0-0.19","6","6","6","6","5","5","3","4","4","5","5","2","-2","1","1","1","2","2","2","5","5","5","5","5","5","5","5","4","4","7","8","7","8","7","7","5","5","5","5","6","3","7","5","5","4","1","5","7","1","4","3","6","6","3","5","4","2","5","6","5","4","3","5","6","3","7","7","6","7","6","5","6","7","7","7","7","6","5","6","776002406046765058","罗","595","Female","[""坏她"",""好我"",""好她"",""坏我""]","[""弱她"",""强我"",""强她"",""弱我""]","","","","","","","","","","","","","","","","","SRET","EW_formal","","key","null","16.683418994413703","960","536","自己","肯干","Positive","ability","","","","","","","","","","",""
"1203","","f","psychophysics","34","295135","0.0-7.0-3.0-0.20","6","6","6","6","5","5","3","4","4","5","5","2","-2","1","1","1","2","2","2","5","5","5","5","5","5","5","5","4","4","7","8","7","8","7","7","5","5","5","5","6","3","7","5","5","4","1","5","7","1","4","3","6","6","3","5","4","2","5","6","5","4","3","5","6","3","7","7","6","7","6","5","6","7","7","7","7","6","5","6","776002406046765058","罗","595","Female","[""坏她"",""好我"",""好她"",""坏我""]","[""弱她"",""强我"",""强她"",""弱我""]","","","","","","","","no","","","","","","","","","SRET","EW_formal","","key","f","16.683633587786126","960","536","自己","逞能","Negative","ability","","","","","","","","","","",""
"1007","","j","psychophysics","35","297144","0.0-7.0-3.0-0.21","6","6","6","6","5","5","3","4","4","5","5","2","-2","1","1","1","2","2","2","5","5","5","5","5","5","5","5","4","4","7","8","7","8","7","7","5","5","5","5","6","3","7","5","5","4","1","5","7","1","4","3","6","6","3","5","4","2","5","6","5","4","3","5","6","3","7","7","6","7","6","5","6","7","7","7","7","6","5","6","776002406046765058","罗","595","Female","[""坏她"",""好我"",""好她"",""坏我""]","[""弱她"",""强我"",""强她"",""弱我""]","","","","","","","","yes","","","","","","","","","SRET","EW_formal","","key","j","16.683722689075733","960","536","朋友","扎实","Positive","ability","","","","","","","","","","",""
"1447","","j","psychophysics","36","299592","0.0-7.0-3.0-0.22","6","6","6","6","5","5","3","4","4","5","5","2","-2","1","1","1","2","2","2","5","5","5","5","5","5","5","5","4","4","7","8","7","8","7","7","5","5","5","5","6","3","7","5","5","4","1","5","7","1","4","3","6","6","3","5","4","2","5","6","5","4","3","5","6","3","7","7","6","7","6","5","6","7","7","7","7","6","5","6","776002406046765058","罗","595","Female","[""坏她"",""好我"",""好她"",""坏我""]","[""弱她"",""强我"",""强她"",""弱我""]","","","","","","","","yes","","","","","","","","","SRET","EW_formal","","key","j","16.6833424657533","960","536","自己","好心","Positive","morality","","","","","","","","","","",""
"1494","","f","psychophysics","37","302087","0.0-7.0-3.0-0.23","6","6","6","6","5","5","3","4","4","5","5","2","-2","1","1","1","2","2","2","5","5","5","5","5","5","5","5","4","4","7","8","7","8","7","7","5","5","5","5","6","3","7","5","5","4","1","5","7","1","4","3","6","6","3","5","4","2","5","6","5","4","3","5","6","3","7","7","6","7","6","5","6","7","7","7","7","6","5","6","776002406046765058","罗","595","Female","[""坏她"",""好我"",""好她"",""坏我""]","[""弱她"",""强我"",""强她"",""弱我""]","","","","","","","","no","","","","","","","","","SRET","EW_formal","","key","f","16.68317449664433","960","536","朋友","短浅","Negative","ability","","","","","","","","","","",""
"1456","","j","psychophysics","38","304544","0.0-7.0-3.0-0.24","6","6","6","6","5","5","3","4","4","5","5","2","-2","1","1","1","2","2","2","5","5","5","5","5","5","5","5","4","4","7","8","7","8","7","7","5","5","5","5","6","3","7","5","5","4","1","5","7","1","4","3","6","6","3","5","4","2","5","6","5","4","3","5","6","3","7","7","6","7","6","5","6","7","7","7","7","6","5","6","776002406046765058","罗","595","Female","[""坏她"",""好我"",""好她"",""坏我""]","[""弱她"",""强我"",""强她"",""弱我""]","","","","","","","","yes","","","","","","","","","SRET","EW_formal","","key","j","16.683506849315176","960","536","朋友","刚正","Positive","morality","","","","","","","","","","",""
"1541","","f","psychophysics","39","307087","0.0-7.0-3.0-0.25","6","6","6","6","5","5","3","4","4","5","5","2","-2","1","1","1","2","2","2","5","5","5","5","5","5","5","5","4","4","7","8","7","8","7","7","5","5","5","5","6","3","7","5","5","4","1","5","7","1","4","3","6","6","3","5","4","2","5","6","5","4","3","5","6","3","7","7","6","7","6","5","6","7","7","7","7","6","5","6","776002406046765058","罗","595","Female","[""坏她"",""好我"",""好她"",""坏我""]","[""弱她"",""强我"",""强她"",""弱我""]","","","","","","","","no","","","","","","","","","SRET","EW_formal","","key","f","16.68334437086091","960","536","朋友","拙笨","Negative","ability","","","","","","","","","","",""
"1246","","j","psychophysics","40","309335","0.0-7.0-3.0-0.26","6","6","6","6","5","5","3","4","4","5","5","2","-2","1","1","1","2","2","2","5","5","5","5","5","5","5","5","4","4","7","8","7","8","7","7","5","5","5","5","6","3","7","5","5","4","1","5","7","1","4","3","6","6","3","5","4","2","5","6","5","4","3","5","6","3","7","7","6","7","6","5","6","7","7","7","7","6","5","6","776002406046765058","罗","595","Female","[""坏她"",""好我"",""好她"",""坏我""]","[""弱她"",""强我"",""强她"",""弱我""]","","","","","","","","yes","","","","","","","","","SRET","EW_formal","","key","j","16.683402985074633","960","536","自己","宽容","Positive","morality","","","","","","","","","","",""
"1143","","f","psychophysics","41","311480","0.0-7.0-3.0-0.27","6","6","6","6","5","5","3","4","4","5","5","2","-2","1","1","1","2","2","2","5","5","5","5","5","5","5","5","4","4","7","8","7","8","7","7","5","5","5","5","6","3","7","5","5","4","1","5","7","1","4","3","6","6","3","5","4","2","5","6","5","4","3","5","6","3","7","7","6","7","6","5","6","7","7","7","7","6","5","6","776002406046765058","罗","595","Female","[""坏她"",""好我"",""好她"",""坏我""]","[""弱她"",""强我"",""强她"",""弱我""]","","","","","","","","no","","","","","","","","","SRET","EW_formal","","key","f","16.68364843749987","960","536","朋友","盲目","Negative","ability","","","","","","","","","","",""
"1567","","j","psychophysics","42","314047","0.0-7.0-3.0-0.28","6","6","6","6","5","5","3","4","4","5","5","2","-2","1","1","1","2","2","2","5","5","5","5","5","5","5","5","4","4","7","8","7","8","7","7","5","5","5","5","6","3","7","5","5","4","1","5","7","1","4","3","6","6","3","5","4","2","5","6","5","4","3","5","6","3","7","7","6","7","6","5","6","7","7","7","7","6","5","6","776002406046765058","罗","595","Female","[""坏她"",""好我"",""好她"",""坏我""]","[""弱她"",""强我"",""强她"",""弱我""]","","","","","","","","yes","","","","","","","","","SRET","EW_formal","","key","j","16.683300653594664","960","536","自己","忠勇","Positive","morality","","","","","","","","","","",""
"1014","","j","psychophysics","43","316064","0.0-7.0-3.0-0.29","6","6","6","6","5","5","3","4","4","5","5","2","-2","1","1","1","2","2","2","5","5","5","5","5","5","5","5","4","4","7","8","7","8","7","7","5","5","5","5","6","3","7","5","5","4","1","5","7","1","4","3","6","6","3","5","4","2","5","6","5","4","3","5","6","3","7","7","6","7","6","5","6","7","7","7","7","6","5","6","776002406046765058","罗","595","Female","[""坏她"",""好我"",""好她"",""坏我""]","[""弱她"",""强我"",""强她"",""弱我""]","","","","","","","","yes","","","","","","","","","SRET","EW_formal","","key","j","16.68289075630273","960","536","自己","坚持","Positive","ability","","","","","","","","","","",""
"1277","","j","psychophysics","44","318344","0.0-7.0-3.0-0.30","6","6","6","6","5","5","3","4","4","5","5","2","-2","1","1","1","2","2","2","5","5","5","5","5","5","5","5","4","4","7","8","7","8","7","7","5","5","5","5","6","3","7","5","5","4","1","5","7","1","4","3","6","6","3","5","4","2","5","6","5","4","3","5","6","3","7","7","6","7","6","5","6","7","7","7","7","6","5","6","776002406046765058","罗","595","Female","[""坏她"",""好我"",""好她"",""坏我""]","[""弱她"",""强我"",""强她"",""弱我""]","","","","","","","","yes","","","","","","","","","SRET","EW_formal","","key","j","16.683735294117735","960","536","朋友","清廉","Positive","morality","","","","","","","","","","",""
"958","","f","psychophysics","45","320304","0.0-7.0-3.0-0.31","6","6","6","6","5","5","3","4","4","5","5","2","-2","1","1","1","2","2","2","5","5","5","5","5","5","5","5","4","4","7","8","7","8","7","7","5","5","5","5","6","3","7","5","5","4","1","5","7","1","4","3","6","6","3","5","4","2","5","6","5","4","3","5","6","3","7","7","6","7","6","5","6","7","7","7","7","6","5","6","776002406046765058","罗","595","Female","[""坏她"",""好我"",""好她"",""坏我""]","[""弱她"",""强我"",""强她"",""弱我""]","","","","","","","","no","","","","","","","","","SRET","EW_formal","","key","f","16.68326495726529","960","536","自己","弱智","Negative","ability","","","","","","","","","","",""
"1086","","j","psychophysics","46","322392","0.0-7.0-3.0-0.32","6","6","6","6","5","5","3","4","4","5","5","2","-2","1","1","1","2","2","2","5","5","5","5","5","5","5","5","4","4","7","8","7","8","7","7","5","5","5","5","6","3","7","5","5","4","1","5","7","1","4","3","6","6","3","5","4","2","5","6","5","4","3","5","6","3","7","7","6","7","6","5","6","7","7","7","7","6","5","6","776002406046765058","罗","595","Female","[""坏她"",""好我"",""好她"",""坏我""]","[""弱她"",""强我"",""强她"",""弱我""]","","","","","","","","yes","","","","","","","","","SRET","EW_formal","","key","j","16.683435483871314","960","536","朋友","忠义","Positive","morality","","","","","","","","","","",""
"1182","","f","psychophysics","47","324576","0.0-7.0-3.0-0.33","6","6","6","6","5","5","3","4","4","5","5","2","-2","1","1","1","2","2","2","5","5","5","5","5","5","5","5","4","4","7","8","7","8","7","7","5","5","5","5","6","3","7","5","5","4","1","5","7","1","4","3","6","6","3","5","4","2","5","6","5","4","3","5","6","3","7","7","6","7","6","5","6","7","7","7","7","6","5","6","776002406046765058","罗","595","Female","[""坏她"",""好我"",""好她"",""坏我""]","[""弱她"",""强我"",""强她"",""弱我""]","","","","","","","","no","","","","","","","","","SRET","EW_formal","","key","f","16.68297692307701","960","536","朋友","利己","Negative","morality","","","","","","","","","","",""
"1095","","f","psychophysics","48","326671","0.0-7.0-3.0-0.34","6","6","6","6","5","5","3","4","4","5","5","2","-2","1","1","1","2","2","2","5","5","5","5","5","5","5","5","4","4","7","8","7","8","7","7","5","5","5","5","6","3","7","5","5","4","1","5","7","1","4","3","6","6","3","5","4","2","5","6","5","4","3","5","6","3","7","7","6","7","6","5","6","7","7","7","7","6","5","6","776002406046765058","罗","595","Female","[""坏她"",""好我"",""好她"",""坏我""]","[""弱她"",""强我"",""强她"",""弱我""]","","","","","","","","no","","","","","","","","","SRET","EW_formal","","key","f","16.683451612902928","960","536","自己","歹毒","Negative","morality","","","","","","","","","","",""
"1510","","f","psychophysics","49","329184","0.0-7.0-3.0-0.35","6","6","6","6","5","5","3","4","4","5","5","2","-2","1","1","1","2","2","2","5","5","5","5","5","5","5","5","4","4","7","8","7","8","7","7","5","5","5","5","6","3","7","5","5","4","1","5","7","1","4","3","6","6","3","5","4","2","5","6","5","4","3","5","6","3","7","7","6","7","6","5","6","7","7","7","7","6","5","6","776002406046765058","罗","595","Female","[""坏她"",""好我"",""好她"",""坏我""]","[""弱她"",""强我"",""强她"",""弱我""]","","","","","","","","no","","","","","","","","","SRET","EW_formal","","key","f","16.68358666666667","960","536","自己","无知","Negative","ability","","","","","","","","","","",""
"1206","","f","psychophysics","50","331392","0.0-7.0-3.0-0.36","6","6","6","6","5","5","3","4","4","5","5","2","-2","1","1","1","2","2","2","5","5","5","5","5","5","5","5","4","4","7","8","7","8","7","7","5","5","5","5","6","3","7","5","5","4","1","5","7","1","4","3","6","6","3","5","4","2","5","6","5","4","3","5","6","3","7","7","6","7","6","5","6","7","7","7","7","6","5","6","776002406046765058","罗","595","Female","[""坏她"",""好我"",""好她"",""坏我""]","[""弱她"",""强我"",""强她"",""弱我""]","","","","","","","","no","","","","","","","","","SRET","EW_formal","","key","f","16.683656488549683","960","536","朋友","中用","Positive","ability","","","","","","","","","","",""
"1263","","f","psychophysics","51","333656","0.0-7.0-3.0-0.37","6","6","6","6","5","5","3","4","4","5","5","2","-2","1","1","1","2","2","2","5","5","5","5","5","5","5","5","4","4","7","8","7","8","7","7","5","5","5","5","6","3","7","5","5","4","1","5","7","1","4","3","6","6","3","5","4","2","5","6","5","4","3","5","6","3","7","7","6","7","6","5","6","7","7","7","7","6","5","6","776002406046765058","罗","595","Female","[""坏她"",""好我"",""好她"",""坏我""]","[""弱她"",""强我"",""强她"",""弱我""]","","","","","","","","no","","","","","","","","","SRET","EW_formal","","key","f","16.68338518518506","960","536","自己","拜金","Negative","morality","","","","","","","","","","",""
"1151","","j","psychophysics","52","335807","0.0-7.0-3.0-0.38","6","6","6","6","5","5","3","4","4","5","5","2","-2","1","1","1","2","2","2","5","5","5","5","5","5","5","5","4","4","7","8","7","8","7","7","5","5","5","5","6","3","7","5","5","4","1","5","7","1","4","3","6","6","3","5","4","2","5","6","5","4","3","5","6","3","7","7","6","7","6","5","6","7","7","7","7","6","5","6","776002406046765058","罗","595","Female","[""坏她"",""好我"",""好她"",""坏我""]","[""弱她"",""强我"",""强她"",""弱我""]","","","","","","","","yes","","","","","","","","","SRET","EW_formal","","key","j","16.683515624999927","960","536","自己","礼貌","Positive","morality","","","","","","","","","","",""
"1711","","f","psychophysics","53","338520","0.0-7.0-3.0-0.39","6","6","6","6","5","5","3","4","4","5","5","2","-2","1","1","1","2","2","2","5","5","5","5","5","5","5","5","4","4","7","8","7","8","7","7","5","5","5","5","6","3","7","5","5","4","1","5","7","1","4","3","6","6","3","5","4","2","5","6","5","4","3","5","6","3","7","7","6","7","6","5","6","7","7","7","7","6","5","6","776002406046765058","罗","595","Female","[""坏她"",""好我"",""好她"",""坏我""]","[""弱她"",""强我"",""强她"",""弱我""]","","","","","","","","no","","","","","","","","","SRET","EW_formal","","key","f","16.683567901234643","960","536","自己","淡泊","Positive","morality","","","","","","","","","","",""
"862","","f","psychophysics","54","340383","0.0-7.0-3.0-0.40","6","6","6","6","5","5","3","4","4","5","5","2","-2","1","1","1","2","2","2","5","5","5","5","5","5","5","5","4","4","7","8","7","8","7","7","5","5","5","5","6","3","7","5","5","4","1","5","7","1","4","3","6","6","3","5","4","2","5","6","5","4","3","5","6","3","7","7","6","7","6","5","6","7","7","7","7","6","5","6","776002406046765058","罗","595","Female","[""坏她"",""好我"",""好她"",""坏我""]","[""弱她"",""强我"",""强她"",""弱我""]","","","","","","","","no","","","","","","","","","SRET","EW_formal","","key","f","16.683272727272495","960","536","自己","无为","Negative","ability","","","","","","","","","","",""
"1286","","f","psychophysics","55","342672","0.0-7.0-3.0-0.41","6","6","6","6","5","5","3","4","4","5","5","2","-2","1","1","1","2","2","2","5","5","5","5","5","5","5","5","4","4","7","8","7","8","7","7","5","5","5","5","6","3","7","5","5","4","1","5","7","1","4","3","6","6","3","5","4","2","5","6","5","4","3","5","6","3","7","7","6","7","6","5","6","7","7","7","7","6","5","6","776002406046765058","罗","595","Female","[""坏她"",""好我"",""好她"",""坏我""]","[""弱她"",""强我"",""强她"",""弱我""]","","","","","","","","no","","","","","","","","","SRET","EW_formal","","key","f","16.683235294117527","960","536","朋友","能干","Positive","ability","","","","","","","","","","",""
"1174","","f","psychophysics","56","344848","0.0-7.0-3.0-0.42","6","6","6","6","5","5","3","4","4","5","5","2","-2","1","1","1","2","2","2","5","5","5","5","5","5","5","5","4","4","7","8","7","8","7","7","5","5","5","5","6","3","7","5","5","4","1","5","7","1","4","3","6","6","3","5","4","2","5","6","5","4","3","5","6","3","7","7","6","7","6","5","6","7","7","7","7","6","5","6","776002406046765058","罗","595","Female","[""坏她"",""好我"",""好她"",""坏我""]","[""弱她"",""强我"",""强她"",""弱我""]","","","","","","","","no","","","","","","","","","SRET","EW_formal","","key","f","16.683407692307643","960","536","朋友","失信","Negative","morality","","","","","","","","","","",""
"894","","f","psychophysics","57","346744","0.0-7.0-3.0-0.43","6","6","6","6","5","5","3","4","4","5","5","2","-2","1","1","1","2","2","2","5","5","5","5","5","5","5","5","4","4","7","8","7","8","7","7","5","5","5","5","6","3","7","5","5","4","1","5","7","1","4","3","6","6","3","5","4","2","5","6","5","4","3","5","6","3","7","7","6","7","6","5","6","7","7","7","7","6","5","6","776002406046765058","罗","595","Female","[""坏她"",""好我"",""好她"",""坏我""]","[""弱她"",""强我"",""强她"",""弱我""]","","","","","","","","no","","","","","","","","","SRET","EW_formal","","key","f","16.683535714285558","960","536","朋友","淫乱","Negative","morality","","","","","","","","","","",""
"934","","f","psychophysics","58","348680","0.0-7.0-3.0-0.44","6","6","6","6","5","5","3","4","4","5","5","2","-2","1","1","1","2","2","2","5","5","5","5","5","5","5","5","4","4","7","8","7","8","7","7","5","5","5","5","6","3","7","5","5","4","1","5","7","1","4","3","6","6","3","5","4","2","5","6","5","4","3","5","6","3","7","7","6","7","6","5","6","7","7","7","7","6","5","6","776002406046765058","罗","595","Female","[""坏她"",""好我"",""好她"",""坏我""]","[""弱她"",""强我"",""强她"",""弱我""]","","","","","","","","no","","","","","","","","","SRET","EW_formal","","key","f","16.6832695652174","960","536","自己","背叛","Negative","morality","","","","","","","","","","",""
"853","","f","psychophysics","59","350535","0.0-7.0-3.0-0.45","6","6","6","6","5","5","3","4","4","5","5","2","-2","1","1","1","2","2","2","5","5","5","5","5","5","5","5","4","4","7","8","7","8","7","7","5","5","5","5","6","3","7","5","5","4","1","5","7","1","4","3","6","6","3","5","4","2","5","6","5","4","3","5","6","3","7","7","6","7","6","5","6","7","7","7","7","6","5","6","776002406046765058","罗","595","Female","[""坏她"",""好我"",""好她"",""坏我""]","[""弱她"",""强我"",""强她"",""弱我""]","","","","","","","","no","","","","","","","","","SRET","EW_formal","","key","f","16.682945945946216","960","536","朋友","小人","Negative","morality","","","","","","","","","","",""
"943","","j","psychophysics","60","352480","0.0-7.0-3.0-0.46","6","6","6","6","5","5","3","4","4","5","5","2","-2","1","1","1","2","2","2","5","5","5","5","5","5","5","5","4","4","7","8","7","8","7","7","5","5","5","5","6","3","7","5","5","4","1","5","7","1","4","3","6","6","3","5","4","2","5","6","5","4","3","5","6","3","7","7","6","7","6","5","6","7","7","7","7","6","5","6","776002406046765058","罗","595","Female","[""坏她"",""好我"",""好她"",""坏我""]","[""弱她"",""强我"",""强她"",""弱我""]","","","","","","","","yes","","","","","","","","","SRET","EW_formal","","key","j","16.683791304347814","960","536","朋友","守法","Positive","morality","","","","","","","","","","",""
"1133","","j","psychophysics","61","354615","0.0-7.0-3.0-0.47","6","6","6","6","5","5","3","4","4","5","5","2","-2","1","1","1","2","2","2","5","5","5","5","5","5","5","5","4","4","7","8","7","8","7","7","5","5","5","5","6","3","7","5","5","4","1","5","7","1","4","3","6","6","3","5","4","2","5","6","5","4","3","5","6","3","7","7","6","7","6","5","6","7","7","7","7","6","5","6","776002406046765058","罗","595","Female","[""坏她"",""好我"",""好她"",""坏我""]","[""弱她"",""强我"",""强她"",""弱我""]","","","","","","","","yes","","","","","","","","","SRET","EW_formal","","key","j","16.683677165354254","960","536","自己","细心","Positive","ability","","","","","","","","","","",""
"1287","","f","psychophysics","62","356903","0.0-7.0-3.0-0.48","6","6","6","6","5","5","3","4","4","5","5","2","-2","1","1","1","2","2","2","5","5","5","5","5","5","5","5","4","4","7","8","7","8","7","7","5","5","5","5","6","3","7","5","5","4","1","5","7","1","4","3","6","6","3","5","4","2","5","6","5","4","3","5","6","3","7","7","6","7","6","5","6","7","7","7","7","6","5","6","776002406046765058","罗","595","Female","[""坏她"",""好我"",""好她"",""坏我""]","[""弱她"",""强我"",""强她"",""弱我""]","","","","","","","","no","","","","","","","","","SRET","EW_formal","","key","f","16.683205882353136","960","536","朋友","畏难","Negative","ability","","","","","","","","","","",""
"1263","","j","psychophysics","63","359167","0.0-7.0-3.0-0.49","6","6","6","6","5","5","3","4","4","5","5","2","-2","1","1","1","2","2","2","5","5","5","5","5","5","5","5","4","4","7","8","7","8","7","7","5","5","5","5","6","3","7","5","5","4","1","5","7","1","4","3","6","6","3","5","4","2","5","6","5","4","3","5","6","3","7","7","6","7","6","5","6","7","7","7","7","6","5","6","776002406046765058","罗","595","Female","[""坏她"",""好我"",""好她"",""坏我""]","[""弱她"",""强我"",""强她"",""弱我""]","","","","","","","","yes","","","","","","","","","SRET","EW_formal","","key","j","16.683051851851847","960","536","自己","热心","Positive","morality","","","","","","","","","","",""
"983","","f","psychophysics","64","361151","0.0-7.0-3.0-0.50","6","6","6","6","5","5","3","4","4","5","5","2","-2","1","1","1","2","2","2","5","5","5","5","5","5","5","5","4","4","7","8","7","8","7","7","5","5","5","5","6","3","7","5","5","4","1","5","7","1","4","3","6","6","3","5","4","2","5","6","5","4","3","5","6","3","7","7","6","7","6","5","6","7","7","7","7","6","5","6","776002406046765058","罗","595","Female","[""坏她"",""好我"",""好她"",""坏我""]","[""弱她"",""强我"",""强她"",""弱我""]","","","","","","","","no","","","","","","","","","SRET","EW_formal","","key","f","16.68327966101677","960","536","自己","狡狯","Negative","morality","","","","","","","","","","",""
"1198","","f","psychophysics","65","363351","0.0-7.0-3.0-0.51","6","6","6","6","5","5","3","4","4","5","5","2","-2","1","1","1","2","2","2","5","5","5","5","5","5","5","5","4","4","7","8","7","8","7","7","5","5","5","5","6","3","7","5","5","4","1","5","7","1","4","3","6","6","3","5","4","2","5","6","5","4","3","5","6","3","7","7","6","7","6","5","6","7","7","7","7","6","5","6","776002406046765058","罗","595","Female","[""坏她"",""好我"",""好她"",""坏我""]","[""弱她"",""强我"",""强她"",""弱我""]","","","","","","","","no","","","","","","","","","SRET","EW_formal","","key","f","16.68375572519073","960","536","朋友","全才","Positive","ability","","","","","","","","","","",""
"958","","j","psychophysics","66","365311","0.0-7.0-3.0-0.52","6","6","6","6","5","5","3","4","4","5","5","2","-2","1","1","1","2","2","2","5","5","5","5","5","5","5","5","4","4","7","8","7","8","7","7","5","5","5","5","6","3","7","5","5","4","1","5","7","1","4","3","6","6","3","5","4","2","5","6","5","4","3","5","6","3","7","7","6","7","6","5","6","7","7","7","7","6","5","6","776002406046765058","罗","595","Female","[""坏她"",""好我"",""好她"",""坏我""]","[""弱她"",""强我"",""强她"",""弱我""]","","","","","","","","yes","","","","","","","","","SRET","EW_formal","","key","j","16.682974137930835","960","536","朋友","刻苦","Positive","ability","","","","","","","","","","",""
"1030","","j","psychophysics","67","367343","0.0-7.0-3.0-0.53","6","6","6","6","5","5","3","4","4","5","5","2","-2","1","1","1","2","2","2","5","5","5","5","5","5","5","5","4","4","7","8","7","8","7","7","5","5","5","5","6","3","7","5","5","4","1","5","7","1","4","3","6","6","3","5","4","2","5","6","5","4","3","5","6","3","7","7","6","7","6","5","6","7","7","7","7","6","5","6","776002406046765058","罗","595","Female","[""坏她"",""好我"",""好她"",""坏我""]","[""弱她"",""强我"",""强她"",""弱我""]","","","","","","","","yes","","","","","","","","","SRET","EW_formal","","key","j","16.683603305785248","960","536","朋友","智慧","Positive","ability","","","","","","","","","","",""
"1118","","f","psychophysics","68","369463","0.0-7.0-3.0-0.54","6","6","6","6","5","5","3","4","4","5","5","2","-2","1","1","1","2","2","2","5","5","5","5","5","5","5","5","4","4","7","8","7","8","7","7","5","5","5","5","6","3","7","5","5","4","1","5","7","1","4","3","6","6","3","5","4","2","5","6","5","4","3","5","6","3","7","7","6","7","6","5","6","7","7","7","7","6","5","6","776002406046765058","罗","595","Female","[""坏她"",""好我"",""好她"",""坏我""]","[""弱她"",""强我"",""强她"",""弱我""]","","","","","","","","no","","","","","","","","","SRET","EW_formal","","key","f","16.683317460317447","960","536","自己","思辨","Positive","ability","","","","","","","","","","",""
"982","","f","psychophysics","69","371447","0.0-7.0-3.0-0.55","6","6","6","6","5","5","3","4","4","5","5","2","-2","1","1","1","2","2","2","5","5","5","5","5","5","5","5","4","4","7","8","7","8","7","7","5","5","5","5","6","3","7","5","5","4","1","5","7","1","4","3","6","6","3","5","4","2","5","6","5","4","3","5","6","3","7","7","6","7","6","5","6","7","7","7","7","6","5","6","776002406046765058","罗","595","Female","[""坏她"",""好我"",""好她"",""坏我""]","[""弱她"",""强我"",""强她"",""弱我""]","","","","","","","","no","","","","","","","","","SRET","EW_formal","","key","f","16.68311016949168","960","536","朋友","愚钝","Negative","ability","","","","","","","","","","",""
"927","","f","psychophysics","70","373375","0.0-7.0-3.0-0.56","6","6","6","6","5","5","3","4","4","5","5","2","-2","1","1","1","2","2","2","5","5","5","5","5","5","5","5","4","4","7","8","7","8","7","7","5","5","5","5","6","3","7","5","5","4","1","5","7","1","4","3","6","6","3","5","4","2","5","6","5","4","3","5","6","3","7","7","6","7","6","5","6","7","7","7","7","6","5","6","776002406046765058","罗","595","Female","[""坏她"",""好我"",""好她"",""坏我""]","[""弱她"",""强我"",""强她"",""弱我""]","","","","","","","","no","","","","","","","","","SRET","EW_formal","","key","f","16.68367826086975","960","536","自己","不孝","Negative","morality","","","","","","","","","","",""
"927","","f","psychophysics","71","375303","0.0-7.0-3.0-0.57","6","6","6","6","5","5","3","4","4","5","5","2","-2","1","1","1","2","2","2","5","5","5","5","5","5","5","5","4","4","7","8","7","8","7","7","5","5","5","5","6","3","7","5","5","4","1","5","7","1","4","3","6","6","3","5","4","2","5","6","5","4","3","5","6","3","7","7","6","7","6","5","6","7","7","7","7","6","5","6","776002406046765058","罗","595","Female","[""坏她"",""好我"",""好她"",""坏我""]","[""弱她"",""强我"",""强她"",""弱我""]","","","","","","","","no","","","","","","","","","SRET","EW_formal","","key","f","16.683157894736883","960","536","自己","草率","Negative","ability","","","","","","","","","","",""
"894","","f","psychophysics","72","377199","0.0-7.0-3.0-0.58","6","6","6","6","5","5","3","4","4","5","5","2","-2","1","1","1","2","2","2","5","5","5","5","5","5","5","5","4","4","7","8","7","8","7","7","5","5","5","5","6","3","7","5","5","4","1","5","7","1","4","3","6","6","3","5","4","2","5","6","5","4","3","5","6","3","7","7","6","7","6","5","6","7","7","7","7","6","5","6","776002406046765058","罗","595","Female","[""坏她"",""好我"",""好她"",""坏我""]","[""弱她"",""强我"",""强她"",""弱我""]","","","","","","","","no","","","","","","","","","SRET","EW_formal","","key","f","16.683646017698926","960","536","朋友","下流","Negative","morality","","","","","","","","","","",""
"991","","j","psychophysics","73","379191","0.0-7.0-3.0-0.59","6","6","6","6","5","5","3","4","4","5","5","2","-2","1","1","1","2","2","2","5","5","5","5","5","5","5","5","4","4","7","8","7","8","7","7","5","5","5","5","6","3","7","5","5","4","1","5","7","1","4","3","6","6","3","5","4","2","5","6","5","4","3","5","6","3","7","7","6","7","6","5","6","7","7","7","7","6","5","6","776002406046765058","罗","595","Female","[""坏她"",""好我"",""好她"",""坏我""]","[""弱她"",""强我"",""强她"",""弱我""]","","","","","","","","yes","","","","","","","","","SRET","EW_formal","","key","j","16.683169491525437","960","536","朋友","勤奋","Positive","ability","","","","","","","","","","",""
"934","","f","psychophysics","74","381127","0.0-7.0-3.0-0.60","6","6","6","6","5","5","3","4","4","5","5","2","-2","1","1","1","2","2","2","5","5","5","5","5","5","5","5","4","4","7","8","7","8","7","7","5","5","5","5","6","3","7","5","5","4","1","5","7","1","4","3","6","6","3","5","4","2","5","6","5","4","3","5","6","3","7","7","6","7","6","5","6","7","7","7","7","6","5","6","776002406046765058","罗","595","Female","[""坏她"",""好我"",""好她"",""坏我""]","[""弱她"",""强我"",""强她"",""弱我""]","","","","","","","","no","","","","","","","","","SRET","EW_formal","","key","f","16.683226086956488","960","536","朋友","蛇蝎","Negative","morality","","","","","","","","","","",""
"871","","f","psychophysics","75","383000","0.0-7.0-3.0-0.61","6","6","6","6","5","5","3","4","4","5","5","2","-2","1","1","1","2","2","2","5","5","5","5","5","5","5","5","4","4","7","8","7","8","7","7","5","5","5","5","6","3","7","5","5","4","1","5","7","1","4","3","6","6","3","5","4","2","5","6","5","4","3","5","6","3","7","7","6","7","6","5","6","7","7","7","7","6","5","6","776002406046765058","罗","595","Female","[""坏她"",""好我"",""好她"",""坏我""]","[""弱她"",""强我"",""强她"",""弱我""]","","","","","","","","no","","","","","","","","","SRET","EW_formal","","key","f","16.683187499999935","960","536","朋友","贪污","Negative","morality","","","","","","","","","","",""
"974","","f","psychophysics","76","384975","0.0-7.0-3.0-0.62","6","6","6","6","5","5","3","4","4","5","5","2","-2","1","1","1","2","2","2","5","5","5","5","5","5","5","5","4","4","7","8","7","8","7","7","5","5","5","5","6","3","7","5","5","4","1","5","7","1","4","3","6","6","3","5","4","2","5","6","5","4","3","5","6","3","7","7","6","7","6","5","6","7","7","7","7","6","5","6","776002406046765058","罗","595","Female","[""坏她"",""好我"",""好她"",""坏我""]","[""弱她"",""强我"",""强她"",""弱我""]","","","","","","","","no","","","","","","","","","SRET","EW_formal","","key","f","16.683307692308066","960","536","朋友","迂拙","Negative","ability","","","","","","","","","","",""
"1190","","j","psychophysics","77","387167","0.0-7.0-3.0-0.63","6","6","6","6","5","5","3","4","4","5","5","2","-2","1","1","1","2","2","2","5","5","5","5","5","5","5","5","4","4","7","8","7","8","7","7","5","5","5","5","6","3","7","5","5","4","1","5","7","1","4","3","6","6","3","5","4","2","5","6","5","4","3","5","6","3","7","7","6","7","6","5","6","7","7","7","7","6","5","6","776002406046765058","罗","595","Female","[""坏她"",""好我"",""好她"",""坏我""]","[""弱她"",""强我"",""强她"",""弱我""]","","","","","","","","yes","","","","","","","","","SRET","EW_formal","","key","j","16.68327692307693","960","536","自己","娴熟","Positive","ability","","","","","","","","","","",""
"903","","f","psychophysics","78","389072","0.0-7.0-3.0-0.64","6","6","6","6","5","5","3","4","4","5","5","2","-2","1","1","1","2","2","2","5","5","5","5","5","5","5","5","4","4","7","8","7","8","7","7","5","5","5","5","6","3","7","5","5","4","1","5","7","1","4","3","6","6","3","5","4","2","5","6","5","4","3","5","6","3","7","7","6","7","6","5","6","7","7","7","7","6","5","6","776002406046765058","罗","595","Female","[""坏她"",""好我"",""好她"",""坏我""]","[""弱她"",""强我"",""强她"",""弱我""]","","","","","","","","no","","","","","","","","","SRET","EW_formal","","key","f","16.682912280701874","960","536","朋友","昏庸","Negative","ability","","","","","","","","","","",""
"791","","f","psychophysics","79","390863","0.0-7.0-3.0-0.65","6","6","6","6","5","5","3","4","4","5","5","2","-2","1","1","1","2","2","2","5","5","5","5","5","5","5","5","4","4","7","8","7","8","7","7","5","5","5","5","6","3","7","5","5","4","1","5","7","1","4","3","6","6","3","5","4","2","5","6","5","4","3","5","6","3","7","7","6","7","6","5","6","7","7","7","7","6","5","6","776002406046765058","罗","595","Female","[""坏她"",""好我"",""好她"",""坏我""]","[""弱她"",""强我"",""强她"",""弱我""]","","","","","","","","no","","","","","","","","","SRET","EW_formal","","key","f","16.68372641509412","960","536","朋友","贪腐","Negative","morality","","","","","","","","","","",""
"966","","f","psychophysics","80","392831","0.0-7.0-3.0-0.66","6","6","6","6","5","5","3","4","4","5","5","2","-2","1","1","1","2","2","2","5","5","5","5","5","5","5","5","4","4","7","8","7","8","7","7","5","5","5","5","6","3","7","5","5","4","1","5","7","1","4","3","6","6","3","5","4","2","5","6","5","4","3","5","6","3","7","7","6","7","6","5","6","7","7","7","7","6","5","6","776002406046765058","罗","595","Female","[""坏她"",""好我"",""好她"",""坏我""]","[""弱她"",""强我"",""强她"",""弱我""]","","","","","","","","no","","","","","","","","","SRET","EW_formal","","key","f","16.683333333332936","960","536","自己","自私","Negative","morality","","","","","","","","","","",""
"1128","","f","psychophysics","81","394960","0.0-7.0-3.0-0.67","6","6","6","6","5","5","3","4","4","5","5","2","-2","1","1","1","2","2","2","5","5","5","5","5","5","5","5","4","4","7","8","7","8","7","7","5","5","5","5","6","3","7","5","5","4","1","5","7","1","4","3","6","6","3","5","4","2","5","6","5","4","3","5","6","3","7","7","6","7","6","5","6","7","7","7","7","6","5","6","776002406046765058","罗","595","Female","[""坏她"",""好我"",""好她"",""坏我""]","[""弱她"",""强我"",""强她"",""弱我""]","","","","","","","","no","","","","","","","","","SRET","EW_formal","","key","f","16.68337007874016","960","536","朋友","独断","Negative","ability","","","","","","","","","","",""
"925","","j","psychophysics","82","396887","0.0-7.0-3.0-0.68","6","6","6","6","5","5","3","4","4","5","5","2","-2","1","1","1","2","2","2","5","5","5","5","5","5","5","5","4","4","7","8","7","8","7","7","5","5","5","5","6","3","7","5","5","4","1","5","7","1","4","3","6","6","3","5","4","2","5","6","5","4","3","5","6","3","7","7","6","7","6","5","6","7","7","7","7","6","5","6","776002406046765058","罗","595","Female","[""坏她"",""好我"",""好她"",""坏我""]","[""弱她"",""强我"",""强她"",""弱我""]","","","","","","","","yes","","","","","","","","","SRET","EW_formal","","key","j","16.682824561403546","960","536","自己","上进","Positive","ability","","","","","","","","","","",""
"847","","f","psychophysics","83","398735","0.0-7.0-3.0-0.69","6","6","6","6","5","5","3","4","4","5","5","2","-2","1","1","1","2","2","2","5","5","5","5","5","5","5","5","4","4","7","8","7","8","7","7","5","5","5","5","6","3","7","5","5","4","1","5","7","1","4","3","6","6","3","5","4","2","5","6","5","4","3","5","6","3","7","7","6","7","6","5","6","7","7","7","7","6","5","6","776002406046765058","罗","595","Female","[""坏她"",""好我"",""好她"",""坏我""]","[""弱她"",""强我"",""强她"",""弱我""]","","","","","","","","no","","","","","","","","","SRET","EW_formal","","key","f","16.682863636363553","960","536","自己","无耻","Negative","morality","","","","","","","","","","",""
"1095","","j","psychophysics","84","400831","0.0-7.0-3.0-0.70","6","6","6","6","5","5","3","4","4","5","5","2","-2","1","1","1","2","2","2","5","5","5","5","5","5","5","5","4","4","7","8","7","8","7","7","5","5","5","5","6","3","7","5","5","4","1","5","7","1","4","3","6","6","3","5","4","2","5","6","5","4","3","5","6","3","7","7","6","7","6","5","6","7","7","7","7","6","5","6","776002406046765058","罗","595","Female","[""坏她"",""好我"",""好她"",""坏我""]","[""弱她"",""强我"",""强她"",""弱我""]","","","","","","","","yes","","","","","","","","","SRET","EW_formal","","key","j","16.683459677419442","960","536","朋友","远见","Positive","ability","","","","","","","","","","",""
"1150","","j","psychophysics","85","402983","0.0-7.0-3.0-0.71","6","6","6","6","5","5","3","4","4","5","5","2","-2","1","1","1","2","2","2","5","5","5","5","5","5","5","5","4","4","7","8","7","8","7","7","5","5","5","5","6","3","7","5","5","4","1","5","7","1","4","3","6","6","3","5","4","2","5","6","5","4","3","5","6","3","7","7","6","7","6","5","6","7","7","7","7","6","5","6","776002406046765058","罗","595","Female","[""坏她"",""好我"",""好她"",""坏我""]","[""弱她"",""强我"",""强她"",""弱我""]","","","","","","","","yes","","","","","","","","","SRET","EW_formal","","key","j","16.683164062500055","960","536","朋友","廉明","Positive","morality","","","","","","","","","","",""
"1087","","f","psychophysics","86","405071","0.0-7.0-3.0-0.72","6","6","6","6","5","5","3","4","4","5","5","2","-2","1","1","1","2","2","2","5","5","5","5","5","5","5","5","4","4","7","8","7","8","7","7","5","5","5","5","6","3","7","5","5","4","1","5","7","1","4","3","6","6","3","5","4","2","5","6","5","4","3","5","6","3","7","7","6","7","6","5","6","7","7","7","7","6","5","6","776002406046765058","罗","595","Female","[""坏她"",""好我"",""好她"",""坏我""]","[""弱她"",""强我"",""强她"",""弱我""]","","","","","","","","no","","","","","","","","","SRET","EW_formal","","key","f","16.68359999999963","960","536","自己","顶事","Positive","ability","","","","","","","","","","",""
"966","","j","psychophysics","87","407039","0.0-7.0-3.0-0.73","6","6","6","6","5","5","3","4","4","5","5","2","-2","1","1","1","2","2","2","5","5","5","5","5","5","5","5","4","4","7","8","7","8","7","7","5","5","5","5","6","3","7","5","5","4","1","5","7","1","4","3","6","6","3","5","4","2","5","6","5","4","3","5","6","3","7","7","6","7","6","5","6","7","7","7","7","6","5","6","776002406046765058","罗","595","Female","[""坏她"",""好我"",""好她"",""坏我""]","[""弱她"",""强我"",""强她"",""弱我""]","","","","","","","","yes","","","","","","","","","SRET","EW_formal","","key","j","16.683256410256337","960","536","自己","义气","Positive","morality","","","","","","","","","","",""
"902","","f","psychophysics","88","408943","0.0-7.0-3.0-0.74","6","6","6","6","5","5","3","4","4","5","5","2","-2","1","1","1","2","2","2","5","5","5","5","5","5","5","5","4","4","7","8","7","8","7","7","5","5","5","5","6","3","7","5","5","4","1","5","7","1","4","3","6","6","3","5","4","2","5","6","5","4","3","5","6","3","7","7","6","7","6","5","6","7","7","7","7","6","5","6","776002406046765058","罗","595","Female","[""坏她"",""好我"",""好她"",""坏我""]","[""弱她"",""强我"",""强她"",""弱我""]","","","","","","","","no","","","","","","","","","SRET","EW_formal","","key","f","16.68377876106188","960","536","自己","无敌","Positive","ability","","","","","","","","","","",""
"1015","","j","psychophysics","89","410960","0.0-7.0-3.0-0.75","6","6","6","6","5","5","3","4","4","5","5","2","-2","1","1","1","2","2","2","5","5","5","5","5","5","5","5","4","4","7","8","7","8","7","7","5","5","5","5","6","3","7","5","5","4","1","5","7","1","4","3","6","6","3","5","4","2","5","6","5","4","3","5","6","3","7","7","6","7","6","5","6","7","7","7","7","6","5","6","776002406046765058","罗","595","Female","[""坏她"",""好我"",""好她"",""坏我""]","[""弱她"",""强我"",""强她"",""弱我""]","","","","","","","","yes","","","","","","","","","SRET","EW_formal","","key","j","16.683600000000055","960","536","自己","周到","Positive","ability","","","","","","","","","","",""
"942","","f","psychophysics","90","412904","0.0-7.0-3.0-0.76","6","6","6","6","5","5","3","4","4","5","5","2","-2","1","1","1","2","2","2","5","5","5","5","5","5","5","5","4","4","7","8","7","8","7","7","5","5","5","5","6","3","7","5","5","4","1","5","7","1","4","3","6","6","3","5","4","2","5","6","5","4","3","5","6","3","7","7","6","7","6","5","6","7","7","7","7","6","5","6","776002406046765058","罗","595","Female","[""坏她"",""好我"",""好她"",""坏我""]","[""弱她"",""强我"",""强她"",""弱我""]","","","","","","","","no","","","","","","","","","SRET","EW_formal","","key","f","16.683782608695733","960","536","朋友","缺德","Negative","morality","","","","","","","","","","",""
"911","","f","psychophysics","91","414816","0.0-7.0-3.0-0.77","6","6","6","6","5","5","3","4","4","5","5","2","-2","1","1","1","2","2","2","5","5","5","5","5","5","5","5","4","4","7","8","7","8","7","7","5","5","5","5","6","3","7","5","5","4","1","5","7","1","4","3","6","6","3","5","4","2","5","6","5","4","3","5","6","3","7","7","6","7","6","5","6","7","7","7","7","6","5","6","776002406046765058","罗","595","Female","[""坏她"",""好我"",""好她"",""坏我""]","[""弱她"",""强我"",""强她"",""弱我""]","","","","","","","","no","","","","","","","","","SRET","EW_formal","","key","f","16.683543859649113","960","536","朋友","粗心","Negative","ability","","","","","","","","","","",""
"1302","","j","psychophysics","92","417119","0.0-7.0-3.0-0.78","6","6","6","6","5","5","3","4","4","5","5","2","-2","1","1","1","2","2","2","5","5","5","5","5","5","5","5","4","4","7","8","7","8","7","7","5","5","5","5","6","3","7","5","5","4","1","5","7","1","4","3","6","6","3","5","4","2","5","6","5","4","3","5","6","3","7","7","6","7","6","5","6","7","7","7","7","6","5","6","776002406046765058","罗","595","Female","[""坏她"",""好我"",""好她"",""坏我""]","[""弱她"",""强我"",""强她"",""弱我""]","","","","","","","","yes","","","","","","","","","SRET","EW_formal","","key","j","16.683255474452764","960","536","朋友","爱国","Positive","morality","","","","","","","","","","",""
"854","","f","psychophysics","93","418976","0.0-7.0-3.0-0.79","6","6","6","6","5","5","3","4","4","5","5","2","-2","1","1","1","2","2","2","5","5","5","5","5","5","5","5","4","4","7","8","7","8","7","7","5","5","5","5","6","3","7","5","5","4","1","5","7","1","4","3","6","6","3","5","4","2","5","6","5","4","3","5","6","3","7","7","6","7","6","5","6","7","7","7","7","6","5","6","776002406046765058","罗","595","Female","[""坏她"",""好我"",""好她"",""坏我""]","[""弱她"",""强我"",""强她"",""弱我""]","","","","","","","","no","","","","","","","","","SRET","EW_formal","","key","f","16.68352727272696","960","536","朋友","狡诈","Negative","morality","","","","","","","","","","",""
"1174","","f","psychophysics","94","421152","0.0-7.0-3.0-0.80","6","6","6","6","5","5","3","4","4","5","5","2","-2","1","1","1","2","2","2","5","5","5","5","5","5","5","5","4","4","7","8","7","8","7","7","5","5","5","5","6","3","7","5","5","4","1","5","7","1","4","3","6","6","3","5","4","2","5","6","5","4","3","5","6","3","7","7","6","7","6","5","6","7","7","7","7","6","5","6","776002406046765058","罗","595","Female","[""坏她"",""好我"",""好她"",""坏我""]","[""弱她"",""强我"",""强她"",""弱我""]","","","","","","","","no","","","","","","","","","SRET","EW_formal","","key","f","16.683604651162774","960","536","自己","偏私","Negative","morality","","","","","","","","","","",""
"1239","","j","psychophysics","95","423392","0.0-7.0-3.0-0.81","6","6","6","6","5","5","3","4","4","5","5","2","-2","1","1","1","2","2","2","5","5","5","5","5","5","5","5","4","4","7","8","7","8","7","7","5","5","5","5","6","3","7","5","5","4","1","5","7","1","4","3","6","6","3","5","4","2","5","6","5","4","3","5","6","3","7","7","6","7","6","5","6","7","7","7","7","6","5","6","776002406046765058","罗","595","Female","[""坏她"",""好我"",""好她"",""坏我""]","[""弱她"",""强我"",""强她"",""弱我""]","","","","","","","","yes","","","","","","","","","SRET","EW_formal","","key","j","16.683305970148997","960","536","自己","依靠","Negative","ability","","","","","","","","","","",""
"958","","j","psychophysics","96","425352","0.0-7.0-3.0-0.82","6","6","6","6","5","5","3","4","4","5","5","2","-2","1","1","1","2","2","2","5","5","5","5","5","5","5","5","4","4","7","8","7","8","7","7","5","5","5","5","6","3","7","5","5","4","1","5","7","1","4","3","6","6","3","5","4","2","5","6","5","4","3","5","6","3","7","7","6","7","6","5","6","7","7","7","7","6","5","6","776002406046765058","罗","595","Female","[""坏她"",""好我"",""好她"",""坏我""]","[""弱她"",""强我"",""强她"",""弱我""]","","","","","","","","yes","","","","","","","","","SRET","EW_formal","","key","j","16.683301724138236","960","536","自己","仗义","Positive","morality","","","","","","","","","","",""
"991","","f","psychophysics","97","427343","0.0-7.0-3.0-0.83","6","6","6","6","5","5","3","4","4","5","5","2","-2","1","1","1","2","2","2","5","5","5","5","5","5","5","5","4","4","7","8","7","8","7","7","5","5","5","5","6","3","7","5","5","4","1","5","7","1","4","3","6","6","3","5","4","2","5","6","5","4","3","5","6","3","7","7","6","7","6","5","6","7","7","7","7","6","5","6","776002406046765058","罗","595","Female","[""坏她"",""好我"",""好她"",""坏我""]","[""弱她"",""强我"",""强她"",""弱我""]","","","","","","","","no","","","","","","","","","SRET","EW_formal","","key","f","16.683630252100954","960","536","自己","卑鄙","Negative","morality","","","","","","","","","","",""
"1206","","f","psychophysics","98","429552","0.0-7.0-3.0-0.84","6","6","6","6","5","5","3","4","4","5","5","2","-2","1","1","1","2","2","2","5","5","5","5","5","5","5","5","4","4","7","8","7","8","7","7","5","5","5","5","6","3","7","5","5","4","1","5","7","1","4","3","6","6","3","5","4","2","5","6","5","4","3","5","6","3","7","7","6","7","6","5","6","7","7","7","7","6","5","6","776002406046765058","罗","595","Female","[""坏她"",""好我"",""好她"",""坏我""]","[""弱她"",""强我"",""强她"",""弱我""]","","","","","","","","no","","","","","","","","","SRET","EW_formal","","key","f","16.683770992366583","960","536","朋友","低俗","Negative","morality","","","","","","","","","","",""
"1630","","f","psychophysics","99","432184","0.0-7.0-3.0-0.85","6","6","6","6","5","5","3","4","4","5","5","2","-2","1","1","1","2","2","2","5","5","5","5","5","5","5","5","4","4","7","8","7","8","7","7","5","5","5","5","6","3","7","5","5","4","1","5","7","1","4","3","6","6","3","5","4","2","5","6","5","4","3","5","6","3","7","7","6","7","6","5","6","7","7","7","7","6","5","6","776002406046765058","罗","595","Female","[""坏她"",""好我"",""好她"",""坏我""]","[""弱她"",""强我"",""强她"",""弱我""]","","","","","","","","no","","","","","","","","","SRET","EW_formal","","key","f","16.68361146496809","960","536","自己","缓慢","Negative","ability","","","","","","","","","","",""
"766","","j","psychophysics","100","433952","0.0-7.0-3.0-0.86","6","6","6","6","5","5","3","4","4","5","5","2","-2","1","1","1","2","2","2","5","5","5","5","5","5","5","5","4","4","7","8","7","8","7","7","5","5","5","5","6","3","7","5","5","4","1","5","7","1","4","3","6","6","3","5","4","2","5","6","5","4","3","5","6","3","7","7","6","7","6","5","6","7","7","7","7","6","5","6","776002406046765058","罗","595","Female","[""坏她"",""好我"",""好她"",""坏我""]","[""弱她"",""强我"",""强她"",""弱我""]","","","","","","","","yes","","","","","","","","","SRET","EW_formal","","key","j","16.683304761904513","960","536","自己","主见","Positive","ability","","","","","","","","","","",""
"1142","","j","psychophysics","101","436096","0.0-7.0-3.0-0.87","6","6","6","6","5","5","3","4","4","5","5","2","-2","1","1","1","2","2","2","5","5","5","5","5","5","5","5","4","4","7","8","7","8","7","7","5","5","5","5","6","3","7","5","5","4","1","5","7","1","4","3","6","6","3","5","4","2","5","6","5","4","3","5","6","3","7","7","6","7","6","5","6","7","7","7","7","6","5","6","776002406046765058","罗","595","Female","[""坏她"",""好我"",""好她"",""坏我""]","[""弱她"",""强我"",""强她"",""弱我""]","","","","","","","","yes","","","","","","","","","SRET","EW_formal","","key","j","16.683125984251838","960","536","朋友","素养","Positive","morality","","","","","","","","","","",""
"16120","
    <p><div style='color:white;font-size:35px; line-height:20px;'>计算任务</div></p><br>
    <p><div style='color:red;font-size:25px; line-height:20px;'>接下来，您将看到一些四则运算题，<b>请从键盘选择 0-9 进行反应。</b></div></p>
    <p><div style='color:red;font-size:25px; line-height:20px;'>请尽可能快地进行计算，计算的速度和正确率将影响报酬的发放。</div></p>
    <p><div class='footer' style='color:white;font-size:25px; line-height:20px;'>如果对本实验还有不清楚之处，请立即向实验员咨询。</p><p style='color:white;font-size:25px; line-height:20px;'>如果您明白了规则：</p><p style='color:white;font-size:22px; line-height:20px;'>请按 继续 进入练习</p>
    </div>
    ","0","html-button-response","102","452216","0.0-7.0-4.0","6","6","6","6","5","5","3","4","4","5","5","2","-2","1","1","1","2","2","2","5","5","5","5","5","5","5","5","4","4","7","8","7","8","7","7","5","5","5","5","6","3","7","5","5","4","1","5","7","1","4","3","6","6","3","5","4","2","5","6","5","4","3","5","6","3","7","7","6","7","6","5","6","7","7","7","7","6","5","6","776002406046765058","罗","595","Female","[""坏她"",""好我"",""好她"",""坏我""]","[""弱她"",""强我"",""强她"",""弱我""]","","","","","","","","","","","","","","","","","SRET_math","math_instructions","Sun Dec 10 2023 15:25:51 GMT+0800 (中国标准时间)","","","","","","","","","","","","","","","","","","","",""
"2769","","0","psychophysics","103","454991","0.0-7.0-5.0-0.0","6","6","6","6","5","5","3","4","4","5","5","2","-2","1","1","1","2","2","2","5","5","5","5","5","5","5","5","4","4","7","8","7","8","7","7","5","5","5","5","6","3","7","5","5","4","1","5","7","1","4","3","6","6","3","5","4","2","5","6","5","4","3","5","6","3","7","7","6","7","6","5","6","7","7","7","7","6","5","6","776002406046765058","罗","595","Female","[""坏她"",""好我"",""好她"",""坏我""]","[""弱她"",""强我"",""强她"",""弱我""]","","","","","","","","0","","","","","","","","","SRET","SRET_math_calculate","","key","0","16.7837650602412","960","536","","","","","7*0= ?","0","1","","","","","","","",""
"3054","","0","psychophysics","104","458047","0.0-7.0-5.0-0.1","6","6","6","6","5","5","3","4","4","5","5","2","-2","1","1","1","2","2","2","5","5","5","5","5","5","5","5","4","4","7","8","7","8","7","7","5","5","5","5","6","3","7","5","5","4","1","5","7","1","4","3","6","6","3","5","4","2","5","6","5","4","3","5","6","3","7","7","6","7","6","5","6","7","7","7","7","6","5","6","776002406046765058","罗","595","Female","[""坏她"",""好我"",""好她"",""坏我""]","[""弱她"",""强我"",""强她"",""弱我""]","","","","","","","","0","","","","","","","","","SRET","SRET_math_calculate","","key","0","16.683510989010855","960","536","","","","","12-12= ?","0","1","","","","","","","",""
"2647","","3","psychophysics","105","460696","0.0-7.0-5.0-0.2","6","6","6","6","5","5","3","4","4","5","5","2","-2","1","1","1","2","2","2","5","5","5","5","5","5","5","5","4","4","7","8","7","8","7","7","5","5","5","5","6","3","7","5","5","4","1","5","7","1","4","3","6","6","3","5","4","2","5","6","5","4","3","5","6","3","7","7","6","7","6","5","6","7","7","7","7","6","5","6","776002406046765058","罗","595","Female","[""坏她"",""好我"",""好她"",""坏我""]","[""弱她"",""强我"",""强她"",""弱我""]","","","","","","","","3","","","","","","","","","SRET","SRET_math_calculate","","key","3","16.683297468354496","960","536","","","","","12/4= ?","3","1","","","","","","","",""
"2615","","8","psychophysics","106","463311","0.0-7.0-5.0-0.3","6","6","6","6","5","5","3","4","4","5","5","2","-2","1","1","1","2","2","2","5","5","5","5","5","5","5","5","4","4","7","8","7","8","7","7","5","5","5","5","6","3","7","5","5","4","1","5","7","1","4","3","6","6","3","5","4","2","5","6","5","4","3","5","6","3","7","7","6","7","6","5","6","7","7","7","7","6","5","6","776002406046765058","罗","595","Female","[""坏她"",""好我"",""好她"",""坏我""]","[""弱她"",""强我"",""强她"",""弱我""]","","","","","","","","8","","","","","","","","","SRET","SRET_math_calculate","","key","8","16.683455128204795","960","536","","","","","2+6= ?","8","1","","","","","","","",""
"2422","","1","psychophysics","107","465735","0.0-7.0-5.0-0.4","6","6","6","6","5","5","3","4","4","5","5","2","-2","1","1","1","2","2","2","5","5","5","5","5","5","5","5","4","4","7","8","7","8","7","7","5","5","5","5","6","3","7","5","5","4","1","5","7","1","4","3","6","6","3","5","4","2","5","6","5","4","3","5","6","3","7","7","6","7","6","5","6","7","7","7","7","6","5","6","776002406046765058","罗","595","Female","[""坏她"",""好我"",""好她"",""坏我""]","[""弱她"",""强我"",""强她"",""弱我""]","","","","","","","","1","","","","","","","","","SRET","SRET_math_calculate","","key","1","16.683472222222107","960","536","","","","","30-29= ?","1","1","","","","","","","",""
"2135","","1","psychophysics","108","467871","0.0-7.0-5.0-0.5","6","6","6","6","5","5","3","4","4","5","5","2","-2","1","1","1","2","2","2","5","5","5","5","5","5","5","5","4","4","7","8","7","8","7","7","5","5","5","5","6","3","7","5","5","4","1","5","7","1","4","3","6","6","3","5","4","2","5","6","5","4","3","5","6","3","7","7","6","7","6","5","6","7","7","7","7","6","5","6","776002406046765058","罗","595","Female","[""坏她"",""好我"",""好她"",""坏我""]","[""弱她"",""强我"",""强她"",""弱我""]","","","","","","","","1","","","","","","","","","SRET","SRET_math_calculate","","key","1","16.683291338582606","960","536","","","","","4/4= ?","1","1","","","","","","","",""
"2303","","5","psychophysics","109","470175","0.0-7.0-5.0-0.6","6","6","6","6","5","5","3","4","4","5","5","2","-2","1","1","1","2","2","2","5","5","5","5","5","5","5","5","4","4","7","8","7","8","7","7","5","5","5","5","6","3","7","5","5","4","1","5","7","1","4","3","6","6","3","5","4","2","5","6","5","4","3","5","6","3","7","7","6","7","6","5","6","7","7","7","7","6","5","6","776002406046765058","罗","595","Female","[""坏她"",""好我"",""好她"",""坏我""]","[""弱她"",""强我"",""强她"",""弱我""]","","","","","","","","5","","","","","","","","","SRET","SRET_math_calculate","","key","5","16.683343065693553","960","536","","","","","8-3= ? ","5","1","","","","","","","",""
"2375","","9","psychophysics","110","472551","0.0-7.0-5.0-0.7","6","6","6","6","5","5","3","4","4","5","5","2","-2","1","1","1","2","2","2","5","5","5","5","5","5","5","5","4","4","7","8","7","8","7","7","5","5","5","5","6","3","7","5","5","4","1","5","7","1","4","3","6","6","3","5","4","2","5","6","5","4","3","5","6","3","7","7","6","7","6","5","6","7","7","7","7","6","5","6","776002406046765058","罗","595","Female","[""坏她"",""好我"",""好她"",""坏我""]","[""弱她"",""强我"",""强她"",""弱我""]","","","","","","","","9","","","","","","","","","SRET","SRET_math_calculate","","key","9","16.683631205673706","960","536","","","","","2+7= ?","9","1","","","","","","","",""
"2391","","8","psychophysics","111","474942","0.0-7.0-5.0-0.8","6","6","6","6","5","5","3","4","4","5","5","2","-2","1","1","1","2","2","2","5","5","5","5","5","5","5","5","4","4","7","8","7","8","7","7","5","5","5","5","6","3","7","5","5","4","1","5","7","1","4","3","6","6","3","5","4","2","5","6","5","4","3","5","6","3","7","7","6","7","6","5","6","7","7","7","7","6","5","6","776002406046765058","罗","595","Female","[""坏她"",""好我"",""好她"",""坏我""]","[""弱她"",""强我"",""强她"",""弱我""]","","","","","","","","8","","","","","","","","","SRET","SRET_math_calculate","","key","8","16.683251748251454","960","536","","","","","9-1= ?","8","1","","","","","","","",""
"2567","","5","psychophysics","112","477511","0.0-7.0-5.0-0.9","6","6","6","6","5","5","3","4","4","5","5","2","-2","1","1","1","2","2","2","5","5","5","5","5","5","5","5","4","4","7","8","7","8","7","7","5","5","5","5","6","3","7","5","5","4","1","5","7","1","4","3","6","6","3","5","4","2","5","6","5","4","3","5","6","3","7","7","6","7","6","5","6","7","7","7","7","6","5","6","776002406046765058","罗","595","Female","[""坏她"",""好我"",""好她"",""坏我""]","[""弱她"",""强我"",""强她"",""弱我""]","","","","","","","","5","","","","","","","","","SRET","SRET_math_calculate","","key","5","16.68344444444432","960","536","","","","","17-12= ? ","5","1","","","","","","","",""
"2511","","9","psychophysics","113","480023","0.0-7.0-5.0-0.10","6","6","6","6","5","5","3","4","4","5","5","2","-2","1","1","1","2","2","2","5","5","5","5","5","5","5","5","4","4","7","8","7","8","7","7","5","5","5","5","6","3","7","5","5","4","1","5","7","1","4","3","6","6","3","5","4","2","5","6","5","4","3","5","6","3","7","7","6","7","6","5","6","7","7","7","7","6","5","6","776002406046765058","罗","595","Female","[""坏她"",""好我"",""好她"",""坏我""]","[""弱她"",""强我"",""强她"",""弱我""]","","","","","","","","9","","","","","","","","","SRET","SRET_math_calculate","","key","9","16.683563758389425","960","536","","","","","81/9= ?","9","1","","","","","","","",""
"2671","","0","psychophysics","114","482695","0.0-7.0-5.0-0.11","6","6","6","6","5","5","3","4","4","5","5","2","-2","1","1","1","2","2","2","5","5","5","5","5","5","5","5","4","4","7","8","7","8","7","7","5","5","5","5","6","3","7","5","5","4","1","5","7","1","4","3","6","6","3","5","4","2","5","6","5","4","3","5","6","3","7","7","6","7","6","5","6","7","7","7","7","6","5","6","776002406046765058","罗","595","Female","[""坏她"",""好我"",""好她"",""坏我""]","[""弱她"",""强我"",""强她"",""弱我""]","","","","","","","","0","","","","","","","","","SRET","SRET_math_calculate","","key","0","16.68326415094355","960","536","","","","","5*0= ?","0","1","","","","","","","",""
"2310","","9","psychophysics","115","485006","0.0-7.0-5.0-0.12","6","6","6","6","5","5","3","4","4","5","5","2","-2","1","1","1","2","2","2","5","5","5","5","5","5","5","5","4","4","7","8","7","8","7","7","5","5","5","5","6","3","7","5","5","4","1","5","7","1","4","3","6","6","3","5","4","2","5","6","5","4","3","5","6","3","7","7","6","7","6","5","6","7","7","7","7","6","5","6","776002406046765058","罗","595","Female","[""坏她"",""好我"",""好她"",""坏我""]","[""弱她"",""强我"",""强她"",""弱我""]","","","","","","","","9","","","","","","","","","SRET","SRET_math_calculate","","key","9","16.683427536232056","960","536","","","","","7+2= ?","9","1","","","","","","","",""
"2063","","9","psychophysics","116","487071","0.0-7.0-5.0-0.13","6","6","6","6","5","5","3","4","4","5","5","2","-2","1","1","1","2","2","2","5","5","5","5","5","5","5","5","4","4","7","8","7","8","7","7","5","5","5","5","6","3","7","5","5","4","1","5","7","1","4","3","6","6","3","5","4","2","5","6","5","4","3","5","6","3","7","7","6","7","6","5","6","7","7","7","7","6","5","6","776002406046765058","罗","595","Female","[""坏她"",""好我"",""好她"",""坏我""]","[""弱她"",""强我"",""强她"",""弱我""]","","","","","","","","9","","","","","","","","","SRET","SRET_math_calculate","","key","9","16.683666666666316","960","536","","","","","3+6= ?","9","1","","","","","","","",""
"2391","","7","psychophysics","117","489463","0.0-7.0-5.0-0.14","6","6","6","6","5","5","3","4","4","5","5","2","-2","1","1","1","2","2","2","5","5","5","5","5","5","5","5","4","4","7","8","7","8","7","7","5","5","5","5","6","3","7","5","5","4","1","5","7","1","4","3","6","6","3","5","4","2","5","6","5","4","3","5","6","3","7","7","6","7","6","5","6","7","7","7","7","6","5","6","776002406046765058","罗","595","Female","[""坏她"",""好我"",""好她"",""坏我""]","[""弱她"",""强我"",""强她"",""弱我""]","","","","","","","","7","","","","","","","","","SRET","SRET_math_calculate","","key","7","16.68325352112674","960","536","","","","","8-1= ?","7","1","","","","","","","",""
"2158","","3","psychophysics","118","491622","0.0-7.0-5.0-0.15","6","6","6","6","5","5","3","4","4","5","5","2","-2","1","1","1","2","2","2","5","5","5","5","5","5","5","5","4","4","7","8","7","8","7","7","5","5","5","5","6","3","7","5","5","4","1","5","7","1","4","3","6","6","3","5","4","2","5","6","5","4","3","5","6","3","7","7","6","7","6","5","6","7","7","7","7","6","5","6","776002406046765058","罗","595","Female","[""坏她"",""好我"",""好她"",""坏我""]","[""弱她"",""强我"",""强她"",""弱我""]","","","","","","","","3","","","","","","","","","SRET","SRET_math_calculate","","key","3","16.68363565891483","960","536","","","","","3*1= ?","3","1","","","","","","","",""
"2414","","7","psychophysics","119","494039","0.0-7.0-5.0-0.16","6","6","6","6","5","5","3","4","4","5","5","2","-2","1","1","1","2","2","2","5","5","5","5","5","5","5","5","4","4","7","8","7","8","7","7","5","5","5","5","6","3","7","5","5","4","1","5","7","1","4","3","6","6","3","5","4","2","5","6","5","4","3","5","6","3","7","7","6","7","6","5","6","7","7","7","7","6","5","6","776002406046765058","罗","595","Female","[""坏她"",""好我"",""好她"",""坏我""]","[""弱她"",""强我"",""强她"",""弱我""]","","","","","","","","7","","","","","","","","","SRET","SRET_math_calculate","","key","7","16.68360839160835","960","536","","","","","11-4= ?","7","1","","","","","","","",""
"3167","","8","psychophysics","120","497206","0.0-7.0-5.0-0.17","6","6","6","6","5","5","3","4","4","5","5","2","-2","1","1","1","2","2","2","5","5","5","5","5","5","5","5","4","4","7","8","7","8","7","7","5","5","5","5","6","3","7","5","5","4","1","5","7","1","4","3","6","6","3","5","4","2","5","6","5","4","3","5","6","3","7","7","6","7","6","5","6","7","7","7","7","6","5","6","776002406046765058","罗","595","Female","[""坏她"",""好我"",""好她"",""坏我""]","[""弱她"",""强我"",""强她"",""弱我""]","","","","","","","","8","","","","","","","","","SRET","SRET_math_calculate","","key","8","16.68308465608467","960","536","","","","","72/9= ?","8","1","","","","","","","",""
"2047","","9","psychophysics","121","499254","0.0-7.0-5.0-0.18","6","6","6","6","5","5","3","4","4","5","5","2","-2","1","1","1","2","2","2","5","5","5","5","5","5","5","5","4","4","7","8","7","8","7","7","5","5","5","5","6","3","7","5","5","4","1","5","7","1","4","3","6","6","3","5","4","2","5","6","5","4","3","5","6","3","7","7","6","7","6","5","6","7","7","7","7","6","5","6","776002406046765058","罗","595","Female","[""坏她"",""好我"",""好她"",""坏我""]","[""弱她"",""强我"",""强她"",""弱我""]","","","","","","","","9","","","","","","","","","SRET","SRET_math_calculate","","key","9","16.6835081967216","960","536","","","","","1+8= ?","9","1","","","","","","","",""
"3039","","3","psychophysics","122","502294","0.0-7.0-5.0-0.19","6","6","6","6","5","5","3","4","4","5","5","2","-2","1","1","1","2","2","2","5","5","5","5","5","5","5","5","4","4","7","8","7","8","7","7","5","5","5","5","6","3","7","5","5","4","1","5","7","1","4","3","6","6","3","5","4","2","5","6","5","4","3","5","6","3","7","7","6","7","6","5","6","7","7","7","7","6","5","6","776002406046765058","罗","595","Female","[""坏她"",""好我"",""好她"",""坏我""]","[""弱她"",""强我"",""强她"",""弱我""]","","","","","","","","3","","","","","","","","","SRET","SRET_math_calculate","","key","3","16.683331491712813","960","536","","","","","9/3= ?","3","1","","","","","","","",""
"2159","","9","psychophysics","123","504454","0.0-7.0-5.0-0.20","6","6","6","6","5","5","3","4","4","5","5","2","-2","1","1","1","2","2","2","5","5","5","5","5","5","5","5","4","4","7","8","7","8","7","7","5","5","5","5","6","3","7","5","5","4","1","5","7","1","4","3","6","6","3","5","4","2","5","6","5","4","3","5","6","3","7","7","6","7","6","5","6","7","7","7","7","6","5","6","776002406046765058","罗","595","Female","[""坏她"",""好我"",""好她"",""坏我""]","[""弱她"",""强我"",""强她"",""弱我""]","","","","","","","","9","","","","","","","","","SRET","SRET_math_calculate","","key","9","16.68327131782985","960","536","","","","","18/2= ?","9","1","","","","","","","",""
"3287","","2","psychophysics","124","507742","0.0-7.0-5.0-0.21","6","6","6","6","5","5","3","4","4","5","5","2","-2","1","1","1","2","2","2","5","5","5","5","5","5","5","5","4","4","7","8","7","8","7","7","5","5","5","5","6","3","7","5","5","4","1","5","7","1","4","3","6","6","3","5","4","2","5","6","5","4","3","5","6","3","7","7","6","7","6","5","6","7","7","7","7","6","5","6","776002406046765058","罗","595","Female","[""坏她"",""好我"",""好她"",""坏我""]","[""弱她"",""强我"",""强她"",""弱我""]","","","","","","","","2","","","","","","","","","SRET","SRET_math_calculate","","key","2","16.683403061224713","960","536","","","","","29-27= ?","2","1","","","","","","","",""
"3959","","7","psychophysics","125","511702","0.0-7.0-5.0-0.22","6","6","6","6","5","5","3","4","4","5","5","2","-2","1","1","1","2","2","2","5","5","5","5","5","5","5","5","4","4","7","8","7","8","7","7","5","5","5","5","6","3","7","5","5","4","1","5","7","1","4","3","6","6","3","5","4","2","5","6","5","4","3","5","6","3","7","7","6","7","6","5","6","7","7","7","7","6","5","6","776002406046765058","罗","595","Female","[""坏她"",""好我"",""好她"",""坏我""]","[""弱她"",""强我"",""强她"",""弱我""]","","","","","","","","7","","","","","","","","","SRET","SRET_math_calculate","","key","7","16.683063559322193","960","536","","","","","49/7 = ?","7","1","","","","","","","",""
"2111","","9","psychophysics","126","513814","0.0-7.0-5.0-0.23","6","6","6","6","5","5","3","4","4","5","5","2","-2","1","1","1","2","2","2","5","5","5","5","5","5","5","5","4","4","7","8","7","8","7","7","5","5","5","5","6","3","7","5","5","4","1","5","7","1","4","3","6","6","3","5","4","2","5","6","5","4","3","5","6","3","7","7","6","7","6","5","6","7","7","7","7","6","5","6","776002406046765058","罗","595","Female","[""坏她"",""好我"",""好她"",""坏我""]","[""弱她"",""强我"",""强她"",""弱我""]","","","","","","","","9","","","","","","","","","SRET","SRET_math_calculate","","key","9","16.683603174603334","960","536","","","","","4+5= ?","9","1","","","","","","","",""
"2215","","2","psychophysics","127","516031","0.0-7.0-5.0-0.24","6","6","6","6","5","5","3","4","4","5","5","2","-2","1","1","1","2","2","2","5","5","5","5","5","5","5","5","4","4","7","8","7","8","7","7","5","5","5","5","6","3","7","5","5","4","1","5","7","1","4","3","6","6","3","5","4","2","5","6","5","4","3","5","6","3","7","7","6","7","6","5","6","7","7","7","7","6","5","6","776002406046765058","罗","595","Female","[""坏她"",""好我"",""好她"",""坏我""]","[""弱她"",""强我"",""强她"",""弱我""]","","","","","","","","2","","","","","","","","","SRET","SRET_math_calculate","","key","2","16.683295454545068","960","536","","","","","5-3= ?","2","1","","","","","","","",""
"2110","","9","psychophysics","128","518142","0.0-7.0-5.0-0.25","6","6","6","6","5","5","3","4","4","5","5","2","-2","1","1","1","2","2","2","5","5","5","5","5","5","5","5","4","4","7","8","7","8","7","7","5","5","5","5","6","3","7","5","5","4","1","5","7","1","4","3","6","6","3","5","4","2","5","6","5","4","3","5","6","3","7","7","6","7","6","5","6","7","7","7","7","6","5","6","776002406046765058","罗","595","Female","[""坏她"",""好我"",""好她"",""坏我""]","[""弱她"",""强我"",""强她"",""弱我""]","","","","","","","","9","","","","","","","","","SRET","SRET_math_calculate","","key","9","16.683583999999797","960","536","","","","","8+1= ?","9","1","","","","","","","",""
"2399","","7","psychophysics","129","520542","0.0-7.0-5.0-0.26","6","6","6","6","5","5","3","4","4","5","5","2","-2","1","1","1","2","2","2","5","5","5","5","5","5","5","5","4","4","7","8","7","8","7","7","5","5","5","5","6","3","7","5","5","4","1","5","7","1","4","3","6","6","3","5","4","2","5","6","5","4","3","5","6","3","7","7","6","7","6","5","6","7","7","7","7","6","5","6","776002406046765058","罗","595","Female","[""坏她"",""好我"",""好她"",""坏我""]","[""弱她"",""强我"",""强她"",""弱我""]","","","","","","","","7","","","","","","","","","SRET","SRET_math_calculate","","key","7","16.683335664335694","960","536","","","","","4+3= ?","7","1","","","","","","","",""
"2183","","4","psychophysics","130","522726","0.0-7.0-5.0-0.27","6","6","6","6","5","5","3","4","4","5","5","2","-2","1","1","1","2","2","2","5","5","5","5","5","5","5","5","4","4","7","8","7","8","7","7","5","5","5","5","6","3","7","5","5","4","1","5","7","1","4","3","6","6","3","5","4","2","5","6","5","4","3","5","6","3","7","7","6","7","6","5","6","7","7","7","7","6","5","6","776002406046765058","罗","595","Female","[""坏她"",""好我"",""好她"",""坏我""]","[""弱她"",""强我"",""强她"",""弱我""]","","","","","","","","4","","","","","","","","","SRET","SRET_math_calculate","","key","4","16.683538461538355","960","536","","","","","8-4= ?","4","1","","","","","","","",""
"2327","","3","psychophysics","131","525054","0.0-7.0-5.0-0.28","6","6","6","6","5","5","3","4","4","5","5","2","-2","1","1","1","2","2","2","5","5","5","5","5","5","5","5","4","4","7","8","7","8","7","7","5","5","5","5","6","3","7","5","5","4","1","5","7","1","4","3","6","6","3","5","4","2","5","6","5","4","3","5","6","3","7","7","6","7","6","5","6","7","7","7","7","6","5","6","776002406046765058","罗","595","Female","[""坏她"",""好我"",""好她"",""坏我""]","[""弱她"",""强我"",""强她"",""弱我""]","","","","","","","","3","","","","","","","","","SRET","SRET_math_calculate","","key","3","16.68355797101411","960","536","","","","","1+2= ?","3","1","","","","","","","",""
"2562","","8","psychophysics","132","527623","0.0-7.0-5.0-0.29","6","6","6","6","5","5","3","4","4","5","5","2","-2","1","1","1","2","2","2","5","5","5","5","5","5","5","5","4","4","7","8","7","8","7","7","5","5","5","5","6","3","7","5","5","4","1","5","7","1","4","3","6","6","3","5","4","2","5","6","5","4","3","5","6","3","7","7","6","7","6","5","6","7","7","7","7","6","5","6","776002406046765058","罗","595","Female","[""坏她"",""好我"",""好她"",""坏我""]","[""弱她"",""强我"",""强她"",""弱我""]","","","","","","","","8","","","","","","","","","SRET","SRET_math_calculate","","key","8","16.683379084966756","960","536","","","","","56/7= ?","8","1","","","","","","","",""
"2067","","8","psychophysics","133","529694","0.0-7.0-5.0-0.30","6","6","6","6","5","5","3","4","4","5","5","2","-2","1","1","1","2","2","2","5","5","5","5","5","5","5","5","4","4","7","8","7","8","7","7","5","5","5","5","6","3","7","5","5","4","1","5","7","1","4","3","6","6","3","5","4","2","5","6","5","4","3","5","6","3","7","7","6","7","6","5","6","7","7","7","7","6","5","6","776002406046765058","罗","595","Female","[""坏她"",""好我"",""好她"",""坏我""]","[""弱她"",""强我"",""强她"",""弱我""]","","","","","","","","8","","","","","","","","","SRET","SRET_math_calculate","","key","8","16.683564516128936","960","536","","","","","4+4= ?","8","1","","","","","","","",""
"4399","","9","psychophysics","134","534095","0.0-7.0-5.0-0.31","6","6","6","6","5","5","3","4","4","5","5","2","-2","1","1","1","2","2","2","5","5","5","5","5","5","5","5","4","4","7","8","7","8","7","7","5","5","5","5","6","3","7","5","5","4","1","5","7","1","4","3","6","6","3","5","4","2","5","6","5","4","3","5","6","3","7","7","6","7","6","5","6","7","7","7","7","6","5","6","776002406046765058","罗","595","Female","[""坏她"",""好我"",""好她"",""坏我""]","[""弱她"",""强我"",""强她"",""弱我""]","","","","","","","","9","","","","","","","","","SRET","SRET_math_calculate","","key","9","16.683343511450243","960","536","","","","","43-34= ?","9","1","","","","","","","",""
"2159","","1","psychophysics","135","536255","0.0-7.0-5.0-0.32","6","6","6","6","5","5","3","4","4","5","5","2","-2","1","1","1","2","2","2","5","5","5","5","5","5","5","5","4","4","7","8","7","8","7","7","5","5","5","5","6","3","7","5","5","4","1","5","7","1","4","3","6","6","3","5","4","2","5","6","5","4","3","5","6","3","7","7","6","7","6","5","6","7","7","7","7","6","5","6","776002406046765058","罗","595","Female","[""坏她"",""好我"",""好她"",""坏我""]","[""弱她"",""强我"",""强她"",""弱我""]","","","","","","","","1","","","","","","","","","SRET","SRET_math_calculate","","key","1","16.683279069767753","960","536","","","","","9-8= ?","1","1","","","","","","","",""
"2519","","8","psychophysics","136","538775","0.0-7.0-5.0-0.33","6","6","6","6","5","5","3","4","4","5","5","2","-2","1","1","1","2","2","2","5","5","5","5","5","5","5","5","4","4","7","8","7","8","7","7","5","5","5","5","6","3","7","5","5","4","1","5","7","1","4","3","6","6","3","5","4","2","5","6","5","4","3","5","6","3","7","7","6","7","6","5","6","7","7","7","7","6","5","6","776002406046765058","罗","595","Female","[""坏她"",""好我"",""好她"",""坏我""]","[""弱她"",""强我"",""强她"",""弱我""]","","","","","","","","8","","","","","","","","","SRET","SRET_math_calculate","","key","8","16.683533333333518","960","536","","","","","1*8= ?","8","1","","","","","","","",""
"2391","","4","psychophysics","137","541167","0.0-7.0-5.0-0.34","6","6","6","6","5","5","3","4","4","5","5","2","-2","1","1","1","2","2","2","5","5","5","5","5","5","5","5","4","4","7","8","7","8","7","7","5","5","5","5","6","3","7","5","5","4","1","5","7","1","4","3","6","6","3","5","4","2","5","6","5","4","3","5","6","3","7","7","6","7","6","5","6","7","7","7","7","6","5","6","776002406046765058","罗","595","Female","[""坏她"",""好我"",""好她"",""坏我""]","[""弱她"",""强我"",""强她"",""弱我""]","","","","","","","","4","","","","","","","","","SRET","SRET_math_calculate","","key","4","16.68337323943655","960","536","","","","","4*1= ?","4","1","","","","","","","",""
"2335","","5","psychophysics","138","543503","0.0-7.0-5.0-0.35","6","6","6","6","5","5","3","4","4","5","5","2","-2","1","1","1","2","2","2","5","5","5","5","5","5","5","5","4","4","7","8","7","8","7","7","5","5","5","5","6","3","7","5","5","4","1","5","7","1","4","3","6","6","3","5","4","2","5","6","5","4","3","5","6","3","7","7","6","7","6","5","6","7","7","7","7","6","5","6","776002406046765058","罗","595","Female","[""坏她"",""好我"",""好她"",""坏我""]","[""弱她"",""强我"",""强她"",""弱我""]","","","","","","","","5","","","","","","","","","SRET","SRET_math_calculate","","key","5","16.683496402878074","960","536","","","","","2+3= ?","5","1","","","","","","","",""
"2439","","7","psychophysics","139","545943","0.0-7.0-5.0-0.36","6","6","6","6","5","5","3","4","4","5","5","2","-2","1","1","1","2","2","2","5","5","5","5","5","5","5","5","4","4","7","8","7","8","7","7","5","5","5","5","6","3","7","5","5","4","1","5","7","1","4","3","6","6","3","5","4","2","5","6","5","4","3","5","6","3","7","7","6","7","6","5","6","7","7","7","7","6","5","6","776002406046765058","罗","595","Female","[""坏她"",""好我"",""好她"",""坏我""]","[""弱她"",""强我"",""强她"",""弱我""]","","","","","","","","7","","","","","","","","","SRET","SRET_math_calculate","","key","7","16.68306164383531","960","536","","","","","9-2= ?","7","1","","","","","","","",""
"2397","","8","psychophysics","140","548343","0.0-7.0-5.0-0.37","6","6","6","6","5","5","3","4","4","5","5","2","-2","1","1","1","2","2","2","5","5","5","5","5","5","5","5","4","4","7","8","7","8","7","7","5","5","5","5","6","3","7","5","5","4","1","5","7","1","4","3","6","6","3","5","4","2","5","6","5","4","3","5","6","3","7","7","6","7","6","5","6","7","7","7","7","6","5","6","776002406046765058","罗","595","Female","[""坏她"",""好我"",""好她"",""坏我""]","[""弱她"",""强我"",""强她"",""弱我""]","","","","","","","","8","","","","","","","","","SRET","SRET_math_calculate","","key","8","16.683436619718787","960","536","","","","","6+2= ?","8","1","","","","","","","",""
"2303","","0","psychophysics","141","550647","0.0-7.0-5.0-0.38","6","6","6","6","5","5","3","4","4","5","5","2","-2","1","1","1","2","2","2","5","5","5","5","5","5","5","5","4","4","7","8","7","8","7","7","5","5","5","5","6","3","7","5","5","4","1","5","7","1","4","3","6","6","3","5","4","2","5","6","5","4","3","5","6","3","7","7","6","7","6","5","6","7","7","7","7","6","5","6","776002406046765058","罗","595","Female","[""坏她"",""好我"",""好她"",""坏我""]","[""弱她"",""强我"",""强她"",""弱我""]","","","","","","","","0","","","","","","","","","SRET","SRET_math_calculate","","key","0","16.68313138686158","960","536","","","","","6*0= ?","0","1","","","","","","","",""
"2546","","7","psychophysics","142","553199","0.0-7.0-5.0-0.39","6","6","6","6","5","5","3","4","4","5","5","2","-2","1","1","1","2","2","2","5","5","5","5","5","5","5","5","4","4","7","8","7","8","7","7","5","5","5","5","6","3","7","5","5","4","1","5","7","1","4","3","6","6","3","5","4","2","5","6","5","4","3","5","6","3","7","7","6","7","6","5","6","7","7","7","7","6","5","6","776002406046765058","罗","595","Female","[""坏她"",""好我"",""好她"",""坏我""]","[""弱她"",""强我"",""强她"",""弱我""]","","","","","","","","7","","","","","","","","","SRET","SRET_math_calculate","","key","7","16.68342105263161","960","536","","","","","13-6= ?","7","1","","","","","","","",""
