"rt","stimulus","response","trial_type","trial_index","time_elapsed","internal_node_id","swb_1","swb_2","swb_3","swb_4","swb_5","LOT_1","LOT_2","LOT_3","LOT_4","LOT_5","LOT_6","IPC_1","IPC_2","IPC_3","IPC_4","IPC_5","IPC_6","IPC_7","IPC_8","MorIden_1","MorIden_2","MorIden_3","MorIden_4","MorIden_5","MorIden_6","MorIden_7","MorIden_8","MorIden_9","MorIden_10","moralSeImag_1","moralSeImag_2","moralSeImag_3","moralSeImag_4","moralSeImag_5","moralSeImag_6","moralSeImag_7","moralSeImag_8","moralSeImag_9","sde_1","sde_2","sde_3","sde_4","sde_5","sde_6","sde_7","sde_8","sde_9","sde_10","trap2","sde_11","sde_12","sde_13","sde_14","sde_15","sde_16","sde_17","sde_18","sde_19","sde_20","IM_1","IM_2","IM_3","IM_4","IM_5","IM_6","IM_7","IM_8","IM_9","IM_10","IM_11","IM_12","IM_13","IM_14","IM_15","IM_16","IM_17","IM_18","IM_19","IM_20","subj_idx","friend_name","ParticipantID","Sex","Word","Word2","value","success","timeout","failed_images","failed_audio","failed_video","user_agent","responses","item_order","radio_event_ids","radio_event_times","key_event_times","mouse_event_times","straightlining","zigzagging","honeypot","task_id","screen_id","time_stamp","response_type","key_press","avg_frame_time","center_x","center_y","person","word","valence","domain","math","correct_response","correct","status","view_history","identity","duration","Image","condition","question_order","trap2_item"
"26311","
   <p><div style='color:white; font-size: 25px'>您好，欢迎参加本次实验。</div></p>
   <p><div style='color:white; font-size: 25px'>为充分保障您的权利，请确保您已经知晓并同意《参与实验同意书》以及《数据公开知情同意书》。</div></p>
   <p><div style='color:white; font-size: 25px'>如果您未见过上述内容，请咨询实验员。</div></p>
   <p style='color:white; font-size: 25px'>如果您选择继续实验，则表示您已经清楚两份知情同意书的内容并同意。</p>
   <p><div style = ""color: pink;font-size:30px;"">请确保您记得day0的实验编号，您将在本次实验输入该编号，若您忘记，请咨询实验员后作答。</div></p>
   <p><div style = ""color:lightblue;font-size:25px;"">请您尽可能认真地作答，我们将依据您在各问卷和按键任务中的作答质量发放报酬。</div></p>
   <p> <div style = ""color: green""><按空格键至下页></div> </p>
   "," ","html-keyboard-response","0","26314","0.0-0.0","5","3","5","3","3","5","3","5","4","4","5","1","0","0","1","0","0","2","1","4","4","4","2","3","4","4","3","4","5","5","7","6","8","7","6","8","5","9","4","5","3","5","6","3","6","6","4","5","1","4","3","5","4","5","3","4","7","5","5","3","3","3","2","3","5","3","6","3","5","3","2","5","3","3","4","2","6","3","3","767700606512271362","Z","496","Female","[""好她"",""坏她"",""好我"",""坏我""]","[""强她"",""弱她"",""强我"",""弱我""]","","","","","","","","","","","","","","","","","","","","","","","","","","","","","","","","","","","","","","",""
"","","","call-function","1","26315","0.0-1.0-0.0","5","3","5","3","3","5","3","5","4","4","5","1","0","0","1","0","0","2","1","4","4","4","2","3","4","4","3","4","5","5","7","6","8","7","6","8","5","9","4","5","3","5","6","3","6","6","4","5","1","4","3","5","4","5","3","4","7","5","5","3","3","3","2","3","5","3","6","3","5","3","2","5","3","3","4","2","6","3","3","767700606512271362","Z","496","Female","[""好她"",""坏她"",""好我"",""坏我""]","[""强她"",""弱她"",""强我"",""弱我""]","","","","","","","","","","","","","","","","","","","","","","","","","","","","","","","","","","","","","","",""
"36469","","[{""name"":""Sex"",""value"":""1""},{""name"":""friend_name"",""value"":""Z""},{""name"":""ParticipantID"",""value"":""496""}]","survey-html-form","2","62786","0.0-1.0-1.0","5","3","5","3","3","5","3","5","4","4","5","1","0","0","1","0","0","2","1","4","4","4","2","3","4","4","3","4","5","5","7","6","8","7","6","8","5","9","4","5","3","5","6","3","6","6","4","5","1","4","3","5","4","5","3","4","7","5","5","3","3","3","2","3","5","3","6","3","5","3","2","5","3","3","4","2","6","3","3","767700606512271362","Z","496","Female","[""好她"",""坏她"",""好我"",""坏我""]","[""强她"",""弱她"",""强我"",""弱我""]","","","","","","","","","","","","","","","","","","","","","","","","","","","","","","","","","","","","","","",""
"","","","preload","3","63394","0.0-2.0","5","3","5","3","3","5","3","5","4","4","5","1","0","0","1","0","0","2","1","4","4","4","2","3","4","4","3","4","5","5","7","6","8","7","6","8","5","9","4","5","3","5","6","3","6","6","4","5","1","4","3","5","4","5","3","4","7","5","5","3","3","3","2","3","5","3","6","3","5","3","2","5","3","3","4","2","6","3","3","767700606512271362","Z","496","Female","[""好她"",""坏她"",""好我"",""坏我""]","[""强她"",""弱她"",""强我"",""弱我""]","","true","false","[]","[]","[]","","","","","","","","","","","","","","","","","","","","","","","","","","","","","","","","",""
"","","","fullscreen","4","69251","0.0-3.0","5","3","5","3","3","5","3","5","4","4","5","1","0","0","1","0","0","2","1","4","4","4","2","3","4","4","3","4","5","5","7","6","8","7","6","8","5","9","4","5","3","5","6","3","6","6","4","5","1","4","3","5","4","5","3","4","7","5","5","3","3","3","2","3","5","3","6","3","5","3","2","5","3","3","4","2","6","3","3","767700606512271362","Z","496","Female","[""好她"",""坏她"",""好我"",""坏我""]","[""强她"",""弱她"",""强我"",""弱我""]","","true","","","","","{}","","","","","","","","","","","","","","","","","","","","","","","","","","","","","","","",""
"27679.20000076294","","{""Q01"":""5"",""Q02"":""3"",""Q03"":""5"",""Q04"":""3"",""Q05"":""3""}","survey-template","5","96932","0.0-4.0","5","3","5","3","3","5","3","5","4","4","5","1","0","0","1","0","0","2","1","4","4","4","2","3","4","4","3","4","5","5","7","6","8","7","6","8","5","9","4","5","3","5","6","3","6","6","4","5","1","4","3","5","4","5","3","4","7","5","5","3","3","3","2","3","5","3","6","3","5","3","2","5","3","3","4","2","6","3","3","767700606512271362","Z","496","Female","[""好她"",""坏她"",""好我"",""坏我""]","[""强她"",""弱她"",""强我"",""弱我""]","","","","","","","","{""Q01"":""5"",""Q02"":""3"",""Q03"":""5"",""Q04"":""3"",""Q05"":""3""}","[0,1,2,3,4]","[""Q01"",""Q02"",""Q03"",""Q01"",""Q03"",""Q04"",""Q05""]","[4643.400000572205,7647.700000762939,9358.300000190735,13981.10000038147,19884.800000190735,23121.60000038147,25253]","[]","[4643.400000572205,7647.700000762939,9358.300000190735,13981.10000038147,19884.800000190735,23121.60000038147,25253,27678.300000190735]","0.6","0","0","","","","","","","","","","","","","","","","","","","","","","",""
"21720.70000076294","","{""Q01"":""5"",""Q02"":""3"",""Q03"":""5"",""Q04"":""4"",""Q05"":""4"",""Q06"":""5""}","survey-template","6","118657","0.0-5.0","5","3","5","3","3","5","3","5","4","4","5","1","0","0","1","0","0","2","1","4","4","4","2","3","4","4","3","4","5","5","7","6","8","7","6","8","5","9","4","5","3","5","6","3","6","6","4","5","1","4","3","5","4","5","3","4","7","5","5","3","3","3","2","3","5","3","6","3","5","3","2","5","3","3","4","2","6","3","3","767700606512271362","Z","496","Female","[""好她"",""坏她"",""好我"",""坏我""]","[""强她"",""弱她"",""强我"",""弱我""]","","","","","","","","{""Q01"":""5"",""Q02"":""3"",""Q03"":""5"",""Q04"":""4"",""Q05"":""4"",""Q06"":""5""}","[0,1,2,3,4,5]","[""Q01"",""Q02"",""Q03"",""Q04"",""Q05"",""Q04"",""Q06""]","[4022,7412.800000190735,9547.900000572205,13346.10000038147,15873.300000190735,17523,20652.800000190735]","[]","[4022,7412.800000190735,9547.900000572205,13346.10000038147,15873.300000190735,17523,20652.800000190735,21720.20000076294]","0.5","0","0","","","","","","","","","","","","","","","","","","","","","","",""
"23940.79999923706","","{""Q01"":""1"",""Q02"":""0"",""Q03"":""0"",""Q04"":""1"",""Q05"":""0"",""Q06"":""0"",""Q07"":""2"",""Q08"":""1""}","survey-template","7","142601","0.0-6.0","5","3","5","3","3","5","3","5","4","4","5","1","0","0","1","0","0","2","1","4","4","4","2","3","4","4","3","4","5","5","7","6","8","7","6","8","5","9","4","5","3","5","6","3","6","6","4","5","1","4","3","5","4","5","3","4","7","5","5","3","3","3","2","3","5","3","6","3","5","3","2","5","3","3","4","2","6","3","3","767700606512271362","Z","496","Female","[""好她"",""坏她"",""好我"",""坏我""]","[""强她"",""弱她"",""强我"",""弱我""]","","","","","","","","{""Q01"":""1"",""Q02"":""0"",""Q03"":""0"",""Q04"":""1"",""Q05"":""0"",""Q06"":""0"",""Q07"":""2"",""Q08"":""1""}","[0,1,2,3,4,5,6,7]","[""Q01"",""Q02"",""Q03"",""Q04"",""Q05"",""Q06"",""Q07"",""Q08""]","[3354.3999996185303,7160.299999237061,10152.79999923706,12401.39999961853,14618.39999961853,17322.099999427795,20695.699999809265,22844.099999427795]","[]","[3354.3999996185303,7160.299999237061,10152.79999923706,12401.39999961853,14618.39999961853,17322.099999427795,20695.699999809265,22844.099999427795,23939.79999923706]","0.5","0.5714285714285714","0","","","","","","","","","","","","","","","","","","","","","","",""
"18423","
    <p><div style='color:white;font-size:35px; line-height:20px;'>词汇评估任务</div></p><br>
    <p><div style='color:white;font-size:25px; line-height:20px;'>请再次回忆该亲密的朋友，你们至少2年前就认识了，并且最近2年经常见面。</div></p>
    <p><div style='color:white;font-size:25px; line-height:20px;'>在本实验中，您将会看到一些形容词。</div></p>
    <p><div style='color:yellow;font-size:25px; line-height:20px;'>您的任务是判断这些形容词是否符合对您自己或您的朋友的描述。</div></p><p style='font-size:35px'>符合按<span style=""color:lightgreen""> f 键</span>，不符合按<span style=""color:red""> j 键</span></p>","0","html-button-response","8","161027","0.0-7.0-0.0","5","3","5","3","3","5","3","5","4","4","5","1","0","0","1","0","0","2","1","4","4","4","2","3","4","4","3","4","5","5","7","6","8","7","6","8","5","9","4","5","3","5","6","3","6","6","4","5","1","4","3","5","4","5","3","4","7","5","5","3","3","3","2","3","5","3","6","3","5","3","2","5","3","3","4","2","6","3","3","767700606512271362","Z","496","Female","[""好她"",""坏她"",""好我"",""坏我""]","[""强她"",""弱她"",""强我"",""弱我""]","","","","","","","","","","","","","","","","","SRET_EW","EW_instructions","Sat Dec 09 2023 22:19:45 GMT+0800 (中国标准时间)","","","","","","","","","","","","","","","","","","","",""
"null","","null","psychophysics","9","164032","0.0-7.0-1.0-0.0","5","3","5","3","3","5","3","5","4","4","5","1","0","0","1","0","0","2","1","4","4","4","2","3","4","4","3","4","5","5","7","6","8","7","6","8","5","9","4","5","3","5","6","3","6","6","4","5","1","4","3","5","4","5","3","4","7","5","5","3","3","3","2","3","5","3","6","3","5","3","2","5","3","3","4","2","6","3","3","767700606512271362","Z","496","Female","[""好她"",""坏她"",""好我"",""坏我""]","[""强她"",""弱她"",""强我"",""弱我""]","","","","","","","","","","","","","","","","","SRET_EW","EW_practice","","key","null","16.679000000003725","768","428","自己","刻板","Negative","ability","","","","","","","","","","",""
"null","","null","psychophysics","10","167033","0.0-7.0-1.0-0.1","5","3","5","3","3","5","3","5","4","4","5","1","0","0","1","0","0","2","1","4","4","4","2","3","4","4","3","4","5","5","7","6","8","7","6","8","5","9","4","5","3","5","6","3","6","6","4","5","1","4","3","5","4","5","3","4","7","5","5","3","3","3","2","3","5","3","6","3","5","3","2","5","3","3","4","2","6","3","3","767700606512271362","Z","496","Female","[""好她"",""坏她"",""好我"",""坏我""]","[""强她"",""弱她"",""强我"",""弱我""]","","","","","","","","","","","","","","","","","SRET_EW","EW_practice","","key","null","NaN","768","428","朋友","徇私","Negative","morality","","","","","","","","","","",""
"null","","null","psychophysics","11","170036","0.0-7.0-1.0-0.2","5","3","5","3","3","5","3","5","4","4","5","1","0","0","1","0","0","2","1","4","4","4","2","3","4","4","3","4","5","5","7","6","8","7","6","8","5","9","4","5","3","5","6","3","6","6","4","5","1","4","3","5","4","5","3","4","7","5","5","3","3","3","2","3","5","3","6","3","5","3","2","5","3","3","4","2","6","3","3","767700606512271362","Z","496","Female","[""好她"",""坏她"",""好我"",""坏我""]","[""强她"",""弱她"",""强我"",""弱我""]","","","","","","","","","","","","","","","","","SRET_EW","EW_practice","","key","null","17.281725925925894","768","428","朋友","忠实","Positive","morality","","","","","","","","","","",""
"null","","null","psychophysics","12","173039","0.0-7.0-1.0-0.3","5","3","5","3","3","5","3","5","4","4","5","1","0","0","1","0","0","2","1","4","4","4","2","3","4","4","3","4","5","5","7","6","8","7","6","8","5","9","4","5","3","5","6","3","6","6","4","5","1","4","3","5","4","5","3","4","7","5","5","3","3","3","2","3","5","3","6","3","5","3","2","5","3","3","4","2","6","3","3","767700606512271362","Z","496","Female","[""好她"",""坏她"",""好我"",""坏我""]","[""强她"",""弱她"",""强我"",""弱我""]","","","","","","","","","","","","","","","","","SRET_EW","EW_practice","","key","null","16.664480446927268","768","428","自己","严谨","Positive","ability","","","","","","","","","","",""
"26922","
    <p><div style='color:white;font-size:35px; line-height:20px;'>请您再次阅读实验要求</div></p><br>
    <p><div style='color:white;font-size:25px; line-height:20px;'>请回忆某一个亲密的朋友，你们至少2年前就认识了，并且最近2年经常见面。</div></p>
    <p><div style='color:white;font-size:25px; line-height:20px;'>在本实验中，您将会看到一些形容词。</div></p>
    <p><div style='color:yellow;font-size:25px; line-height:20px;'>您的任务是判断这些形容词是否符合对您自己或您的朋友的描述。</div></p>
    <p><div class='footer' style='font-size:25px; line-height:20px;'>如果对本实验还有不清楚之处，请立即向实验员咨询。</p><p style='font-size:25px; line-height:20px;'>如果您明白了规则：</p><p style='font-size:22px; line-height:20px;'>请按 继续 进入正式实验</p>
    </div>
    <p style='font-size:35px'>符合按<span style=""color:lightgreen""> f 键</span>，不符合按<span style=""color:red""> j 键</span></p>","0","html-button-response","13","199962","0.0-7.0-2.0","5","3","5","3","3","5","3","5","4","4","5","1","0","0","1","0","0","2","1","4","4","4","2","3","4","4","3","4","5","5","7","6","8","7","6","8","5","9","4","5","3","5","6","3","6","6","4","5","1","4","3","5","4","5","3","4","7","5","5","3","3","3","2","3","5","3","6","3","5","3","2","5","3","3","4","2","6","3","3","767700606512271362","Z","496","Female","[""好她"",""坏她"",""好我"",""坏我""]","[""强她"",""弱她"",""强我"",""弱我""]","","","","","","","","","","","","","","","","","SRET_EW","prac_instructions","Sat Dec 09 2023 22:19:45 GMT+0800 (中国标准时间)","","","","","","","","","","","","","","","","","","","",""
"null","","null","psychophysics","14","202965","0.0-7.0-3.0-0.0","5","3","5","3","3","5","3","5","4","4","5","1","0","0","1","0","0","2","1","4","4","4","2","3","4","4","3","4","5","5","7","6","8","7","6","8","5","9","4","5","3","5","6","3","6","6","4","5","1","4","3","5","4","5","3","4","7","5","5","3","3","3","2","3","5","3","6","3","5","3","2","5","3","3","4","2","6","3","3","767700606512271362","Z","496","Female","[""好她"",""坏她"",""好我"",""坏我""]","[""强她"",""弱她"",""强我"",""弱我""]","","","","","","","","","","","","","","","","","SRET","EW_formal","","key","null","17.855011904762033","768","428","朋友","务实","Positive","ability","","","","","","","","","","",""
"null","","null","psychophysics","15","205967","0.0-7.0-3.0-0.1","5","3","5","3","3","5","3","5","4","4","5","1","0","0","1","0","0","2","1","4","4","4","2","3","4","4","3","4","5","5","7","6","8","7","6","8","5","9","4","5","3","5","6","3","6","6","4","5","1","4","3","5","4","5","3","4","7","5","5","3","3","3","2","3","5","3","6","3","5","3","2","5","3","3","4","2","6","3","3","767700606512271362","Z","496","Female","[""好她"",""坏她"",""好我"",""坏我""]","[""强她"",""弱她"",""强我"",""弱我""]","","","","","","","","","","","","","","","","","SRET","EW_formal","","key","null","16.665201117318414","768","428","朋友","迷糊","Negative","ability","","","","","","","","","","",""
"null","","null","psychophysics","16","208971","0.0-7.0-3.0-0.2","5","3","5","3","3","5","3","5","4","4","5","1","0","0","1","0","0","2","1","4","4","4","2","3","4","4","3","4","5","5","7","6","8","7","6","8","5","9","4","5","3","5","6","3","6","6","4","5","1","4","3","5","4","5","3","4","7","5","5","3","3","3","2","3","5","3","6","3","5","3","2","5","3","3","4","2","6","3","3","767700606512271362","Z","496","Female","[""好她"",""坏她"",""好我"",""坏我""]","[""强她"",""弱她"",""强我"",""弱我""]","","","","","","","","","","","","","","","","","SRET","EW_formal","","key","null","16.66463128491627","768","428","自己","坚贞","Positive","morality","","","","","","","","","","",""
"null","","null","psychophysics","17","211974","0.0-7.0-3.0-0.3","5","3","5","3","3","5","3","5","4","4","5","1","0","0","1","0","0","2","1","4","4","4","2","3","4","4","3","4","5","5","7","6","8","7","6","8","5","9","4","5","3","5","6","3","6","6","4","5","1","4","3","5","4","5","3","4","7","5","5","3","3","3","2","3","5","3","6","3","5","3","2","5","3","3","4","2","6","3","3","767700606512271362","Z","496","Female","[""好她"",""坏她"",""好我"",""坏我""]","[""强她"",""弱她"",""强我"",""弱我""]","","","","","","","","","","","","","","","","","SRET","EW_formal","","key","null","16.664149999999953","768","428","自己","说谎","Negative","morality","","","","","","","","","","",""
"null","","null","psychophysics","18","214976","0.0-7.0-3.0-0.4","5","3","5","3","3","5","3","5","4","4","5","1","0","0","1","0","0","2","1","4","4","4","2","3","4","4","3","4","5","5","7","6","8","7","6","8","5","9","4","5","3","5","6","3","6","6","4","5","1","4","3","5","4","5","3","4","7","5","5","3","3","3","2","3","5","3","6","3","5","3","2","5","3","3","4","2","6","3","3","767700606512271362","Z","496","Female","[""好她"",""坏她"",""好我"",""坏我""]","[""强她"",""弱她"",""强我"",""弱我""]","","","","","","","","","","","","","","","","","SRET","EW_formal","","key","null","16.664530726256988","768","428","朋友","君子","Positive","morality","","","","","","","","","","",""
"null","","null","psychophysics","19","217979","0.0-7.0-3.0-0.5","5","3","5","3","3","5","3","5","4","4","5","1","0","0","1","0","0","2","1","4","4","4","2","3","4","4","3","4","5","5","7","6","8","7","6","8","5","9","4","5","3","5","6","3","6","6","4","5","1","4","3","5","4","5","3","4","7","5","5","3","3","3","2","3","5","3","6","3","5","3","2","5","3","3","4","2","6","3","3","767700606512271362","Z","496","Female","[""好她"",""坏她"",""好我"",""坏我""]","[""强她"",""弱她"",""强我"",""弱我""]","","","","","","","","","","","","","","","","","SRET","EW_formal","","key","null","16.85323728813568","768","428","自己","腐败","Negative","morality","","","","","","","","","","",""
"null","","null","psychophysics","20","220982","0.0-7.0-3.0-0.6","5","3","5","3","3","5","3","5","4","4","5","1","0","0","1","0","0","2","1","4","4","4","2","3","4","4","3","4","5","5","7","6","8","7","6","8","5","9","4","5","3","5","6","3","6","6","4","5","1","4","3","5","4","5","3","4","7","5","5","3","3","3","2","3","5","3","6","3","5","3","2","5","3","3","4","2","6","3","3","767700606512271362","Z","496","Female","[""好她"",""坏她"",""好我"",""坏我""]","[""强她"",""弱她"",""强我"",""弱我""]","","","","","","","","","","","","","","","","","SRET","EW_formal","","key","null","16.852593220339063","768","428","自己","中用","Positive","ability","","","","","","","","","","",""
"null","","null","psychophysics","21","223984","0.0-7.0-3.0-0.7","5","3","5","3","3","5","3","5","4","4","5","1","0","0","1","0","0","2","1","4","4","4","2","3","4","4","3","4","5","5","7","6","8","7","6","8","5","9","4","5","3","5","6","3","6","6","4","5","1","4","3","5","4","5","3","4","7","5","5","3","3","3","2","3","5","3","6","3","5","3","2","5","3","3","4","2","6","3","3","767700606512271362","Z","496","Female","[""好她"",""坏她"",""好我"",""坏我""]","[""强她"",""弱她"",""强我"",""弱我""]","","","","","","","","","","","","","","","","","SRET","EW_formal","","key","null","16.664692737430226","768","428","自己","贪污","Negative","morality","","","","","","","","","","",""
"null","","null","psychophysics","22","226988","0.0-7.0-3.0-0.8","5","3","5","3","3","5","3","5","4","4","5","1","0","0","1","0","0","2","1","4","4","4","2","3","4","4","3","4","5","5","7","6","8","7","6","8","5","9","4","5","3","5","6","3","6","6","4","5","1","4","3","5","4","5","3","4","7","5","5","3","3","3","2","3","5","3","6","3","5","3","2","5","3","3","4","2","6","3","3","767700606512271362","Z","496","Female","[""好她"",""坏她"",""好我"",""坏我""]","[""强她"",""弱她"",""强我"",""弱我""]","","","","","","","","","","","","","","","","","SRET","EW_formal","","key","null","16.66433888888892","768","428","朋友","孝顺","Positive","morality","","","","","","","","","","",""
"null","","null","psychophysics","23","229990","0.0-7.0-3.0-0.9","5","3","5","3","3","5","3","5","4","4","5","1","0","0","1","0","0","2","1","4","4","4","2","3","4","4","3","4","5","5","7","6","8","7","6","8","5","9","4","5","3","5","6","3","6","6","4","5","1","4","3","5","4","5","3","4","7","5","5","3","3","3","2","3","5","3","6","3","5","3","2","5","3","3","4","2","6","3","3","767700606512271362","Z","496","Female","[""好她"",""坏她"",""好我"",""坏我""]","[""强她"",""弱她"",""强我"",""弱我""]","","","","","","","","","","","","","","","","","SRET","EW_formal","","key","null","16.664412429378505","768","428","自己","扎实","Positive","ability","","","","","","","","","","",""
"null","","null","psychophysics","24","232992","0.0-7.0-3.0-0.10","5","3","5","3","3","5","3","5","4","4","5","1","0","0","1","0","0","2","1","4","4","4","2","3","4","4","3","4","5","5","7","6","8","7","6","8","5","9","4","5","3","5","6","3","6","6","4","5","1","4","3","5","4","5","3","4","7","5","5","3","3","3","2","3","5","3","6","3","5","3","2","5","3","3","4","2","6","3","3","767700606512271362","Z","496","Female","[""好她"",""坏她"",""好我"",""坏我""]","[""强她"",""弱她"",""强我"",""弱我""]","","","","","","","","","","","","","","","","","SRET","EW_formal","","key","null","16.664581005586708","768","428","自己","弱智","Negative","ability","","","","","","","","","","",""
"1316","","f","psychophysics","25","235309","0.0-7.0-3.0-0.11","5","3","5","3","3","5","3","5","4","4","5","1","0","0","1","0","0","2","1","4","4","4","2","3","4","4","3","4","5","5","7","6","8","7","6","8","5","9","4","5","3","5","6","3","6","6","4","5","1","4","3","5","4","5","3","4","7","5","5","3","3","3","2","3","5","3","6","3","5","3","2","5","3","3","4","2","6","3","3","767700606512271362","Z","496","Female","[""好她"",""坏她"",""好我"",""坏我""]","[""强她"",""弱她"",""强我"",""弱我""]","","","","","","","","yes","","","","","","","","","SRET","EW_formal","","key","f","16.7860583941606","768","428","朋友","勤奋","Positive","ability","","","","","","","","","","",""
"900","","f","psychophysics","26","237210","0.0-7.0-3.0-0.12","5","3","5","3","3","5","3","5","4","4","5","1","0","0","1","0","0","2","1","4","4","4","2","3","4","4","3","4","5","5","7","6","8","7","6","8","5","9","4","5","3","5","6","3","6","6","4","5","1","4","3","5","4","5","3","4","7","5","5","3","3","3","2","3","5","3","6","3","5","3","2","5","3","3","4","2","6","3","3","767700606512271362","Z","496","Female","[""好她"",""坏她"",""好我"",""坏我""]","[""强她"",""弱她"",""强我"",""弱我""]","","","","","","","","yes","","","","","","","","","SRET","EW_formal","","key","f","16.66453982300905","768","428","自己","干练","Positive","ability","","","","","","","","","","",""
"1176","","j","psychophysics","27","239388","0.0-7.0-3.0-0.13","5","3","5","3","3","5","3","5","4","4","5","1","0","0","1","0","0","2","1","4","4","4","2","3","4","4","3","4","5","5","7","6","8","7","6","8","5","9","4","5","3","5","6","3","6","6","4","5","1","4","3","5","4","5","3","4","7","5","5","3","3","3","2","3","5","3","6","3","5","3","2","5","3","3","4","2","6","3","3","767700606512271362","Z","496","Female","[""好她"",""坏她"",""好我"",""坏我""]","[""强她"",""弱她"",""强我"",""弱我""]","","","","","","","","no","","","","","","","","","SRET","EW_formal","","key","j","16.664469230769186","768","428","自己","缺德","Negative","morality","","","","","","","","","","",""
"819","","f","psychophysics","28","241208","0.0-7.0-3.0-0.14","5","3","5","3","3","5","3","5","4","4","5","1","0","0","1","0","0","2","1","4","4","4","2","3","4","4","3","4","5","5","7","6","8","7","6","8","5","9","4","5","3","5","6","3","6","6","4","5","1","4","3","5","4","5","3","4","7","5","5","3","3","3","2","3","5","3","6","3","5","3","2","5","3","3","4","2","6","3","3","767700606512271362","Z","496","Female","[""好她"",""坏她"",""好我"",""坏我""]","[""强她"",""弱她"",""强我"",""弱我""]","","","","","","","","yes","","","","","","","","","SRET","EW_formal","","key","f","16.664870370370206","768","428","自己","宽容","Positive","morality","","","","","","","","","","",""
"1166","","j","psychophysics","29","243377","0.0-7.0-3.0-0.15","5","3","5","3","3","5","3","5","4","4","5","1","0","0","1","0","0","2","1","4","4","4","2","3","4","4","3","4","5","5","7","6","8","7","6","8","5","9","4","5","3","5","6","3","6","6","4","5","1","4","3","5","4","5","3","4","7","5","5","3","3","3","2","3","5","3","6","3","5","3","2","5","3","3","4","2","6","3","3","767700606512271362","Z","496","Female","[""好她"",""坏她"",""好我"",""坏我""]","[""强她"",""弱她"",""强我"",""弱我""]","","","","","","","","no","","","","","","","","","SRET","EW_formal","","key","j","16.664635658914822","768","428","朋友","愚钝","Negative","ability","","","","","","","","","","",""
"886","","f","psychophysics","30","245264","0.0-7.0-3.0-0.16","5","3","5","3","3","5","3","5","4","4","5","1","0","0","1","0","0","2","1","4","4","4","2","3","4","4","3","4","5","5","7","6","8","7","6","8","5","9","4","5","3","5","6","3","6","6","4","5","1","4","3","5","4","5","3","4","7","5","5","3","3","3","2","3","5","3","6","3","5","3","2","5","3","3","4","2","6","3","3","767700606512271362","Z","496","Female","[""好她"",""坏她"",""好我"",""坏我""]","[""强她"",""弱她"",""强我"",""弱我""]","","","","","","","","yes","","","","","","","","","SRET","EW_formal","","key","f","16.664839285714283","768","428","朋友","守时","Positive","morality","","","","","","","","","","",""
"993","","j","psychophysics","31","247259","0.0-7.0-3.0-0.17","5","3","5","3","3","5","3","5","4","4","5","1","0","0","1","0","0","2","1","4","4","4","2","3","4","4","3","4","5","5","7","6","8","7","6","8","5","9","4","5","3","5","6","3","6","6","4","5","1","4","3","5","4","5","3","4","7","5","5","3","3","3","2","3","5","3","6","3","5","3","2","5","3","3","4","2","6","3","3","767700606512271362","Z","496","Female","[""好她"",""坏她"",""好我"",""坏我""]","[""强她"",""弱她"",""强我"",""弱我""]","","","","","","","","no","","","","","","","","","SRET","EW_formal","","key","j","17.24426086956544","768","428","自己","无为","Negative","ability","","","","","","","","","","",""
"1299","","j","psychophysics","32","249560","0.0-7.0-3.0-0.18","5","3","5","3","3","5","3","5","4","4","5","1","0","0","1","0","0","2","1","4","4","4","2","3","4","4","3","4","5","5","7","6","8","7","6","8","5","9","4","5","3","5","6","3","6","6","4","5","1","4","3","5","4","5","3","4","7","5","5","3","3","3","2","3","5","3","6","3","5","3","2","5","3","3","4","2","6","3","3","767700606512271362","Z","496","Female","[""好她"",""坏她"",""好我"",""坏我""]","[""强她"",""弱她"",""强我"",""弱我""]","","","","","","","","no","","","","","","","","","SRET","EW_formal","","key","j","16.665065693430666","768","428","朋友","淫乱","Negative","morality","","","","","","","","","","",""
"1149","","f","psychophysics","33","251710","0.0-7.0-3.0-0.19","5","3","5","3","3","5","3","5","4","4","5","1","0","0","1","0","0","2","1","4","4","4","2","3","4","4","3","4","5","5","7","6","8","7","6","8","5","9","4","5","3","5","6","3","6","6","4","5","1","4","3","5","4","5","3","4","7","5","5","3","3","3","2","3","5","3","6","3","5","3","2","5","3","3","4","2","6","3","3","767700606512271362","Z","496","Female","[""好她"",""坏她"",""好我"",""坏我""]","[""强她"",""弱她"",""强我"",""弱我""]","","","","","","","","yes","","","","","","","","","SRET","EW_formal","","key","f","16.66461718749997","768","428","朋友","稳健","Positive","ability","","","","","","","","","","",""
"1196","","f","psychophysics","34","253908","0.0-7.0-3.0-0.20","5","3","5","3","3","5","3","5","4","4","5","1","0","0","1","0","0","2","1","4","4","4","2","3","4","4","3","4","5","5","7","6","8","7","6","8","5","9","4","5","3","5","6","3","6","6","4","5","1","4","3","5","4","5","3","4","7","5","5","3","3","3","2","3","5","3","6","3","5","3","2","5","3","3","4","2","6","3","3","767700606512271362","Z","496","Female","[""好她"",""坏她"",""好我"",""坏我""]","[""强她"",""弱她"",""强我"",""弱我""]","","","","","","","","yes","","","","","","","","","SRET","EW_formal","","key","f","17.18981889763771","768","428","自己","仁爱","Positive","morality","","","","","","","","","","",""
"1138","","j","psychophysics","35","256050","0.0-7.0-3.0-0.21","5","3","5","3","3","5","3","5","4","4","5","1","0","0","1","0","0","2","1","4","4","4","2","3","4","4","3","4","5","5","7","6","8","7","6","8","5","9","4","5","3","5","6","3","6","6","4","5","1","4","3","5","4","5","3","4","7","5","5","3","3","3","2","3","5","3","6","3","5","3","2","5","3","3","4","2","6","3","3","767700606512271362","Z","496","Female","[""好她"",""坏她"",""好我"",""坏我""]","[""强她"",""弱她"",""强我"",""弱我""]","","","","","","","","no","","","","","","","","","SRET","EW_formal","","key","j","16.664726562499936","768","428","自己","自私","Negative","morality","","","","","","","","","","",""
"1477","","f","psychophysics","36","258529","0.0-7.0-3.0-0.22","5","3","5","3","3","5","3","5","4","4","5","1","0","0","1","0","0","2","1","4","4","4","2","3","4","4","3","4","5","5","7","6","8","7","6","8","5","9","4","5","3","5","6","3","6","6","4","5","1","4","3","5","4","5","3","4","7","5","5","3","3","3","2","3","5","3","6","3","5","3","2","5","3","3","4","2","6","3","3","767700606512271362","Z","496","Female","[""好她"",""坏她"",""好我"",""坏我""]","[""强她"",""弱她"",""强我"",""弱我""]","","","","","","","","yes","","","","","","","","","SRET","EW_formal","","key","f","16.664340136054392","768","428","朋友","全才","Positive","ability","","","","","","","","","","",""
"null","","null","psychophysics","37","261535","0.0-7.0-3.0-0.23","5","3","5","3","3","5","3","5","4","4","5","1","0","0","1","0","0","2","1","4","4","4","2","3","4","4","3","4","5","5","7","6","8","7","6","8","5","9","4","5","3","5","6","3","6","6","4","5","1","4","3","5","4","5","3","4","7","5","5","3","3","3","2","3","5","3","6","3","5","3","2","5","3","3","4","2","6","3","3","767700606512271362","Z","496","Female","[""好她"",""坏她"",""好我"",""坏我""]","[""强她"",""弱她"",""强我"",""弱我""]","","","","","","","","","","","","","","","","","SRET","EW_formal","","key","null","17.043124999999815","768","428","自己","变通","Positive","ability","","","","","","","","","","",""
"563","","f","psychophysics","38","263099","0.0-7.0-3.0-0.24","5","3","5","3","3","5","3","5","4","4","5","1","0","0","1","0","0","2","1","4","4","4","2","3","4","4","3","4","5","5","7","6","8","7","6","8","5","9","4","5","3","5","6","3","6","6","4","5","1","4","3","5","4","5","3","4","7","5","5","3","3","3","2","3","5","3","6","3","5","3","2","5","3","3","4","2","6","3","3","767700606512271362","Z","496","Female","[""好她"",""坏她"",""好我"",""坏我""]","[""强她"",""弱她"",""强我"",""弱我""]","","","","","","","","yes","","","","","","","","","SRET","EW_formal","","key","f","17.21883333333341","768","428","朋友","无能","Negative","ability","","","","","","","","","","",""
"null","","null","psychophysics","39","266104","0.0-7.0-3.0-0.25","5","3","5","3","3","5","3","5","4","4","5","1","0","0","1","0","0","2","1","4","4","4","2","3","4","4","3","4","5","5","7","6","8","7","6","8","5","9","4","5","3","5","6","3","6","6","4","5","1","4","3","5","4","5","3","4","7","5","5","3","3","3","2","3","5","3","6","3","5","3","2","5","3","3","4","2","6","3","3","767700606512271362","Z","496","Female","[""好她"",""坏她"",""好我"",""坏我""]","[""强她"",""弱她"",""强我"",""弱我""]","","","","","","","","","","","","","","","","","SRET","EW_formal","","key","null","16.664335195530875","768","428","自己","义气","Positive","morality","","","","","","","","","","",""
"1214","","f","psychophysics","40","268321","0.0-7.0-3.0-0.26","5","3","5","3","3","5","3","5","4","4","5","1","0","0","1","0","0","2","1","4","4","4","2","3","4","4","3","4","5","5","7","6","8","7","6","8","5","9","4","5","3","5","6","3","6","6","4","5","1","4","3","5","4","5","3","4","7","5","5","3","3","3","2","3","5","3","6","3","5","3","2","5","3","3","4","2","6","3","3","767700606512271362","Z","496","Female","[""好她"",""坏她"",""好我"",""坏我""]","[""强她"",""弱她"",""强我"",""弱我""]","","","","","","","","yes","","","","","","","","","SRET","EW_formal","","key","f","16.66513636363644","768","428","朋友","无助","Negative","ability","","","","","","","","","","",""
"955","","j","psychophysics","41","270277","0.0-7.0-3.0-0.27","5","3","5","3","3","5","3","5","4","4","5","1","0","0","1","0","0","2","1","4","4","4","2","3","4","4","3","4","5","5","7","6","8","7","6","8","5","9","4","5","3","5","6","3","6","6","4","5","1","4","3","5","4","5","3","4","7","5","5","3","3","3","2","3","5","3","6","3","5","3","2","5","3","3","4","2","6","3","3","767700606512271362","Z","496","Female","[""好她"",""坏她"",""好我"",""坏我""]","[""强她"",""弱她"",""强我"",""弱我""]","","","","","","","","no","","","","","","","","","SRET","EW_formal","","key","j","16.66475862068935","768","428","自己","外行","Negative","ability","","","","","","","","","","",""
"1640","","j","psychophysics","42","272919","0.0-7.0-3.0-0.28","5","3","5","3","3","5","3","5","4","4","5","1","0","0","1","0","0","2","1","4","4","4","2","3","4","4","3","4","5","5","7","6","8","7","6","8","5","9","4","5","3","5","6","3","6","6","4","5","1","4","3","5","4","5","3","4","7","5","5","3","3","3","2","3","5","3","6","3","5","3","2","5","3","3","4","2","6","3","3","767700606512271362","Z","496","Female","[""好她"",""坏她"",""好我"",""坏我""]","[""强她"",""弱她"",""强我"",""弱我""]","","","","","","","","no","","","","","","","","","SRET","EW_formal","","key","j","16.66453797468338","768","428","自己","浅薄","Negative","ability","","","","","","","","","","",""
"1335","","j","psychophysics","43","275257","0.0-7.0-3.0-0.29","5","3","5","3","3","5","3","5","4","4","5","1","0","0","1","0","0","2","1","4","4","4","2","3","4","4","3","4","5","5","7","6","8","7","6","8","5","9","4","5","3","5","6","3","6","6","4","5","1","4","3","5","4","5","3","4","7","5","5","3","3","3","2","3","5","3","6","3","5","3","2","5","3","3","4","2","6","3","3","767700606512271362","Z","496","Female","[""好她"",""坏她"",""好我"",""坏我""]","[""强她"",""弱她"",""强我"",""弱我""]","","","","","","","","no","","","","","","","","","SRET","EW_formal","","key","j","16.66517985611526","768","428","自己","奸险","Negative","morality","","","","","","","","","","",""
"1094","","f","psychophysics","44","277352","0.0-7.0-3.0-0.30","5","3","5","3","3","5","3","5","4","4","5","1","0","0","1","0","0","2","1","4","4","4","2","3","4","4","3","4","5","5","7","6","8","7","6","8","5","9","4","5","3","5","6","3","6","6","4","5","1","4","3","5","4","5","3","4","7","5","5","3","3","3","2","3","5","3","6","3","5","3","2","5","3","3","4","2","6","3","3","767700606512271362","Z","496","Female","[""好她"",""坏她"",""好我"",""坏我""]","[""强她"",""弱她"",""强我"",""弱我""]","","","","","","","","yes","","","","","","","","","SRET","EW_formal","","key","f","16.665151999999768","768","428","自己","敬业","Positive","morality","","","","","","","","","","",""
"1316","","j","psychophysics","45","279670","0.0-7.0-3.0-0.31","5","3","5","3","3","5","3","5","4","4","5","1","0","0","1","0","0","2","1","4","4","4","2","3","4","4","3","4","5","5","7","6","8","7","6","8","5","9","4","5","3","5","6","3","6","6","4","5","1","4","3","5","4","5","3","4","7","5","5","3","3","3","2","3","5","3","6","3","5","3","2","5","3","3","4","2","6","3","3","767700606512271362","Z","496","Female","[""好她"",""坏她"",""好我"",""坏我""]","[""强她"",""弱她"",""强我"",""弱我""]","","","","","","","","no","","","","","","","","","SRET","EW_formal","","key","j","16.66445652173918","768","428","朋友","诡诈","Negative","morality","","","","","","","","","","",""
"927","","j","psychophysics","46","281599","0.0-7.0-3.0-0.32","5","3","5","3","3","5","3","5","4","4","5","1","0","0","1","0","0","2","1","4","4","4","2","3","4","4","3","4","5","5","7","6","8","7","6","8","5","9","4","5","3","5","6","3","6","6","4","5","1","4","3","5","4","5","3","4","7","5","5","3","3","3","2","3","5","3","6","3","5","3","2","5","3","3","4","2","6","3","3","767700606512271362","Z","496","Female","[""好她"",""坏她"",""好我"",""坏我""]","[""强她"",""弱她"",""强我"",""弱我""]","","","","","","","","no","","","","","","","","","SRET","EW_formal","","key","j","16.664486956521465","768","428","朋友","阴毒","Negative","morality","","","","","","","","","","",""
"1132","","j","psychophysics","47","283732","0.0-7.0-3.0-0.33","5","3","5","3","3","5","3","5","4","4","5","1","0","0","1","0","0","2","1","4","4","4","2","3","4","4","3","4","5","5","7","6","8","7","6","8","5","9","4","5","3","5","6","3","6","6","4","5","1","4","3","5","4","5","3","4","7","5","5","3","3","3","2","3","5","3","6","3","5","3","2","5","3","3","4","2","6","3","3","767700606512271362","Z","496","Female","[""好她"",""坏她"",""好我"",""坏我""]","[""强她"",""弱她"",""强我"",""弱我""]","","","","","","","","no","","","","","","","","","SRET","EW_formal","","key","j","16.664503937007815","768","428","朋友","犹豫","Negative","ability","","","","","","","","","","",""
"987","","j","psychophysics","48","285720","0.0-7.0-3.0-0.34","5","3","5","3","3","5","3","5","4","4","5","1","0","0","1","0","0","2","1","4","4","4","2","3","4","4","3","4","5","5","7","6","8","7","6","8","5","9","4","5","3","5","6","3","6","6","4","5","1","4","3","5","4","5","3","4","7","5","5","3","3","3","2","3","5","3","6","3","5","3","2","5","3","3","4","2","6","3","3","767700606512271362","Z","496","Female","[""好她"",""坏她"",""好我"",""坏我""]","[""强她"",""弱她"",""强我"",""弱我""]","","","","","","","","no","","","","","","","","","SRET","EW_formal","","key","j","16.66449152542351","768","428","朋友","短视","Negative","ability","","","","","","","","","","",""
"1066","","f","psychophysics","49","287787","0.0-7.0-3.0-0.35","5","3","5","3","3","5","3","5","4","4","5","1","0","0","1","0","0","2","1","4","4","4","2","3","4","4","3","4","5","5","7","6","8","7","6","8","5","9","4","5","3","5","6","3","6","6","4","5","1","4","3","5","4","5","3","4","7","5","5","3","3","3","2","3","5","3","6","3","5","3","2","5","3","3","4","2","6","3","3","767700606512271362","Z","496","Female","[""好她"",""坏她"",""好我"",""坏我""]","[""强她"",""弱她"",""强我"",""弱我""]","","","","","","","","yes","","","","","","","","","SRET","EW_formal","","key","f","16.66408943089399","768","428","自己","驽钝","Negative","ability","","","","","","","","","","",""
"1296","","f","psychophysics","50","290084","0.0-7.0-3.0-0.36","5","3","5","3","3","5","3","5","4","4","5","1","0","0","1","0","0","2","1","4","4","4","2","3","4","4","3","4","5","5","7","6","8","7","6","8","5","9","4","5","3","5","6","3","6","6","4","5","1","4","3","5","4","5","3","4","7","5","5","3","3","3","2","3","5","3","6","3","5","3","2","5","3","3","4","2","6","3","3","767700606512271362","Z","496","Female","[""好她"",""坏她"",""好我"",""坏我""]","[""强她"",""弱她"",""强我"",""弱我""]","","","","","","","","yes","","","","","","","","","SRET","EW_formal","","key","f","16.665036496350687","768","428","朋友","清廉","Positive","morality","","","","","","","","","","",""
"943","","f","psychophysics","51","292028","0.0-7.0-3.0-0.37","5","3","5","3","3","5","3","5","4","4","5","1","0","0","1","0","0","2","1","4","4","4","2","3","4","4","3","4","5","5","7","6","8","7","6","8","5","9","4","5","3","5","6","3","6","6","4","5","1","4","3","5","4","5","3","4","7","5","5","3","3","3","2","3","5","3","6","3","5","3","2","5","3","3","4","2","6","3","3","767700606512271362","Z","496","Female","[""好她"",""坏她"",""好我"",""坏我""]","[""强她"",""弱她"",""强我"",""弱我""]","","","","","","","","yes","","","","","","","","","SRET","EW_formal","","key","f","16.66426724137925","768","428","朋友","仗义","Positive","morality","","","","","","","","","","",""
"1316","","j","psychophysics","52","294347","0.0-7.0-3.0-0.38","5","3","5","3","3","5","3","5","4","4","5","1","0","0","1","0","0","2","1","4","4","4","2","3","4","4","3","4","5","5","7","6","8","7","6","8","5","9","4","5","3","5","6","3","6","6","4","5","1","4","3","5","4","5","3","4","7","5","5","3","3","3","2","3","5","3","6","3","5","3","2","5","3","3","4","2","6","3","3","767700606512271362","Z","496","Female","[""好她"",""坏她"",""好我"",""坏我""]","[""强她"",""弱她"",""强我"",""弱我""]","","","","","","","","no","","","","","","","","","SRET","EW_formal","","key","j","16.66449275362327","768","428","自己","不孝","Negative","morality","","","","","","","","","","",""
"1254","","j","psychophysics","53","296603","0.0-7.0-3.0-0.39","5","3","5","3","3","5","3","5","4","4","5","1","0","0","1","0","0","2","1","4","4","4","2","3","4","4","3","4","5","5","7","6","8","7","6","8","5","9","4","5","3","5","6","3","6","6","4","5","1","4","3","5","4","5","3","4","7","5","5","3","3","3","2","3","5","3","6","3","5","3","2","5","3","3","4","2","6","3","3","767700606512271362","Z","496","Female","[""好她"",""坏她"",""好我"",""坏我""]","[""强她"",""弱她"",""强我"",""弱我""]","","","","","","","","no","","","","","","","","","SRET","EW_formal","","key","j","16.66404477611954","768","428","朋友","小人","Negative","morality","","","","","","","","","","",""
"836","","f","psychophysics","54","298441","0.0-7.0-3.0-0.40","5","3","5","3","3","5","3","5","4","4","5","1","0","0","1","0","0","2","1","4","4","4","2","3","4","4","3","4","5","5","7","6","8","7","6","8","5","9","4","5","3","5","6","3","6","6","4","5","1","4","3","5","4","5","3","4","7","5","5","3","3","3","2","3","5","3","6","3","5","3","2","5","3","3","4","2","6","3","3","767700606512271362","Z","496","Female","[""好她"",""坏她"",""好我"",""坏我""]","[""强她"",""弱她"",""强我"",""弱我""]","","","","","","","","yes","","","","","","","","","SRET","EW_formal","","key","f","16.6644495412843","768","428","朋友","坚持","Positive","ability","","","","","","","","","","",""
"1468","","j","psychophysics","55","300913","0.0-7.0-3.0-0.41","5","3","5","3","3","5","3","5","4","4","5","1","0","0","1","0","0","2","1","4","4","4","2","3","4","4","3","4","5","5","7","6","8","7","6","8","5","9","4","5","3","5","6","3","6","6","4","5","1","4","3","5","4","5","3","4","7","5","5","3","3","3","2","3","5","3","6","3","5","3","2","5","3","3","4","2","6","3","3","767700606512271362","Z","496","Female","[""好她"",""坏她"",""好我"",""坏我""]","[""强她"",""弱她"",""强我"",""弱我""]","","","","","","","","no","","","","","","","","","SRET","EW_formal","","key","j","16.664418918919132","768","428","朋友","粗心","Negative","ability","","","","","","","","","","",""
"905","","f","psychophysics","56","302820","0.0-7.0-3.0-0.42","5","3","5","3","3","5","3","5","4","4","5","1","0","0","1","0","0","2","1","4","4","4","2","3","4","4","3","4","5","5","7","6","8","7","6","8","5","9","4","5","3","5","6","3","6","6","4","5","1","4","3","5","4","5","3","4","7","5","5","3","3","3","2","3","5","3","6","3","5","3","2","5","3","3","4","2","6","3","3","767700606512271362","Z","496","Female","[""好她"",""坏她"",""好我"",""坏我""]","[""强她"",""弱她"",""强我"",""弱我""]","","","","","","","","yes","","","","","","","","","SRET","EW_formal","","key","f","16.664725663716826","768","428","朋友","刚正","Positive","morality","","","","","","","","","","",""
"861","","j","psychophysics","57","304683","0.0-7.0-3.0-0.43","5","3","5","3","3","5","3","5","4","4","5","1","0","0","1","0","0","2","1","4","4","4","2","3","4","4","3","4","5","5","7","6","8","7","6","8","5","9","4","5","3","5","6","3","6","6","4","5","1","4","3","5","4","5","3","4","7","5","5","3","3","3","2","3","5","3","6","3","5","3","2","5","3","3","4","2","6","3","3","767700606512271362","Z","496","Female","[""好她"",""坏她"",""好我"",""坏我""]","[""强她"",""弱她"",""强我"",""弱我""]","","","","","","","","no","","","","","","","","","SRET","EW_formal","","key","j","16.66527927927893","768","428","朋友","奸诈","Negative","morality","","","","","","","","","","",""
"1249","","j","psychophysics","58","306933","0.0-7.0-3.0-0.44","5","3","5","3","3","5","3","5","4","4","5","1","0","0","1","0","0","2","1","4","4","4","2","3","4","4","3","4","5","5","7","6","8","7","6","8","5","9","4","5","3","5","6","3","6","6","4","5","1","4","3","5","4","5","3","4","7","5","5","3","3","3","2","3","5","3","6","3","5","3","2","5","3","3","4","2","6","3","3","767700606512271362","Z","496","Female","[""好她"",""坏她"",""好我"",""坏我""]","[""强她"",""弱她"",""强我"",""弱我""]","","","","","","","","no","","","","","","","","","SRET","EW_formal","","key","j","16.664507462686526","768","428","朋友","屈才","Negative","ability","","","","","","","","","","",""
"907","","j","psychophysics","59","308842","0.0-7.0-3.0-0.45","5","3","5","3","3","5","3","5","4","4","5","1","0","0","1","0","0","2","1","4","4","4","2","3","4","4","3","4","5","5","7","6","8","7","6","8","5","9","4","5","3","5","6","3","6","6","4","5","1","4","3","5","4","5","3","4","7","5","5","3","3","3","2","3","5","3","6","3","5","3","2","5","3","3","4","2","6","3","3","767700606512271362","Z","496","Female","[""好她"",""坏她"",""好我"",""坏我""]","[""强她"",""弱她"",""强我"",""弱我""]","","","","","","","","no","","","","","","","","","SRET","EW_formal","","key","j","16.664353982300756","768","428","朋友","差生","Negative","ability","","","","","","","","","","",""
"795","","j","psychophysics","60","310638","0.0-7.0-3.0-0.46","5","3","5","3","3","5","3","5","4","4","5","1","0","0","1","0","0","2","1","4","4","4","2","3","4","4","3","4","5","5","7","6","8","7","6","8","5","9","4","5","3","5","6","3","6","6","4","5","1","4","3","5","4","5","3","4","7","5","5","3","3","3","2","3","5","3","6","3","5","3","2","5","3","3","4","2","6","3","3","767700606512271362","Z","496","Female","[""好她"",""坏她"",""好我"",""坏我""]","[""强她"",""弱她"",""强我"",""弱我""]","","","","","","","","no","","","","","","","","","SRET","EW_formal","","key","j","16.664953271028256","768","428","自己","低劣","Negative","morality","","","","","","","","","","",""
"1158","","j","psychophysics","61","312798","0.0-7.0-3.0-0.47","5","3","5","3","3","5","3","5","4","4","5","1","0","0","1","0","0","2","1","4","4","4","2","3","4","4","3","4","5","5","7","6","8","7","6","8","5","9","4","5","3","5","6","3","6","6","4","5","1","4","3","5","4","5","3","4","7","5","5","3","3","3","2","3","5","3","6","3","5","3","2","5","3","3","4","2","6","3","3","767700606512271362","Z","496","Female","[""好她"",""坏她"",""好我"",""坏我""]","[""强她"",""弱她"",""强我"",""弱我""]","","","","","","","","no","","","","","","","","","SRET","EW_formal","","key","j","16.664697674418484","768","428","朋友","才尽","Negative","ability","","","","","","","","","","",""
"1152","","f","psychophysics","62","314958","0.0-7.0-3.0-0.48","5","3","5","3","3","5","3","5","4","4","5","1","0","0","1","0","0","2","1","4","4","4","2","3","4","4","3","4","5","5","7","6","8","7","6","8","5","9","4","5","3","5","6","3","6","6","4","5","1","4","3","5","4","5","3","4","7","5","5","3","3","3","2","3","5","3","6","3","5","3","2","5","3","3","4","2","6","3","3","767700606512271362","Z","496","Female","[""好她"",""坏她"",""好我"",""坏我""]","[""强她"",""弱她"",""强我"",""弱我""]","","","","","","","","yes","","","","","","","","","SRET","EW_formal","","key","f","16.664250000000266","768","428","自己","盲目","Negative","ability","","","","","","","","","","",""
"1044","","j","psychophysics","63","317003","0.0-7.0-3.0-0.49","5","3","5","3","3","5","3","5","4","4","5","1","0","0","1","0","0","2","1","4","4","4","2","3","4","4","3","4","5","5","7","6","8","7","6","8","5","9","4","5","3","5","6","3","6","6","4","5","1","4","3","5","4","5","3","4","7","5","5","3","3","3","2","3","5","3","6","3","5","3","2","5","3","3","4","2","6","3","3","767700606512271362","Z","496","Female","[""好她"",""坏她"",""好我"",""坏我""]","[""强她"",""弱她"",""强我"",""弱我""]","","","","","","","","no","","","","","","","","","SRET","EW_formal","","key","j","16.66507563025186","768","428","朋友","守法","Positive","morality","","","","","","","","","","",""
"960","","f","psychophysics","64","318964","0.0-7.0-3.0-0.50","5","3","5","3","3","5","3","5","4","4","5","1","0","0","1","0","0","2","1","4","4","4","2","3","4","4","3","4","5","5","7","6","8","7","6","8","5","9","4","5","3","5","6","3","6","6","4","5","1","4","3","5","4","5","3","4","7","5","5","3","3","3","2","3","5","3","6","3","5","3","2","5","3","3","4","2","6","3","3","767700606512271362","Z","496","Female","[""好她"",""坏她"",""好我"",""坏我""]","[""强她"",""弱她"",""强我"",""弱我""]","","","","","","","","yes","","","","","","","","","SRET","EW_formal","","key","f","16.664735042735334","768","428","自己","高明","Positive","ability","","","","","","","","","","",""
"850","","f","psychophysics","65","320816","0.0-7.0-3.0-0.51","5","3","5","3","3","5","3","5","4","4","5","1","0","0","1","0","0","2","1","4","4","4","2","3","4","4","3","4","5","5","7","6","8","7","6","8","5","9","4","5","3","5","6","3","6","6","4","5","1","4","3","5","4","5","3","4","7","5","5","3","3","3","2","3","5","3","6","3","5","3","2","5","3","3","4","2","6","3","3","767700606512271362","Z","496","Female","[""好她"",""坏她"",""好我"",""坏我""]","[""强她"",""弱她"",""强我"",""弱我""]","","","","","","","","yes","","","","","","","","","SRET","EW_formal","","key","f","16.66480909090923","768","428","自己","爱国","Positive","morality","","","","","","","","","","",""
"1161","","f","psychophysics","66","322978","0.0-7.0-3.0-0.52","5","3","5","3","3","5","3","5","4","4","5","1","0","0","1","0","0","2","1","4","4","4","2","3","4","4","3","4","5","5","7","6","8","7","6","8","5","9","4","5","3","5","6","3","6","6","4","5","1","4","3","5","4","5","3","4","7","5","5","3","3","3","2","3","5","3","6","3","5","3","2","5","3","3","4","2","6","3","3","767700606512271362","Z","496","Female","[""好她"",""坏她"",""好我"",""坏我""]","[""强她"",""弱她"",""强我"",""弱我""]","","","","","","","","yes","","","","","","","","","SRET","EW_formal","","key","f","16.664062015503795","768","428","朋友","厚道","Positive","morality","","","","","","","","","","",""
"925","","f","psychophysics","67","324904","0.0-7.0-3.0-0.53","5","3","5","3","3","5","3","5","4","4","5","1","0","0","1","0","0","2","1","4","4","4","2","3","4","4","3","4","5","5","7","6","8","7","6","8","5","9","4","5","3","5","6","3","6","6","4","5","1","4","3","5","4","5","3","4","7","5","5","3","3","3","2","3","5","3","6","3","5","3","2","5","3","3","4","2","6","3","3","767700606512271362","Z","496","Female","[""好她"",""坏她"",""好我"",""坏我""]","[""强她"",""弱她"",""强我"",""弱我""]","","","","","","","","yes","","","","","","","","","SRET","EW_formal","","key","f","16.66452631578942","768","428","朋友","博识","Positive","ability","","","","","","","","","","",""
"1375","","j","psychophysics","68","327282","0.0-7.0-3.0-0.54","5","3","5","3","3","5","3","5","4","4","5","1","0","0","1","0","0","2","1","4","4","4","2","3","4","4","3","4","5","5","7","6","8","7","6","8","5","9","4","5","3","5","6","3","6","6","4","5","1","4","3","5","4","5","3","4","7","5","5","3","3","3","2","3","5","3","6","3","5","3","2","5","3","3","4","2","6","3","3","767700606512271362","Z","496","Female","[""好她"",""坏她"",""好我"",""坏我""]","[""强她"",""弱她"",""强我"",""弱我""]","","","","","","","","no","","","","","","","","","SRET","EW_formal","","key","j","16.664436619718554","768","428","自己","不良","Negative","morality","","","","","","","","","","",""
"1134","","f","psychophysics","69","329419","0.0-7.0-3.0-0.55","5","3","5","3","3","5","3","5","4","4","5","1","0","0","1","0","0","2","1","4","4","4","2","3","4","4","3","4","5","5","7","6","8","7","6","8","5","9","4","5","3","5","6","3","6","6","4","5","1","4","3","5","4","5","3","4","7","5","5","3","3","3","2","3","5","3","6","3","5","3","2","5","3","3","4","2","6","3","3","767700606512271362","Z","496","Female","[""好她"",""坏她"",""好我"",""坏我""]","[""强她"",""弱她"",""强我"",""弱我""]","","","","","","","","yes","","","","","","","","","SRET","EW_formal","","key","f","16.664566929133585","768","428","自己","毛糙","Negative","ability","","","","","","","","","","",""
"708","","f","psychophysics","70","331130","0.0-7.0-3.0-0.56","5","3","5","3","3","5","3","5","4","4","5","1","0","0","1","0","0","2","1","4","4","4","2","3","4","4","3","4","5","5","7","6","8","7","6","8","5","9","4","5","3","5","6","3","6","6","4","5","1","4","3","5","4","5","3","4","7","5","5","3","3","3","2","3","5","3","6","3","5","3","2","5","3","3","4","2","6","3","3","767700606512271362","Z","496","Female","[""好她"",""坏她"",""好我"",""坏我""]","[""强她"",""弱她"",""强我"",""弱我""]","","","","","","","","yes","","","","","","","","","SRET","EW_formal","","key","f","16.66520588235261","768","428","自己","礼貌","Positive","morality","","","","","","","","","","",""
"1095","","f","psychophysics","71","333226","0.0-7.0-3.0-0.57","5","3","5","3","3","5","3","5","4","4","5","1","0","0","1","0","0","2","1","4","4","4","2","3","4","4","3","4","5","5","7","6","8","7","6","8","5","9","4","5","3","5","6","3","6","6","4","5","1","4","3","5","4","5","3","4","7","5","5","3","3","3","2","3","5","3","6","3","5","3","2","5","3","3","4","2","6","3","3","767700606512271362","Z","496","Female","[""好她"",""坏她"",""好我"",""坏我""]","[""强她"",""弱她"",""强我"",""弱我""]","","","","","","","","yes","","","","","","","","","SRET","EW_formal","","key","f","16.665104000000284","768","428","朋友","慈悲","Positive","morality","","","","","","","","","","",""
"953","","f","psychophysics","72","335180","0.0-7.0-3.0-0.58","5","3","5","3","3","5","3","5","4","4","5","1","0","0","1","0","0","2","1","4","4","4","2","3","4","4","3","4","5","5","7","6","8","7","6","8","5","9","4","5","3","5","6","3","6","6","4","5","1","4","3","5","4","5","3","4","7","5","5","3","3","3","2","3","5","3","6","3","5","3","2","5","3","3","4","2","6","3","3","767700606512271362","Z","496","Female","[""好她"",""坏她"",""好我"",""坏我""]","[""强她"",""弱她"",""强我"",""弱我""]","","","","","","","","yes","","","","","","","","","SRET","EW_formal","","key","f","16.664172413793054","768","428","自己","廉正","Positive","morality","","","","","","","","","","",""
"794","","f","psychophysics","73","336975","0.0-7.0-3.0-0.59","5","3","5","3","3","5","3","5","4","4","5","1","0","0","1","0","0","2","1","4","4","4","2","3","4","4","3","4","5","5","7","6","8","7","6","8","5","9","4","5","3","5","6","3","6","6","4","5","1","4","3","5","4","5","3","4","7","5","5","3","3","3","2","3","5","3","6","3","5","3","2","5","3","3","4","2","6","3","3","767700606512271362","Z","496","Female","[""好她"",""坏她"",""好我"",""坏我""]","[""强她"",""弱她"",""强我"",""弱我""]","","","","","","","","yes","","","","","","","","","SRET","EW_formal","","key","f","16.664158878504693","768","428","自己","能干","Positive","ability","","","","","","","","","","",""
"1186","","f","psychophysics","74","339162","0.0-7.0-3.0-0.60","5","3","5","3","3","5","3","5","4","4","5","1","0","0","1","0","0","2","1","4","4","4","2","3","4","4","3","4","5","5","7","6","8","7","6","8","5","9","4","5","3","5","6","3","6","6","4","5","1","4","3","5","4","5","3","4","7","5","5","3","3","3","2","3","5","3","6","3","5","3","2","5","3","3","4","2","6","3","3","767700606512271362","Z","496","Female","[""好她"",""坏她"",""好我"",""坏我""]","[""强她"",""弱她"",""强我"",""弱我""]","","","","","","","","yes","","","","","","","","","SRET","EW_formal","","key","f","16.664715384615388","768","428","朋友","利落","Positive","ability","","","","","","","","","","",""
"null","","null","psychophysics","75","342164","0.0-7.0-3.0-0.61","5","3","5","3","3","5","3","5","4","4","5","1","0","0","1","0","0","2","1","4","4","4","2","3","4","4","3","4","5","5","7","6","8","7","6","8","5","9","4","5","3","5","6","3","6","6","4","5","1","4","3","5","4","5","3","4","7","5","5","3","3","3","2","3","5","3","6","3","5","3","2","5","3","3","4","2","6","3","3","767700606512271362","Z","496","Female","[""好她"",""坏她"",""好我"",""坏我""]","[""强她"",""弱她"",""强我"",""弱我""]","","","","","","","","","","","","","","","","","SRET","EW_formal","","key","null","16.664212290502633","768","428","朋友","偏私","Negative","morality","","","","","","","","","","",""
"794","","j","psychophysics","76","343960","0.0-7.0-3.0-0.62","5","3","5","3","3","5","3","5","4","4","5","1","0","0","1","0","0","2","1","4","4","4","2","3","4","4","3","4","5","5","7","6","8","7","6","8","5","9","4","5","3","5","6","3","6","6","4","5","1","4","3","5","4","5","3","4","7","5","5","3","3","3","2","3","5","3","6","3","5","3","2","5","3","3","4","2","6","3","3","767700606512271362","Z","496","Female","[""好她"",""坏她"",""好我"",""坏我""]","[""强她"",""弱她"",""强我"",""弱我""]","","","","","","","","no","","","","","","","","","SRET","EW_formal","","key","j","16.66467289719622","768","428","自己","贪腐","Negative","morality","","","","","","","","","","",""
"783","","f","psychophysics","77","345744","0.0-7.0-3.0-0.63","5","3","5","3","3","5","3","5","4","4","5","1","0","0","1","0","0","2","1","4","4","4","2","3","4","4","3","4","5","5","7","6","8","7","6","8","5","9","4","5","3","5","6","3","6","6","4","5","1","4","3","5","4","5","3","4","7","5","5","3","3","3","2","3","5","3","6","3","5","3","2","5","3","3","4","2","6","3","3","767700606512271362","Z","496","Female","[""好她"",""坏她"",""好我"",""坏我""]","[""强她"",""弱她"",""强我"",""弱我""]","","","","","","","","yes","","","","","","","","","SRET","EW_formal","","key","f","16.664405660377046","768","428","自己","智慧","Positive","ability","","","","","","","","","","",""
"1145","","f","psychophysics","78","347892","0.0-7.0-3.0-0.64","5","3","5","3","3","5","3","5","4","4","5","1","0","0","1","0","0","2","1","4","4","4","2","3","4","4","3","4","5","5","7","6","8","7","6","8","5","9","4","5","3","5","6","3","6","6","4","5","1","4","3","5","4","5","3","4","7","5","5","3","3","3","2","3","5","3","6","3","5","3","2","5","3","3","4","2","6","3","3","767700606512271362","Z","496","Female","[""好她"",""坏她"",""好我"",""坏我""]","[""强她"",""弱她"",""强我"",""弱我""]","","","","","","","","yes","","","","","","","","","SRET","EW_formal","","key","f","16.664390625000124","768","428","朋友","远见","Positive","ability","","","","","","","","","","",""
"1033","","f","psychophysics","79","349926","0.0-7.0-3.0-0.65","5","3","5","3","3","5","3","5","4","4","5","1","0","0","1","0","0","2","1","4","4","4","2","3","4","4","3","4","5","5","7","6","8","7","6","8","5","9","4","5","3","5","6","3","6","6","4","5","1","4","3","5","4","5","3","4","7","5","5","3","3","3","2","3","5","3","6","3","5","3","2","5","3","3","4","2","6","3","3","767700606512271362","Z","496","Female","[""好她"",""坏她"",""好我"",""坏我""]","[""强她"",""弱她"",""强我"",""弱我""]","","","","","","","","yes","","","","","","","","","SRET","EW_formal","","key","f","16.664677685950227","768","428","自己","业余","Negative","ability","","","","","","","","","","",""
"814","","f","psychophysics","80","351742","0.0-7.0-3.0-0.66","5","3","5","3","3","5","3","5","4","4","5","1","0","0","1","0","0","2","1","4","4","4","2","3","4","4","3","4","5","5","7","6","8","7","6","8","5","9","4","5","3","5","6","3","6","6","4","5","1","4","3","5","4","5","3","4","7","5","5","3","3","3","2","3","5","3","6","3","5","3","2","5","3","3","4","2","6","3","3","767700606512271362","Z","496","Female","[""好她"",""坏她"",""好我"",""坏我""]","[""强她"",""弱她"",""强我"",""弱我""]","","","","","","","","yes","","","","","","","","","SRET","EW_formal","","key","f","16.664759259259206","768","428","自己","周到","Positive","ability","","","","","","","","","","",""
"1231","","j","psychophysics","81","353975","0.0-7.0-3.0-0.67","5","3","5","3","3","5","3","5","4","4","5","1","0","0","1","0","0","2","1","4","4","4","2","3","4","4","3","4","5","5","7","6","8","7","6","8","5","9","4","5","3","5","6","3","6","6","4","5","1","4","3","5","4","5","3","4","7","5","5","3","3","3","2","3","5","3","6","3","5","3","2","5","3","3","4","2","6","3","3","767700606512271362","Z","496","Female","[""好她"",""坏她"",""好我"",""坏我""]","[""强她"",""弱她"",""强我"",""弱我""]","","","","","","","","no","","","","","","","","","SRET","EW_formal","","key","j","16.664518796992436","768","428","自己","独断","Negative","ability","","","","","","","","","","",""
"823","","f","psychophysics","82","355799","0.0-7.0-3.0-0.68","5","3","5","3","3","5","3","5","4","4","5","1","0","0","1","0","0","2","1","4","4","4","2","3","4","4","3","4","5","5","7","6","8","7","6","8","5","9","4","5","3","5","6","3","6","6","4","5","1","4","3","5","4","5","3","4","7","5","5","3","3","3","2","3","5","3","6","3","5","3","2","5","3","3","4","2","6","3","3","767700606512271362","Z","496","Female","[""好她"",""坏她"",""好我"",""坏我""]","[""强她"",""弱她"",""强我"",""弱我""]","","","","","","","","yes","","","","","","","","","SRET","EW_formal","","key","f","16.664777777777527","768","428","朋友","文明","Positive","morality","","","","","","","","","","",""
"754","","f","psychophysics","83","357555","0.0-7.0-3.0-0.69","5","3","5","3","3","5","3","5","4","4","5","1","0","0","1","0","0","2","1","4","4","4","2","3","4","4","3","4","5","5","7","6","8","7","6","8","5","9","4","5","3","5","6","3","6","6","4","5","1","4","3","5","4","5","3","4","7","5","5","3","3","3","2","3","5","3","6","3","5","3","2","5","3","3","4","2","6","3","3","767700606512271362","Z","496","Female","[""好她"",""坏她"",""好我"",""坏我""]","[""强她"",""弱她"",""强我"",""弱我""]","","","","","","","","yes","","","","","","","","","SRET","EW_formal","","key","f","16.66477142857177","768","428","自己","专注","Positive","ability","","","","","","","","","","",""
"830","","f","psychophysics","84","359386","0.0-7.0-3.0-0.70","5","3","5","3","3","5","3","5","4","4","5","1","0","0","1","0","0","2","1","4","4","4","2","3","4","4","3","4","5","5","7","6","8","7","6","8","5","9","4","5","3","5","6","3","6","6","4","5","1","4","3","5","4","5","3","4","7","5","5","3","3","3","2","3","5","3","6","3","5","3","2","5","3","3","4","2","6","3","3","767700606512271362","Z","496","Female","[""好她"",""坏她"",""好我"",""坏我""]","[""强她"",""弱她"",""强我"",""弱我""]","","","","","","","","yes","","","","","","","","","SRET","EW_formal","","key","f","16.665266055046096","768","428","自己","短浅","Negative","ability","","","","","","","","","","",""
"936","","f","psychophysics","85","361325","0.0-7.0-3.0-0.71","5","3","5","3","3","5","3","5","4","4","5","1","0","0","1","0","0","2","1","4","4","4","2","3","4","4","3","4","5","5","7","6","8","7","6","8","5","9","4","5","3","5","6","3","6","6","4","5","1","4","3","5","4","5","3","4","7","5","5","3","3","3","2","3","5","3","6","3","5","3","2","5","3","3","4","2","6","3","3","767700606512271362","Z","496","Female","[""好她"",""坏她"",""好我"",""坏我""]","[""强她"",""弱她"",""强我"",""弱我""]","","","","","","","","yes","","","","","","","","","SRET","EW_formal","","key","f","17.110553571428422","768","428","朋友","娴熟","Positive","ability","","","","","","","","","","",""
"822","","f","psychophysics","86","363148","0.0-7.0-3.0-0.72","5","3","5","3","3","5","3","5","4","4","5","1","0","0","1","0","0","2","1","4","4","4","2","3","4","4","3","4","5","5","7","6","8","7","6","8","5","9","4","5","3","5","6","3","6","6","4","5","1","4","3","5","4","5","3","4","7","5","5","3","3","3","2","3","5","3","6","3","5","3","2","5","3","3","4","2","6","3","3","767700606512271362","Z","496","Female","[""好她"",""坏她"",""好我"",""坏我""]","[""强她"",""弱她"",""强我"",""弱我""]","","","","","","","","yes","","","","","","","","","SRET","EW_formal","","key","f","16.66462037037019","768","428","朋友","骁勇","Positive","ability","","","","","","","","","","",""
"777","","f","psychophysics","87","364927","0.0-7.0-3.0-0.73","5","3","5","3","3","5","3","5","4","4","5","1","0","0","1","0","0","2","1","4","4","4","2","3","4","4","3","4","5","5","7","6","8","7","6","8","5","9","4","5","3","5","6","3","6","6","4","5","1","4","3","5","4","5","3","4","7","5","5","3","3","3","2","3","5","3","6","3","5","3","2","5","3","3","4","2","6","3","3","767700606512271362","Z","496","Female","[""好她"",""坏她"",""好我"",""坏我""]","[""强她"",""弱她"",""强我"",""弱我""]","","","","","","","","yes","","","","","","","","","SRET","EW_formal","","key","f","16.66435849056623","768","428","自己","奉献","Positive","morality","","","","","","","","","","",""
"713","","j","psychophysics","88","366641","0.0-7.0-3.0-0.74","5","3","5","3","3","5","3","5","4","4","5","1","0","0","1","0","0","2","1","4","4","4","2","3","4","4","3","4","5","5","7","6","8","7","6","8","5","9","4","5","3","5","6","3","6","6","4","5","1","4","3","5","4","5","3","4","7","5","5","3","3","3","2","3","5","3","6","3","5","3","2","5","3","3","4","2","6","3","3","767700606512271362","Z","496","Female","[""好她"",""坏她"",""好我"",""坏我""]","[""强她"",""弱她"",""强我"",""弱我""]","","","","","","","","no","","","","","","","","","SRET","EW_formal","","key","j","16.664803921568605","768","428","朋友","虚伪","Negative","morality","","","","","","","","","","",""
"1534","","f","psychophysics","89","369176","0.0-7.0-3.0-0.75","5","3","5","3","3","5","3","5","4","4","5","1","0","0","1","0","0","2","1","4","4","4","2","3","4","4","3","4","5","5","7","6","8","7","6","8","5","9","4","5","3","5","6","3","6","6","4","5","1","4","3","5","4","5","3","4","7","5","5","3","3","3","2","3","5","3","6","3","5","3","2","5","3","3","4","2","6","3","3","767700606512271362","Z","496","Female","[""好她"",""坏她"",""好我"",""坏我""]","[""强她"",""弱她"",""强我"",""弱我""]","","","","","","","","yes","","","","","","","","","SRET","EW_formal","","key","f","16.66490728476791","768","428","自己","仁厚","Positive","morality","","","","","","","","","","",""
"785","","f","psychophysics","90","370964","0.0-7.0-3.0-0.76","5","3","5","3","3","5","3","5","4","4","5","1","0","0","1","0","0","2","1","4","4","4","2","3","4","4","3","4","5","5","7","6","8","7","6","8","5","9","4","5","3","5","6","3","6","6","4","5","1","4","3","5","4","5","3","4","7","5","5","3","3","3","2","3","5","3","6","3","5","3","2","5","3","3","4","2","6","3","3","767700606512271362","Z","496","Female","[""好她"",""坏她"",""好我"",""坏我""]","[""强她"",""弱她"",""强我"",""弱我""]","","","","","","","","yes","","","","","","","","","SRET","EW_formal","","key","f","16.66492452830206","768","428","自己","细心","Positive","ability","","","","","","","","","","",""
"984","","j","psychophysics","91","372948","0.0-7.0-3.0-0.77","5","3","5","3","3","5","3","5","4","4","5","1","0","0","1","0","0","2","1","4","4","4","2","3","4","4","3","4","5","5","7","6","8","7","6","8","5","9","4","5","3","5","6","3","6","6","4","5","1","4","3","5","4","5","3","4","7","5","5","3","3","3","2","3","5","3","6","3","5","3","2","5","3","3","4","2","6","3","3","767700606512271362","Z","496","Female","[""好她"",""坏她"",""好我"",""坏我""]","[""强她"",""弱她"",""强我"",""弱我""]","","","","","","","","no","","","","","","","","","SRET","EW_formal","","key","j","16.664764705882504","768","428","朋友","拜金","Negative","morality","","","","","","","","","","",""
"1020","","f","psychophysics","92","374972","0.0-7.0-3.0-0.78","5","3","5","3","3","5","3","5","4","4","5","1","0","0","1","0","0","2","1","4","4","4","2","3","4","4","3","4","5","5","7","6","8","7","6","8","5","9","4","5","3","5","6","3","6","6","4","5","1","4","3","5","4","5","3","4","7","5","5","3","3","3","2","3","5","3","6","3","5","3","2","5","3","3","4","2","6","3","3","767700606512271362","Z","496","Female","[""好她"",""坏她"",""好我"",""坏我""]","[""强她"",""弱她"",""强我"",""弱我""]","","","","","","","","yes","","","","","","","","","SRET","EW_formal","","key","f","16.664049999999893","768","428","朋友","思辨","Positive","ability","","","","","","","","","","",""
"1003","","j","psychophysics","93","376976","0.0-7.0-3.0-0.79","5","3","5","3","3","5","3","5","4","4","5","1","0","0","1","0","0","2","1","4","4","4","2","3","4","4","3","4","5","5","7","6","8","7","6","8","5","9","4","5","3","5","6","3","6","6","4","5","1","4","3","5","4","5","3","4","7","5","5","3","3","3","2","3","5","3","6","3","5","3","2","5","3","3","4","2","6","3","3","767700606512271362","Z","496","Female","[""好她"",""坏她"",""好我"",""坏我""]","[""强她"",""弱她"",""强我"",""弱我""]","","","","","","","","no","","","","","","","","","SRET","EW_formal","","key","j","17.095275862069183","768","428","朋友","庸碌","Negative","ability","","","","","","","","","","",""
"847","","j","psychophysics","94","378825","0.0-7.0-3.0-0.80","5","3","5","3","3","5","3","5","4","4","5","1","0","0","1","0","0","2","1","4","4","4","2","3","4","4","3","4","5","5","7","6","8","7","6","8","5","9","4","5","3","5","6","3","6","6","4","5","1","4","3","5","4","5","3","4","7","5","5","3","3","3","2","3","5","3","6","3","5","3","2","5","3","3","4","2","6","3","3","767700606512271362","Z","496","Female","[""好她"",""坏她"",""好我"",""坏我""]","[""强她"",""弱她"",""强我"",""弱我""]","","","","","","","","no","","","","","","","","","SRET","EW_formal","","key","j","16.665190909091194","768","428","朋友","混账","Negative","morality","","","","","","","","","","",""
"975","","j","psychophysics","95","380802","0.0-7.0-3.0-0.81","5","3","5","3","3","5","3","5","4","4","5","1","0","0","1","0","0","2","1","4","4","4","2","3","4","4","3","4","5","5","7","6","8","7","6","8","5","9","4","5","3","5","6","3","6","6","4","5","1","4","3","5","4","5","3","4","7","5","5","3","3","3","2","3","5","3","6","3","5","3","2","5","3","3","4","2","6","3","3","767700606512271362","Z","496","Female","[""好她"",""坏她"",""好我"",""坏我""]","[""强她"",""弱她"",""强我"",""弱我""]","","","","","","","","no","","","","","","","","","SRET","EW_formal","","key","j","16.664871794872113","768","428","自己","刻薄","Negative","morality","","","","","","","","","","",""
"850","","j","psychophysics","96","382653","0.0-7.0-3.0-0.82","5","3","5","3","3","5","3","5","4","4","5","1","0","0","1","0","0","2","1","4","4","4","2","3","4","4","3","4","5","5","7","6","8","7","6","8","5","9","4","5","3","5","6","3","6","6","4","5","1","4","3","5","4","5","3","4","7","5","5","3","3","3","2","3","5","3","6","3","5","3","2","5","3","3","4","2","6","3","3","767700606512271362","Z","496","Female","[""好她"",""坏她"",""好我"",""坏我""]","[""强她"",""弱她"",""强我"",""弱我""]","","","","","","","","no","","","","","","","","","SRET","EW_formal","","key","j","16.66496396396437","768","428","朋友","黑心","Negative","morality","","","","","","","","","","",""
"867","","f","psychophysics","97","384523","0.0-7.0-3.0-0.83","5","3","5","3","3","5","3","5","4","4","5","1","0","0","1","0","0","2","1","4","4","4","2","3","4","4","3","4","5","5","7","6","8","7","6","8","5","9","4","5","3","5","6","3","6","6","4","5","1","4","3","5","4","5","3","4","7","5","5","3","3","3","2","3","5","3","6","3","5","3","2","5","3","3","4","2","6","3","3","767700606512271362","Z","496","Female","[""好她"",""坏她"",""好我"",""坏我""]","[""强她"",""弱她"",""强我"",""弱我""]","","","","","","","","yes","","","","","","","","","SRET","EW_formal","","key","f","16.664495495495153","768","428","自己","勤恳","Positive","morality","","","","","","","","","","",""
"857","","j","psychophysics","98","386382","0.0-7.0-3.0-0.84","5","3","5","3","3","5","3","5","4","4","5","1","0","0","1","0","0","2","1","4","4","4","2","3","4","4","3","4","5","5","7","6","8","7","6","8","5","9","4","5","3","5","6","3","6","6","4","5","1","4","3","5","4","5","3","4","7","5","5","3","3","3","2","3","5","3","6","3","5","3","2","5","3","3","4","2","6","3","3","767700606512271362","Z","496","Female","[""好她"",""坏她"",""好我"",""坏我""]","[""强她"",""弱她"",""强我"",""弱我""]","","","","","","","","no","","","","","","","","","SRET","EW_formal","","key","j","16.66455855855859","768","428","自己","主见","Positive","ability","","","","","","","","","","",""
"884","","j","psychophysics","99","388268","0.0-7.0-3.0-0.85","5","3","5","3","3","5","3","5","4","4","5","1","0","0","1","0","0","2","1","4","4","4","2","3","4","4","3","4","5","5","7","6","8","7","6","8","5","9","4","5","3","5","6","3","6","6","4","5","1","4","3","5","4","5","3","4","7","5","5","3","3","3","2","3","5","3","6","3","5","3","2","5","3","3","4","2","6","3","3","767700606512271362","Z","496","Female","[""好她"",""坏她"",""好我"",""坏我""]","[""强她"",""弱她"",""强我"",""弱我""]","","","","","","","","no","","","","","","","","","SRET","EW_formal","","key","j","16.66425000000007","768","428","朋友","素养","Positive","morality","","","","","","","","","","",""
"742","","j","psychophysics","100","390014","0.0-7.0-3.0-0.86","5","3","5","3","3","5","3","5","4","4","5","1","0","0","1","0","0","2","1","4","4","4","2","3","4","4","3","4","5","5","7","6","8","7","6","8","5","9","4","5","3","5","6","3","6","6","4","5","1","4","3","5","4","5","3","4","7","5","5","3","3","3","2","3","5","3","6","3","5","3","2","5","3","3","4","2","6","3","3","767700606512271362","Z","496","Female","[""好她"",""坏她"",""好我"",""坏我""]","[""强她"",""弱她"",""强我"",""弱我""]","","","","","","","","no","","","","","","","","","SRET","EW_formal","","key","j","16.664621359223354","768","428","朋友","低俗","Negative","morality","","","","","","","","","","",""
"986","","f","psychophysics","101","392003","0.0-7.0-3.0-0.87","5","3","5","3","3","5","3","5","4","4","5","1","0","0","1","0","0","2","1","4","4","4","2","3","4","4","3","4","5","5","7","6","8","7","6","8","5","9","4","5","3","5","6","3","6","6","4","5","1","4","3","5","4","5","3","4","7","5","5","3","3","3","2","3","5","3","6","3","5","3","2","5","3","3","4","2","6","3","3","767700606512271362","Z","496","Female","[""好她"",""坏她"",""好我"",""坏我""]","[""强她"",""弱她"",""强我"",""弱我""]","","","","","","","","yes","","","","","","","","","SRET","EW_formal","","key","f","16.664621848739223","768","428","自己","缓慢","Negative","ability","","","","","","","","","","",""
"47041","
    <p><div style='color:white;font-size:35px; line-height:20px;'>计算任务</div></p><br>
    <p><div style='color:red;font-size:25px; line-height:20px;'>接下来，您将看到一些四则运算题，<b>请从键盘选择 0-9 进行反应。</b></div></p>
    <p><div style='color:red;font-size:25px; line-height:20px;'>请尽可能快地进行计算，计算的速度和正确率将影响报酬的发放。</div></p>
    <p><div class='footer' style='color:white;font-size:25px; line-height:20px;'>如果对本实验还有不清楚之处，请立即向实验员咨询。</p><p style='color:white;font-size:25px; line-height:20px;'>如果您明白了规则：</p><p style='color:white;font-size:22px; line-height:20px;'>请按 继续 进入练习</p>
    </div>
    ","0","html-button-response","102","439047","0.0-7.0-4.0","5","3","5","3","3","5","3","5","4","4","5","1","0","0","1","0","0","2","1","4","4","4","2","3","4","4","3","4","5","5","7","6","8","7","6","8","5","9","4","5","3","5","6","3","6","6","4","5","1","4","3","5","4","5","3","4","7","5","5","3","3","3","2","3","5","3","6","3","5","3","2","5","3","3","4","2","6","3","3","767700606512271362","Z","496","Female","[""好她"",""坏她"",""好我"",""坏我""]","[""强她"",""弱她"",""强我"",""弱我""]","","","","","","","","","","","","","","","","","SRET_math","math_instructions","Sat Dec 09 2023 22:19:45 GMT+0800 (中国标准时间)","","","","","","","","","","","","","","","","","","","",""
"2176","","6","psychophysics","103","441227","0.0-7.0-5.0-0.0","5","3","5","3","3","5","3","5","4","4","5","1","0","0","1","0","0","2","1","4","4","4","2","3","4","4","3","4","5","5","7","6","8","7","6","8","5","9","4","5","3","5","6","3","6","6","4","5","1","4","3","5","4","5","3","4","7","5","5","3","3","3","2","3","5","3","6","3","5","3","2","5","3","3","4","2","6","3","3","767700606512271362","Z","496","Female","[""好她"",""坏她"",""好我"",""坏我""]","[""强她"",""弱她"",""强我"",""弱我""]","","","","","","","","6","","","","","","","","","SRET","SRET_math_calculate","","key","6","16.66437692307697","768","428","","","","","2+4= ?","6","1","","","","","","","",""
"2240","","2","psychophysics","104","443469","0.0-7.0-5.0-0.1","5","3","5","3","3","5","3","5","4","4","5","1","0","0","1","0","0","2","1","4","4","4","2","3","4","4","3","4","5","5","7","6","8","7","6","8","5","9","4","5","3","5","6","3","6","6","4","5","1","4","3","5","4","5","3","4","7","5","5","3","3","3","2","3","5","3","6","3","5","3","2","5","3","3","4","2","6","3","3","767700606512271362","Z","496","Female","[""好她"",""坏她"",""好我"",""坏我""]","[""强她"",""弱她"",""强我"",""弱我""]","","","","","","","","2","","","","","","","","","SRET","SRET_math_calculate","","key","2","16.664522388059936","768","428","","","","","8-6= ?","2","1","","","","","","","",""
"2043","","8","psychophysics","105","445512","0.0-7.0-5.0-0.2","5","3","5","3","3","5","3","5","4","4","5","1","0","0","1","0","0","2","1","4","4","4","2","3","4","4","3","4","5","5","7","6","8","7","6","8","5","9","4","5","3","5","6","3","6","6","4","5","1","4","3","5","4","5","3","4","7","5","5","3","3","3","2","3","5","3","6","3","5","3","2","5","3","3","4","2","6","3","3","767700606512271362","Z","496","Female","[""好她"",""坏她"",""好我"",""坏我""]","[""强她"",""弱她"",""强我"",""弱我""]","","","","","","","","8","","","","","","","","","SRET","SRET_math_calculate","","key","8","16.664368852458658","768","428","","","","","4+4= ?","8","1","","","","","","","",""
"1922","","5","psychophysics","106","447435","0.0-7.0-5.0-0.3","5","3","5","3","3","5","3","5","4","4","5","1","0","0","1","0","0","2","1","4","4","4","2","3","4","4","3","4","5","5","7","6","8","7","6","8","5","9","4","5","3","5","6","3","6","6","4","5","1","4","3","5","4","5","3","4","7","5","5","3","3","3","2","3","5","3","6","3","5","3","2","5","3","3","4","2","6","3","3","767700606512271362","Z","496","Female","[""好她"",""坏她"",""好我"",""坏我""]","[""强她"",""弱她"",""强我"",""弱我""]","","","","","","","","5","","","","","","","","","SRET","SRET_math_calculate","","key","5","16.66416666666689","768","428","","","","","4+1= ?","5","1","","","","","","","",""
"2512","","1","psychophysics","107","449948","0.0-7.0-5.0-0.4","5","3","5","3","3","5","3","5","4","4","5","1","0","0","1","0","0","2","1","4","4","4","2","3","4","4","3","4","5","5","7","6","8","7","6","8","5","9","4","5","3","5","6","3","6","6","4","5","1","4","3","5","4","5","3","4","7","5","5","3","3","3","2","3","5","3","6","3","5","3","2","5","3","3","4","2","6","3","3","767700606512271362","Z","496","Female","[""好她"",""坏她"",""好我"",""坏我""]","[""强她"",""弱她"",""强我"",""弱我""]","","","","","","","","1","","","","","","","","","SRET","SRET_math_calculate","","key","1","16.776369127516805","768","428","","","","","32-23= ?","9","0","","","","","","","",""
"170","","1","psychophysics","108","450119","0.0-7.0-5.0-0.5","5","3","5","3","3","5","3","5","4","4","5","1","0","0","1","0","0","2","1","4","4","4","2","3","4","4","3","4","5","5","7","6","8","7","6","8","5","9","4","5","3","5","6","3","6","6","4","5","1","4","3","5","4","5","3","4","7","5","5","3","3","3","2","3","5","3","6","3","5","3","2","5","3","3","4","2","6","3","3","767700606512271362","Z","496","Female","[""好她"",""坏她"",""好我"",""坏我""]","[""强她"",""弱她"",""强我"",""弱我""]","","","","","","","","1","","","","","","","","","SRET","SRET_math_calculate","","key","1","16.664888888894993","768","428","","","","","2*4= ?","8","0","","","","","","","",""
"3851","","1","psychophysics","109","453971","0.0-7.0-5.0-0.6","5","3","5","3","3","5","3","5","4","4","5","1","0","0","1","0","0","2","1","4","4","4","2","3","4","4","3","4","5","5","7","6","8","7","6","8","5","9","4","5","3","5","6","3","6","6","4","5","1","4","3","5","4","5","3","4","7","5","5","3","3","3","2","3","5","3","6","3","5","3","2","5","3","3","4","2","6","3","3","767700606512271362","Z","496","Female","[""好她"",""坏她"",""好我"",""坏我""]","[""强她"",""弱她"",""强我"",""弱我""]","","","","","","","","1","","","","","","","","","SRET","SRET_math_calculate","","key","1","16.664808695651995","768","428","","","","","43-34= ?","9","0","","","","","","","",""
"2139","","7","psychophysics","110","456115","0.0-7.0-5.0-0.7","5","3","5","3","3","5","3","5","4","4","5","1","0","0","1","0","0","2","1","4","4","4","2","3","4","4","3","4","5","5","7","6","8","7","6","8","5","9","4","5","3","5","6","3","6","6","4","5","1","4","3","5","4","5","3","4","7","5","5","3","3","3","2","3","5","3","6","3","5","3","2","5","3","3","4","2","6","3","3","767700606512271362","Z","496","Female","[""好她"",""坏她"",""好我"",""坏我""]","[""强她"",""弱她"",""强我"",""弱我""]","","","","","","","","7","","","","","","","","","SRET","SRET_math_calculate","","key","7","16.663984374999927","768","428","","","","","1+6= ?","7","1","","","","","","","",""
"2516","","8","psychophysics","111","458632","0.0-7.0-5.0-0.8","5","3","5","3","3","5","3","5","4","4","5","1","0","0","1","0","0","2","1","4","4","4","2","3","4","4","3","4","5","5","7","6","8","7","6","8","5","9","4","5","3","5","6","3","6","6","4","5","1","4","3","5","4","5","3","4","7","5","5","3","3","3","2","3","5","3","6","3","5","3","2","5","3","3","4","2","6","3","3","767700606512271362","Z","496","Female","[""好她"",""坏她"",""好我"",""坏我""]","[""强她"",""弱她"",""强我"",""弱我""]","","","","","","","","8","","","","","","","","","SRET","SRET_math_calculate","","key","8","16.664573333333248","768","428","","","","","50-42= ?","8","1","","","","","","","",""
"2889","","1","psychophysics","112","461522","0.0-7.0-5.0-0.9","5","3","5","3","3","5","3","5","4","4","5","1","0","0","1","0","0","2","1","4","4","4","2","3","4","4","3","4","5","5","7","6","8","7","6","8","5","9","4","5","3","5","6","3","6","6","4","5","1","4","3","5","4","5","3","4","7","5","5","3","3","3","2","3","5","3","6","3","5","3","2","5","3","3","4","2","6","3","3","767700606512271362","Z","496","Female","[""好她"",""坏她"",""好我"",""坏我""]","[""强她"",""弱她"",""强我"",""弱我""]","","","","","","","","1","","","","","","","","","SRET","SRET_math_calculate","","key","1","16.66452601156063","768","428","","","","","12/12= ?","1","1","","","","","","","",""
"2559","","9","psychophysics","113","464085","0.0-7.0-5.0-0.10","5","3","5","3","3","5","3","5","4","4","5","1","0","0","1","0","0","2","1","4","4","4","2","3","4","4","3","4","5","5","7","6","8","7","6","8","5","9","4","5","3","5","6","3","6","6","4","5","1","4","3","5","4","5","3","4","7","5","5","3","3","3","2","3","5","3","6","3","5","3","2","5","3","3","4","2","6","3","3","767700606512271362","Z","496","Female","[""好她"",""坏她"",""好我"",""坏我""]","[""强她"",""弱她"",""强我"",""弱我""]","","","","","","","","9","","","","","","","","","SRET","SRET_math_calculate","","key","9","16.664421052631376","768","428","","","","","81/9= ?","9","1","","","","","","","",""
"3129","","8","psychophysics","114","467216","0.0-7.0-5.0-0.11","5","3","5","3","3","5","3","5","4","4","5","1","0","0","1","0","0","2","1","4","4","4","2","3","4","4","3","4","5","5","7","6","8","7","6","8","5","9","4","5","3","5","6","3","6","6","4","5","1","4","3","5","4","5","3","4","7","5","5","3","3","3","2","3","5","3","6","3","5","3","2","5","3","3","4","2","6","3","3","767700606512271362","Z","496","Female","[""好她"",""坏她"",""好我"",""坏我""]","[""强她"",""弱她"",""强我"",""弱我""]","","","","","","","","8","","","","","","","","","SRET","SRET_math_calculate","","key","8","16.664518716577614","768","428","","","","","56/7= ?","8","1","","","","","","","",""
"6716","","6","psychophysics","115","473934","0.0-7.0-5.0-0.12","5","3","5","3","3","5","3","5","4","4","5","1","0","0","1","0","0","2","1","4","4","4","2","3","4","4","3","4","5","5","7","6","8","7","6","8","5","9","4","5","3","5","6","3","6","6","4","5","1","4","3","5","4","5","3","4","7","5","5","3","3","3","2","3","5","3","6","3","5","3","2","5","3","3","4","2","6","3","3","767700606512271362","Z","496","Female","[""好她"",""坏她"",""好我"",""坏我""]","[""强她"",""弱她"",""强我"",""弱我""]","","","","","","","","6","","","","","","","","","SRET","SRET_math_calculate","","key","6","16.664544776119396","768","428","","","","","4+2= ?","6","1","","","","","","","",""
"2997","","7","psychophysics","116","476932","0.0-7.0-5.0-0.13","5","3","5","3","3","5","3","5","4","4","5","1","0","0","1","0","0","2","1","4","4","4","2","3","4","4","3","4","5","5","7","6","8","7","6","8","5","9","4","5","3","5","6","3","6","6","4","5","1","4","3","5","4","5","3","4","7","5","5","3","3","3","2","3","5","3","6","3","5","3","2","5","3","3","4","2","6","3","3","767700606512271362","Z","496","Female","[""好她"",""坏她"",""好我"",""坏我""]","[""强她"",""弱她"",""强我"",""弱我""]","","","","","","","","7","","","","","","","","","SRET","SRET_math_calculate","","key","7","16.664530726256988","768","428","","","","","7*1=  ?","7","1","","","","","","","",""
"2058","","9","psychophysics","117","478991","0.0-7.0-5.0-0.14","5","3","5","3","3","5","3","5","4","4","5","1","0","0","1","0","0","2","1","4","4","4","2","3","4","4","3","4","5","5","7","6","8","7","6","8","5","9","4","5","3","5","6","3","6","6","4","5","1","4","3","5","4","5","3","4","7","5","5","3","3","3","2","3","5","3","6","3","5","3","2","5","3","3","4","2","6","3","3","767700606512271362","Z","496","Female","[""好她"",""坏她"",""好我"",""坏我""]","[""强她"",""弱她"",""强我"",""弱我""]","","","","","","","","9","","","","","","","","","SRET","SRET_math_calculate","","key","9","16.664170731707546","768","428","","","","","1+8= ?","9","1","","","","","","","",""
"2839","","1","psychophysics","118","481831","0.0-7.0-5.0-0.15","5","3","5","3","3","5","3","5","4","4","5","1","0","0","1","0","0","2","1","4","4","4","2","3","4","4","3","4","5","5","7","6","8","7","6","8","5","9","4","5","3","5","6","3","6","6","4","5","1","4","3","5","4","5","3","4","7","5","5","3","3","3","2","3","5","3","6","3","5","3","2","5","3","3","4","2","6","3","3","767700606512271362","Z","496","Female","[""好她"",""坏她"",""好我"",""坏我""]","[""强她"",""弱她"",""强我"",""弱我""]","","","","","","","","1","","","","","","","","","SRET","SRET_math_calculate","","key","1","16.66464497041427","768","428","","","","","4/4= ?","1","1","","","","","","","",""
"232","","6","psychophysics","119","482065","0.0-7.0-5.0-0.16","5","3","5","3","3","5","3","5","4","4","5","1","0","0","1","0","0","2","1","4","4","4","2","3","4","4","3","4","5","5","7","6","8","7","6","8","5","9","4","5","3","5","6","3","6","6","4","5","1","4","3","5","4","5","3","4","7","5","5","3","3","3","2","3","5","3","6","3","5","3","2","5","3","3","4","2","6","3","3","767700606512271362","Z","496","Female","[""好她"",""坏她"",""好我"",""坏我""]","[""强她"",""弱她"",""强我"",""弱我""]","","","","","","","","6","","","","","","","","","SRET","SRET_math_calculate","","key","6","16.66776923076787","768","428","","","","","10-9= ?","1","0","","","","","","","",""
"5228","","5","psychophysics","120","487295","0.0-7.0-5.0-0.17","5","3","5","3","3","5","3","5","4","4","5","1","0","0","1","0","0","2","1","4","4","4","2","3","4","4","3","4","5","5","7","6","8","7","6","8","5","9","4","5","3","5","6","3","6","6","4","5","1","4","3","5","4","5","3","4","7","5","5","3","3","3","2","3","5","3","6","3","5","3","2","5","3","3","4","2","6","3","3","767700606512271362","Z","496","Female","[""好她"",""坏她"",""好我"",""坏我""]","[""强她"",""弱她"",""强我"",""弱我""]","","","","","","","","5","","","","","","","","","SRET","SRET_math_calculate","","key","5","16.664753993610315","768","428","","","","","5/1= ?","5","1","","","","","","","",""
"2231","","5","psychophysics","121","489528","0.0-7.0-5.0-0.18","5","3","5","3","3","5","3","5","4","4","5","1","0","0","1","0","0","2","1","4","4","4","2","3","4","4","3","4","5","5","7","6","8","7","6","8","5","9","4","5","3","5","6","3","6","6","4","5","1","4","3","5","4","5","3","4","7","5","5","3","3","3","2","3","5","3","6","3","5","3","2","5","3","3","4","2","6","3","3","767700606512271362","Z","496","Female","[""好她"",""坏她"",""好我"",""坏我""]","[""强她"",""弱她"",""强我"",""弱我""]","","","","","","","","5","","","","","","","","","SRET","SRET_math_calculate","","key","5","16.66469172932316","768","428","","","","","8-3= ? ","5","1","","","","","","","",""
"2884","","7","psychophysics","122","492413","0.0-7.0-5.0-0.19","5","3","5","3","3","5","3","5","4","4","5","1","0","0","1","0","0","2","1","4","4","4","2","3","4","4","3","4","5","5","7","6","8","7","6","8","5","9","4","5","3","5","6","3","6","6","4","5","1","4","3","5","4","5","3","4","7","5","5","3","3","3","2","3","5","3","6","3","5","3","2","5","3","3","4","2","6","3","3","767700606512271362","Z","496","Female","[""好她"",""坏她"",""好我"",""坏我""]","[""强她"",""弱她"",""强我"",""弱我""]","","","","","","","","7","","","","","","","","","SRET","SRET_math_calculate","","key","7","16.664866279069873","768","428","","","","","13-6= ?","7","1","","","","","","","",""
"2332","","2","psychophysics","123","494746","0.0-7.0-5.0-0.20","5","3","5","3","3","5","3","5","4","4","5","1","0","0","1","0","0","2","1","4","4","4","2","3","4","4","3","4","5","5","7","6","8","7","6","8","5","9","4","5","3","5","6","3","6","6","4","5","1","4","3","5","4","5","3","4","7","5","5","3","3","3","2","3","5","3","6","3","5","3","2","5","3","3","4","2","6","3","3","767700606512271362","Z","496","Female","[""好她"",""坏她"",""好我"",""坏我""]","[""强她"",""弱她"",""强我"",""弱我""]","","","","","","","","2","","","","","","","","","SRET","SRET_math_calculate","","key","2","16.664417266186994","768","428","","","","","18/9= ?","2","1","","","","","","","",""
"2780","","0","psychophysics","124","497528","0.0-7.0-5.0-0.21","5","3","5","3","3","5","3","5","4","4","5","1","0","0","1","0","0","2","1","4","4","4","2","3","4","4","3","4","5","5","7","6","8","7","6","8","5","9","4","5","3","5","6","3","6","6","4","5","1","4","3","5","4","5","3","4","7","5","5","3","3","3","2","3","5","3","6","3","5","3","2","5","3","3","4","2","6","3","3","767700606512271362","Z","496","Female","[""好她"",""坏她"",""好我"",""坏我""]","[""强她"",""弱她"",""强我"",""弱我""]","","","","","","","","0","","","","","","","","","SRET","SRET_math_calculate","","key","0","16.664319277108444","768","428","","","","","12-12= ?","0","1","","","","","","","",""
"2031","","7","psychophysics","125","499560","0.0-7.0-5.0-0.22","5","3","5","3","3","5","3","5","4","4","5","1","0","0","1","0","0","2","1","4","4","4","2","3","4","4","3","4","5","5","7","6","8","7","6","8","5","9","4","5","3","5","6","3","6","6","4","5","1","4","3","5","4","5","3","4","7","5","5","3","3","3","2","3","5","3","6","3","5","3","2","5","3","3","4","2","6","3","3","767700606512271362","Z","496","Female","[""好她"",""坏她"",""好我"",""坏我""]","[""强她"",""弱她"",""强我"",""弱我""]","","","","","","","","7","","","","","","","","","SRET","SRET_math_calculate","","key","7","16.665231404958817","768","428","","","","","8-1= ?","7","1","","","","","","","",""
"2262","","0","psychophysics","126","501822","0.0-7.0-5.0-0.23","5","3","5","3","3","5","3","5","4","4","5","1","0","0","1","0","0","2","1","4","4","4","2","3","4","4","3","4","5","5","7","6","8","7","6","8","5","9","4","5","3","5","6","3","6","6","4","5","1","4","3","5","4","5","3","4","7","5","5","3","3","3","2","3","5","3","6","3","5","3","2","5","3","3","4","2","6","3","3","767700606512271362","Z","496","Female","[""好她"",""坏她"",""好我"",""坏我""]","[""强她"",""弱她"",""强我"",""弱我""]","","","","","","","","0","","","","","","","","","SRET","SRET_math_calculate","","key","0","16.664111111110888","768","428","","","","","22-22= ?","0","1","","","","","","","",""
"1954","","8","psychophysics","127","503777","0.0-7.0-5.0-0.24","5","3","5","3","3","5","3","5","4","4","5","1","0","0","1","0","0","2","1","4","4","4","2","3","4","4","3","4","5","5","7","6","8","7","6","8","5","9","4","5","3","5","6","3","6","6","4","5","1","4","3","5","4","5","3","4","7","5","5","3","3","3","2","3","5","3","6","3","5","3","2","5","3","3","4","2","6","3","3","767700606512271362","Z","496","Female","[""好她"",""坏她"",""好我"",""坏我""]","[""强她"",""弱她"",""强我"",""弱我""]","","","","","","","","8","","","","","","","","","SRET","SRET_math_calculate","","key","8","16.664913793103487","768","428","","","","","7+1= ?","8","1","","","","","","","",""
"2286","","7","psychophysics","128","506064","0.0-7.0-5.0-0.25","5","3","5","3","3","5","3","5","4","4","5","1","0","0","1","0","0","2","1","4","4","4","2","3","4","4","3","4","5","5","7","6","8","7","6","8","5","9","4","5","3","5","6","3","6","6","4","5","1","4","3","5","4","5","3","4","7","5","5","3","3","3","2","3","5","3","6","3","5","3","2","5","3","3","4","2","6","3","3","767700606512271362","Z","496","Female","[""好她"",""坏她"",""好我"",""坏我""]","[""强她"",""弱她"",""强我"",""弱我""]","","","","","","","","7","","","","","","","","","SRET","SRET_math_calculate","","key","7","16.664580882352737","768","428","","","","","49/7 = ?","7","1","","","","","","","",""
"2023","","4","psychophysics","129","508088","0.0-7.0-5.0-0.26","5","3","5","3","3","5","3","5","4","4","5","1","0","0","1","0","0","2","1","4","4","4","2","3","4","4","3","4","5","5","7","6","8","7","6","8","5","9","4","5","3","5","6","3","6","6","4","5","1","4","3","5","4","5","3","4","7","5","5","3","3","3","2","3","5","3","6","3","5","3","2","5","3","3","4","2","6","3","3","767700606512271362","Z","496","Female","[""好她"",""坏她"",""好我"",""坏我""]","[""强她"",""弱她"",""强我"",""弱我""]","","","","","","","","4","","","","","","","","","SRET","SRET_math_calculate","","key","4","16.664206611570297","768","428","","","","","11-5= ?","6","0","","","","","","","",""
"2838","","8","psychophysics","130","510927","0.0-7.0-5.0-0.27","5","3","5","3","3","5","3","5","4","4","5","1","0","0","1","0","0","2","1","4","4","4","2","3","4","4","3","4","5","5","7","6","8","7","6","8","5","9","4","5","3","5","6","3","6","6","4","5","1","4","3","5","4","5","3","4","7","5","5","3","3","3","2","3","5","3","6","3","5","3","2","5","3","3","4","2","6","3","3","767700606512271362","Z","496","Female","[""好她"",""坏她"",""好我"",""坏我""]","[""强她"",""弱她"",""强我"",""弱我""]","","","","","","","","8","","","","","","","","","SRET","SRET_math_calculate","","key","8","16.664254437869943","768","428","","","","","13-5= ?","8","1","","","","","","","",""
"2195","","3","psychophysics","131","513124","0.0-7.0-5.0-0.28","5","3","5","3","3","5","3","5","4","4","5","1","0","0","1","0","0","2","1","4","4","4","2","3","4","4","3","4","5","5","7","6","8","7","6","8","5","9","4","5","3","5","6","3","6","6","4","5","1","4","3","5","4","5","3","4","7","5","5","3","3","3","2","3","5","3","6","3","5","3","2","5","3","3","4","2","6","3","3","767700606512271362","Z","496","Female","[""好她"",""坏她"",""好我"",""坏我""]","[""强她"",""弱她"",""强我"",""弱我""]","","","","","","","","3","","","","","","","","","SRET","SRET_math_calculate","","key","3","16.664618320610703","768","428","","","","","6/2= ?","3","1","","","","","","","",""
"1862","","5","psychophysics","132","514987","0.0-7.0-5.0-0.29","5","3","5","3","3","5","3","5","4","4","5","1","0","0","1","0","0","2","1","4","4","4","2","3","4","4","3","4","5","5","7","6","8","7","6","8","5","9","4","5","3","5","6","3","6","6","4","5","1","4","3","5","4","5","3","4","7","5","5","3","3","3","2","3","5","3","6","3","5","3","2","5","3","3","4","2","6","3","3","767700606512271362","Z","496","Female","[""好她"",""坏她"",""好我"",""坏我""]","[""强她"",""弱她"",""强我"",""弱我""]","","","","","","","","5","","","","","","","","","SRET","SRET_math_calculate","","key","5","16.664900900900935","768","428","","","","","10-5= ?","5","1","","","","","","","",""
"1905","","8","psychophysics","133","516893","0.0-7.0-5.0-0.30","5","3","5","3","3","5","3","5","4","4","5","1","0","0","1","0","0","2","1","4","4","4","2","3","4","4","3","4","5","5","7","6","8","7","6","8","5","9","4","5","3","5","6","3","6","6","4","5","1","4","3","5","4","5","3","4","7","5","5","3","3","3","2","3","5","3","6","3","5","3","2","5","3","3","4","2","6","3","3","767700606512271362","Z","496","Female","[""好她"",""坏她"",""好我"",""坏我""]","[""强她"",""弱她"",""强我"",""弱我""]","","","","","","","","8","","","","","","","","","SRET","SRET_math_calculate","","key","8","16.664584070796444","768","428","","","","","1+7= ?","8","1","","","","","","","",""
"2335","","9","psychophysics","134","519229","0.0-7.0-5.0-0.31","5","3","5","3","3","5","3","5","4","4","5","1","0","0","1","0","0","2","1","4","4","4","2","3","4","4","3","4","5","5","7","6","8","7","6","8","5","9","4","5","3","5","6","3","6","6","4","5","1","4","3","5","4","5","3","4","7","5","5","3","3","3","2","3","5","3","6","3","5","3","2","5","3","3","4","2","6","3","3","767700606512271362","Z","496","Female","[""好她"",""坏她"",""好我"",""坏我""]","[""强她"",""弱她"",""强我"",""弱我""]","","","","","","","","9","","","","","","","","","SRET","SRET_math_calculate","","key","9","16.66491366906482","768","428","","","","","18/2= ?","9","1","","","","","","","",""
"1875","","9","psychophysics","135","521110","0.0-7.0-5.0-0.32","5","3","5","3","3","5","3","5","4","4","5","1","0","0","1","0","0","2","1","4","4","4","2","3","4","4","3","4","5","5","7","6","8","7","6","8","5","9","4","5","3","5","6","3","6","6","4","5","1","4","3","5","4","5","3","4","7","5","5","3","3","3","2","3","5","3","6","3","5","3","2","5","3","3","4","2","6","3","3","767700606512271362","Z","496","Female","[""好她"",""坏她"",""好我"",""坏我""]","[""强她"",""弱她"",""强我"",""弱我""]","","","","","","","","9","","","","","","","","","SRET","SRET_math_calculate","","key","9","16.664410714285623","768","428","","","","","1*9= ?","9","1","","","","","","","",""
"2556","","7","psychophysics","136","523668","0.0-7.0-5.0-0.33","5","3","5","3","3","5","3","5","4","4","5","1","0","0","1","0","0","2","1","4","4","4","2","3","4","4","3","4","5","5","7","6","8","7","6","8","5","9","4","5","3","5","6","3","6","6","4","5","1","4","3","5","4","5","3","4","7","5","5","3","3","3","2","3","5","3","6","3","5","3","2","5","3","3","4","2","6","3","3","767700606512271362","Z","496","Female","[""好她"",""坏她"",""好我"",""坏我""]","[""强她"",""弱她"",""强我"",""弱我""]","","","","","","","","7","","","","","","","","","SRET","SRET_math_calculate","","key","7","16.664908496732213","768","428","","","","","11-4= ?","7","1","","","","","","","",""
"1938","","7","psychophysics","137","525607","0.0-7.0-5.0-0.34","5","3","5","3","3","5","3","5","4","4","5","1","0","0","1","0","0","2","1","4","4","4","2","3","4","4","3","4","5","5","7","6","8","7","6","8","5","9","4","5","3","5","6","3","6","6","4","5","1","4","3","5","4","5","3","4","7","5","5","3","3","3","2","3","5","3","6","3","5","3","2","5","3","3","4","2","6","3","3","767700606512271362","Z","496","Female","[""好她"",""坏她"",""好我"",""坏我""]","[""强她"",""弱她"",""强我"",""弱我""]","","","","","","","","7","","","","","","","","","SRET","SRET_math_calculate","","key","7","16.664834782608743","768","428","","","","","3+4= ?","7","1","","","","","","","",""
"2106","","5","psychophysics","138","527714","0.0-7.0-5.0-0.35","5","3","5","3","3","5","3","5","4","4","5","1","0","0","1","0","0","2","1","4","4","4","2","3","4","4","3","4","5","5","7","6","8","7","6","8","5","9","4","5","3","5","6","3","6","6","4","5","1","4","3","5","4","5","3","4","7","5","5","3","3","3","2","3","5","3","6","3","5","3","2","5","3","3","4","2","6","3","3","767700606512271362","Z","496","Female","[""好她"",""坏她"",""好我"",""坏我""]","[""强她"",""弱她"",""强我"",""弱我""]","","","","","","","","5","","","","","","","","","SRET","SRET_math_calculate","","key","5","16.664992000000552","768","428","","","","","9-4= ?","5","1","","","","","","","",""
"2649","","0","psychophysics","139","530369","0.0-7.0-5.0-0.36","5","3","5","3","3","5","3","5","4","4","5","1","0","0","1","0","0","2","1","4","4","4","2","3","4","4","3","4","5","5","7","6","8","7","6","8","5","9","4","5","3","5","6","3","6","6","4","5","1","4","3","5","4","5","3","4","7","5","5","3","3","3","2","3","5","3","6","3","5","3","2","5","3","3","4","2","6","3","3","767700606512271362","Z","496","Female","[""好她"",""坏她"",""好我"",""坏我""]","[""强她"",""弱她"",""强我"",""弱我""]","","","","","","","","0","","","","","","","","","SRET","SRET_math_calculate","","key","0","16.664761006288852","768","428","","","","","1-1= ?","0","1","","","","","","","",""
"1965","","7","psychophysics","140","532336","0.0-7.0-5.0-0.37","5","3","5","3","3","5","3","5","4","4","5","1","0","0","1","0","0","2","1","4","4","4","2","3","4","4","3","4","5","5","7","6","8","7","6","8","5","9","4","5","3","5","6","3","6","6","4","5","1","4","3","5","4","5","3","4","7","5","5","3","3","3","2","3","5","3","6","3","5","3","2","5","3","3","4","2","6","3","3","767700606512271362","Z","496","Female","[""好她"",""坏她"",""好我"",""坏我""]","[""强她"",""弱她"",""强我"",""弱我""]","","","","","","","","7","","","","","","","","","SRET","SRET_math_calculate","","key","7","16.664752136751748","768","428","","","","","5+2= ?","7","1","","","","","","","",""
"2331","","0","psychophysics","141","534667","0.0-7.0-5.0-0.38","5","3","5","3","3","5","3","5","4","4","5","1","0","0","1","0","0","2","1","4","4","4","2","3","4","4","3","4","5","5","7","6","8","7","6","8","5","9","4","5","3","5","6","3","6","6","4","5","1","4","3","5","4","5","3","4","7","5","5","3","3","3","2","3","5","3","6","3","5","3","2","5","3","3","4","2","6","3","3","767700606512271362","Z","496","Female","[""好她"",""坏她"",""好我"",""坏我""]","[""强她"",""弱她"",""强我"",""弱我""]","","","","","","","","0","","","","","","","","","SRET","SRET_math_calculate","","key","0","16.664640287769014","768","428","","","","","9-9= ?","0","1","","","","","","","",""
"2229","","9","psychophysics","142","536927","0.0-7.0-5.0-0.39","5","3","5","3","3","5","3","5","4","4","5","1","0","0","1","0","0","2","1","4","4","4","2","3","4","4","3","4","5","5","7","6","8","7","6","8","5","9","4","5","3","5","6","3","6","6","4","5","1","4","3","5","4","5","3","4","7","5","5","3","3","3","2","3","5","3","6","3","5","3","2","5","3","3","4","2","6","3","3","767700606512271362","Z","496","Female","[""好她"",""坏她"",""好我"",""坏我""]","[""强她"",""弱她"",""强我"",""弱我""]","","","","","","","","9","","","","","","","","","SRET","SRET_math_calculate","","key","9","16.66413432835869","768","428","","","","","3+6= ?","9","1","","","","","","","",""
