"rt","stimulus","response","trial_type","trial_index","time_elapsed","internal_node_id","swb_1","swb_2","swb_3","swb_4","swb_5","LOT_1","LOT_2","LOT_3","LOT_4","LOT_5","LOT_6","IPC_1","IPC_2","IPC_3","IPC_4","IPC_5","IPC_6","IPC_7","IPC_8","MorIden_1","MorIden_2","MorIden_3","MorIden_4","MorIden_5","MorIden_6","MorIden_7","MorIden_8","MorIden_9","MorIden_10","moralSeImag_1","moralSeImag_2","moralSeImag_3","moralSeImag_4","moralSeImag_5","moralSeImag_6","moralSeImag_7","moralSeImag_8","moralSeImag_9","sde_1","sde_2","sde_3","sde_4","sde_5","sde_6","sde_7","sde_8","sde_9","sde_10","trap2","sde_11","sde_12","sde_13","sde_14","sde_15","sde_16","sde_17","sde_18","sde_19","sde_20","IM_1","IM_2","IM_3","IM_4","IM_5","IM_6","IM_7","IM_8","IM_9","IM_10","IM_11","IM_12","IM_13","IM_14","IM_15","IM_16","IM_17","IM_18","IM_19","IM_20","subj_idx","friend_name","ParticipantID","Sex","Word","Word2","value","success","timeout","failed_images","failed_audio","failed_video","user_agent","responses","item_order","radio_event_ids","radio_event_times","key_event_times","mouse_event_times","straightlining","zigzagging","honeypot","view_history","response_type","key_press","avg_frame_time","center_x","center_y","correct_response","correct","identity","Image","word","condition","task_id","screen_id","time_stamp","person","valence","domain","math","status","duration","question_order","trap2_item"
"6759","
   <p><div style='color:white; font-size: 25px'>您好，欢迎参加本次实验。</div></p>
   <p><div style='color:white; font-size: 25px'>为充分保障您的权利，请确保您已经知晓并同意《参与实验同意书》以及《数据公开知情同意书》。</div></p>
   <p><div style='color:white; font-size: 25px'>如果您未见过上述内容，请咨询实验员。</div></p>
   <p style='color:white; font-size: 25px'>如果您选择继续实验，则表示您已经清楚两份知情同意书的内容并同意。</p>
   <p><div style = ""color: pink;font-size:30px;"">请确保您记得day0的实验编号，您将在本次实验输入该编号，若您忘记，请咨询实验员后作答。</div></p>
   <p><div style = ""color:lightblue;font-size:25px;"">请您尽可能认真地作答，我们将依据您在各问卷和按键任务中的作答质量发放报酬。</div></p>
   <p> <div style = ""color: green""><按空格键至下页></div> </p>
   "," ","html-keyboard-response","0","6762","0.0-0.0","6","5","7","6","5","4","1","4","4","4","4","-3","-3","0","1","2","0","2","1","4","3","5","5","4","1","3","2","2","3","2","3","4","4","2","1","5","6","5","3","6","5","5","2","3","3","2","2","7","2","4","3","6","3","6","5","5","6","6","4","3","6","5","4","3","5","6","2","7","6","3","2","6","3","7","2","3","2","4","6","634029991171981312","胡","425","Male","[""好他"",""坏他"",""坏我"",""好我""]","[""强他"",""弱他"",""弱我"",""强我""]","","","","","","","","","","","","","","","","","","","","","","","","","","","","","","","","","","","","","","",""
"","","","call-function","1","6763","0.0-1.0-0.0","6","5","7","6","5","4","1","4","4","4","4","-3","-3","0","1","2","0","2","1","4","3","5","5","4","1","3","2","2","3","2","3","4","4","2","1","5","6","5","3","6","5","5","2","3","3","2","2","7","2","4","3","6","3","6","5","5","6","6","4","3","6","5","4","3","5","6","2","7","6","3","2","6","3","7","2","3","2","4","6","634029991171981312","胡","425","Male","[""好他"",""坏他"",""坏我"",""好我""]","[""强他"",""弱他"",""弱我"",""强我""]","","","","","","","","","","","","","","","","","","","","","","","","","","","","","","","","","","","","","","",""
"16958","","[{""name"":""Sex"",""value"":""0""},{""name"":""friend_name"",""value"":""胡""},{""name"":""ParticipantID"",""value"":""425""}]","survey-html-form","2","23722","0.0-1.0-1.0","6","5","7","6","5","4","1","4","4","4","4","-3","-3","0","1","2","0","2","1","4","3","5","5","4","1","3","2","2","3","2","3","4","4","2","1","5","6","5","3","6","5","5","2","3","3","2","2","7","2","4","3","6","3","6","5","5","6","6","4","3","6","5","4","3","5","6","2","7","6","3","2","6","3","7","2","3","2","4","6","634029991171981312","胡","425","Male","[""好他"",""坏他"",""坏我"",""好我""]","[""强他"",""弱他"",""弱我"",""强我""]","","","","","","","","","","","","","","","","","","","","","","","","","","","","","","","","","","","","","","",""
"","","","preload","3","24504","0.0-2.0","6","5","7","6","5","4","1","4","4","4","4","-3","-3","0","1","2","0","2","1","4","3","5","5","4","1","3","2","2","3","2","3","4","4","2","1","5","6","5","3","6","5","5","2","3","3","2","2","7","2","4","3","6","3","6","5","5","6","6","4","3","6","5","4","3","5","6","2","7","6","3","2","6","3","7","2","3","2","4","6","634029991171981312","胡","425","Male","[""好他"",""坏他"",""坏我"",""好我""]","[""强他"",""弱他"",""弱我"",""强我""]","","true","false","[]","[]","[]","","","","","","","","","","","","","","","","","","","","","","","","","","","","","","","","",""
"","","","fullscreen","4","32026","0.0-3.0","6","5","7","6","5","4","1","4","4","4","4","-3","-3","0","1","2","0","2","1","4","3","5","5","4","1","3","2","2","3","2","3","4","4","2","1","5","6","5","3","6","5","5","2","3","3","2","2","7","2","4","3","6","3","6","5","5","6","6","4","3","6","5","4","3","5","6","2","7","6","3","2","6","3","7","2","3","2","4","6","634029991171981312","胡","425","Male","[""好他"",""坏他"",""坏我"",""好我""]","[""强他"",""弱他"",""弱我"",""强我""]","","true","","","","","{}","","","","","","","","","","","","","","","","","","","","","","","","","","","","","","","",""
"42895.199999999255","","{""Q01"":""6"",""Q02"":""5"",""Q03"":""7"",""Q04"":""6"",""Q05"":""5""}","survey-template","5","74923","0.0-4.0","6","5","7","6","5","4","1","4","4","4","4","-3","-3","0","1","2","0","2","1","4","3","5","5","4","1","3","2","2","3","2","3","4","4","2","1","5","6","5","3","6","5","5","2","3","3","2","2","7","2","4","3","6","3","6","5","5","6","6","4","3","6","5","4","3","5","6","2","7","6","3","2","6","3","7","2","3","2","4","6","634029991171981312","胡","425","Male","[""好他"",""坏他"",""坏我"",""好我""]","[""强他"",""弱他"",""弱我"",""强我""]","","","","","","","","{""Q01"":""6"",""Q02"":""5"",""Q03"":""7"",""Q04"":""6"",""Q05"":""5""}","[0,1,2,3,4]","[""Q01"",""Q02"",""Q03"",""Q04"",""Q05""]","[3238,5120.0999999996275,5908.0999999996275,6870.300000000745,8256.199999999255]","[]","[3238,4810,5120.0999999996275,5908.0999999996275,6870.300000000745,8256.199999999255,42893.800000000745]","0.4","0.75","0","","","","","","","","","","","","","","","","","","","","","","",""
"28892.900000000373","","{""Q01"":""4"",""Q02"":""1"",""Q03"":""4"",""Q04"":""4"",""Q05"":""4"",""Q06"":""4""}","survey-template","6","103821","0.0-5.0","6","5","7","6","5","4","1","4","4","4","4","-3","-3","0","1","2","0","2","1","4","3","5","5","4","1","3","2","2","3","2","3","4","4","2","1","5","6","5","3","6","5","5","2","3","3","2","2","7","2","4","3","6","3","6","5","5","6","6","4","3","6","5","4","3","5","6","2","7","6","3","2","6","3","7","2","3","2","4","6","634029991171981312","胡","425","Male","[""好他"",""坏他"",""坏我"",""好我""]","[""强他"",""弱他"",""弱我"",""强我""]","","","","","","","","{""Q01"":""4"",""Q02"":""1"",""Q03"":""4"",""Q04"":""4"",""Q05"":""4"",""Q06"":""4""}","[0,1,2,3,4,5]","[""Q01"",""Q02"",""Q03"",""Q04"",""Q05"",""Q06""]","[6403.9000000003725,11597.900000000373,13697.400000000373,20154,24349.900000000373,28015.700000001118]","[]","[6403.9000000003725,11597.900000000373,13697.400000000373,17131.800000000745,20154,23521.800000000745,24349.900000000373,28015.700000001118,28892.10000000149]","0.5","0.4","0","","","","","","","","","","","","","","","","","","","","","","",""
"39162.89999999851","","{""Q01"":""-3"",""Q02"":""-3"",""Q03"":""0"",""Q04"":""1"",""Q05"":""2"",""Q06"":""0"",""Q07"":""2"",""Q08"":""1""}","survey-template","7","142987","0.0-6.0","6","5","7","6","5","4","1","4","4","4","4","-3","-3","0","1","2","0","2","1","4","3","5","5","4","1","3","2","2","3","2","3","4","4","2","1","5","6","5","3","6","5","5","2","3","3","2","2","7","2","4","3","6","3","6","5","5","6","6","4","3","6","5","4","3","5","6","2","7","6","3","2","6","3","7","2","3","2","4","6","634029991171981312","胡","425","Male","[""好他"",""坏他"",""坏我"",""好我""]","[""强他"",""弱他"",""弱我"",""强我""]","","","","","","","","{""Q01"":""-3"",""Q02"":""-3"",""Q03"":""0"",""Q04"":""1"",""Q05"":""2"",""Q06"":""0"",""Q07"":""2"",""Q08"":""1""}","[0,1,2,3,4,5,6,7]","[""Q01"",""Q01"",""Q01"",""Q02"",""Q03"",""Q04"",""Q05"",""Q06"",""Q07"",""Q08"",""Q07"",""Q08"",""Q01""]","[3153.2999999988824,5359.299999998882,9888.199999999255,11933.299999998882,13587.39999999851,18287.5,19817.199999999255,22492.699999999255,25395.299999998882,27489.39999999851,28876.799999998882,29744.89999999851,31567.299999998882]","[]","[3153.2999999988824,5359.299999998882,9888.199999999255,11933.299999998882,13587.39999999851,18287.5,19817.199999999255,22492.699999999255,24009,25395.299999998882,27489.39999999851,28491.299999998882,28876.799999998882,29744.89999999851,31567.299999998882,39161.59999999963]","0.25","0.42857142857142855","0","","","","","","","","","","","","","","","","","","","","","","",""
"43220","","","instructions","8","186211","0.0-7.0","6","5","7","6","5","4","1","4","4","4","4","-3","-3","0","1","2","0","2","1","4","3","5","5","4","1","3","2","2","3","2","3","4","4","2","1","5","6","5","3","6","5","5","2","3","3","2","2","7","2","4","3","6","3","6","5","5","6","6","4","3","6","5","4","3","5","6","2","7","6","3","2","6","3","7","2","3","2","4","6","634029991171981312","胡","425","Male","[""好他"",""坏他"",""坏我"",""好我""]","[""强他"",""弱他"",""弱我"",""强我""]","","","","","","","","","","","","","","","","","[{""page_index"":0,""viewing_time"":43220}]","","","","","","","","","","","","","","","","","","","","","",""
"12123","","","instructions","9","198335","0.0-8.0-1.0-0.0","6","5","7","6","5","4","1","4","4","4","4","-3","-3","0","1","2","0","2","1","4","3","5","5","4","1","3","2","2","3","2","3","4","4","2","1","5","6","5","3","6","5","5","2","3","3","2","2","7","2","4","3","6","3","6","5","5","6","6","4","3","6","5","4","3","5","6","2","7","6","3","2","6","3","7","2","3","2","4","6","634029991171981312","胡","425","Male","[""好他"",""坏他"",""坏我"",""好我""]","[""强他"",""弱他"",""弱我"",""强我""]","","","","","","","","","","","","","","","","","[{""page_index"":0,""viewing_time"":1451},{""page_index"":1,""viewing_time"":8504},{""page_index"":2,""viewing_time"":1102},{""page_index"":3,""viewing_time"":1066}]","","","","","","","","","","","","","","","","","","","","","",""
"1084","","j","psychophysics","10","200424","0.0-8.0-1.0-1.0-0.0-0.0","6","5","7","6","5","4","1","4","4","4","4","-3","-3","0","1","2","0","2","1","4","3","5","5","4","1","3","2","2","3","2","3","4","4","2","1","5","6","5","3","6","5","5","2","3","3","2","2","7","2","4","3","6","3","6","5","5","6","6","4","3","6","5","4","3","5","6","2","7","6","3","2","6","3","7","2","3","2","4","6","634029991171981312","胡","425","Male","[""好他"",""坏他"",""坏我"",""好我""]","[""强他"",""弱他"",""弱我"",""强我""]","","","","","","","","match","","","","","","","","","","key","j","16.654161290322655","799.9999682108573","445.8333156175091","j","true","match","img/diamond.png","强我","强我","prac_ALT2_ability","practice_ability","","","","","","","","",""
"null","<span style='color:GreenYellow; font-size: 70px;'>正确! </span>","null","html-keyboard-response","11","200926","0.0-8.0-1.0-1.0-0.0-1.0","6","5","7","6","5","4","1","4","4","4","4","-3","-3","0","1","2","0","2","1","4","3","5","5","4","1","3","2","2","3","2","3","4","4","2","1","5","6","5","3","6","5","5","2","3","3","2","2","7","2","4","3","6","3","6","5","5","6","6","4","3","6","5","4","3","5","6","2","7","6","3","2","6","3","7","2","3","2","4","6","634029991171981312","胡","425","Male","[""好他"",""坏他"",""坏我"",""好我""]","[""强他"",""弱他"",""弱我"",""强我""]","","","","","","","","","","","","","","","","","","","","","","","","","","","","","","feedback_test","","","","","","","","",""
"1155","","j","psychophysics","12","203083","0.0-8.0-1.0-1.0-0.0-0.1","6","5","7","6","5","4","1","4","4","4","4","-3","-3","0","1","2","0","2","1","4","3","5","5","4","1","3","2","2","3","2","3","4","4","2","1","5","6","5","3","6","5","5","2","3","3","2","2","7","2","4","3","6","3","6","5","5","6","6","4","3","6","5","4","3","5","6","2","7","6","3","2","6","3","7","2","3","2","4","6","634029991171981312","胡","425","Male","[""好他"",""坏他"",""坏我"",""好我""]","[""强他"",""弱他"",""弱我"",""强我""]","","","","","","","","match","","","","","","","","","","key","j","16.654139534883875","799.9999682108573","445.8333156175091","j","true","match","img/diamond.png","强我","强我","prac_ALT2_ability","practice_ability","","","","","","","","",""
"null","<span style='color:GreenYellow; font-size: 70px;'>正确! </span>","null","html-keyboard-response","13","203584","0.0-8.0-1.0-1.0-0.0-1.1","6","5","7","6","5","4","1","4","4","4","4","-3","-3","0","1","2","0","2","1","4","3","5","5","4","1","3","2","2","3","2","3","4","4","2","1","5","6","5","3","6","5","5","2","3","3","2","2","7","2","4","3","6","3","6","5","5","6","6","4","3","6","5","4","3","5","6","2","7","6","3","2","6","3","7","2","3","2","4","6","634029991171981312","胡","425","Male","[""好他"",""坏他"",""坏我"",""好我""]","[""强他"",""弱他"",""弱我"",""强我""]","","","","","","","","","","","","","","","","","","","","","","","","","","","","","","feedback_test","","","","","","","","",""
"1107","","j","psychophysics","14","205694","0.0-8.0-1.0-1.0-0.0-0.2","6","5","7","6","5","4","1","4","4","4","4","-3","-3","0","1","2","0","2","1","4","3","5","5","4","1","3","2","2","3","2","3","4","4","2","1","5","6","5","3","6","5","5","2","3","3","2","2","7","2","4","3","6","3","6","5","5","6","6","4","3","6","5","4","3","5","6","2","7","6","3","2","6","3","7","2","3","2","4","6","634029991171981312","胡","425","Male","[""好他"",""坏他"",""坏我"",""好我""]","[""强他"",""弱他"",""弱我"",""强我""]","","","","","","","","match","","","","","","","","","","key","j","16.65320634920638","799.9999682108573","445.8333156175091","j","true","match","img/diamond.png","强我","强我","prac_ALT2_ability","practice_ability","","","","","","","","",""
"null","<span style='color:GreenYellow; font-size: 70px;'>正确! </span>","null","html-keyboard-response","15","206196","0.0-8.0-1.0-1.0-0.0-1.2","6","5","7","6","5","4","1","4","4","4","4","-3","-3","0","1","2","0","2","1","4","3","5","5","4","1","3","2","2","3","2","3","4","4","2","1","5","6","5","3","6","5","5","2","3","3","2","2","7","2","4","3","6","3","6","5","5","6","6","4","3","6","5","4","3","5","6","2","7","6","3","2","6","3","7","2","3","2","4","6","634029991171981312","胡","425","Male","[""好他"",""坏他"",""坏我"",""好我""]","[""强他"",""弱他"",""弱我"",""强我""]","","","","","","","","","","","","","","","","","","","","","","","","","","","","","","feedback_test","","","","","","","","",""
"1098","","j","psychophysics","16","208296","0.0-8.0-1.0-1.0-0.0-0.3","6","5","7","6","5","4","1","4","4","4","4","-3","-3","0","1","2","0","2","1","4","3","5","5","4","1","3","2","2","3","2","3","4","4","2","1","5","6","5","3","6","5","5","2","3","3","2","2","7","2","4","3","6","3","6","5","5","6","6","4","3","6","5","4","3","5","6","2","7","6","3","2","6","3","7","2","3","2","4","6","634029991171981312","胡","425","Male","[""好他"",""坏他"",""坏我"",""好我""]","[""强他"",""弱他"",""弱我"",""强我""]","","","","","","","","match","","","","","","","","","","key","j","16.653639999999896","799.9999682108573","445.8333156175091","j","true","match","img/pentagon.png","强他","强他","prac_ALT2_ability","practice_ability","","","","","","","","",""
"null","<span style='color:GreenYellow; font-size: 70px;'>正确! </span>","null","html-keyboard-response","17","208797","0.0-8.0-1.0-1.0-0.0-1.3","6","5","7","6","5","4","1","4","4","4","4","-3","-3","0","1","2","0","2","1","4","3","5","5","4","1","3","2","2","3","2","3","4","4","2","1","5","6","5","3","6","5","5","2","3","3","2","2","7","2","4","3","6","3","6","5","5","6","6","4","3","6","5","4","3","5","6","2","7","6","3","2","6","3","7","2","3","2","4","6","634029991171981312","胡","425","Male","[""好他"",""坏他"",""坏我"",""好我""]","[""强他"",""弱他"",""弱我"",""强我""]","","","","","","","","","","","","","","","","","","","","","","","","","","","","","","feedback_test","","","","","","","","",""
"875","","j","psychophysics","18","210674","0.0-8.0-1.0-1.0-0.0-0.4","6","5","7","6","5","4","1","4","4","4","4","-3","-3","0","1","2","0","2","1","4","3","5","5","4","1","3","2","2","3","2","3","4","4","2","1","5","6","5","3","6","5","5","2","3","3","2","2","7","2","4","3","6","3","6","5","5","6","6","4","3","6","5","4","3","5","6","2","7","6","3","2","6","3","7","2","3","2","4","6","634029991171981312","胡","425","Male","[""好他"",""坏他"",""坏我"",""好我""]","[""强他"",""弱他"",""弱我"",""强我""]","","","","","","","","match","","","","","","","","","","key","j","16.65322321428565","799.9999682108573","445.8333156175091","f","false","nonmatch","img/ellipse.png","强他","弱他","prac_ALT2_ability","practice_ability","","","","","","","","",""
"null","<span style='color:red; font-size: 70px;'>错误! </span>","null","html-keyboard-response","19","211176","0.0-8.0-1.0-1.0-0.0-1.4","6","5","7","6","5","4","1","4","4","4","4","-3","-3","0","1","2","0","2","1","4","3","5","5","4","1","3","2","2","3","2","3","4","4","2","1","5","6","5","3","6","5","5","2","3","3","2","2","7","2","4","3","6","3","6","5","5","6","6","4","3","6","5","4","3","5","6","2","7","6","3","2","6","3","7","2","3","2","4","6","634029991171981312","胡","425","Male","[""好他"",""坏他"",""坏我"",""好我""]","[""强他"",""弱他"",""弱我"",""强我""]","","","","","","","","","","","","","","","","","","","","","","","","","","","","","","feedback_test","","","","","","","","",""
"1132","","f","psychophysics","20","213309","0.0-8.0-1.0-1.0-0.0-0.5","6","5","7","6","5","4","1","4","4","4","4","-3","-3","0","1","2","0","2","1","4","3","5","5","4","1","3","2","2","3","2","3","4","4","2","1","5","6","5","3","6","5","5","2","3","3","2","2","7","2","4","3","6","3","6","5","5","6","6","4","3","6","5","4","3","5","6","2","7","6","3","2","6","3","7","2","3","2","4","6","634029991171981312","胡","425","Male","[""好他"",""坏他"",""坏我"",""好我""]","[""强他"",""弱他"",""弱我"",""强我""]","","","","","","","","nonmatch","","","","","","","","","","key","f","16.653370078740178","799.9999682108573","445.8333156175091","f","true","nonmatch","img/diamond.png","弱我","强我","prac_ALT2_ability","practice_ability","","","","","","","","",""
"null","<span style='color:GreenYellow; font-size: 70px;'>正确! </span>","null","html-keyboard-response","21","213810","0.0-8.0-1.0-1.0-0.0-1.5","6","5","7","6","5","4","1","4","4","4","4","-3","-3","0","1","2","0","2","1","4","3","5","5","4","1","3","2","2","3","2","3","4","4","2","1","5","6","5","3","6","5","5","2","3","3","2","2","7","2","4","3","6","3","6","5","5","6","6","4","3","6","5","4","3","5","6","2","7","6","3","2","6","3","7","2","3","2","4","6","634029991171981312","胡","425","Male","[""好他"",""坏他"",""坏我"",""好我""]","[""强他"",""弱他"",""弱我"",""强我""]","","","","","","","","","","","","","","","","","","","","","","","","","","","","","","feedback_test","","","","","","","","",""
"null","","null","psychophysics","22","216012","0.0-8.0-1.0-1.0-0.0-0.6","6","5","7","6","5","4","1","4","4","4","4","-3","-3","0","1","2","0","2","1","4","3","5","5","4","1","3","2","2","3","2","3","4","4","2","1","5","6","5","3","6","5","5","2","3","3","2","2","7","2","4","3","6","3","6","5","5","6","6","4","3","6","5","4","3","5","6","2","7","6","3","2","6","3","7","2","3","2","4","6","634029991171981312","胡","425","Male","[""好他"",""坏他"",""坏我"",""好我""]","[""强他"",""弱他"",""弱我"",""强我""]","","","","","","","","null","","","","","","","","","","key","null","16.65403816793896","799.9999682108573","445.8333156175091","f","false","nonmatch","img/ellipse.png","强我","弱他","prac_ALT2_ability","practice_ability","","","","","","","","",""
"null","<span class='add_' style='color:yellow; font-size: 70px;'> 太慢! </span>","null","html-keyboard-response","23","216514","0.0-8.0-1.0-1.0-0.0-1.6","6","5","7","6","5","4","1","4","4","4","4","-3","-3","0","1","2","0","2","1","4","3","5","5","4","1","3","2","2","3","2","3","4","4","2","1","5","6","5","3","6","5","5","2","3","3","2","2","7","2","4","3","6","3","6","5","5","6","6","4","3","6","5","4","3","5","6","2","7","6","3","2","6","3","7","2","3","2","4","6","634029991171981312","胡","425","Male","[""好他"",""坏他"",""坏我"",""好我""]","[""强他"",""弱他"",""弱我"",""强我""]","","","","","","","","","","","","","","","","","","","","","","","","","","","","","","feedback_test","","","","","","","","",""
"null","","null","psychophysics","24","218717","0.0-8.0-1.0-1.0-0.0-0.7","6","5","7","6","5","4","1","4","4","4","4","-3","-3","0","1","2","0","2","1","4","3","5","5","4","1","3","2","2","3","2","3","4","4","2","1","5","6","5","3","6","5","5","2","3","3","2","2","7","2","4","3","6","3","6","5","5","6","6","4","3","6","5","4","3","5","6","2","7","6","3","2","6","3","7","2","3","2","4","6","634029991171981312","胡","425","Male","[""好他"",""坏他"",""坏我"",""好我""]","[""强他"",""弱他"",""弱我"",""强我""]","","","","","","","","null","","","","","","","","","","key","null","16.65396212121215","799.9999682108573","445.8333156175091","f","false","nonmatch","img/triangle.png","强我","弱我","prac_ALT2_ability","practice_ability","","","","","","","","",""
"null","<span class='add_' style='color:yellow; font-size: 70px;'> 太慢! </span>","null","html-keyboard-response","25","219220","0.0-8.0-1.0-1.0-0.0-1.7","6","5","7","6","5","4","1","4","4","4","4","-3","-3","0","1","2","0","2","1","4","3","5","5","4","1","3","2","2","3","2","3","4","4","2","1","5","6","5","3","6","5","5","2","3","3","2","2","7","2","4","3","6","3","6","5","5","6","6","4","3","6","5","4","3","5","6","2","7","6","3","2","6","3","7","2","3","2","4","6","634029991171981312","胡","425","Male","[""好他"",""坏他"",""坏我"",""好我""]","[""强他"",""弱他"",""弱我"",""强我""]","","","","","","","","","","","","","","","","","","","","","","","","","","","","","","feedback_test","","","","","","","","",""
"null","","null","psychophysics","26","221422","0.0-8.0-1.0-1.0-0.0-0.8","6","5","7","6","5","4","1","4","4","4","4","-3","-3","0","1","2","0","2","1","4","3","5","5","4","1","3","2","2","3","2","3","4","4","2","1","5","6","5","3","6","5","5","2","3","3","2","2","7","2","4","3","6","3","6","5","5","6","6","4","3","6","5","4","3","5","6","2","7","6","3","2","6","3","7","2","3","2","4","6","634029991171981312","胡","425","Male","[""好他"",""坏他"",""坏我"",""好我""]","[""强他"",""弱他"",""弱我"",""强我""]","","","","","","","","null","","","","","","","","","","key","null","16.65403816793896","799.9999682108573","445.8333156175091","j","false","match","img/triangle.png","弱我","弱我","prac_ALT2_ability","practice_ability","","","","","","","","",""
"null","<span class='add_' style='color:yellow; font-size: 70px;'> 太慢! </span>","null","html-keyboard-response","27","221924","0.0-8.0-1.0-1.0-0.0-1.8","6","5","7","6","5","4","1","4","4","4","4","-3","-3","0","1","2","0","2","1","4","3","5","5","4","1","3","2","2","3","2","3","4","4","2","1","5","6","5","3","6","5","5","2","3","3","2","2","7","2","4","3","6","3","6","5","5","6","6","4","3","6","5","4","3","5","6","2","7","6","3","2","6","3","7","2","3","2","4","6","634029991171981312","胡","425","Male","[""好他"",""坏他"",""坏我"",""好我""]","[""强他"",""弱他"",""弱我"",""强我""]","","","","","","","","","","","","","","","","","","","","","","","","","","","","","","feedback_test","","","","","","","","",""
"467","","j","psychophysics","28","223393","0.0-8.0-1.0-1.0-0.0-0.9","6","5","7","6","5","4","1","4","4","4","4","-3","-3","0","1","2","0","2","1","4","3","5","5","4","1","3","2","2","3","2","3","4","4","2","1","5","6","5","3","6","5","5","2","3","3","2","2","7","2","4","3","6","3","6","5","5","6","6","4","3","6","5","4","3","5","6","2","7","6","3","2","6","3","7","2","3","2","4","6","634029991171981312","胡","425","Male","[""好他"",""坏他"",""坏我"",""好我""]","[""强他"",""弱他"",""弱我"",""强我""]","","","","","","","","match","","","","","","","","","","key","j","16.653459770114885","799.9999682108573","445.8333156175091","j","true","match","img/ellipse.png","弱他","弱他","prac_ALT2_ability","practice_ability","","","","","","","","",""
"null","<span style='color:GreenYellow; font-size: 70px;'>正确! </span>","null","html-keyboard-response","29","223895","0.0-8.0-1.0-1.0-0.0-1.9","6","5","7","6","5","4","1","4","4","4","4","-3","-3","0","1","2","0","2","1","4","3","5","5","4","1","3","2","2","3","2","3","4","4","2","1","5","6","5","3","6","5","5","2","3","3","2","2","7","2","4","3","6","3","6","5","5","6","6","4","3","6","5","4","3","5","6","2","7","6","3","2","6","3","7","2","3","2","4","6","634029991171981312","胡","425","Male","[""好他"",""坏他"",""坏我"",""好我""]","[""强他"",""弱他"",""弱我"",""强我""]","","","","","","","","","","","","","","","","","","","","","","","","","","","","","","feedback_test","","","","","","","","",""
"910","","j","psychophysics","30","225807","0.0-8.0-1.0-1.0-0.0-0.10","6","5","7","6","5","4","1","4","4","4","4","-3","-3","0","1","2","0","2","1","4","3","5","5","4","1","3","2","2","3","2","3","4","4","2","1","5","6","5","3","6","5","5","2","3","3","2","2","7","2","4","3","6","3","6","5","5","6","6","4","3","6","5","4","3","5","6","2","7","6","3","2","6","3","7","2","3","2","4","6","634029991171981312","胡","425","Male","[""好他"",""坏他"",""坏我"",""好我""]","[""强他"",""弱他"",""弱我"",""强我""]","","","","","","","","match","","","","","","","","","","key","j","16.653008849557594","799.9999682108573","445.8333156175091","f","false","nonmatch","img/diamond.png","强他","强我","prac_ALT2_ability","practice_ability","","","","","","","","",""
"null","<span style='color:red; font-size: 70px;'>错误! </span>","null","html-keyboard-response","31","226308","0.0-8.0-1.0-1.0-0.0-1.10","6","5","7","6","5","4","1","4","4","4","4","-3","-3","0","1","2","0","2","1","4","3","5","5","4","1","3","2","2","3","2","3","4","4","2","1","5","6","5","3","6","5","5","2","3","3","2","2","7","2","4","3","6","3","6","5","5","6","6","4","3","6","5","4","3","5","6","2","7","6","3","2","6","3","7","2","3","2","4","6","634029991171981312","胡","425","Male","[""好他"",""坏他"",""坏我"",""好我""]","[""强他"",""弱他"",""弱我"",""强我""]","","","","","","","","","","","","","","","","","","","","","","","","","","","","","","feedback_test","","","","","","","","",""
"null","","null","psychophysics","32","228510","0.0-8.0-1.0-1.0-0.0-0.11","6","5","7","6","5","4","1","4","4","4","4","-3","-3","0","1","2","0","2","1","4","3","5","5","4","1","3","2","2","3","2","3","4","4","2","1","5","6","5","3","6","5","5","2","3","3","2","2","7","2","4","3","6","3","6","5","5","6","6","4","3","6","5","4","3","5","6","2","7","6","3","2","6","3","7","2","3","2","4","6","634029991171981312","胡","425","Male","[""好他"",""坏他"",""坏我"",""好我""]","[""强他"",""弱他"",""弱我"",""强我""]","","","","","","","","null","","","","","","","","","","key","null","16.65291603053418","799.9999682108573","445.8333156175091","f","false","nonmatch","img/triangle.png","强他","弱我","prac_ALT2_ability","practice_ability","","","","","","","","",""
"null","<span class='add_' style='color:yellow; font-size: 70px;'> 太慢! </span>","null","html-keyboard-response","33","229012","0.0-8.0-1.0-1.0-0.0-1.11","6","5","7","6","5","4","1","4","4","4","4","-3","-3","0","1","2","0","2","1","4","3","5","5","4","1","3","2","2","3","2","3","4","4","2","1","5","6","5","3","6","5","5","2","3","3","2","2","7","2","4","3","6","3","6","5","5","6","6","4","3","6","5","4","3","5","6","2","7","6","3","2","6","3","7","2","3","2","4","6","634029991171981312","胡","425","Male","[""好他"",""坏他"",""坏我"",""好我""]","[""强他"",""弱他"",""弱我"",""强我""]","","","","","","","","","","","","","","","","","","","","","","","","","","","","","","feedback_test","","","","","","","","",""
"745","","j","psychophysics","34","230759","0.0-8.0-1.0-1.0-0.0-0.12","6","5","7","6","5","4","1","4","4","4","4","-3","-3","0","1","2","0","2","1","4","3","5","5","4","1","3","2","2","3","2","3","4","4","2","1","5","6","5","3","6","5","5","2","3","3","2","2","7","2","4","3","6","3","6","5","5","6","6","4","3","6","5","4","3","5","6","2","7","6","3","2","6","3","7","2","3","2","4","6","634029991171981312","胡","425","Male","[""好他"",""坏他"",""坏我"",""好我""]","[""强他"",""弱他"",""弱我"",""强我""]","","","","","","","","match","","","","","","","","","","key","j","16.653365384615217","799.9999682108573","445.8333156175091","j","true","match","img/triangle.png","弱我","弱我","prac_ALT2_ability","practice_ability","","","","","","","","",""
"null","<span style='color:GreenYellow; font-size: 70px;'>正确! </span>","null","html-keyboard-response","35","231260","0.0-8.0-1.0-1.0-0.0-1.12","6","5","7","6","5","4","1","4","4","4","4","-3","-3","0","1","2","0","2","1","4","3","5","5","4","1","3","2","2","3","2","3","4","4","2","1","5","6","5","3","6","5","5","2","3","3","2","2","7","2","4","3","6","3","6","5","5","6","6","4","3","6","5","4","3","5","6","2","7","6","3","2","6","3","7","2","3","2","4","6","634029991171981312","胡","425","Male","[""好他"",""坏他"",""坏我"",""好我""]","[""强他"",""弱他"",""弱我"",""强我""]","","","","","","","","","","","","","","","","","","","","","","","","","","","","","","feedback_test","","","","","","","","",""
"396","","j","psychophysics","36","232657","0.0-8.0-1.0-1.0-0.0-0.13","6","5","7","6","5","4","1","4","4","4","4","-3","-3","0","1","2","0","2","1","4","3","5","5","4","1","3","2","2","3","2","3","4","4","2","1","5","6","5","3","6","5","5","2","3","3","2","2","7","2","4","3","6","3","6","5","5","6","6","4","3","6","5","4","3","5","6","2","7","6","3","2","6","3","7","2","3","2","4","6","634029991171981312","胡","425","Male","[""好他"",""坏他"",""坏我"",""好我""]","[""强他"",""弱他"",""弱我"",""强我""]","","","","","","","","match","","","","","","","","","","key","j","16.653975903614445","799.9999682108573","445.8333156175091","j","true","match","img/pentagon.png","强他","强他","prac_ALT2_ability","practice_ability","","","","","","","","",""
"null","<span style='color:GreenYellow; font-size: 70px;'>正确! </span>","null","html-keyboard-response","37","233172","0.0-8.0-1.0-1.0-0.0-1.13","6","5","7","6","5","4","1","4","4","4","4","-3","-3","0","1","2","0","2","1","4","3","5","5","4","1","3","2","2","3","2","3","4","4","2","1","5","6","5","3","6","5","5","2","3","3","2","2","7","2","4","3","6","3","6","5","5","6","6","4","3","6","5","4","3","5","6","2","7","6","3","2","6","3","7","2","3","2","4","6","634029991171981312","胡","425","Male","[""好他"",""坏他"",""坏我"",""好我""]","[""强他"",""弱他"",""弱我"",""强我""]","","","","","","","","","","","","","","","","","","","","","","","","","","","","","","feedback_test","","","","","","","","",""
"623","","j","psychophysics","38","234796","0.0-8.0-1.0-1.0-0.0-0.14","6","5","7","6","5","4","1","4","4","4","4","-3","-3","0","1","2","0","2","1","4","3","5","5","4","1","3","2","2","3","2","3","4","4","2","1","5","6","5","3","6","5","5","2","3","3","2","2","7","2","4","3","6","3","6","5","5","6","6","4","3","6","5","4","3","5","6","2","7","6","3","2","6","3","7","2","3","2","4","6","634029991171981312","胡","425","Male","[""好他"",""坏他"",""坏我"",""好我""]","[""强他"",""弱他"",""弱我"",""强我""]","","","","","","","","match","","","","","","","","","","key","j","16.65287500000007","799.9999682108573","445.8333156175091","f","false","nonmatch","img/ellipse.png","弱我","弱他","prac_ALT2_ability","practice_ability","","","","","","","","",""
"null","<span style='color:red; font-size: 70px;'>错误! </span>","null","html-keyboard-response","39","235298","0.0-8.0-1.0-1.0-0.0-1.14","6","5","7","6","5","4","1","4","4","4","4","-3","-3","0","1","2","0","2","1","4","3","5","5","4","1","3","2","2","3","2","3","4","4","2","1","5","6","5","3","6","5","5","2","3","3","2","2","7","2","4","3","6","3","6","5","5","6","6","4","3","6","5","4","3","5","6","2","7","6","3","2","6","3","7","2","3","2","4","6","634029991171981312","胡","425","Male","[""好他"",""坏他"",""坏我"",""好我""]","[""强他"",""弱他"",""弱我"",""强我""]","","","","","","","","","","","","","","","","","","","","","","","","","","","","","","feedback_test","","","","","","","","",""
"686","","j","psychophysics","40","236987","0.0-8.0-1.0-1.0-0.0-0.15","6","5","7","6","5","4","1","4","4","4","4","-3","-3","0","1","2","0","2","1","4","3","5","5","4","1","3","2","2","3","2","3","4","4","2","1","5","6","5","3","6","5","5","2","3","3","2","2","7","2","4","3","6","3","6","5","5","6","6","4","3","6","5","4","3","5","6","2","7","6","3","2","6","3","7","2","3","2","4","6","634029991171981312","胡","425","Male","[""好他"",""坏他"",""坏我"",""好我""]","[""强他"",""弱他"",""弱我"",""强我""]","","","","","","","","match","","","","","","","","","","key","j","16.654247524752453","799.9999682108573","445.8333156175091","j","true","match","img/ellipse.png","弱他","弱他","prac_ALT2_ability","practice_ability","","","","","","","","",""
"null","<span style='color:GreenYellow; font-size: 70px;'>正确! </span>","null","html-keyboard-response","41","237488","0.0-8.0-1.0-1.0-0.0-1.15","6","5","7","6","5","4","1","4","4","4","4","-3","-3","0","1","2","0","2","1","4","3","5","5","4","1","3","2","2","3","2","3","4","4","2","1","5","6","5","3","6","5","5","2","3","3","2","2","7","2","4","3","6","3","6","5","5","6","6","4","3","6","5","4","3","5","6","2","7","6","3","2","6","3","7","2","3","2","4","6","634029991171981312","胡","425","Male","[""好他"",""坏他"",""坏我"",""好我""]","[""强他"",""弱他"",""弱我"",""强我""]","","","","","","","","","","","","","","","","","","","","","","","","","","","","","","feedback_test","","","","","","","","",""
"699","","j","psychophysics","42","239189","0.0-8.0-1.0-1.0-0.0-0.16","6","5","7","6","5","4","1","4","4","4","4","-3","-3","0","1","2","0","2","1","4","3","5","5","4","1","3","2","2","3","2","3","4","4","2","1","5","6","5","3","6","5","5","2","3","3","2","2","7","2","4","3","6","3","6","5","5","6","6","4","3","6","5","4","3","5","6","2","7","6","3","2","6","3","7","2","3","2","4","6","634029991171981312","胡","425","Male","[""好他"",""坏他"",""坏我"",""好我""]","[""强他"",""弱他"",""弱我"",""强我""]","","","","","","","","match","","","","","","","","","","key","j","16.653861386138693","799.9999682108573","445.8333156175091","f","false","nonmatch","img/pentagon.png","强我","强他","prac_ALT2_ability","practice_ability","","","","","","","","",""
"null","<span style='color:red; font-size: 70px;'>错误! </span>","null","html-keyboard-response","43","239690","0.0-8.0-1.0-1.0-0.0-1.16","6","5","7","6","5","4","1","4","4","4","4","-3","-3","0","1","2","0","2","1","4","3","5","5","4","1","3","2","2","3","2","3","4","4","2","1","5","6","5","3","6","5","5","2","3","3","2","2","7","2","4","3","6","3","6","5","5","6","6","4","3","6","5","4","3","5","6","2","7","6","3","2","6","3","7","2","3","2","4","6","634029991171981312","胡","425","Male","[""好他"",""坏他"",""坏我"",""好我""]","[""强他"",""弱他"",""弱我"",""强我""]","","","","","","","","","","","","","","","","","","","","","","","","","","","","","","feedback_test","","","","","","","","",""
"625","","j","psychophysics","44","241316","0.0-8.0-1.0-1.0-0.0-0.17","6","5","7","6","5","4","1","4","4","4","4","-3","-3","0","1","2","0","2","1","4","3","5","5","4","1","3","2","2","3","2","3","4","4","2","1","5","6","5","3","6","5","5","2","3","3","2","2","7","2","4","3","6","3","6","5","5","6","6","4","3","6","5","4","3","5","6","2","7","6","3","2","6","3","7","2","3","2","4","6","634029991171981312","胡","425","Male","[""好他"",""坏他"",""坏我"",""好我""]","[""强他"",""弱他"",""弱我"",""强我""]","","","","","","","","match","","","","","","","","","","key","j","16.651391752577297","799.9999682108573","445.8333156175091","f","false","nonmatch","img/triangle.png","弱他","弱我","prac_ALT2_ability","practice_ability","","","","","","","","",""
"null","<span style='color:red; font-size: 70px;'>错误! </span>","null","html-keyboard-response","45","241818","0.0-8.0-1.0-1.0-0.0-1.17","6","5","7","6","5","4","1","4","4","4","4","-3","-3","0","1","2","0","2","1","4","3","5","5","4","1","3","2","2","3","2","3","4","4","2","1","5","6","5","3","6","5","5","2","3","3","2","2","7","2","4","3","6","3","6","5","5","6","6","4","3","6","5","4","3","5","6","2","7","6","3","2","6","3","7","2","3","2","4","6","634029991171981312","胡","425","Male","[""好他"",""坏他"",""坏我"",""好我""]","[""强他"",""弱他"",""弱我"",""强我""]","","","","","","","","","","","","","","","","","","","","","","","","","","","","","","feedback_test","","","","","","","","",""
"598","","j","psychophysics","46","243417","0.0-8.0-1.0-1.0-0.0-0.18","6","5","7","6","5","4","1","4","4","4","4","-3","-3","0","1","2","0","2","1","4","3","5","5","4","1","3","2","2","3","2","3","4","4","2","1","5","6","5","3","6","5","5","2","3","3","2","2","7","2","4","3","6","3","6","5","5","6","6","4","3","6","5","4","3","5","6","2","7","6","3","2","6","3","7","2","3","2","4","6","634029991171981312","胡","425","Male","[""好他"",""坏他"",""坏我"",""好我""]","[""强他"",""弱他"",""弱我"",""强我""]","","","","","","","","match","","","","","","","","","","key","j","16.654021052631403","799.9999682108573","445.8333156175091","f","false","nonmatch","img/diamond.png","弱他","强我","prac_ALT2_ability","practice_ability","","","","","","","","",""
"null","<span style='color:red; font-size: 70px;'>错误! </span>","null","html-keyboard-response","47","243918","0.0-8.0-1.0-1.0-0.0-1.18","6","5","7","6","5","4","1","4","4","4","4","-3","-3","0","1","2","0","2","1","4","3","5","5","4","1","3","2","2","3","2","3","4","4","2","1","5","6","5","3","6","5","5","2","3","3","2","2","7","2","4","3","6","3","6","5","5","6","6","4","3","6","5","4","3","5","6","2","7","6","3","2","6","3","7","2","3","2","4","6","634029991171981312","胡","425","Male","[""好他"",""坏他"",""坏我"",""好我""]","[""强他"",""弱他"",""弱我"",""强我""]","","","","","","","","","","","","","","","","","","","","","","","","","","","","","","feedback_test","","","","","","","","",""
"601","","f","psychophysics","48","245521","0.0-8.0-1.0-1.0-0.0-0.19","6","5","7","6","5","4","1","4","4","4","4","-3","-3","0","1","2","0","2","1","4","3","5","5","4","1","3","2","2","3","2","3","4","4","2","1","5","6","5","3","6","5","5","2","3","3","2","2","7","2","4","3","6","3","6","5","5","6","6","4","3","6","5","4","3","5","6","2","7","6","3","2","6","3","7","2","3","2","4","6","634029991171981312","胡","425","Male","[""好他"",""坏他"",""坏我"",""好我""]","[""强他"",""弱他"",""弱我"",""强我""]","","","","","","","","nonmatch","","","","","","","","","","key","f","16.65404210526337","799.9999682108573","445.8333156175091","j","false","match","img/ellipse.png","弱他","弱他","prac_ALT2_ability","practice_ability","","","","","","","","",""
"null","<span style='color:red; font-size: 70px;'>错误! </span>","null","html-keyboard-response","49","246022","0.0-8.0-1.0-1.0-0.0-1.19","6","5","7","6","5","4","1","4","4","4","4","-3","-3","0","1","2","0","2","1","4","3","5","5","4","1","3","2","2","3","2","3","4","4","2","1","5","6","5","3","6","5","5","2","3","3","2","2","7","2","4","3","6","3","6","5","5","6","6","4","3","6","5","4","3","5","6","2","7","6","3","2","6","3","7","2","3","2","4","6","634029991171981312","胡","425","Male","[""好他"",""坏他"",""坏我"",""好我""]","[""强他"",""弱他"",""弱我"",""强我""]","","","","","","","","","","","","","","","","","","","","","","","","","","","","","","feedback_test","","","","","","","","",""
"918","","j","psychophysics","50","247941","0.0-8.0-1.0-1.0-0.0-0.20","6","5","7","6","5","4","1","4","4","4","4","-3","-3","0","1","2","0","2","1","4","3","5","5","4","1","3","2","2","3","2","3","4","4","2","1","5","6","5","3","6","5","5","2","3","3","2","2","7","2","4","3","6","3","6","5","5","6","6","4","3","6","5","4","3","5","6","2","7","6","3","2","6","3","7","2","3","2","4","6","634029991171981312","胡","425","Male","[""好他"",""坏他"",""坏我"",""好我""]","[""强他"",""弱他"",""弱我"",""强我""]","","","","","","","","match","","","","","","","","","","key","j","16.653669565217317","799.9999682108573","445.8333156175091","f","false","nonmatch","img/pentagon.png","弱我","强他","prac_ALT2_ability","practice_ability","","","","","","","","",""
"null","<span style='color:red; font-size: 70px;'>错误! </span>","null","html-keyboard-response","51","248445","0.0-8.0-1.0-1.0-0.0-1.20","6","5","7","6","5","4","1","4","4","4","4","-3","-3","0","1","2","0","2","1","4","3","5","5","4","1","3","2","2","3","2","3","4","4","2","1","5","6","5","3","6","5","5","2","3","3","2","2","7","2","4","3","6","3","6","5","5","6","6","4","3","6","5","4","3","5","6","2","7","6","3","2","6","3","7","2","3","2","4","6","634029991171981312","胡","425","Male","[""好他"",""坏他"",""坏我"",""好我""]","[""强他"",""弱他"",""弱我"",""强我""]","","","","","","","","","","","","","","","","","","","","","","","","","","","","","","feedback_test","","","","","","","","",""
"937","","j","psychophysics","52","250384","0.0-8.0-1.0-1.0-0.0-0.21","6","5","7","6","5","4","1","4","4","4","4","-3","-3","0","1","2","0","2","1","4","3","5","5","4","1","3","2","2","3","2","3","4","4","2","1","5","6","5","3","6","5","5","2","3","3","2","2","7","2","4","3","6","3","6","5","5","6","6","4","3","6","5","4","3","5","6","2","7","6","3","2","6","3","7","2","3","2","4","6","634029991171981312","胡","425","Male","[""好他"",""坏他"",""坏我"",""好我""]","[""强他"",""弱他"",""弱我"",""强我""]","","","","","","","","match","","","","","","","","","","key","j","16.653652173913155","799.9999682108573","445.8333156175091","j","true","match","img/triangle.png","弱我","弱我","prac_ALT2_ability","practice_ability","","","","","","","","",""
"null","<span style='color:GreenYellow; font-size: 70px;'>正确! </span>","null","html-keyboard-response","53","250885","0.0-8.0-1.0-1.0-0.0-1.21","6","5","7","6","5","4","1","4","4","4","4","-3","-3","0","1","2","0","2","1","4","3","5","5","4","1","3","2","2","3","2","3","4","4","2","1","5","6","5","3","6","5","5","2","3","3","2","2","7","2","4","3","6","3","6","5","5","6","6","4","3","6","5","4","3","5","6","2","7","6","3","2","6","3","7","2","3","2","4","6","634029991171981312","胡","425","Male","[""好他"",""坏他"",""坏我"",""好我""]","[""强他"",""弱他"",""弱我"",""强我""]","","","","","","","","","","","","","","","","","","","","","","","","","","","","","","feedback_test","","","","","","","","",""
"405","","j","psychophysics","54","252293","0.0-8.0-1.0-1.0-0.0-0.22","6","5","7","6","5","4","1","4","4","4","4","-3","-3","0","1","2","0","2","1","4","3","5","5","4","1","3","2","2","3","2","3","4","4","2","1","5","6","5","3","6","5","5","2","3","3","2","2","7","2","4","3","6","3","6","5","5","6","6","4","3","6","5","4","3","5","6","2","7","6","3","2","6","3","7","2","3","2","4","6","634029991171981312","胡","425","Male","[""好他"",""坏他"",""坏我"",""好我""]","[""强他"",""弱他"",""弱我"",""强我""]","","","","","","","","match","","","","","","","","","","key","j","16.653345238095167","799.9999682108573","445.8333156175091","f","false","nonmatch","img/pentagon.png","弱他","强他","prac_ALT2_ability","practice_ability","","","","","","","","",""
"null","<span style='color:red; font-size: 70px;'>错误! </span>","null","html-keyboard-response","55","252794","0.0-8.0-1.0-1.0-0.0-1.22","6","5","7","6","5","4","1","4","4","4","4","-3","-3","0","1","2","0","2","1","4","3","5","5","4","1","3","2","2","3","2","3","4","4","2","1","5","6","5","3","6","5","5","2","3","3","2","2","7","2","4","3","6","3","6","5","5","6","6","4","3","6","5","4","3","5","6","2","7","6","3","2","6","3","7","2","3","2","4","6","634029991171981312","胡","425","Male","[""好他"",""坏他"",""坏我"",""好我""]","[""强他"",""弱他"",""弱我"",""强我""]","","","","","","","","","","","","","","","","","","","","","","","","","","","","","","feedback_test","","","","","","","","",""
"337","","j","psychophysics","56","254133","0.0-8.0-1.0-1.0-0.0-0.23","6","5","7","6","5","4","1","4","4","4","4","-3","-3","0","1","2","0","2","1","4","3","5","5","4","1","3","2","2","3","2","3","4","4","2","1","5","6","5","3","6","5","5","2","3","3","2","2","7","2","4","3","6","3","6","5","5","6","6","4","3","6","5","4","3","5","6","2","7","6","3","2","6","3","7","2","3","2","4","6","634029991171981312","胡","425","Male","[""好他"",""坏他"",""坏我"",""好我""]","[""强他"",""弱他"",""弱我"",""强我""]","","","","","","","","match","","","","","","","","","","key","j","16.653974683544174","799.9999682108573","445.8333156175091","j","true","match","img/pentagon.png","强他","强他","prac_ALT2_ability","practice_ability","","","","","","","","",""
"null","<span style='color:GreenYellow; font-size: 70px;'>正确! </span>","null","html-keyboard-response","57","254634","0.0-8.0-1.0-1.0-0.0-1.23","6","5","7","6","5","4","1","4","4","4","4","-3","-3","0","1","2","0","2","1","4","3","5","5","4","1","3","2","2","3","2","3","4","4","2","1","5","6","5","3","6","5","5","2","3","3","2","2","7","2","4","3","6","3","6","5","5","6","6","4","3","6","5","4","3","5","6","2","7","6","3","2","6","3","7","2","3","2","4","6","634029991171981312","胡","425","Male","[""好他"",""坏他"",""坏我"",""好我""]","[""强他"",""弱他"",""弱我"",""强我""]","","","","","","","","","","","","","","","","","","","","","","","","","","","","","","feedback_test","","","","","","","","",""
"817","","j","psychophysics","58","256454","0.0-8.0-1.0-1.0-0.0-0.24","6","5","7","6","5","4","1","4","4","4","4","-3","-3","0","1","2","0","2","1","4","3","5","5","4","1","3","2","2","3","2","3","4","4","2","1","5","6","5","3","6","5","5","2","3","3","2","2","7","2","4","3","6","3","6","5","5","6","6","4","3","6","5","4","3","5","6","2","7","6","3","2","6","3","7","2","3","2","4","6","634029991171981312","胡","425","Male","[""好他"",""坏他"",""坏我"",""好我""]","[""强他"",""弱他"",""弱我"",""强我""]","","","","","","","","match","","","","","","","","","","key","j","16.653157407407384","799.9999682108573","445.8333156175091","f","false","nonmatch","img/triangle.png","强我","弱我","prac_ALT2_ability","practice_ability","","","","","","","","",""
"null","<span style='color:red; font-size: 70px;'>错误! </span>","null","html-keyboard-response","59","256955","0.0-8.0-1.0-1.0-0.0-1.24","6","5","7","6","5","4","1","4","4","4","4","-3","-3","0","1","2","0","2","1","4","3","5","5","4","1","3","2","2","3","2","3","4","4","2","1","5","6","5","3","6","5","5","2","3","3","2","2","7","2","4","3","6","3","6","5","5","6","6","4","3","6","5","4","3","5","6","2","7","6","3","2","6","3","7","2","3","2","4","6","634029991171981312","胡","425","Male","[""好他"",""坏他"",""坏我"",""好我""]","[""强他"",""弱他"",""弱我"",""强我""]","","","","","","","","","","","","","","","","","","","","","","","","","","","","","","feedback_test","","","","","","","","",""
"1051","","f","psychophysics","60","259008","0.0-8.0-1.0-1.0-0.0-0.25","6","5","7","6","5","4","1","4","4","4","4","-3","-3","0","1","2","0","2","1","4","3","5","5","4","1","3","2","2","3","2","3","4","4","2","1","5","6","5","3","6","5","5","2","3","3","2","2","7","2","4","3","6","3","6","5","5","6","6","4","3","6","5","4","3","5","6","2","7","6","3","2","6","3","7","2","3","2","4","6","634029991171981312","胡","425","Male","[""好他"",""坏他"",""坏我"",""好我""]","[""强他"",""弱他"",""弱我"",""强我""]","","","","","","","","nonmatch","","","","","","","","","","key","f","16.653754098360668","799.9999682108573","445.8333156175091","f","true","nonmatch","img/diamond.png","强他","强我","prac_ALT2_ability","practice_ability","","","","","","","","",""
"null","<span style='color:GreenYellow; font-size: 70px;'>正确! </span>","null","html-keyboard-response","61","259509","0.0-8.0-1.0-1.0-0.0-1.25","6","5","7","6","5","4","1","4","4","4","4","-3","-3","0","1","2","0","2","1","4","3","5","5","4","1","3","2","2","3","2","3","4","4","2","1","5","6","5","3","6","5","5","2","3","3","2","2","7","2","4","3","6","3","6","5","5","6","6","4","3","6","5","4","3","5","6","2","7","6","3","2","6","3","7","2","3","2","4","6","634029991171981312","胡","425","Male","[""好他"",""坏他"",""坏我"",""好我""]","[""强他"",""弱他"",""弱我"",""强我""]","","","","","","","","","","","","","","","","","","","","","","","","","","","","","","feedback_test","","","","","","","","",""
"857","","j","psychophysics","62","261369","0.0-8.0-1.0-1.0-0.0-0.26","6","5","7","6","5","4","1","4","4","4","4","-3","-3","0","1","2","0","2","1","4","3","5","5","4","1","3","2","2","3","2","3","4","4","2","1","5","6","5","3","6","5","5","2","3","3","2","2","7","2","4","3","6","3","6","5","5","6","6","4","3","6","5","4","3","5","6","2","7","6","3","2","6","3","7","2","3","2","4","6","634029991171981312","胡","425","Male","[""好他"",""坏他"",""坏我"",""好我""]","[""强他"",""弱他"",""弱我"",""强我""]","","","","","","","","match","","","","","","","","","","key","j","16.653009009008716","799.9999682108573","445.8333156175091","j","true","match","img/pentagon.png","强他","强他","prac_ALT2_ability","practice_ability","","","","","","","","",""
"null","<span style='color:GreenYellow; font-size: 70px;'>正确! </span>","null","html-keyboard-response","63","261869","0.0-8.0-1.0-1.0-0.0-1.26","6","5","7","6","5","4","1","4","4","4","4","-3","-3","0","1","2","0","2","1","4","3","5","5","4","1","3","2","2","3","2","3","4","4","2","1","5","6","5","3","6","5","5","2","3","3","2","2","7","2","4","3","6","3","6","5","5","6","6","4","3","6","5","4","3","5","6","2","7","6","3","2","6","3","7","2","3","2","4","6","634029991171981312","胡","425","Male","[""好他"",""坏他"",""坏我"",""好我""]","[""强他"",""弱他"",""弱我"",""强我""]","","","","","","","","","","","","","","","","","","","","","","","","","","","","","","feedback_test","","","","","","","","",""
"923","","j","psychophysics","64","263793","0.0-8.0-1.0-1.0-0.0-0.27","6","5","7","6","5","4","1","4","4","4","4","-3","-3","0","1","2","0","2","1","4","3","5","5","4","1","3","2","2","3","2","3","4","4","2","1","5","6","5","3","6","5","5","2","3","3","2","2","7","2","4","3","6","3","6","5","5","6","6","4","3","6","5","4","3","5","6","2","7","6","3","2","6","3","7","2","3","2","4","6","634029991171981312","胡","425","Male","[""好他"",""坏他"",""坏我"",""好我""]","[""强他"",""弱他"",""弱我"",""强我""]","","","","","","","","match","","","","","","","","","","key","j","16.65283333333342","799.9999682108573","445.8333156175091","j","true","match","img/ellipse.png","弱他","弱他","prac_ALT2_ability","practice_ability","","","","","","","","",""
"null","<span style='color:GreenYellow; font-size: 70px;'>正确! </span>","null","html-keyboard-response","65","264294","0.0-8.0-1.0-1.0-0.0-1.27","6","5","7","6","5","4","1","4","4","4","4","-3","-3","0","1","2","0","2","1","4","3","5","5","4","1","3","2","2","3","2","3","4","4","2","1","5","6","5","3","6","5","5","2","3","3","2","2","7","2","4","3","6","3","6","5","5","6","6","4","3","6","5","4","3","5","6","2","7","6","3","2","6","3","7","2","3","2","4","6","634029991171981312","胡","425","Male","[""好他"",""坏他"",""坏我"",""好我""]","[""强他"",""弱他"",""弱我"",""强我""]","","","","","","","","","","","","","","","","","","","","","","","","","","","","","","feedback_test","","","","","","","","",""
"834","","j","psychophysics","66","266130","0.0-8.0-1.0-1.0-0.0-0.28","6","5","7","6","5","4","1","4","4","4","4","-3","-3","0","1","2","0","2","1","4","3","5","5","4","1","3","2","2","3","2","3","4","4","2","1","5","6","5","3","6","5","5","2","3","3","2","2","7","2","4","3","6","3","6","5","5","6","6","4","3","6","5","4","3","5","6","2","7","6","3","2","6","3","7","2","3","2","4","6","634029991171981312","胡","425","Male","[""好他"",""坏他"",""坏我"",""好我""]","[""强他"",""弱他"",""弱我"",""强我""]","","","","","","","","match","","","","","","","","","","key","j","16.653440366972262","799.9999682108573","445.8333156175091","j","true","match","img/pentagon.png","强他","强他","prac_ALT2_ability","practice_ability","","","","","","","","",""
"null","<span style='color:GreenYellow; font-size: 70px;'>正确! </span>","null","html-keyboard-response","67","266631","0.0-8.0-1.0-1.0-0.0-1.28","6","5","7","6","5","4","1","4","4","4","4","-3","-3","0","1","2","0","2","1","4","3","5","5","4","1","3","2","2","3","2","3","4","4","2","1","5","6","5","3","6","5","5","2","3","3","2","2","7","2","4","3","6","3","6","5","5","6","6","4","3","6","5","4","3","5","6","2","7","6","3","2","6","3","7","2","3","2","4","6","634029991171981312","胡","425","Male","[""好他"",""坏他"",""坏我"",""好我""]","[""强他"",""弱他"",""弱我"",""强我""]","","","","","","","","","","","","","","","","","","","","","","","","","","","","","","feedback_test","","","","","","","","",""
"593","","f","psychophysics","68","268226","0.0-8.0-1.0-1.0-0.0-0.29","6","5","7","6","5","4","1","4","4","4","4","-3","-3","0","1","2","0","2","1","4","3","5","5","4","1","3","2","2","3","2","3","4","4","2","1","5","6","5","3","6","5","5","2","3","3","2","2","7","2","4","3","6","3","6","5","5","6","6","4","3","6","5","4","3","5","6","2","7","6","3","2","6","3","7","2","3","2","4","6","634029991171981312","胡","425","Male","[""好他"",""坏他"",""坏我"",""好我""]","[""强他"",""弱他"",""弱我"",""强我""]","","","","","","","","nonmatch","","","","","","","","","","key","f","16.653757894737033","799.9999682108573","445.8333156175091","f","true","nonmatch","img/pentagon.png","强我","强他","prac_ALT2_ability","practice_ability","","","","","","","","",""
"null","<span style='color:GreenYellow; font-size: 70px;'>正确! </span>","null","html-keyboard-response","69","268728","0.0-8.0-1.0-1.0-0.0-1.29","6","5","7","6","5","4","1","4","4","4","4","-3","-3","0","1","2","0","2","1","4","3","5","5","4","1","3","2","2","3","2","3","4","4","2","1","5","6","5","3","6","5","5","2","3","3","2","2","7","2","4","3","6","3","6","5","5","6","6","4","3","6","5","4","3","5","6","2","7","6","3","2","6","3","7","2","3","2","4","6","634029991171981312","胡","425","Male","[""好他"",""坏他"",""坏我"",""好我""]","[""强他"",""弱他"",""弱我"",""强我""]","","","","","","","","","","","","","","","","","","","","","","","","","","","","","","feedback_test","","","","","","","","",""
"1067","","j","psychophysics","70","270796","0.0-8.0-1.0-1.0-0.0-0.30","6","5","7","6","5","4","1","4","4","4","4","-3","-3","0","1","2","0","2","1","4","3","5","5","4","1","3","2","2","3","2","3","4","4","2","1","5","6","5","3","6","5","5","2","3","3","2","2","7","2","4","3","6","3","6","5","5","6","6","4","3","6","5","4","3","5","6","2","7","6","3","2","6","3","7","2","3","2","4","6","634029991171981312","胡","425","Male","[""好他"",""坏他"",""坏我"",""好我""]","[""强他"",""弱他"",""弱我"",""强我""]","","","","","","","","match","","","","","","","","","","key","j","16.65366666666677","799.9999682108573","445.8333156175091","j","true","match","img/diamond.png","强我","强我","prac_ALT2_ability","practice_ability","","","","","","","","",""
"null","<span style='color:GreenYellow; font-size: 70px;'>正确! </span>","null","html-keyboard-response","71","271297","0.0-8.0-1.0-1.0-0.0-1.30","6","5","7","6","5","4","1","4","4","4","4","-3","-3","0","1","2","0","2","1","4","3","5","5","4","1","3","2","2","3","2","3","4","4","2","1","5","6","5","3","6","5","5","2","3","3","2","2","7","2","4","3","6","3","6","5","5","6","6","4","3","6","5","4","3","5","6","2","7","6","3","2","6","3","7","2","3","2","4","6","634029991171981312","胡","425","Male","[""好他"",""坏他"",""坏我"",""好我""]","[""强他"",""弱他"",""弱我"",""强我""]","","","","","","","","","","","","","","","","","","","","","","","","","","","","","","feedback_test","","","","","","","","",""
"1059","","f","psychophysics","72","273357","0.0-8.0-1.0-1.0-0.0-0.31","6","5","7","6","5","4","1","4","4","4","4","-3","-3","0","1","2","0","2","1","4","3","5","5","4","1","3","2","2","3","2","3","4","4","2","1","5","6","5","3","6","5","5","2","3","3","2","2","7","2","4","3","6","3","6","5","5","6","6","4","3","6","5","4","3","5","6","2","7","6","3","2","6","3","7","2","3","2","4","6","634029991171981312","胡","425","Male","[""好他"",""坏他"",""坏我"",""好我""]","[""强他"",""弱他"",""弱我"",""强我""]","","","","","","","","nonmatch","","","","","","","","","","key","f","16.65311382113808","799.9999682108573","445.8333156175091","j","false","match","img/triangle.png","弱我","弱我","prac_ALT2_ability","practice_ability","","","","","","","","",""
"null","<span style='color:red; font-size: 70px;'>错误! </span>","null","html-keyboard-response","73","273859","0.0-8.0-1.0-1.0-0.0-1.31","6","5","7","6","5","4","1","4","4","4","4","-3","-3","0","1","2","0","2","1","4","3","5","5","4","1","3","2","2","3","2","3","4","4","2","1","5","6","5","3","6","5","5","2","3","3","2","2","7","2","4","3","6","3","6","5","5","6","6","4","3","6","5","4","3","5","6","2","7","6","3","2","6","3","7","2","3","2","4","6","634029991171981312","胡","425","Male","[""好他"",""坏他"",""坏我"",""好我""]","[""强他"",""弱他"",""弱我"",""强我""]","","","","","","","","","","","","","","","","","","","","","","","","","","","","","","feedback_test","","","","","","","","",""
"380","","j","psychophysics","74","275240","0.0-8.0-1.0-1.0-0.0-0.32","6","5","7","6","5","4","1","4","4","4","4","-3","-3","0","1","2","0","2","1","4","3","5","5","4","1","3","2","2","3","2","3","4","4","2","1","5","6","5","3","6","5","5","2","3","3","2","2","7","2","4","3","6","3","6","5","5","6","6","4","3","6","5","4","3","5","6","2","7","6","3","2","6","3","7","2","3","2","4","6","634029991171981312","胡","425","Male","[""好他"",""坏他"",""坏我"",""好我""]","[""强他"",""弱他"",""弱我"",""强我""]","","","","","","","","match","","","","","","","","","","key","j","16.653134146341827","799.9999682108573","445.8333156175091","f","false","nonmatch","img/triangle.png","弱他","弱我","prac_ALT2_ability","practice_ability","","","","","","","","",""
"null","<span style='color:red; font-size: 70px;'>错误! </span>","null","html-keyboard-response","75","275743","0.0-8.0-1.0-1.0-0.0-1.32","6","5","7","6","5","4","1","4","4","4","4","-3","-3","0","1","2","0","2","1","4","3","5","5","4","1","3","2","2","3","2","3","4","4","2","1","5","6","5","3","6","5","5","2","3","3","2","2","7","2","4","3","6","3","6","5","5","6","6","4","3","6","5","4","3","5","6","2","7","6","3","2","6","3","7","2","3","2","4","6","634029991171981312","胡","425","Male","[""好他"",""坏他"",""坏我"",""好我""]","[""强他"",""弱他"",""弱我"",""强我""]","","","","","","","","","","","","","","","","","","","","","","","","","","","","","","feedback_test","","","","","","","","",""
"882","","f","psychophysics","76","277633","0.0-8.0-1.0-1.0-0.0-0.33","6","5","7","6","5","4","1","4","4","4","4","-3","-3","0","1","2","0","2","1","4","3","5","5","4","1","3","2","2","3","2","3","4","4","2","1","5","6","5","3","6","5","5","2","3","3","2","2","7","2","4","3","6","3","6","5","5","6","6","4","3","6","5","4","3","5","6","2","7","6","3","2","6","3","7","2","3","2","4","6","634029991171981312","胡","425","Male","[""好他"",""坏他"",""坏我"",""好我""]","[""强他"",""弱他"",""弱我"",""强我""]","","","","","","","","nonmatch","","","","","","","","","","key","f","16.65406250000004","799.9999682108573","445.8333156175091","f","true","nonmatch","img/ellipse.png","强我","弱他","prac_ALT2_ability","practice_ability","","","","","","","","",""
"null","<span style='color:GreenYellow; font-size: 70px;'>正确! </span>","null","html-keyboard-response","77","278134","0.0-8.0-1.0-1.0-0.0-1.33","6","5","7","6","5","4","1","4","4","4","4","-3","-3","0","1","2","0","2","1","4","3","5","5","4","1","3","2","2","3","2","3","4","4","2","1","5","6","5","3","6","5","5","2","3","3","2","2","7","2","4","3","6","3","6","5","5","6","6","4","3","6","5","4","3","5","6","2","7","6","3","2","6","3","7","2","3","2","4","6","634029991171981312","胡","425","Male","[""好他"",""坏他"",""坏我"",""好我""]","[""强他"",""弱他"",""弱我"",""强我""]","","","","","","","","","","","","","","","","","","","","","","","","","","","","","","feedback_test","","","","","","","","",""
"850","","f","psychophysics","78","279986","0.0-8.0-1.0-1.0-0.0-0.34","6","5","7","6","5","4","1","4","4","4","4","-3","-3","0","1","2","0","2","1","4","3","5","5","4","1","3","2","2","3","2","3","4","4","2","1","5","6","5","3","6","5","5","2","3","3","2","2","7","2","4","3","6","3","6","5","5","6","6","4","3","6","5","4","3","5","6","2","7","6","3","2","6","3","7","2","3","2","4","6","634029991171981312","胡","425","Male","[""好他"",""坏他"",""坏我"",""好我""]","[""强他"",""弱他"",""弱我"",""强我""]","","","","","","","","nonmatch","","","","","","","","","","key","f","16.65332727272709","799.9999682108573","445.8333156175091","f","true","nonmatch","img/triangle.png","强他","弱我","prac_ALT2_ability","practice_ability","","","","","","","","",""
"null","<span style='color:GreenYellow; font-size: 70px;'>正确! </span>","null","html-keyboard-response","79","280487","0.0-8.0-1.0-1.0-0.0-1.34","6","5","7","6","5","4","1","4","4","4","4","-3","-3","0","1","2","0","2","1","4","3","5","5","4","1","3","2","2","3","2","3","4","4","2","1","5","6","5","3","6","5","5","2","3","3","2","2","7","2","4","3","6","3","6","5","5","6","6","4","3","6","5","4","3","5","6","2","7","6","3","2","6","3","7","2","3","2","4","6","634029991171981312","胡","425","Male","[""好他"",""坏他"",""坏我"",""好我""]","[""强他"",""弱他"",""弱我"",""强我""]","","","","","","","","","","","","","","","","","","","","","","","","","","","","","","feedback_test","","","","","","","","",""
"863","","j","psychophysics","80","282352","0.0-8.0-1.0-1.0-0.0-0.35","6","5","7","6","5","4","1","4","4","4","4","-3","-3","0","1","2","0","2","1","4","3","5","5","4","1","3","2","2","3","2","3","4","4","2","1","5","6","5","3","6","5","5","2","3","3","2","2","7","2","4","3","6","3","6","5","5","6","6","4","3","6","5","4","3","5","6","2","7","6","3","2","6","3","7","2","3","2","4","6","634029991171981312","胡","425","Male","[""好他"",""坏他"",""坏我"",""好我""]","[""强他"",""弱他"",""弱我"",""强我""]","","","","","","","","match","","","","","","","","","","key","j","16.653729729729847","799.9999682108573","445.8333156175091","j","true","match","img/triangle.png","弱我","弱我","prac_ALT2_ability","practice_ability","","","","","","","","",""
"null","<span style='color:GreenYellow; font-size: 70px;'>正确! </span>","null","html-keyboard-response","81","282853","0.0-8.0-1.0-1.0-0.0-1.35","6","5","7","6","5","4","1","4","4","4","4","-3","-3","0","1","2","0","2","1","4","3","5","5","4","1","3","2","2","3","2","3","4","4","2","1","5","6","5","3","6","5","5","2","3","3","2","2","7","2","4","3","6","3","6","5","5","6","6","4","3","6","5","4","3","5","6","2","7","6","3","2","6","3","7","2","3","2","4","6","634029991171981312","胡","425","Male","[""好他"",""坏他"",""坏我"",""好我""]","[""强他"",""弱他"",""弱我"",""强我""]","","","","","","","","","","","","","","","","","","","","","","","","","","","","","","feedback_test","","","","","","","","",""
"853","","j","psychophysics","82","284707","0.0-8.0-1.0-1.0-0.0-0.36","6","5","7","6","5","4","1","4","4","4","4","-3","-3","0","1","2","0","2","1","4","3","5","5","4","1","3","2","2","3","2","3","4","4","2","1","5","6","5","3","6","5","5","2","3","3","2","2","7","2","4","3","6","3","6","5","5","6","6","4","3","6","5","4","3","5","6","2","7","6","3","2","6","3","7","2","3","2","4","6","634029991171981312","胡","425","Male","[""好他"",""坏他"",""坏我"",""好我""]","[""强他"",""弱他"",""弱我"",""强我""]","","","","","","","","match","","","","","","","","","","key","j","16.653154545454626","799.9999682108573","445.8333156175091","j","true","match","img/pentagon.png","强他","强他","prac_ALT2_ability","practice_ability","","","","","","","","",""
"null","<span style='color:GreenYellow; font-size: 70px;'>正确! </span>","null","html-keyboard-response","83","285208","0.0-8.0-1.0-1.0-0.0-1.36","6","5","7","6","5","4","1","4","4","4","4","-3","-3","0","1","2","0","2","1","4","3","5","5","4","1","3","2","2","3","2","3","4","4","2","1","5","6","5","3","6","5","5","2","3","3","2","2","7","2","4","3","6","3","6","5","5","6","6","4","3","6","5","4","3","5","6","2","7","6","3","2","6","3","7","2","3","2","4","6","634029991171981312","胡","425","Male","[""好他"",""坏他"",""坏我"",""好我""]","[""强他"",""弱他"",""弱我"",""强我""]","","","","","","","","","","","","","","","","","","","","","","","","","","","","","","feedback_test","","","","","","","","",""
"829","","f","psychophysics","84","287039","0.0-8.0-1.0-1.0-0.0-0.37","6","5","7","6","5","4","1","4","4","4","4","-3","-3","0","1","2","0","2","1","4","3","5","5","4","1","3","2","2","3","2","3","4","4","2","1","5","6","5","3","6","5","5","2","3","3","2","2","7","2","4","3","6","3","6","5","5","6","6","4","3","6","5","4","3","5","6","2","7","6","3","2","6","3","7","2","3","2","4","6","634029991171981312","胡","425","Male","[""好他"",""坏他"",""坏我"",""好我""]","[""强他"",""弱他"",""弱我"",""强我""]","","","","","","","","nonmatch","","","","","","","","","","key","f","16.65366972477064","799.9999682108573","445.8333156175091","j","false","match","img/ellipse.png","弱他","弱他","prac_ALT2_ability","practice_ability","","","","","","","","",""
"null","<span style='color:red; font-size: 70px;'>错误! </span>","null","html-keyboard-response","85","287540","0.0-8.0-1.0-1.0-0.0-1.37","6","5","7","6","5","4","1","4","4","4","4","-3","-3","0","1","2","0","2","1","4","3","5","5","4","1","3","2","2","3","2","3","4","4","2","1","5","6","5","3","6","5","5","2","3","3","2","2","7","2","4","3","6","3","6","5","5","6","6","4","3","6","5","4","3","5","6","2","7","6","3","2","6","3","7","2","3","2","4","6","634029991171981312","胡","425","Male","[""好他"",""坏他"",""坏我"",""好我""]","[""强他"",""弱他"",""弱我"",""强我""]","","","","","","","","","","","","","","","","","","","","","","","","","","","","","","feedback_test","","","","","","","","",""
"778","","f","psychophysics","86","289320","0.0-8.0-1.0-1.0-0.0-0.38","6","5","7","6","5","4","1","4","4","4","4","-3","-3","0","1","2","0","2","1","4","3","5","5","4","1","3","2","2","3","2","3","4","4","2","1","5","6","5","3","6","5","5","2","3","3","2","2","7","2","4","3","6","3","6","5","5","6","6","4","3","6","5","4","3","5","6","2","7","6","3","2","6","3","7","2","3","2","4","6","634029991171981312","胡","425","Male","[""好他"",""坏他"",""坏我"",""好我""]","[""强他"",""弱他"",""弱我"",""强我""]","","","","","","","","nonmatch","","","","","","","","","","key","f","16.648952380952515","799.9999682108573","445.8333156175091","f","true","nonmatch","img/diamond.png","弱他","强我","prac_ALT2_ability","practice_ability","","","","","","","","",""
"null","<span style='color:GreenYellow; font-size: 70px;'>正确! </span>","null","html-keyboard-response","87","289821","0.0-8.0-1.0-1.0-0.0-1.38","6","5","7","6","5","4","1","4","4","4","4","-3","-3","0","1","2","0","2","1","4","3","5","5","4","1","3","2","2","3","2","3","4","4","2","1","5","6","5","3","6","5","5","2","3","3","2","2","7","2","4","3","6","3","6","5","5","6","6","4","3","6","5","4","3","5","6","2","7","6","3","2","6","3","7","2","3","2","4","6","634029991171981312","胡","425","Male","[""好他"",""坏他"",""坏我"",""好我""]","[""强他"",""弱他"",""弱我"",""强我""]","","","","","","","","","","","","","","","","","","","","","","","","","","","","","","feedback_test","","","","","","","","",""
"976","","f","psychophysics","88","291799","0.0-8.0-1.0-1.0-0.0-0.39","6","5","7","6","5","4","1","4","4","4","4","-3","-3","0","1","2","0","2","1","4","3","5","5","4","1","3","2","2","3","2","3","4","4","2","1","5","6","5","3","6","5","5","2","3","3","2","2","7","2","4","3","6","3","6","5","5","6","6","4","3","6","5","4","3","5","6","2","7","6","3","2","6","3","7","2","3","2","4","6","634029991171981312","胡","425","Male","[""好他"",""坏他"",""坏我"",""好我""]","[""强他"",""弱他"",""弱我"",""强我""]","","","","","","","","nonmatch","","","","","","","","","","key","f","16.653940677965924","799.9999682108573","445.8333156175091","f","true","nonmatch","img/ellipse.png","强他","弱他","prac_ALT2_ability","practice_ability","","","","","","","","",""
"null","<span style='color:GreenYellow; font-size: 70px;'>正确! </span>","null","html-keyboard-response","89","292300","0.0-8.0-1.0-1.0-0.0-1.39","6","5","7","6","5","4","1","4","4","4","4","-3","-3","0","1","2","0","2","1","4","3","5","5","4","1","3","2","2","3","2","3","4","4","2","1","5","6","5","3","6","5","5","2","3","3","2","2","7","2","4","3","6","3","6","5","5","6","6","4","3","6","5","4","3","5","6","2","7","6","3","2","6","3","7","2","3","2","4","6","634029991171981312","胡","425","Male","[""好他"",""坏他"",""坏我"",""好我""]","[""强他"",""弱他"",""弱我"",""强我""]","","","","","","","","","","","","","","","","","","","","","","","","","","","","","","feedback_test","","","","","","","","",""
"934","","j","psychophysics","90","294236","0.0-8.0-1.0-1.0-0.0-0.40","6","5","7","6","5","4","1","4","4","4","4","-3","-3","0","1","2","0","2","1","4","3","5","5","4","1","3","2","2","3","2","3","4","4","2","1","5","6","5","3","6","5","5","2","3","3","2","2","7","2","4","3","6","3","6","5","5","6","6","4","3","6","5","4","3","5","6","2","7","6","3","2","6","3","7","2","3","2","4","6","634029991171981312","胡","425","Male","[""好他"",""坏他"",""坏我"",""好我""]","[""强他"",""弱他"",""弱我"",""强我""]","","","","","","","","match","","","","","","","","","","key","j","16.65371304347848","799.9999682108573","445.8333156175091","j","true","match","img/diamond.png","强我","强我","prac_ALT2_ability","practice_ability","","","","","","","","",""
"null","<span style='color:GreenYellow; font-size: 70px;'>正确! </span>","null","html-keyboard-response","91","294739","0.0-8.0-1.0-1.0-0.0-1.40","6","5","7","6","5","4","1","4","4","4","4","-3","-3","0","1","2","0","2","1","4","3","5","5","4","1","3","2","2","3","2","3","4","4","2","1","5","6","5","3","6","5","5","2","3","3","2","2","7","2","4","3","6","3","6","5","5","6","6","4","3","6","5","4","3","5","6","2","7","6","3","2","6","3","7","2","3","2","4","6","634029991171981312","胡","425","Male","[""好他"",""坏他"",""坏我"",""好我""]","[""强他"",""弱他"",""弱我"",""强我""]","","","","","","","","","","","","","","","","","","","","","","","","","","","","","","feedback_test","","","","","","","","",""
"987","","f","psychophysics","92","296727","0.0-8.0-1.0-1.0-0.0-0.41","6","5","7","6","5","4","1","4","4","4","4","-3","-3","0","1","2","0","2","1","4","3","5","5","4","1","3","2","2","3","2","3","4","4","2","1","5","6","5","3","6","5","5","2","3","3","2","2","7","2","4","3","6","3","6","5","5","6","6","4","3","6","5","4","3","5","6","2","7","6","3","2","6","3","7","2","3","2","4","6","634029991171981312","胡","425","Male","[""好他"",""坏他"",""坏我"",""好我""]","[""强他"",""弱他"",""弱我"",""强我""]","","","","","","","","nonmatch","","","","","","","","","","key","f","16.65257627118657","799.9999682108573","445.8333156175091","j","false","match","img/ellipse.png","弱他","弱他","prac_ALT2_ability","practice_ability","","","","","","","","",""
"null","<span style='color:red; font-size: 70px;'>错误! </span>","null","html-keyboard-response","93","297228","0.0-8.0-1.0-1.0-0.0-1.41","6","5","7","6","5","4","1","4","4","4","4","-3","-3","0","1","2","0","2","1","4","3","5","5","4","1","3","2","2","3","2","3","4","4","2","1","5","6","5","3","6","5","5","2","3","3","2","2","7","2","4","3","6","3","6","5","5","6","6","4","3","6","5","4","3","5","6","2","7","6","3","2","6","3","7","2","3","2","4","6","634029991171981312","胡","425","Male","[""好他"",""坏他"",""坏我"",""好我""]","[""强他"",""弱他"",""弱我"",""强我""]","","","","","","","","","","","","","","","","","","","","","","","","","","","","","","feedback_test","","","","","","","","",""
"1124","","f","psychophysics","94","299353","0.0-8.0-1.0-1.0-0.0-0.42","6","5","7","6","5","4","1","4","4","4","4","-3","-3","0","1","2","0","2","1","4","3","5","5","4","1","3","2","2","3","2","3","4","4","2","1","5","6","5","3","6","5","5","2","3","3","2","2","7","2","4","3","6","3","6","5","5","6","6","4","3","6","5","4","3","5","6","2","7","6","3","2","6","3","7","2","3","2","4","6","634029991171981312","胡","425","Male","[""好他"",""坏他"",""坏我"",""好我""]","[""强他"",""弱他"",""弱我"",""强我""]","","","","","","","","nonmatch","","","","","","","","","","key","f","16.651779527559153","799.9999682108573","445.8333156175091","f","true","nonmatch","img/diamond.png","弱我","强我","prac_ALT2_ability","practice_ability","","","","","","","","",""
"null","<span style='color:GreenYellow; font-size: 70px;'>正确! </span>","null","html-keyboard-response","95","299854","0.0-8.0-1.0-1.0-0.0-1.42","6","5","7","6","5","4","1","4","4","4","4","-3","-3","0","1","2","0","2","1","4","3","5","5","4","1","3","2","2","3","2","3","4","4","2","1","5","6","5","3","6","5","5","2","3","3","2","2","7","2","4","3","6","3","6","5","5","6","6","4","3","6","5","4","3","5","6","2","7","6","3","2","6","3","7","2","3","2","4","6","634029991171981312","胡","425","Male","[""好他"",""坏他"",""坏我"",""好我""]","[""强他"",""弱他"",""弱我"",""强我""]","","","","","","","","","","","","","","","","","","","","","","","","","","","","","","feedback_test","","","","","","","","",""
"926","","j","psychophysics","96","301781","0.0-8.0-1.0-1.0-0.0-0.43","6","5","7","6","5","4","1","4","4","4","4","-3","-3","0","1","2","0","2","1","4","3","5","5","4","1","3","2","2","3","2","3","4","4","2","1","5","6","5","3","6","5","5","2","3","3","2","2","7","2","4","3","6","3","6","5","5","6","6","4","3","6","5","4","3","5","6","2","7","6","3","2","6","3","7","2","3","2","4","6","634029991171981312","胡","425","Male","[""好他"",""坏他"",""坏我"",""好我""]","[""强他"",""弱他"",""弱我"",""强我""]","","","","","","","","match","","","","","","","","","","key","j","16.65330434782613","799.9999682108573","445.8333156175091","j","true","match","img/diamond.png","强我","强我","prac_ALT2_ability","practice_ability","","","","","","","","",""
"null","<span style='color:GreenYellow; font-size: 70px;'>正确! </span>","null","html-keyboard-response","97","302283","0.0-8.0-1.0-1.0-0.0-1.43","6","5","7","6","5","4","1","4","4","4","4","-3","-3","0","1","2","0","2","1","4","3","5","5","4","1","3","2","2","3","2","3","4","4","2","1","5","6","5","3","6","5","5","2","3","3","2","2","7","2","4","3","6","3","6","5","5","6","6","4","3","6","5","4","3","5","6","2","7","6","3","2","6","3","7","2","3","2","4","6","634029991171981312","胡","425","Male","[""好他"",""坏他"",""坏我"",""好我""]","[""强他"",""弱他"",""弱我"",""强我""]","","","","","","","","","","","","","","","","","","","","","","","","","","","","","","feedback_test","","","","","","","","",""
"1128","","f","psychophysics","98","304414","0.0-8.0-1.0-1.0-0.0-0.44","6","5","7","6","5","4","1","4","4","4","4","-3","-3","0","1","2","0","2","1","4","3","5","5","4","1","3","2","2","3","2","3","4","4","2","1","5","6","5","3","6","5","5","2","3","3","2","2","7","2","4","3","6","3","6","5","5","6","6","4","3","6","5","4","3","5","6","2","7","6","3","2","6","3","7","2","3","2","4","6","634029991171981312","胡","425","Male","[""好他"",""坏他"",""坏我"",""好我""]","[""强他"",""弱他"",""弱我"",""强我""]","","","","","","","","nonmatch","","","","","","","","","","key","f","16.65274803149587","799.9999682108573","445.8333156175091","f","true","nonmatch","img/ellipse.png","弱我","弱他","prac_ALT2_ability","practice_ability","","","","","","","","",""
"null","<span style='color:GreenYellow; font-size: 70px;'>正确! </span>","null","html-keyboard-response","99","304916","0.0-8.0-1.0-1.0-0.0-1.44","6","5","7","6","5","4","1","4","4","4","4","-3","-3","0","1","2","0","2","1","4","3","5","5","4","1","3","2","2","3","2","3","4","4","2","1","5","6","5","3","6","5","5","2","3","3","2","2","7","2","4","3","6","3","6","5","5","6","6","4","3","6","5","4","3","5","6","2","7","6","3","2","6","3","7","2","3","2","4","6","634029991171981312","胡","425","Male","[""好他"",""坏他"",""坏我"",""好我""]","[""强他"",""弱他"",""弱我"",""强我""]","","","","","","","","","","","","","","","","","","","","","","","","","","","","","","feedback_test","","","","","","","","",""
"1000","","j","psychophysics","100","306918","0.0-8.0-1.0-1.0-0.0-0.45","6","5","7","6","5","4","1","4","4","4","4","-3","-3","0","1","2","0","2","1","4","3","5","5","4","1","3","2","2","3","2","3","4","4","2","1","5","6","5","3","6","5","5","2","3","3","2","2","7","2","4","3","6","3","6","5","5","6","6","4","3","6","5","4","3","5","6","2","7","6","3","2","6","3","7","2","3","2","4","6","634029991171981312","胡","425","Male","[""好他"",""坏他"",""坏我"",""好我""]","[""强他"",""弱他"",""弱我"",""强我""]","","","","","","","","match","","","","","","","","","","key","j","16.653075630252225","799.9999682108573","445.8333156175091","f","false","nonmatch","img/pentagon.png","弱我","强他","prac_ALT2_ability","practice_ability","","","","","","","","",""
"null","<span style='color:red; font-size: 70px;'>错误! </span>","null","html-keyboard-response","101","307418","0.0-8.0-1.0-1.0-0.0-1.45","6","5","7","6","5","4","1","4","4","4","4","-3","-3","0","1","2","0","2","1","4","3","5","5","4","1","3","2","2","3","2","3","4","4","2","1","5","6","5","3","6","5","5","2","3","3","2","2","7","2","4","3","6","3","6","5","5","6","6","4","3","6","5","4","3","5","6","2","7","6","3","2","6","3","7","2","3","2","4","6","634029991171981312","胡","425","Male","[""好他"",""坏他"",""坏我"",""好我""]","[""强他"",""弱他"",""弱我"",""强我""]","","","","","","","","","","","","","","","","","","","","","","","","","","","","","","feedback_test","","","","","","","","",""
"959","","j","psychophysics","102","309378","0.0-8.0-1.0-1.0-0.0-0.46","6","5","7","6","5","4","1","4","4","4","4","-3","-3","0","1","2","0","2","1","4","3","5","5","4","1","3","2","2","3","2","3","4","4","2","1","5","6","5","3","6","5","5","2","3","3","2","2","7","2","4","3","6","3","6","5","5","6","6","4","3","6","5","4","3","5","6","2","7","6","3","2","6","3","7","2","3","2","4","6","634029991171981312","胡","425","Male","[""好他"",""坏他"",""坏我"",""好我""]","[""强他"",""弱他"",""弱我"",""强我""]","","","","","","","","match","","","","","","","","","","key","j","16.651589743589533","799.9999682108573","445.8333156175091","f","false","nonmatch","img/pentagon.png","弱他","强他","prac_ALT2_ability","practice_ability","","","","","","","","",""
"null","<span style='color:red; font-size: 70px;'>错误! </span>","null","html-keyboard-response","103","309879","0.0-8.0-1.0-1.0-0.0-1.46","6","5","7","6","5","4","1","4","4","4","4","-3","-3","0","1","2","0","2","1","4","3","5","5","4","1","3","2","2","3","2","3","4","4","2","1","5","6","5","3","6","5","5","2","3","3","2","2","7","2","4","3","6","3","6","5","5","6","6","4","3","6","5","4","3","5","6","2","7","6","3","2","6","3","7","2","3","2","4","6","634029991171981312","胡","425","Male","[""好他"",""坏他"",""坏我"",""好我""]","[""强他"",""弱他"",""弱我"",""强我""]","","","","","","","","","","","","","","","","","","","","","","","","","","","","","","feedback_test","","","","","","","","",""
"919","","f","psychophysics","104","311799","0.0-8.0-1.0-1.0-0.0-0.47","6","5","7","6","5","4","1","4","4","4","4","-3","-3","0","1","2","0","2","1","4","3","5","5","4","1","3","2","2","3","2","3","4","4","2","1","5","6","5","3","6","5","5","2","3","3","2","2","7","2","4","3","6","3","6","5","5","6","6","4","3","6","5","4","3","5","6","2","7","6","3","2","6","3","7","2","3","2","4","6","634029991171981312","胡","425","Male","[""好他"",""坏他"",""坏我"",""好我""]","[""强他"",""弱他"",""弱我"",""强我""]","","","","","","","","nonmatch","","","","","","","","","","key","f","16.653912280702027","799.9999682108573","445.8333156175091","j","false","match","img/triangle.png","弱我","弱我","prac_ALT2_ability","practice_ability","","","","","","","","",""
"null","<span style='color:red; font-size: 70px;'>错误! </span>","null","html-keyboard-response","105","312300","0.0-8.0-1.0-1.0-0.0-1.47","6","5","7","6","5","4","1","4","4","4","4","-3","-3","0","1","2","0","2","1","4","3","5","5","4","1","3","2","2","3","2","3","4","4","2","1","5","6","5","3","6","5","5","2","3","3","2","2","7","2","4","3","6","3","6","5","5","6","6","4","3","6","5","4","3","5","6","2","7","6","3","2","6","3","7","2","3","2","4","6","634029991171981312","胡","425","Male","[""好他"",""坏他"",""坏我"",""好我""]","[""强他"",""弱他"",""弱我"",""强我""]","","","","","","","","","","","","","","","","","","","","","","","","","","","","","","feedback_test","","","","","","","","",""
"263","<style>.context{color:white; font-size: 35px; line-height:40px}</style>                          <div><p class='context'>您正确回答了56% 的试次。</p><p class='context'>您的平均反应时为881毫秒。</p><p class='context'>恭喜您完成练习。按空格键继续。</p></div>","j","html-keyboard-response","106","312565","0.0-8.0-1.0-1.0-1.0-0.0","6","5","7","6","5","4","1","4","4","4","4","-3","-3","0","1","2","0","2","1","4","3","5","5","4","1","3","2","2","3","2","3","4","4","2","1","5","6","5","3","6","5","5","2","3","3","2","2","7","2","4","3","6","3","6","5","5","6","6","4","3","6","5","4","3","5","6","2","7","6","3","2","6","3","7","2","3","2","4","6","634029991171981312","胡","425","Male","[""好他"",""坏他"",""坏我"",""好我""]","[""强他"",""弱他"",""弱我"",""强我""]","","","","","","","","","","","","","","","","","","","","","","","","","","","","","","","","","","","","","","",""
"56733","","","instructions","107","369301","0.0-8.0-1.0-1.0-1.0-1.0","6","5","7","6","5","4","1","4","4","4","4","-3","-3","0","1","2","0","2","1","4","3","5","5","4","1","3","2","2","3","2","3","4","4","2","1","5","6","5","3","6","5","5","2","3","3","2","2","7","2","4","3","6","3","6","5","5","6","6","4","3","6","5","4","3","5","6","2","7","6","3","2","6","3","7","2","3","2","4","6","634029991171981312","胡","425","Male","[""好他"",""坏他"",""坏我"",""好我""]","[""强他"",""弱他"",""弱我"",""强我""]","","","","","","","","","","","","","","","","","[{""page_index"":0,""viewing_time"":5152},{""page_index"":1,""viewing_time"":44731},{""page_index"":2,""viewing_time"":6850}]","","","","","","","","","","","","","","","","","","","","","",""
"933","","f","psychophysics","108","371237","0.0-8.0-1.0-1.1-0.1-0.48","6","5","7","6","5","4","1","4","4","4","4","-3","-3","0","1","2","0","2","1","4","3","5","5","4","1","3","2","2","3","2","3","4","4","2","1","5","6","5","3","6","5","5","2","3","3","2","2","7","2","4","3","6","3","6","5","5","6","6","4","3","6","5","4","3","5","6","2","7","6","3","2","6","3","7","2","3","2","4","6","634029991171981312","胡","425","Male","[""好他"",""坏他"",""坏我"",""好我""]","[""强他"",""弱他"",""弱我"",""强我""]","","","","","","","","nonmatch","","","","","","","","","","key","f","16.653321739130288","799.9999682108573","445.8333156175091","f","true","nonmatch","img/diamond.png","强他","强我","prac_ALT2_ability","practice_ability","","","","","","","","",""
"null","<span style='color:GreenYellow; font-size: 70px;'>正确! </span>","null","html-keyboard-response","109","371738","0.0-8.0-1.0-1.1-0.1-1.48","6","5","7","6","5","4","1","4","4","4","4","-3","-3","0","1","2","0","2","1","4","3","5","5","4","1","3","2","2","3","2","3","4","4","2","1","5","6","5","3","6","5","5","2","3","3","2","2","7","2","4","3","6","3","6","5","5","6","6","4","3","6","5","4","3","5","6","2","7","6","3","2","6","3","7","2","3","2","4","6","634029991171981312","胡","425","Male","[""好他"",""坏他"",""坏我"",""好我""]","[""强他"",""弱他"",""弱我"",""强我""]","","","","","","","","","","","","","","","","","","","","","","","","","","","","","","feedback_test","","","","","","","","",""
"785","","f","psychophysics","110","373524","0.0-8.0-1.0-1.1-0.1-0.49","6","5","7","6","5","4","1","4","4","4","4","-3","-3","0","1","2","0","2","1","4","3","5","5","4","1","3","2","2","3","2","3","4","4","2","1","5","6","5","3","6","5","5","2","3","3","2","2","7","2","4","3","6","3","6","5","5","6","6","4","3","6","5","4","3","5","6","2","7","6","3","2","6","3","7","2","3","2","4","6","634029991171981312","胡","425","Male","[""好他"",""坏他"",""坏我"",""好我""]","[""强他"",""弱他"",""弱我"",""强我""]","","","","","","","","nonmatch","","","","","","","","","","key","f","16.652669811320386","799.9999682108573","445.8333156175091","f","true","nonmatch","img/ellipse.png","弱我","弱他","prac_ALT2_ability","practice_ability","","","","","","","","",""
"null","<span style='color:GreenYellow; font-size: 70px;'>正确! </span>","null","html-keyboard-response","111","374040","0.0-8.0-1.0-1.1-0.1-1.49","6","5","7","6","5","4","1","4","4","4","4","-3","-3","0","1","2","0","2","1","4","3","5","5","4","1","3","2","2","3","2","3","4","4","2","1","5","6","5","3","6","5","5","2","3","3","2","2","7","2","4","3","6","3","6","5","5","6","6","4","3","6","5","4","3","5","6","2","7","6","3","2","6","3","7","2","3","2","4","6","634029991171981312","胡","425","Male","[""好他"",""坏他"",""坏我"",""好我""]","[""强他"",""弱他"",""弱我"",""强我""]","","","","","","","","","","","","","","","","","","","","","","","","","","","","","","feedback_test","","","","","","","","",""
"849","","j","psychophysics","112","375890","0.0-8.0-1.0-1.1-0.1-0.50","6","5","7","6","5","4","1","4","4","4","4","-3","-3","0","1","2","0","2","1","4","3","5","5","4","1","3","2","2","3","2","3","4","4","2","1","5","6","5","3","6","5","5","2","3","3","2","2","7","2","4","3","6","3","6","5","5","6","6","4","3","6","5","4","3","5","6","2","7","6","3","2","6","3","7","2","3","2","4","6","634029991171981312","胡","425","Male","[""好他"",""坏他"",""坏我"",""好我""]","[""强他"",""弱他"",""弱我"",""强我""]","","","","","","","","match","","","","","","","","","","key","j","16.653472727273105","799.9999682108573","445.8333156175091","j","true","match","img/diamond.png","强我","强我","prac_ALT2_ability","practice_ability","","","","","","","","",""
"null","<span style='color:GreenYellow; font-size: 70px;'>正确! </span>","null","html-keyboard-response","113","376391","0.0-8.0-1.0-1.1-0.1-1.50","6","5","7","6","5","4","1","4","4","4","4","-3","-3","0","1","2","0","2","1","4","3","5","5","4","1","3","2","2","3","2","3","4","4","2","1","5","6","5","3","6","5","5","2","3","3","2","2","7","2","4","3","6","3","6","5","5","6","6","4","3","6","5","4","3","5","6","2","7","6","3","2","6","3","7","2","3","2","4","6","634029991171981312","胡","425","Male","[""好他"",""坏他"",""坏我"",""好我""]","[""强他"",""弱他"",""弱我"",""强我""]","","","","","","","","","","","","","","","","","","","","","","","","","","","","","","feedback_test","","","","","","","","",""
"632","","j","psychophysics","114","378024","0.0-8.0-1.0-1.1-0.1-0.51","6","5","7","6","5","4","1","4","4","4","4","-3","-3","0","1","2","0","2","1","4","3","5","5","4","1","3","2","2","3","2","3","4","4","2","1","5","6","5","3","6","5","5","2","3","3","2","2","7","2","4","3","6","3","6","5","5","6","6","4","3","6","5","4","3","5","6","2","7","6","3","2","6","3","7","2","3","2","4","6","634029991171981312","胡","425","Male","[""好他"",""坏他"",""坏我"",""好我""]","[""强他"",""弱他"",""弱我"",""强我""]","","","","","","","","match","","","","","","","","","","key","j","16.652907216494793","799.9999682108573","445.8333156175091","j","true","match","img/diamond.png","强我","强我","prac_ALT2_ability","practice_ability","","","","","","","","",""
"null","<span style='color:GreenYellow; font-size: 70px;'>正确! </span>","null","html-keyboard-response","115","378526","0.0-8.0-1.0-1.1-0.1-1.51","6","5","7","6","5","4","1","4","4","4","4","-3","-3","0","1","2","0","2","1","4","3","5","5","4","1","3","2","2","3","2","3","4","4","2","1","5","6","5","3","6","5","5","2","3","3","2","2","7","2","4","3","6","3","6","5","5","6","6","4","3","6","5","4","3","5","6","2","7","6","3","2","6","3","7","2","3","2","4","6","634029991171981312","胡","425","Male","[""好他"",""坏他"",""坏我"",""好我""]","[""强他"",""弱他"",""弱我"",""强我""]","","","","","","","","","","","","","","","","","","","","","","","","","","","","","","feedback_test","","","","","","","","",""
"869","","f","psychophysics","116","380397","0.0-8.0-1.0-1.1-0.1-0.52","6","5","7","6","5","4","1","4","4","4","4","-3","-3","0","1","2","0","2","1","4","3","5","5","4","1","3","2","2","3","2","3","4","4","2","1","5","6","5","3","6","5","5","2","3","3","2","2","7","2","4","3","6","3","6","5","5","6","6","4","3","6","5","4","3","5","6","2","7","6","3","2","6","3","7","2","3","2","4","6","634029991171981312","胡","425","Male","[""好他"",""坏他"",""坏我"",""好我""]","[""强他"",""弱他"",""弱我"",""强我""]","","","","","","","","nonmatch","","","","","","","","","","key","f","16.65119819819816","799.9999682108573","445.8333156175091","f","true","nonmatch","img/triangle.png","弱他","弱我","prac_ALT2_ability","practice_ability","","","","","","","","",""
"null","<span style='color:GreenYellow; font-size: 70px;'>正确! </span>","null","html-keyboard-response","117","380899","0.0-8.0-1.0-1.1-0.1-1.52","6","5","7","6","5","4","1","4","4","4","4","-3","-3","0","1","2","0","2","1","4","3","5","5","4","1","3","2","2","3","2","3","4","4","2","1","5","6","5","3","6","5","5","2","3","3","2","2","7","2","4","3","6","3","6","5","5","6","6","4","3","6","5","4","3","5","6","2","7","6","3","2","6","3","7","2","3","2","4","6","634029991171981312","胡","425","Male","[""好他"",""坏他"",""坏我"",""好我""]","[""强他"",""弱他"",""弱我"",""强我""]","","","","","","","","","","","","","","","","","","","","","","","","","","","","","","feedback_test","","","","","","","","",""
"null","","null","psychophysics","118","383101","0.0-8.0-1.0-1.1-0.1-0.53","6","5","7","6","5","4","1","4","4","4","4","-3","-3","0","1","2","0","2","1","4","3","5","5","4","1","3","2","2","3","2","3","4","4","2","1","5","6","5","3","6","5","5","2","3","3","2","2","7","2","4","3","6","3","6","5","5","6","6","4","3","6","5","4","3","5","6","2","7","6","3","2","6","3","7","2","3","2","4","6","634029991171981312","胡","425","Male","[""好他"",""坏他"",""坏我"",""好我""]","[""强他"",""弱他"",""弱我"",""强我""]","","","","","","","","null","","","","","","","","","","key","null","16.65338931297697","799.9999682108573","445.8333156175091","j","false","match","img/pentagon.png","强他","强他","prac_ALT2_ability","practice_ability","","","","","","","","",""
"null","<span class='add_' style='color:yellow; font-size: 70px;'> 太慢! </span>","null","html-keyboard-response","119","383603","0.0-8.0-1.0-1.1-0.1-1.53","6","5","7","6","5","4","1","4","4","4","4","-3","-3","0","1","2","0","2","1","4","3","5","5","4","1","3","2","2","3","2","3","4","4","2","1","5","6","5","3","6","5","5","2","3","3","2","2","7","2","4","3","6","3","6","5","5","6","6","4","3","6","5","4","3","5","6","2","7","6","3","2","6","3","7","2","3","2","4","6","634029991171981312","胡","425","Male","[""好他"",""坏他"",""坏我"",""好我""]","[""强他"",""弱他"",""弱我"",""强我""]","","","","","","","","","","","","","","","","","","","","","","","","","","","","","","feedback_test","","","","","","","","",""
"957","","j","psychophysics","120","385562","0.0-8.0-1.0-1.1-0.1-0.54","6","5","7","6","5","4","1","4","4","4","4","-3","-3","0","1","2","0","2","1","4","3","5","5","4","1","3","2","2","3","2","3","4","4","2","1","5","6","5","3","6","5","5","2","3","3","2","2","7","2","4","3","6","3","6","5","5","6","6","4","3","6","5","4","3","5","6","2","7","6","3","2","6","3","7","2","3","2","4","6","634029991171981312","胡","425","Male","[""好他"",""坏他"",""坏我"",""好我""]","[""强他"",""弱他"",""弱我"",""强我""]","","","","","","","","match","","","","","","","","","","key","j","16.653786324786466","799.9999682108573","445.8333156175091","j","true","match","img/triangle.png","弱我","弱我","prac_ALT2_ability","practice_ability","","","","","","","","",""
"null","<span style='color:GreenYellow; font-size: 70px;'>正确! </span>","null","html-keyboard-response","121","386063","0.0-8.0-1.0-1.1-0.1-1.54","6","5","7","6","5","4","1","4","4","4","4","-3","-3","0","1","2","0","2","1","4","3","5","5","4","1","3","2","2","3","2","3","4","4","2","1","5","6","5","3","6","5","5","2","3","3","2","2","7","2","4","3","6","3","6","5","5","6","6","4","3","6","5","4","3","5","6","2","7","6","3","2","6","3","7","2","3","2","4","6","634029991171981312","胡","425","Male","[""好他"",""坏他"",""坏我"",""好我""]","[""强他"",""弱他"",""弱我"",""强我""]","","","","","","","","","","","","","","","","","","","","","","","","","","","","","","feedback_test","","","","","","","","",""
"1044","","j","psychophysics","122","388109","0.0-8.0-1.0-1.1-0.1-0.55","6","5","7","6","5","4","1","4","4","4","4","-3","-3","0","1","2","0","2","1","4","3","5","5","4","1","3","2","2","3","2","3","4","4","2","1","5","6","5","3","6","5","5","2","3","3","2","2","7","2","4","3","6","3","6","5","5","6","6","4","3","6","5","4","3","5","6","2","7","6","3","2","6","3","7","2","3","2","4","6","634029991171981312","胡","425","Male","[""好他"",""坏他"",""坏我"",""好我""]","[""强他"",""弱他"",""弱我"",""强我""]","","","","","","","","match","","","","","","","","","","key","j","16.652752066115763","799.9999682108573","445.8333156175091","j","true","match","img/diamond.png","强我","强我","prac_ALT2_ability","practice_ability","","","","","","","","",""
"null","<span style='color:GreenYellow; font-size: 70px;'>正确! </span>","null","html-keyboard-response","123","388609","0.0-8.0-1.0-1.1-0.1-1.55","6","5","7","6","5","4","1","4","4","4","4","-3","-3","0","1","2","0","2","1","4","3","5","5","4","1","3","2","2","3","2","3","4","4","2","1","5","6","5","3","6","5","5","2","3","3","2","2","7","2","4","3","6","3","6","5","5","6","6","4","3","6","5","4","3","5","6","2","7","6","3","2","6","3","7","2","3","2","4","6","634029991171981312","胡","425","Male","[""好他"",""坏他"",""坏我"",""好我""]","[""强他"",""弱他"",""弱我"",""强我""]","","","","","","","","","","","","","","","","","","","","","","","","","","","","","","feedback_test","","","","","","","","",""
"1054","","f","psychophysics","124","390665","0.0-8.0-1.0-1.1-0.1-0.56","6","5","7","6","5","4","1","4","4","4","4","-3","-3","0","1","2","0","2","1","4","3","5","5","4","1","3","2","2","3","2","3","4","4","2","1","5","6","5","3","6","5","5","2","3","3","2","2","7","2","4","3","6","3","6","5","5","6","6","4","3","6","5","4","3","5","6","2","7","6","3","2","6","3","7","2","3","2","4","6","634029991171981312","胡","425","Male","[""好他"",""坏他"",""坏我"",""好我""]","[""强他"",""弱他"",""弱我"",""强我""]","","","","","","","","nonmatch","","","","","","","","","","key","f","16.65352459016378","799.9999682108573","445.8333156175091","f","true","nonmatch","img/triangle.png","强他","弱我","prac_ALT2_ability","practice_ability","","","","","","","","",""
"null","<span style='color:GreenYellow; font-size: 70px;'>正确! </span>","null","html-keyboard-response","125","391166","0.0-8.0-1.0-1.1-0.1-1.56","6","5","7","6","5","4","1","4","4","4","4","-3","-3","0","1","2","0","2","1","4","3","5","5","4","1","3","2","2","3","2","3","4","4","2","1","5","6","5","3","6","5","5","2","3","3","2","2","7","2","4","3","6","3","6","5","5","6","6","4","3","6","5","4","3","5","6","2","7","6","3","2","6","3","7","2","3","2","4","6","634029991171981312","胡","425","Male","[""好他"",""坏他"",""坏我"",""好我""]","[""强他"",""弱他"",""弱我"",""强我""]","","","","","","","","","","","","","","","","","","","","","","","","","","","","","","feedback_test","","","","","","","","",""
"1162","","j","psychophysics","126","393328","0.0-8.0-1.0-1.1-0.1-0.57","6","5","7","6","5","4","1","4","4","4","4","-3","-3","0","1","2","0","2","1","4","3","5","5","4","1","3","2","2","3","2","3","4","4","2","1","5","6","5","3","6","5","5","2","3","3","2","2","7","2","4","3","6","3","6","5","5","6","6","4","3","6","5","4","3","5","6","2","7","6","3","2","6","3","7","2","3","2","4","6","634029991171981312","胡","425","Male","[""好他"",""坏他"",""坏我"",""好我""]","[""强他"",""弱他"",""弱我"",""强我""]","","","","","","","","match","","","","","","","","","","key","j","16.65334108527145","799.9999682108573","445.8333156175091","f","false","nonmatch","img/diamond.png","弱我","强我","prac_ALT2_ability","practice_ability","","","","","","","","",""
"null","<span style='color:red; font-size: 70px;'>错误! </span>","null","html-keyboard-response","127","393829","0.0-8.0-1.0-1.1-0.1-1.57","6","5","7","6","5","4","1","4","4","4","4","-3","-3","0","1","2","0","2","1","4","3","5","5","4","1","3","2","2","3","2","3","4","4","2","1","5","6","5","3","6","5","5","2","3","3","2","2","7","2","4","3","6","3","6","5","5","6","6","4","3","6","5","4","3","5","6","2","7","6","3","2","6","3","7","2","3","2","4","6","634029991171981312","胡","425","Male","[""好他"",""坏他"",""坏我"",""好我""]","[""强他"",""弱他"",""弱我"",""强我""]","","","","","","","","","","","","","","","","","","","","","","","","","","","","","","feedback_test","","","","","","","","",""
"1051","","j","psychophysics","128","395882","0.0-8.0-1.0-1.1-0.1-0.58","6","5","7","6","5","4","1","4","4","4","4","-3","-3","0","1","2","0","2","1","4","3","5","5","4","1","3","2","2","3","2","3","4","4","2","1","5","6","5","3","6","5","5","2","3","3","2","2","7","2","4","3","6","3","6","5","5","6","6","4","3","6","5","4","3","5","6","2","7","6","3","2","6","3","7","2","3","2","4","6","634029991171981312","胡","425","Male","[""好他"",""坏他"",""坏我"",""好我""]","[""强他"",""弱他"",""弱我"",""强我""]","","","","","","","","match","","","","","","","","","","key","j","16.652524590163996","799.9999682108573","445.8333156175091","f","false","nonmatch","img/ellipse.png","强我","弱他","prac_ALT2_ability","practice_ability","","","","","","","","",""
"null","<span style='color:red; font-size: 70px;'>错误! </span>","null","html-keyboard-response","129","396382","0.0-8.0-1.0-1.1-0.1-1.58","6","5","7","6","5","4","1","4","4","4","4","-3","-3","0","1","2","0","2","1","4","3","5","5","4","1","3","2","2","3","2","3","4","4","2","1","5","6","5","3","6","5","5","2","3","3","2","2","7","2","4","3","6","3","6","5","5","6","6","4","3","6","5","4","3","5","6","2","7","6","3","2","6","3","7","2","3","2","4","6","634029991171981312","胡","425","Male","[""好他"",""坏他"",""坏我"",""好我""]","[""强他"",""弱他"",""弱我"",""强我""]","","","","","","","","","","","","","","","","","","","","","","","","","","","","","","feedback_test","","","","","","","","",""
"880","","f","psychophysics","130","398263","0.0-8.0-1.0-1.1-0.1-0.59","6","5","7","6","5","4","1","4","4","4","4","-3","-3","0","1","2","0","2","1","4","3","5","5","4","1","3","2","2","3","2","3","4","4","2","1","5","6","5","3","6","5","5","2","3","3","2","2","7","2","4","3","6","3","6","5","5","6","6","4","3","6","5","4","3","5","6","2","7","6","3","2","6","3","7","2","3","2","4","6","634029991171981312","胡","425","Male","[""好他"",""坏他"",""坏我"",""好我""]","[""强他"",""弱他"",""弱我"",""强我""]","","","","","","","","nonmatch","","","","","","","","","","key","f","16.65281981981972","799.9999682108573","445.8333156175091","f","true","nonmatch","img/diamond.png","弱他","强我","prac_ALT2_ability","practice_ability","","","","","","","","",""
"null","<span style='color:GreenYellow; font-size: 70px;'>正确! </span>","null","html-keyboard-response","131","398765","0.0-8.0-1.0-1.1-0.1-1.59","6","5","7","6","5","4","1","4","4","4","4","-3","-3","0","1","2","0","2","1","4","3","5","5","4","1","3","2","2","3","2","3","4","4","2","1","5","6","5","3","6","5","5","2","3","3","2","2","7","2","4","3","6","3","6","5","5","6","6","4","3","6","5","4","3","5","6","2","7","6","3","2","6","3","7","2","3","2","4","6","634029991171981312","胡","425","Male","[""好他"",""坏他"",""坏我"",""好我""]","[""强他"",""弱他"",""弱我"",""强我""]","","","","","","","","","","","","","","","","","","","","","","","","","","","","","","feedback_test","","","","","","","","",""
"null","","null","psychophysics","132","400968","0.0-8.0-1.0-1.1-0.1-0.60","6","5","7","6","5","4","1","4","4","4","4","-3","-3","0","1","2","0","2","1","4","3","5","5","4","1","3","2","2","3","2","3","4","4","2","1","5","6","5","3","6","5","5","2","3","3","2","2","7","2","4","3","6","3","6","5","5","6","6","4","3","6","5","4","3","5","6","2","7","6","3","2","6","3","7","2","3","2","4","6","634029991171981312","胡","425","Male","[""好他"",""坏他"",""坏我"",""好我""]","[""强他"",""弱他"",""弱我"",""强我""]","","","","","","","","null","","","","","","","","","","key","null","16.653628787878638","799.9999682108573","445.8333156175091","j","false","match","img/pentagon.png","强他","强他","prac_ALT2_ability","practice_ability","","","","","","","","",""
"null","<span class='add_' style='color:yellow; font-size: 70px;'> 太慢! </span>","null","html-keyboard-response","133","401469","0.0-8.0-1.0-1.1-0.1-1.60","6","5","7","6","5","4","1","4","4","4","4","-3","-3","0","1","2","0","2","1","4","3","5","5","4","1","3","2","2","3","2","3","4","4","2","1","5","6","5","3","6","5","5","2","3","3","2","2","7","2","4","3","6","3","6","5","5","6","6","4","3","6","5","4","3","5","6","2","7","6","3","2","6","3","7","2","3","2","4","6","634029991171981312","胡","425","Male","[""好他"",""坏他"",""坏我"",""好我""]","[""强他"",""弱他"",""弱我"",""强我""]","","","","","","","","","","","","","","","","","","","","","","","","","","","","","","feedback_test","","","","","","","","",""
"1080","","f","psychophysics","134","403551","0.0-8.0-1.0-1.1-0.1-0.61","6","5","7","6","5","4","1","4","4","4","4","-3","-3","0","1","2","0","2","1","4","3","5","5","4","1","3","2","2","3","2","3","4","4","2","1","5","6","5","3","6","5","5","2","3","3","2","2","7","2","4","3","6","3","6","5","5","6","6","4","3","6","5","4","3","5","6","2","7","6","3","2","6","3","7","2","3","2","4","6","634029991171981312","胡","425","Male","[""好他"",""坏他"",""坏我"",""好我""]","[""强他"",""弱他"",""弱我"",""强我""]","","","","","","","","nonmatch","","","","","","","","","","key","f","16.653354838709703","799.9999682108573","445.8333156175091","f","true","nonmatch","img/triangle.png","强我","弱我","prac_ALT2_ability","practice_ability","","","","","","","","",""
