"rt","stimulus","response","trial_type","trial_index","time_elapsed","internal_node_id","swb_1","swb_2","swb_3","swb_4","swb_5","LOT_1","LOT_2","LOT_3","LOT_4","LOT_5","LOT_6","IPC_1","IPC_2","IPC_3","IPC_4","IPC_5","IPC_6","IPC_7","IPC_8","MorIden_1","MorIden_2","MorIden_3","MorIden_4","MorIden_5","MorIden_6","MorIden_7","MorIden_8","MorIden_9","MorIden_10","moralSeImag_1","moralSeImag_2","moralSeImag_3","moralSeImag_4","moralSeImag_5","moralSeImag_6","moralSeImag_7","moralSeImag_8","moralSeImag_9","sde_1","sde_2","sde_3","sde_4","sde_5","sde_6","sde_7","sde_8","sde_9","sde_10","trap2","sde_11","sde_12","sde_13","sde_14","sde_15","sde_16","sde_17","sde_18","sde_19","sde_20","IM_1","IM_2","IM_3","IM_4","IM_5","IM_6","IM_7","IM_8","IM_9","IM_10","IM_11","IM_12","IM_13","IM_14","IM_15","IM_16","IM_17","IM_18","IM_19","IM_20","subj_idx","friend_name","ParticipantID","Sex","Word","Word2","value","success","timeout","failed_images","failed_audio","failed_video","user_agent","responses","item_order","radio_event_ids","radio_event_times","key_event_times","mouse_event_times","straightlining","zigzagging","honeypot","task_id","screen_id","time_stamp","response_type","key_press","avg_frame_time","center_x","center_y","person","word","valence","domain","math","correct_response","correct","status","view_history","identity","duration","Image","condition","question_order","trap2_item"
"2022","
   <p><div style='color:white; font-size: 25px'>您好，欢迎参加本次实验。</div></p>
   <p><div style='color:white; font-size: 25px'>为充分保障您的权利，请确保您已经知晓并同意《参与实验同意书》以及《数据公开知情同意书》。</div></p>
   <p><div style='color:white; font-size: 25px'>如果您未见过上述内容，请咨询实验员。</div></p>
   <p style='color:white; font-size: 25px'>如果您选择继续实验，则表示您已经清楚两份知情同意书的内容并同意。</p>
   <p><div style = ""color: pink;font-size:30px;"">请确保您记得day0的实验编号，您将在本次实验输入该编号，若您忘记，请咨询实验员后作答。</div></p>
   <p><div style = ""color:lightblue;font-size:25px;"">请您尽可能认真地作答，我们将依据您在各问卷和按键任务中的作答质量发放报酬。</div></p>
   <p> <div style = ""color: green""><按空格键至下页></div> </p>
   "," ","html-keyboard-response","0","2024","0.0-0.0","5","5","6","4","3","4","3","5","4","4","5","1","0","1","1","0","2","1","2","5","4","5","4","4","3","3","4","5","4","4","5","4","5","4","2","6","4","5","4","5","5","6","3","2","4","3","6","2","1","5","2","6","4","2","3","4","6","6","5","3","4","2","2","2","5","3","7","6","6","4","5","5","5","2","5","6","7","3","4","767772447134191618","吴","112","Female","[""好她"",""坏她"",""好我"",""坏我""]","[""强她"",""弱她"",""强我"",""弱我""]","","","","","","","","","","","","","","","","","","","","","","","","","","","","","","","","","","","","","","",""
"","","","call-function","1","2026","0.0-1.0-0.0","5","5","6","4","3","4","3","5","4","4","5","1","0","1","1","0","2","1","2","5","4","5","4","4","3","3","4","5","4","4","5","4","5","4","2","6","4","5","4","5","5","6","3","2","4","3","6","2","1","5","2","6","4","2","3","4","6","6","5","3","4","2","2","2","5","3","7","6","6","4","5","5","5","2","5","6","7","3","4","767772447134191618","吴","112","Female","[""好她"",""坏她"",""好我"",""坏我""]","[""强她"",""弱她"",""强我"",""弱我""]","","","","","","","","","","","","","","","","","","","","","","","","","","","","","","","","","","","","","","",""
"30385","","[{""name"":""Sex"",""value"":""1""},{""name"":""friend_name"",""value"":""吴""},{""name"":""ParticipantID"",""value"":""112""}]","survey-html-form","2","32412","0.0-1.0-1.0","5","5","6","4","3","4","3","5","4","4","5","1","0","1","1","0","2","1","2","5","4","5","4","4","3","3","4","5","4","4","5","4","5","4","2","6","4","5","4","5","5","6","3","2","4","3","6","2","1","5","2","6","4","2","3","4","6","6","5","3","4","2","2","2","5","3","7","6","6","4","5","5","5","2","5","6","7","3","4","767772447134191618","吴","112","Female","[""好她"",""坏她"",""好我"",""坏我""]","[""强她"",""弱她"",""强我"",""弱我""]","","","","","","","","","","","","","","","","","","","","","","","","","","","","","","","","","","","","","","",""
"","","","preload","3","32485","0.0-2.0","5","5","6","4","3","4","3","5","4","4","5","1","0","1","1","0","2","1","2","5","4","5","4","4","3","3","4","5","4","4","5","4","5","4","2","6","4","5","4","5","5","6","3","2","4","3","6","2","1","5","2","6","4","2","3","4","6","6","5","3","4","2","2","2","5","3","7","6","6","4","5","5","5","2","5","6","7","3","4","767772447134191618","吴","112","Female","[""好她"",""坏她"",""好我"",""坏我""]","[""强她"",""弱她"",""强我"",""弱我""]","","true","false","[]","[]","[]","","","","","","","","","","","","","","","","","","","","","","","","","","","","","","","","",""
"","","","fullscreen","4","33988","0.0-3.0","5","5","6","4","3","4","3","5","4","4","5","1","0","1","1","0","2","1","2","5","4","5","4","4","3","3","4","5","4","4","5","4","5","4","2","6","4","5","4","5","5","6","3","2","4","3","6","2","1","5","2","6","4","2","3","4","6","6","5","3","4","2","2","2","5","3","7","6","6","4","5","5","5","2","5","6","7","3","4","767772447134191618","吴","112","Female","[""好她"",""坏她"",""好我"",""坏我""]","[""强她"",""弱她"",""强我"",""弱我""]","","true","","","","","{}","","","","","","","","","","","","","","","","","","","","","","","","","","","","","","","",""
"10582.100000023842","","{""Q01"":""5"",""Q02"":""5"",""Q03"":""6"",""Q04"":""4"",""Q05"":""3""}","survey-template","5","44575","0.0-4.0","5","5","6","4","3","4","3","5","4","4","5","1","0","1","1","0","2","1","2","5","4","5","4","4","3","3","4","5","4","4","5","4","5","4","2","6","4","5","4","5","5","6","3","2","4","3","6","2","1","5","2","6","4","2","3","4","6","6","5","3","4","2","2","2","5","3","7","6","6","4","5","5","5","2","5","6","7","3","4","767772447134191618","吴","112","Female","[""好她"",""坏她"",""好我"",""坏我""]","[""强她"",""弱她"",""强我"",""弱我""]","","","","","","","","{""Q01"":""5"",""Q02"":""5"",""Q03"":""6"",""Q04"":""4"",""Q05"":""3""}","[0,1,2,3,4]","[""Q01"",""Q02"",""Q03"",""Q04"",""Q05""]","[2217.5,3521.900000035763,4821.900000035763,6273,9748]","[]","[2217.5,3521.900000035763,4821.900000035763,6273,9748,10580.800000011921]","0.4","0.5","0","","","","","","","","","","","","","","","","","","","","","","",""
"14532.899999976158","","{""Q01"":""4"",""Q02"":""3"",""Q03"":""5"",""Q04"":""4"",""Q05"":""4"",""Q06"":""5""}","survey-template","6","59114","0.0-5.0","5","5","6","4","3","4","3","5","4","4","5","1","0","1","1","0","2","1","2","5","4","5","4","4","3","3","4","5","4","4","5","4","5","4","2","6","4","5","4","5","5","6","3","2","4","3","6","2","1","5","2","6","4","2","3","4","6","6","5","3","4","2","2","2","5","3","7","6","6","4","5","5","5","2","5","6","7","3","4","767772447134191618","吴","112","Female","[""好她"",""坏她"",""好我"",""坏我""]","[""强她"",""弱她"",""强我"",""弱我""]","","","","","","","","{""Q01"":""4"",""Q02"":""3"",""Q03"":""5"",""Q04"":""4"",""Q05"":""4"",""Q06"":""5""}","[0,1,2,3,4,5]","[""Q01"",""Q02"",""Q03"",""Q04"",""Q05"",""Q06""]","[2753.399999976158,5665.899999976158,7670.199999988079,9381.100000023842,11623.199999988079,12911]","[]","[2753.399999976158,5665.899999976158,7670.199999988079,9381.100000023842,11623.199999988079,12911,14532]","0.3333333333333333","0.2","0","","","","","","","","","","","","","","","","","","","","","","",""
"21412","","{""Q01"":""1"",""Q02"":""0"",""Q03"":""1"",""Q04"":""1"",""Q05"":""0"",""Q06"":""2"",""Q07"":""1"",""Q08"":""2""}","survey-template","7","80530","0.0-6.0","5","5","6","4","3","4","3","5","4","4","5","1","0","1","1","0","2","1","2","5","4","5","4","4","3","3","4","5","4","4","5","4","5","4","2","6","4","5","4","5","5","6","3","2","4","3","6","2","1","5","2","6","4","2","3","4","6","6","5","3","4","2","2","2","5","3","7","6","6","4","5","5","5","2","5","6","7","3","4","767772447134191618","吴","112","Female","[""好她"",""坏她"",""好我"",""坏我""]","[""强她"",""弱她"",""强我"",""弱我""]","","","","","","","","{""Q01"":""1"",""Q02"":""0"",""Q03"":""1"",""Q04"":""1"",""Q05"":""0"",""Q06"":""2"",""Q07"":""1"",""Q08"":""2""}","[0,1,2,3,4,5,6,7]","[""Q01"",""Q02"",""Q02"",""Q03"",""Q04"",""Q05"",""Q06"",""Q07"",""Q08""]","[2387.100000023842,4420,6038,8720.699999988079,9905.800000011921,12220.699999988079,17814.30000001192,19013.80000001192,20595.900000035763]","[]","[2387.100000023842,4420,6038,8720.699999988079,9905.800000011921,12220.699999988079,17814.30000001192,19013.80000001192,20595.900000035763,21410.400000035763]","0.5","0.7142857142857143","0","","","","","","","","","","","","","","","","","","","","","","",""
"4641","
    <p><div style='color:white;font-size:35px; line-height:20px;'>词汇评估任务</div></p><br>
    <p><div style='color:white;font-size:25px; line-height:20px;'>请再次回忆该亲密的朋友，你们至少2年前就认识了，并且最近2年经常见面。</div></p>
    <p><div style='color:white;font-size:25px; line-height:20px;'>在本实验中，您将会看到一些形容词。</div></p>
    <p><div style='color:yellow;font-size:25px; line-height:20px;'>您的任务是判断这些形容词是否符合对您自己或您的朋友的描述。</div></p><p style='font-size:35px'>符合按<span style=""color:lightgreen""> f 键</span>，不符合按<span style=""color:red""> j 键</span></p>","0","html-button-response","8","85175","0.0-7.0-0.0","5","5","6","4","3","4","3","5","4","4","5","1","0","1","1","0","2","1","2","5","4","5","4","4","3","3","4","5","4","4","5","4","5","4","2","6","4","5","4","5","5","6","3","2","4","3","6","2","1","5","2","6","4","2","3","4","6","6","5","3","4","2","2","2","5","3","7","6","6","4","5","5","5","2","5","6","7","3","4","767772447134191618","吴","112","Female","[""好她"",""坏她"",""好我"",""坏我""]","[""强她"",""弱她"",""强我"",""弱我""]","","","","","","","","","","","","","","","","","SRET_EW","EW_instructions","Sat Dec 09 2023 13:24:40 GMT+0800 (中国标准时间)","","","","","","","","","","","","","","","","","","","",""
"1043","","j","psychophysics","9","87224","0.0-7.0-1.0-0.0","5","5","6","4","3","4","3","5","4","4","5","1","0","1","1","0","2","1","2","5","4","5","4","4","3","3","4","5","4","4","5","4","5","4","2","6","4","5","4","5","5","6","3","2","4","3","6","2","1","5","2","6","4","2","3","4","6","6","5","3","4","2","2","2","5","3","7","6","6","4","5","5","5","2","5","6","7","3","4","767772447134191618","吴","112","Female","[""好她"",""坏她"",""好我"",""坏我""]","[""强她"",""弱她"",""强我"",""弱我""]","","","","","","","","no","","","","","","","","","SRET_EW","EW_practice","","key","j","6.9658532423208035","768","428","自己","刻板","Negative","ability","","","","","","","","","","",""
"825","","j","psychophysics","10","89053","0.0-7.0-1.0-0.1","5","5","6","4","3","4","3","5","4","4","5","1","0","1","1","0","2","1","2","5","4","5","4","4","3","3","4","5","4","4","5","4","5","4","2","6","4","5","4","5","5","6","3","2","4","3","6","2","1","5","2","6","4","2","3","4","6","6","5","3","4","2","2","2","5","3","7","6","6","4","5","5","5","2","5","6","7","3","4","767772447134191618","吴","112","Female","[""好她"",""坏她"",""好我"",""坏我""]","[""强她"",""弱她"",""强我"",""弱我""]","","","","","","","","no","","","","","","","","","SRET_EW","EW_practice","","key","j","6.943475285171068","768","428","朋友","徇私","Negative","morality","","","","","","","","","","",""
"1268","","j","psychophysics","11","91324","0.0-7.0-1.0-0.2","5","5","6","4","3","4","3","5","4","4","5","1","0","1","1","0","2","1","2","5","4","5","4","4","3","3","4","5","4","4","5","4","5","4","2","6","4","5","4","5","5","6","3","2","4","3","6","2","1","5","2","6","4","2","3","4","6","6","5","3","4","2","2","2","5","3","7","6","6","4","5","5","5","2","5","6","7","3","4","767772447134191618","吴","112","Female","[""好她"",""坏她"",""好我"",""坏我""]","[""强她"",""弱她"",""强我"",""弱我""]","","","","","","","","no","","","","","","","","","SRET_EW","EW_practice","","key","j","6.943656441717785","768","428","自己","严谨","Positive","ability","","","","","","","","","","",""
"688","","f","psychophysics","12","93014","0.0-7.0-1.0-0.3","5","5","6","4","3","4","3","5","4","4","5","1","0","1","1","0","2","1","2","5","4","5","4","4","3","3","4","5","4","4","5","4","5","4","2","6","4","5","4","5","5","6","3","2","4","3","6","2","1","5","2","6","4","2","3","4","6","6","5","3","4","2","2","2","5","3","7","6","6","4","5","5","5","2","5","6","7","3","4","767772447134191618","吴","112","Female","[""好她"",""坏她"",""好我"",""坏我""]","[""强她"",""弱她"",""强我"",""弱我""]","","","","","","","","yes","","","","","","","","","SRET_EW","EW_practice","","key","f","6.943419753086435","768","428","朋友","忠实","Positive","morality","","","","","","","","","","",""
"2916","
    <p><div style='color:white;font-size:35px; line-height:20px;'>请您再次阅读实验要求</div></p><br>
    <p><div style='color:white;font-size:25px; line-height:20px;'>请回忆某一个亲密的朋友，你们至少2年前就认识了，并且最近2年经常见面。</div></p>
    <p><div style='color:white;font-size:25px; line-height:20px;'>在本实验中，您将会看到一些形容词。</div></p>
    <p><div style='color:yellow;font-size:25px; line-height:20px;'>您的任务是判断这些形容词是否符合对您自己或您的朋友的描述。</div></p>
    <p><div class='footer' style='font-size:25px; line-height:20px;'>如果对本实验还有不清楚之处，请立即向实验员咨询。</p><p style='font-size:25px; line-height:20px;'>如果您明白了规则：</p><p style='font-size:22px; line-height:20px;'>请按 继续 进入正式实验</p>
    </div>
    <p style='font-size:35px'>符合按<span style=""color:lightgreen""> f 键</span>，不符合按<span style=""color:red""> j 键</span></p>","0","html-button-response","13","95932","0.0-7.0-2.0","5","5","6","4","3","4","3","5","4","4","5","1","0","1","1","0","2","1","2","5","4","5","4","4","3","3","4","5","4","4","5","4","5","4","2","6","4","5","4","5","5","6","3","2","4","3","6","2","1","5","2","6","4","2","3","4","6","6","5","3","4","2","2","2","5","3","7","6","6","4","5","5","5","2","5","6","7","3","4","767772447134191618","吴","112","Female","[""好她"",""坏她"",""好我"",""坏我""]","[""强她"",""弱她"",""强我"",""弱我""]","","","","","","","","","","","","","","","","","SRET_EW","prac_instructions","Sat Dec 09 2023 13:24:40 GMT+0800 (中国标准时间)","","","","","","","","","","","","","","","","","","","",""
"1219","","f","psychophysics","14","98153","0.0-7.0-3.0-0.0","5","5","6","4","3","4","3","5","4","4","5","1","0","1","1","0","2","1","2","5","4","5","4","4","3","3","4","5","4","4","5","4","5","4","2","6","4","5","4","5","5","6","3","2","4","3","6","2","1","5","2","6","4","2","3","4","6","6","5","3","4","2","2","2","5","3","7","6","6","4","5","5","5","2","5","6","7","3","4","767772447134191618","吴","112","Female","[""好她"",""坏她"",""好我"",""坏我""]","[""强她"",""弱她"",""强我"",""弱我""]","","","","","","","","yes","","","","","","","","","SRET","EW_formal","","key","f","6.940793750000012","768","428","自己","坚贞","Positive","morality","","","","","","","","","","",""
"748","","f","psychophysics","15","99904","0.0-7.0-3.0-0.1","5","5","6","4","3","4","3","5","4","4","5","1","0","1","1","0","2","1","2","5","4","5","4","4","3","3","4","5","4","4","5","4","5","4","2","6","4","5","4","5","5","6","3","2","4","3","6","2","1","5","2","6","4","2","3","4","6","6","5","3","4","2","2","2","5","3","7","6","6","4","5","5","5","2","5","6","7","3","4","767772447134191618","吴","112","Female","[""好她"",""坏她"",""好我"",""坏我""]","[""强她"",""弱她"",""强我"",""弱我""]","","","","","","","","yes","","","","","","","","","SRET","EW_formal","","key","f","6.94515139442234","768","428","朋友","务实","Positive","ability","","","","","","","","","","",""
"1206","","f","psychophysics","16","102114","0.0-7.0-3.0-0.2","5","5","6","4","3","4","3","5","4","4","5","1","0","1","1","0","2","1","2","5","4","5","4","4","3","3","4","5","4","4","5","4","5","4","2","6","4","5","4","5","5","6","3","2","4","3","6","2","1","5","2","6","4","2","3","4","6","6","5","3","4","2","2","2","5","3","7","6","6","4","5","5","5","2","5","6","7","3","4","767772447134191618","吴","112","Female","[""好她"",""坏她"",""好我"",""坏我""]","[""强她"",""弱她"",""强我"",""弱我""]","","","","","","","","yes","","","","","","","","","SRET","EW_formal","","key","f","6.9442586750788236","768","428","朋友","迷糊","Negative","ability","","","","","","","","","","",""
"846","","j","psychophysics","17","103963","0.0-7.0-3.0-0.3","5","5","6","4","3","4","3","5","4","4","5","1","0","1","1","0","2","1","2","5","4","5","4","4","3","3","4","5","4","4","5","4","5","4","2","6","4","5","4","5","5","6","3","2","4","3","6","2","1","5","2","6","4","2","3","4","6","6","5","3","4","2","2","2","5","3","7","6","6","4","5","5","5","2","5","6","7","3","4","767772447134191618","吴","112","Female","[""好她"",""坏她"",""好我"",""坏我""]","[""强她"",""弱她"",""强我"",""弱我""]","","","","","","","","no","","","","","","","","","SRET","EW_formal","","key","j","6.9436754716980875","768","428","自己","说谎","Negative","morality","","","","","","","","","","",""
"847","","f","psychophysics","18","105812","0.0-7.0-3.0-0.4","5","5","6","4","3","4","3","5","4","4","5","1","0","1","1","0","2","1","2","5","4","5","4","4","3","3","4","5","4","4","5","4","5","4","2","6","4","5","4","5","5","6","3","2","4","3","6","2","1","5","2","6","4","2","3","4","6","6","5","3","4","2","2","2","5","3","7","6","6","4","5","5","5","2","5","6","7","3","4","767772447134191618","吴","112","Female","[""好她"",""坏她"",""好我"",""坏我""]","[""强她"",""弱她"",""强我"",""弱我""]","","","","","","","","yes","","","","","","","","","SRET","EW_formal","","key","f","6.943436090225556","768","428","朋友","果决","Positive","ability","","","","","","","","","","",""
"849","","j","psychophysics","19","107664","0.0-7.0-3.0-0.5","5","5","6","4","3","4","3","5","4","4","5","1","0","1","1","0","2","1","2","5","4","5","4","4","3","3","4","5","4","4","5","4","5","4","2","6","4","5","4","5","5","6","3","2","4","3","6","2","1","5","2","6","4","2","3","4","6","6","5","3","4","2","2","2","5","3","7","6","6","4","5","5","5","2","5","6","7","3","4","767772447134191618","吴","112","Female","[""好她"",""坏她"",""好我"",""坏我""]","[""强她"",""弱她"",""强我"",""弱我""]","","","","","","","","no","","","","","","","","","SRET","EW_formal","","key","j","6.943807547169799","768","428","朋友","无为","Negative","ability","","","","","","","","","","",""
"866","","f","psychophysics","20","109533","0.0-7.0-3.0-0.6","5","5","6","4","3","4","3","5","4","4","5","1","0","1","1","0","2","1","2","5","4","5","4","4","3","3","4","5","4","4","5","4","5","4","2","6","4","5","4","5","5","6","3","2","4","3","6","2","1","5","2","6","4","2","3","4","6","6","5","3","4","2","2","2","5","3","7","6","6","4","5","5","5","2","5","6","7","3","4","767772447134191618","吴","112","Female","[""好她"",""坏她"",""好我"",""坏我""]","[""强她"",""弱她"",""强我"",""弱我""]","","","","","","","","yes","","","","","","","","","SRET","EW_formal","","key","f","6.944249070631959","768","428","朋友","拖延","Negative","ability","","","","","","","","","","",""
"678","","f","psychophysics","21","111214","0.0-7.0-3.0-0.7","5","5","6","4","3","4","3","5","4","4","5","1","0","1","1","0","2","1","2","5","4","5","4","4","3","3","4","5","4","4","5","4","5","4","2","6","4","5","4","5","5","6","3","2","4","3","6","2","1","5","2","6","4","2","3","4","6","6","5","3","4","2","2","2","5","3","7","6","6","4","5","5","5","2","5","6","7","3","4","767772447134191618","吴","112","Female","[""好她"",""坏她"",""好我"",""坏我""]","[""强她"",""弱她"",""强我"",""弱我""]","","","","","","","","yes","","","","","","","","","SRET","EW_formal","","key","f","6.944029045643208","768","428","自己","仗义","Positive","morality","","","","","","","","","","",""
"687","","f","psychophysics","22","112903","0.0-7.0-3.0-0.8","5","5","6","4","3","4","3","5","4","4","5","1","0","1","1","0","2","1","2","5","4","5","4","4","3","3","4","5","4","4","5","4","5","4","2","6","4","5","4","5","5","6","3","2","4","3","6","2","1","5","2","6","4","2","3","4","6","6","5","3","4","2","2","2","5","3","7","6","6","4","5","5","5","2","5","6","7","3","4","767772447134191618","吴","112","Female","[""好她"",""坏她"",""好我"",""坏我""]","[""强她"",""弱她"",""强我"",""弱我""]","","","","","","","","yes","","","","","","","","","SRET","EW_formal","","key","f","6.944305785123955","768","428","自己","独立","Positive","ability","","","","","","","","","","",""
"748","","j","psychophysics","23","114652","0.0-7.0-3.0-0.9","5","5","6","4","3","4","3","5","4","4","5","1","0","1","1","0","2","1","2","5","4","5","4","4","3","3","4","5","4","4","5","4","5","4","2","6","4","5","4","5","5","6","3","2","4","3","6","2","1","5","2","6","4","2","3","4","6","6","5","3","4","2","2","2","5","3","7","6","6","4","5","5","5","2","5","6","7","3","4","767772447134191618","吴","112","Female","[""好她"",""坏她"",""好我"",""坏我""]","[""强她"",""弱她"",""强我"",""弱我""]","","","","","","","","no","","","","","","","","","SRET","EW_formal","","key","j","6.944784860557782","768","428","朋友","贪腐","Negative","morality","","","","","","","","","","",""
"710","","j","psychophysics","24","116364","0.0-7.0-3.0-0.10","5","5","6","4","3","4","3","5","4","4","5","1","0","1","1","0","2","1","2","5","4","5","4","4","3","3","4","5","4","4","5","4","5","4","2","6","4","5","4","5","5","6","3","2","4","3","6","2","1","5","2","6","4","2","3","4","6","6","5","3","4","2","2","2","5","3","7","6","6","4","5","5","5","2","5","6","7","3","4","767772447134191618","吴","112","Female","[""好她"",""坏她"",""好我"",""坏我""]","[""强她"",""弱她"",""强我"",""弱我""]","","","","","","","","no","","","","","","","","","SRET","EW_formal","","key","j","6.94408979591841","768","428","自己","低劣","Negative","morality","","","","","","","","","","",""
"946","","j","psychophysics","25","118313","0.0-7.0-3.0-0.11","5","5","6","4","3","4","3","5","4","4","5","1","0","1","1","0","2","1","2","5","4","5","4","4","3","3","4","5","4","4","5","4","5","4","2","6","4","5","4","5","5","6","3","2","4","3","6","2","1","5","2","6","4","2","3","4","6","6","5","3","4","2","2","2","5","3","7","6","6","4","5","5","5","2","5","6","7","3","4","767772447134191618","吴","112","Female","[""好她"",""坏她"",""好我"",""坏我""]","[""强她"",""弱她"",""强我"",""弱我""]","","","","","","","","no","","","","","","","","","SRET","EW_formal","","key","j","6.943992857142855","768","428","自己","屈才","Negative","ability","","","","","","","","","","",""
"1088","","j","psychophysics","26","120403","0.0-7.0-3.0-0.12","5","5","6","4","3","4","3","5","4","4","5","1","0","1","1","0","2","1","2","5","4","5","4","4","3","3","4","5","4","4","5","4","5","4","2","6","4","5","4","5","5","6","3","2","4","3","6","2","1","5","2","6","4","2","3","4","6","6","5","3","4","2","2","2","5","3","7","6","6","4","5","5","5","2","5","6","7","3","4","767772447134191618","吴","112","Female","[""好她"",""坏她"",""好我"",""坏我""]","[""强她"",""弱她"",""强我"",""弱我""]","","","","","","","","no","","","","","","","","","SRET","EW_formal","","key","j","6.9435300000000275","768","428","朋友","逞能","Negative","ability","","","","","","","","","","",""
"905","","j","psychophysics","27","122313","0.0-7.0-3.0-0.13","5","5","6","4","3","4","3","5","4","4","5","1","0","1","1","0","2","1","2","5","4","5","4","4","3","3","4","5","4","4","5","4","5","4","2","6","4","5","4","5","5","6","3","2","4","3","6","2","1","5","2","6","4","2","3","4","6","6","5","3","4","2","2","2","5","3","7","6","6","4","5","5","5","2","5","6","7","3","4","767772447134191618","吴","112","Female","[""好她"",""坏她"",""好我"",""坏我""]","[""强她"",""弱她"",""强我"",""弱我""]","","","","","","","","no","","","","","","","","","SRET","EW_formal","","key","j","6.944773722627746","768","428","朋友","逞强","Negative","ability","","","","","","","","","","",""
"1637","","j","psychophysics","28","124955","0.0-7.0-3.0-0.14","5","5","6","4","3","4","3","5","4","4","5","1","0","1","1","0","2","1","2","5","4","5","4","4","3","3","4","5","4","4","5","4","5","4","2","6","4","5","4","5","5","6","3","2","4","3","6","2","1","5","2","6","4","2","3","4","6","6","5","3","4","2","2","2","5","3","7","6","6","4","5","5","5","2","5","6","7","3","4","767772447134191618","吴","112","Female","[""好她"",""坏她"",""好我"",""坏我""]","[""强她"",""弱她"",""强我"",""弱我""]","","","","","","","","no","","","","","","","","","SRET","EW_formal","","key","j","6.943755263157915","768","428","自己","果断","Positive","ability","","","","","","","","","","",""
"838","","f","psychophysics","29","126795","0.0-7.0-3.0-0.15","5","5","6","4","3","4","3","5","4","4","5","1","0","1","1","0","2","1","2","5","4","5","4","4","3","3","4","5","4","4","5","4","5","4","2","6","4","5","4","5","5","6","3","2","4","3","6","2","1","5","2","6","4","2","3","4","6","6","5","3","4","2","2","2","5","3","7","6","6","4","5","5","5","2","5","6","7","3","4","767772447134191618","吴","112","Female","[""好她"",""坏她"",""好我"",""坏我""]","[""强她"",""弱她"",""强我"",""弱我""]","","","","","","","","yes","","","","","","","","","SRET","EW_formal","","key","f","6.943943181818185","768","428","朋友","清廉","Positive","morality","","","","","","","","","","",""
"646","","f","psychophysics","30","128443","0.0-7.0-3.0-0.16","5","5","6","4","3","4","3","5","4","4","5","1","0","1","1","0","2","1","2","5","4","5","4","4","3","3","4","5","4","4","5","4","5","4","2","6","4","5","4","5","5","6","3","2","4","3","6","2","1","5","2","6","4","2","3","4","6","6","5","3","4","2","2","2","5","3","7","6","6","4","5","5","5","2","5","6","7","3","4","767772447134191618","吴","112","Female","[""好她"",""坏她"",""好我"",""坏我""]","[""强她"",""弱她"",""强我"",""弱我""]","","","","","","","","yes","","","","","","","","","SRET","EW_formal","","key","f","6.94515254237293","768","428","朋友","守法","Positive","morality","","","","","","","","","","",""
"578","","f","psychophysics","31","130023","0.0-7.0-3.0-0.17","5","5","6","4","3","4","3","5","4","4","5","1","0","1","1","0","2","1","2","5","4","5","4","4","3","3","4","5","4","4","5","4","5","4","2","6","4","5","4","5","5","6","3","2","4","3","6","2","1","5","2","6","4","2","3","4","6","6","5","3","4","2","2","2","5","3","7","6","6","4","5","5","5","2","5","6","7","3","4","767772447134191618","吴","112","Female","[""好她"",""坏她"",""好我"",""坏我""]","[""强她"",""弱她"",""强我"",""弱我""]","","","","","","","","yes","","","","","","","","","SRET","EW_formal","","key","f","6.944995594713637","768","428","自己","侠义","Positive","morality","","","","","","","","","","",""
"680","","f","psychophysics","32","131705","0.0-7.0-3.0-0.18","5","5","6","4","3","4","3","5","4","4","5","1","0","1","1","0","2","1","2","5","4","5","4","4","3","3","4","5","4","4","5","4","5","4","2","6","4","5","4","5","5","6","3","2","4","3","6","2","1","5","2","6","4","2","3","4","6","6","5","3","4","2","2","2","5","3","7","6","6","4","5","5","5","2","5","6","7","3","4","767772447134191618","吴","112","Female","[""好她"",""坏她"",""好我"",""坏我""]","[""强她"",""弱她"",""强我"",""弱我""]","","","","","","","","yes","","","","","","","","","SRET","EW_formal","","key","f","6.944751037344329","768","428","朋友","好心","Positive","morality","","","","","","","","","","",""
"928","","j","psychophysics","33","133635","0.0-7.0-3.0-0.19","5","5","6","4","3","4","3","5","4","4","5","1","0","1","1","0","2","1","2","5","4","5","4","4","3","3","4","5","4","4","5","4","5","4","2","6","4","5","4","5","5","6","3","2","4","3","6","2","1","5","2","6","4","2","3","4","6","6","5","3","4","2","2","2","5","3","7","6","6","4","5","5","5","2","5","6","7","3","4","767772447134191618","吴","112","Female","[""好她"",""坏她"",""好我"",""坏我""]","[""强她"",""弱她"",""强我"",""弱我""]","","","","","","","","no","","","","","","","","","SRET","EW_formal","","key","j","6.944382671480187","768","428","自己","短视","Negative","ability","","","","","","","","","","",""
"1006","","f","psychophysics","34","135643","0.0-7.0-3.0-0.20","5","5","6","4","3","4","3","5","4","4","5","1","0","1","1","0","2","1","2","5","4","5","4","4","3","3","4","5","4","4","5","4","5","4","2","6","4","5","4","5","5","6","3","2","4","3","6","2","1","5","2","6","4","2","3","4","6","6","5","3","4","2","2","2","5","3","7","6","6","4","5","5","5","2","5","6","7","3","4","767772447134191618","吴","112","Female","[""好她"",""坏她"",""好我"",""坏我""]","[""强她"",""弱她"",""强我"",""弱我""]","","","","","","","","yes","","","","","","","","","SRET","EW_formal","","key","f","6.943881944444507","768","428","朋友","拖拉","Negative","ability","","","","","","","","","","",""
"890","","j","psychophysics","35","137536","0.0-7.0-3.0-0.21","5","5","6","4","3","4","3","5","4","4","5","1","0","1","1","0","2","1","2","5","4","5","4","4","3","3","4","5","4","4","5","4","5","4","2","6","4","5","4","5","5","6","3","2","4","3","6","2","1","5","2","6","4","2","3","4","6","6","5","3","4","2","2","2","5","3","7","6","6","4","5","5","5","2","5","6","7","3","4","767772447134191618","吴","112","Female","[""好她"",""坏她"",""好我"",""坏我""]","[""强她"",""弱她"",""强我"",""弱我""]","","","","","","","","no","","","","","","","","","SRET","EW_formal","","key","j","6.943808823529359","768","428","自己","愚钝","Negative","ability","","","","","","","","","","",""
"847","","j","psychophysics","36","139385","0.0-7.0-3.0-0.22","5","5","6","4","3","4","3","5","4","4","5","1","0","1","1","0","2","1","2","5","4","5","4","4","3","3","4","5","4","4","5","4","5","4","2","6","4","5","4","5","5","6","3","2","4","3","6","2","1","5","2","6","4","2","3","4","6","6","5","3","4","2","2","2","5","3","7","6","6","4","5","5","5","2","5","6","7","3","4","767772447134191618","吴","112","Female","[""好她"",""坏她"",""好我"",""坏我""]","[""强她"",""弱她"",""强我"",""弱我""]","","","","","","","","no","","","","","","","","","SRET","EW_formal","","key","j","6.944562264150975","768","428","朋友","不端","Negative","morality","","","","","","","","","","",""
"815","","f","psychophysics","37","141204","0.0-7.0-3.0-0.23","5","5","6","4","3","4","3","5","4","4","5","1","0","1","1","0","2","1","2","5","4","5","4","4","3","3","4","5","4","4","5","4","5","4","2","6","4","5","4","5","5","6","3","2","4","3","6","2","1","5","2","6","4","2","3","4","6","6","5","3","4","2","2","2","5","3","7","6","6","4","5","5","5","2","5","6","7","3","4","767772447134191618","吴","112","Female","[""好她"",""坏她"",""好我"",""坏我""]","[""强她"",""弱她"",""强我"",""弱我""]","","","","","","","","yes","","","","","","","","","SRET","EW_formal","","key","f","6.944911877394536","768","428","自己","利落","Positive","ability","","","","","","","","","","",""
"758","","j","psychophysics","38","142965","0.0-7.0-3.0-0.24","5","5","6","4","3","4","3","5","4","4","5","1","0","1","1","0","2","1","2","5","4","5","4","4","3","3","4","5","4","4","5","4","5","4","2","6","4","5","4","5","5","6","3","2","4","3","6","2","1","5","2","6","4","2","3","4","6","6","5","3","4","2","2","2","5","3","7","6","6","4","5","5","5","2","5","6","7","3","4","767772447134191618","吴","112","Female","[""好她"",""坏她"",""好我"",""坏我""]","[""强她"",""弱她"",""强我"",""弱我""]","","","","","","","","no","","","","","","","","","SRET","EW_formal","","key","j","6.943650793650863","768","428","自己","迂拙","Negative","ability","","","","","","","","","","",""
"627","","j","psychophysics","39","144593","0.0-7.0-3.0-0.25","5","5","6","4","3","4","3","5","4","4","5","1","0","1","1","0","2","1","2","5","4","5","4","4","3","3","4","5","4","4","5","4","5","4","2","6","4","5","4","5","5","6","3","2","4","3","6","2","1","5","2","6","4","2","3","4","6","6","5","3","4","2","2","2","5","3","7","6","6","4","5","5","5","2","5","6","7","3","4","767772447134191618","吴","112","Female","[""好她"",""坏她"",""好我"",""坏我""]","[""强她"",""弱她"",""强我"",""弱我""]","","","","","","","","no","","","","","","","","","SRET","EW_formal","","key","j","6.945226495726453","768","428","自己","阴毒","Negative","morality","","","","","","","","","","",""
"759","","f","psychophysics","40","146355","0.0-7.0-3.0-0.26","5","5","6","4","3","4","3","5","4","4","5","1","0","1","1","0","2","1","2","5","4","5","4","4","3","3","4","5","4","4","5","4","5","4","2","6","4","5","4","5","5","6","3","2","4","3","6","2","1","5","2","6","4","2","3","4","6","6","5","3","4","2","2","2","5","3","7","6","6","4","5","5","5","2","5","6","7","3","4","767772447134191618","吴","112","Female","[""好她"",""坏她"",""好我"",""坏我""]","[""强她"",""弱她"",""强我"",""弱我""]","","","","","","","","yes","","","","","","","","","SRET","EW_formal","","key","f","6.944142292490185","768","428","自己","敏捷","Positive","ability","","","","","","","","","","",""
"697","","j","psychophysics","41","148054","0.0-7.0-3.0-0.27","5","5","6","4","3","4","3","5","4","4","5","1","0","1","1","0","2","1","2","5","4","5","4","4","3","3","4","5","4","4","5","4","5","4","2","6","4","5","4","5","5","6","3","2","4","3","6","2","1","5","2","6","4","2","3","4","6","6","5","3","4","2","2","2","5","3","7","6","6","4","5","5","5","2","5","6","7","3","4","767772447134191618","吴","112","Female","[""好她"",""坏她"",""好我"",""坏我""]","[""强她"",""弱她"",""强我"",""弱我""]","","","","","","","","no","","","","","","","","","SRET","EW_formal","","key","j","6.9448888888888","768","428","朋友","虚伪","Negative","morality","","","","","","","","","","",""
"627","","f","psychophysics","42","149683","0.0-7.0-3.0-0.28","5","5","6","4","3","4","3","5","4","4","5","1","0","1","1","0","2","1","2","5","4","5","4","4","3","3","4","5","4","4","5","4","5","4","2","6","4","5","4","5","5","6","3","2","4","3","6","2","1","5","2","6","4","2","3","4","6","6","5","3","4","2","2","2","5","3","7","6","6","4","5","5","5","2","5","6","7","3","4","767772447134191618","吴","112","Female","[""好她"",""坏她"",""好我"",""坏我""]","[""强她"",""弱她"",""强我"",""弱我""]","","","","","","","","yes","","","","","","","","","SRET","EW_formal","","key","f","6.944367521367599","768","428","自己","正气","Positive","morality","","","","","","","","","","",""
"698","","j","psychophysics","43","151383","0.0-7.0-3.0-0.29","5","5","6","4","3","4","3","5","4","4","5","1","0","1","1","0","2","1","2","5","4","5","4","4","3","3","4","5","4","4","5","4","5","4","2","6","4","5","4","5","5","6","3","2","4","3","6","2","1","5","2","6","4","2","3","4","6","6","5","3","4","2","2","2","5","3","7","6","6","4","5","5","5","2","5","6","7","3","4","767772447134191618","吴","112","Female","[""好她"",""坏她"",""好我"",""坏我""]","[""强她"",""弱她"",""强我"",""弱我""]","","","","","","","","no","","","","","","","","","SRET","EW_formal","","key","j","6.943495901639299","768","428","朋友","刻薄","Negative","morality","","","","","","","","","","",""
"851","","j","psychophysics","44","153235","0.0-7.0-3.0-0.30","5","5","6","4","3","4","3","5","4","4","5","1","0","1","1","0","2","1","2","5","4","5","4","4","3","3","4","5","4","4","5","4","5","4","2","6","4","5","4","5","5","6","3","2","4","3","6","2","1","5","2","6","4","2","3","4","6","6","5","3","4","2","2","2","5","3","7","6","6","4","5","5","5","2","5","6","7","3","4","767772447134191618","吴","112","Female","[""好她"",""坏她"",""好我"",""坏我""]","[""强她"",""弱她"",""强我"",""弱我""]","","","","","","","","no","","","","","","","","","SRET","EW_formal","","key","j","6.943887218045197","768","428","自己","下流","Negative","morality","","","","","","","","","","",""
"825","","f","psychophysics","45","155063","0.0-7.0-3.0-0.31","5","5","6","4","3","4","3","5","4","4","5","1","0","1","1","0","2","1","2","5","4","5","4","4","3","3","4","5","4","4","5","4","5","4","2","6","4","5","4","5","5","6","3","2","4","3","6","2","1","5","2","6","4","2","3","4","6","6","5","3","4","2","2","2","5","3","7","6","6","4","5","5","5","2","5","6","7","3","4","767772447134191618","吴","112","Female","[""好她"",""坏她"",""好我"",""坏我""]","[""强她"",""弱她"",""强我"",""弱我""]","","","","","","","","yes","","","","","","","","","SRET","EW_formal","","key","f","6.944824427480895","768","428","朋友","仁爱","Positive","morality","","","","","","","","","","",""
"530","","f","psychophysics","46","156596","0.0-7.0-3.0-0.32","5","5","6","4","3","4","3","5","4","4","5","1","0","1","1","0","2","1","2","5","4","5","4","4","3","3","4","5","4","4","5","4","5","4","2","6","4","5","4","5","5","6","3","2","4","3","6","2","1","5","2","6","4","2","3","4","6","6","5","3","4","2","2","2","5","3","7","6","6","4","5","5","5","2","5","6","7","3","4","767772447134191618","吴","112","Female","[""好她"",""坏她"",""好我"",""坏我""]","[""强她"",""弱她"",""强我"",""弱我""]","","","","","","","","yes","","","","","","","","","SRET","EW_formal","","key","f","6.943690909090881","768","428","朋友","精干","Positive","ability","","","","","","","","","","",""
"626","","f","psychophysics","47","158223","0.0-7.0-3.0-0.33","5","5","6","4","3","4","3","5","4","4","5","1","0","1","1","0","2","1","2","5","4","5","4","4","3","3","4","5","4","4","5","4","5","4","2","6","4","5","4","5","5","6","3","2","4","3","6","2","1","5","2","6","4","2","3","4","6","6","5","3","4","2","2","2","5","3","7","6","6","4","5","5","5","2","5","6","7","3","4","767772447134191618","吴","112","Female","[""好她"",""坏她"",""好我"",""坏我""]","[""强她"",""弱她"",""强我"",""弱我""]","","","","","","","","yes","","","","","","","","","SRET","EW_formal","","key","f","6.944686695278943","768","428","朋友","上进","Positive","ability","","","","","","","","","","",""
"519","","f","psychophysics","48","159743","0.0-7.0-3.0-0.34","5","5","6","4","3","4","3","5","4","4","5","1","0","1","1","0","2","1","2","5","4","5","4","4","3","3","4","5","4","4","5","4","5","4","2","6","4","5","4","5","5","6","3","2","4","3","6","2","1","5","2","6","4","2","3","4","6","6","5","3","4","2","2","2","5","3","7","6","6","4","5","5","5","2","5","6","7","3","4","767772447134191618","吴","112","Female","[""好她"",""坏她"",""好我"",""坏我""]","[""强她"",""弱她"",""强我"",""弱我""]","","","","","","","","yes","","","","","","","","","SRET","EW_formal","","key","f","6.945449541284438","768","428","朋友","骁勇","Positive","ability","","","","","","","","","","",""
"589","","j","psychophysics","49","161334","0.0-7.0-3.0-0.35","5","5","6","4","3","4","3","5","4","4","5","1","0","1","1","0","2","1","2","5","4","5","4","4","3","3","4","5","4","4","5","4","5","4","2","6","4","5","4","5","5","6","3","2","4","3","6","2","1","5","2","6","4","2","3","4","6","6","5","3","4","2","2","2","5","3","7","6","6","4","5","5","5","2","5","6","7","3","4","767772447134191618","吴","112","Female","[""好她"",""坏她"",""好我"",""坏我""]","[""强她"",""弱她"",""强我"",""弱我""]","","","","","","","","no","","","","","","","","","SRET","EW_formal","","key","j","6.94370175438592","768","428","朋友","歹毒","Negative","morality","","","","","","","","","","",""
"767","","j","psychophysics","50","163103","0.0-7.0-3.0-0.36","5","5","6","4","3","4","3","5","4","4","5","1","0","1","1","0","2","1","2","5","4","5","4","4","3","3","4","5","4","4","5","4","5","4","2","6","4","5","4","5","5","6","3","2","4","3","6","2","1","5","2","6","4","2","3","4","6","6","5","3","4","2","2","2","5","3","7","6","6","4","5","5","5","2","5","6","7","3","4","767772447134191618","吴","112","Female","[""好她"",""坏她"",""好我"",""坏我""]","[""强她"",""弱她"",""强我"",""弱我""]","","","","","","","","no","","","","","","","","","SRET","EW_formal","","key","j","6.944062992125932","768","428","朋友","愚蠢","Negative","ability","","","","","","","","","","",""
"730","","f","psychophysics","51","164835","0.0-7.0-3.0-0.37","5","5","6","4","3","4","3","5","4","4","5","1","0","1","1","0","2","1","2","5","4","5","4","4","3","3","4","5","4","4","5","4","5","4","2","6","4","5","4","5","5","6","3","2","4","3","6","2","1","5","2","6","4","2","3","4","6","6","5","3","4","2","2","2","5","3","7","6","6","4","5","5","5","2","5","6","7","3","4","767772447134191618","吴","112","Female","[""好她"",""坏她"",""好我"",""坏我""]","[""强她"",""弱她"",""强我"",""弱我""]","","","","","","","","yes","","","","","","","","","SRET","EW_formal","","key","f","6.944766129032242","768","428","自己","毅力","Positive","ability","","","","","","","","","","",""
"636","","f","psychophysics","52","166476","0.0-7.0-3.0-0.38","5","5","6","4","3","4","3","5","4","4","5","1","0","1","1","0","2","1","2","5","4","5","4","4","3","3","4","5","4","4","5","4","5","4","2","6","4","5","4","5","5","6","3","2","4","3","6","2","1","5","2","6","4","2","3","4","6","6","5","3","4","2","2","2","5","3","7","6","6","4","5","5","5","2","5","6","7","3","4","767772447134191618","吴","112","Female","[""好她"",""坏她"",""好我"",""坏我""]","[""强她"",""弱她"",""强我"",""弱我""]","","","","","","","","yes","","","","","","","","","SRET","EW_formal","","key","f","6.944432203389825","768","428","朋友","博学","Positive","ability","","","","","","","","","","",""
"735","","f","psychophysics","53","168213","0.0-7.0-3.0-0.39","5","5","6","4","3","4","3","5","4","4","5","1","0","1","1","0","2","1","2","5","4","5","4","4","3","3","4","5","4","4","5","4","5","4","2","6","4","5","4","5","5","6","3","2","4","3","6","2","1","5","2","6","4","2","3","4","6","6","5","3","4","2","2","2","5","3","7","6","6","4","5","5","5","2","5","6","7","3","4","767772447134191618","吴","112","Female","[""好她"",""坏她"",""好我"",""坏我""]","[""强她"",""弱她"",""强我"",""弱我""]","","","","","","","","yes","","","","","","","","","SRET","EW_formal","","key","f","6.945152610441741","768","428","自己","中用","Positive","ability","","","","","","","","","","",""
"578","","f","psychophysics","54","169795","0.0-7.0-3.0-0.40","5","5","6","4","3","4","3","5","4","4","5","1","0","1","1","0","2","1","2","5","4","5","4","4","3","3","4","5","4","4","5","4","5","4","2","6","4","5","4","5","5","6","3","2","4","3","6","2","1","5","2","6","4","2","3","4","6","6","5","3","4","2","2","2","5","3","7","6","6","4","5","5","5","2","5","6","7","3","4","767772447134191618","吴","112","Female","[""好她"",""坏她"",""好我"",""坏我""]","[""强她"",""弱她"",""强我"",""弱我""]","","","","","","","","yes","","","","","","","","","SRET","EW_formal","","key","f","6.944193832599097","768","428","朋友","高明","Positive","ability","","","","","","","","","","",""
"647","","f","psychophysics","55","171445","0.0-7.0-3.0-0.41","5","5","6","4","3","4","3","5","4","4","5","1","0","1","1","0","2","1","2","5","4","5","4","4","3","3","4","5","4","4","5","4","5","4","2","6","4","5","4","5","5","6","3","2","4","3","6","2","1","5","2","6","4","2","3","4","6","6","5","3","4","2","2","2","5","3","7","6","6","4","5","5","5","2","5","6","7","3","4","767772447134191618","吴","112","Female","[""好她"",""坏她"",""好我"",""坏我""]","[""强她"",""弱她"",""强我"",""弱我""]","","","","","","","","yes","","","","","","","","","SRET","EW_formal","","key","f","6.943957627118665","768","428","自己","孝顺","Positive","morality","","","","","","","","","","",""
"714","","j","psychophysics","56","173163","0.0-7.0-3.0-0.42","5","5","6","4","3","4","3","5","4","4","5","1","0","1","1","0","2","1","2","5","4","5","4","4","3","3","4","5","4","4","5","4","5","4","2","6","4","5","4","5","5","6","3","2","4","3","6","2","1","5","2","6","4","2","3","4","6","6","5","3","4","2","2","2","5","3","7","6","6","4","5","5","5","2","5","6","7","3","4","767772447134191618","吴","112","Female","[""好她"",""坏她"",""好我"",""坏我""]","[""强她"",""弱她"",""强我"",""弱我""]","","","","","","","","no","","","","","","","","","SRET","EW_formal","","key","j","6.9436923076923245","768","428","自己","浅薄","Negative","ability","","","","","","","","","","",""
"598","","j","psychophysics","57","174765","0.0-7.0-3.0-0.43","5","5","6","4","3","4","3","5","4","4","5","1","0","1","1","0","2","1","2","5","4","5","4","4","3","3","4","5","4","4","5","4","5","4","2","6","4","5","4","5","5","6","3","2","4","3","6","2","1","5","2","6","4","2","3","4","6","6","5","3","4","2","2","2","5","3","7","6","6","4","5","5","5","2","5","6","7","3","4","767772447134191618","吴","112","Female","[""好她"",""坏她"",""好我"",""坏我""]","[""强她"",""弱她"",""强我"",""弱我""]","","","","","","","","no","","","","","","","","","SRET","EW_formal","","key","j","6.944135371179017","768","428","自己","蛇蝎","Negative","morality","","","","","","","","","","",""
"706","","j","psychophysics","58","176475","0.0-7.0-3.0-0.44","5","5","6","4","3","4","3","5","4","4","5","1","0","1","1","0","2","1","2","5","4","5","4","4","3","3","4","5","4","4","5","4","5","4","2","6","4","5","4","5","5","6","3","2","4","3","6","2","1","5","2","6","4","2","3","4","6","6","5","3","4","2","2","2","5","3","7","6","6","4","5","5","5","2","5","6","7","3","4","767772447134191618","吴","112","Female","[""好她"",""坏她"",""好我"",""坏我""]","[""强她"",""弱她"",""强我"",""弱我""]","","","","","","","","no","","","","","","","","","SRET","EW_formal","","key","j","6.943126016260126","768","428","朋友","昏庸","Negative","ability","","","","","","","","","","",""
"806","","f","psychophysics","59","178283","0.0-7.0-3.0-0.45","5","5","6","4","3","4","3","5","4","4","5","1","0","1","1","0","2","1","2","5","4","5","4","4","3","3","4","5","4","4","5","4","5","4","2","6","4","5","4","5","5","6","3","2","4","3","6","2","1","5","2","6","4","2","3","4","6","6","5","3","4","2","2","2","5","3","7","6","6","4","5","5","5","2","5","6","7","3","4","767772447134191618","吴","112","Female","[""好她"",""坏她"",""好我"",""坏我""]","[""强她"",""弱她"",""强我"",""弱我""]","","","","","","","","yes","","","","","","","","","SRET","EW_formal","","key","f","6.945038610038664","768","428","自己","勤奋","Positive","ability","","","","","","","","","","",""
"698","","f","psychophysics","60","179983","0.0-7.0-3.0-0.46","5","5","6","4","3","4","3","5","4","4","5","1","0","1","1","0","2","1","2","5","4","5","4","4","3","3","4","5","4","4","5","4","5","4","2","6","4","5","4","5","5","6","3","2","4","3","6","2","1","5","2","6","4","2","3","4","6","6","5","3","4","2","2","2","5","3","7","6","6","4","5","5","5","2","5","6","7","3","4","767772447134191618","吴","112","Female","[""好她"",""坏她"",""好我"",""坏我""]","[""强她"",""弱她"",""强我"",""弱我""]","","","","","","","","yes","","","","","","","","","SRET","EW_formal","","key","f","6.944192622950826","768","428","朋友","君子","Positive","morality","","","","","","","","","","",""
"677","","j","psychophysics","61","181663","0.0-7.0-3.0-0.47","5","5","6","4","3","4","3","5","4","4","5","1","0","1","1","0","2","1","2","5","4","5","4","4","3","3","4","5","4","4","5","4","5","4","2","6","4","5","4","5","5","6","3","2","4","3","6","2","1","5","2","6","4","2","3","4","6","6","5","3","4","2","2","2","5","3","7","6","6","4","5","5","5","2","5","6","7","3","4","767772447134191618","吴","112","Female","[""好她"",""坏她"",""好我"",""坏我""]","[""强她"",""弱她"",""强我"",""弱我""]","","","","","","","","no","","","","","","","","","SRET","EW_formal","","key","j","6.9451618257262","768","428","朋友","无赖","Negative","morality","","","","","","","","","","",""
"749","","j","psychophysics","62","183413","0.0-7.0-3.0-0.48","5","5","6","4","3","4","3","5","4","4","5","1","0","1","1","0","2","1","2","5","4","5","4","4","3","3","4","5","4","4","5","4","5","4","2","6","4","5","4","5","5","6","3","2","4","3","6","2","1","5","2","6","4","2","3","4","6","6","5","3","4","2","2","2","5","3","7","6","6","4","5","5","5","2","5","6","7","3","4","767772447134191618","吴","112","Female","[""好她"",""坏她"",""好我"",""坏我""]","[""强她"",""弱她"",""强我"",""弱我""]","","","","","","","","no","","","","","","","","","SRET","EW_formal","","key","j","6.944784860557666","768","428","自己","差生","Negative","ability","","","","","","","","","","",""
"539","","f","psychophysics","63","184954","0.0-7.0-3.0-0.49","5","5","6","4","3","4","3","5","4","4","5","1","0","1","1","0","2","1","2","5","4","5","4","4","3","3","4","5","4","4","5","4","5","4","2","6","4","5","4","5","5","6","3","2","4","3","6","2","1","5","2","6","4","2","3","4","6","6","5","3","4","2","2","2","5","3","7","6","6","4","5","5","5","2","5","6","7","3","4","767772447134191618","吴","112","Female","[""好她"",""坏她"",""好我"",""坏我""]","[""强她"",""弱她"",""强我"",""弱我""]","","","","","","","","yes","","","","","","","","","SRET","EW_formal","","key","f","6.945167420814403","768","428","自己","厚道","Positive","morality","","","","","","","","","","",""
"648","","j","psychophysics","64","186604","0.0-7.0-3.0-0.50","5","5","6","4","3","4","3","5","4","4","5","1","0","1","1","0","2","1","2","5","4","5","4","4","3","3","4","5","4","4","5","4","5","4","2","6","4","5","4","5","5","6","3","2","4","3","6","2","1","5","2","6","4","2","3","4","6","6","5","3","4","2","2","2","5","3","7","6","6","4","5","5","5","2","5","6","7","3","4","767772447134191618","吴","112","Female","[""好她"",""坏她"",""好我"",""坏我""]","[""强她"",""弱她"",""强我"",""弱我""]","","","","","","","","no","","","","","","","","","SRET","EW_formal","","key","j","7.0949567099566995","768","428","自己","卑鄙","Negative","morality","","","","","","","","","","",""
"1127","","j","psychophysics","65","188734","0.0-7.0-3.0-0.51","5","5","6","4","3","4","3","5","4","4","5","1","0","1","1","0","2","1","2","5","4","5","4","4","3","3","4","5","4","4","5","4","5","4","2","6","4","5","4","5","5","6","3","2","4","3","6","2","1","5","2","6","4","2","3","4","6","6","5","3","4","2","2","2","5","3","7","6","6","4","5","5","5","2","5","6","7","3","4","767772447134191618","吴","112","Female","[""好她"",""坏她"",""好我"",""坏我""]","[""强她"",""弱她"",""强我"",""弱我""]","","","","","","","","no","","","","","","","","","SRET","EW_formal","","key","j","6.944104575163425","768","428","自己","全才","Positive","ability","","","","","","","","","","",""
"515","","f","psychophysics","66","190254","0.0-7.0-3.0-0.52","5","5","6","4","3","4","3","5","4","4","5","1","0","1","1","0","2","1","2","5","4","5","4","4","3","3","4","5","4","4","5","4","5","4","2","6","4","5","4","5","5","6","3","2","4","3","6","2","1","5","2","6","4","2","3","4","6","6","5","3","4","2","2","2","5","3","7","6","6","4","5","5","5","2","5","6","7","3","4","767772447134191618","吴","112","Female","[""好她"",""坏她"",""好我"",""坏我""]","[""强她"",""弱她"",""强我"",""弱我""]","","","","","","","","yes","","","","","","","","","SRET","EW_formal","","key","f","6.94324311926609","768","428","朋友","学霸","Positive","ability","","","","","","","","","","",""
"673","","f","psychophysics","67","191933","0.0-7.0-3.0-0.53","5","5","6","4","3","4","3","5","4","4","5","1","0","1","1","0","2","1","2","5","4","5","4","4","3","3","4","5","4","4","5","4","5","4","2","6","4","5","4","5","5","6","3","2","4","3","6","2","1","5","2","6","4","2","3","4","6","6","5","3","4","2","2","2","5","3","7","6","6","4","5","5","5","2","5","6","7","3","4","767772447134191618","吴","112","Female","[""好她"",""坏她"",""好我"",""坏我""]","[""强她"",""弱她"",""强我"",""弱我""]","","","","","","","","yes","","","","","","","","","SRET","EW_formal","","key","f","6.944360995850563","768","428","自己","稳健","Positive","ability","","","","","","","","","","",""
"579","","f","psychophysics","68","193515","0.0-7.0-3.0-0.54","5","5","6","4","3","4","3","5","4","4","5","1","0","1","1","0","2","1","2","5","4","5","4","4","3","3","4","5","4","4","5","4","5","4","2","6","4","5","4","5","5","6","3","2","4","3","6","2","1","5","2","6","4","2","3","4","6","6","5","3","4","2","2","2","5","3","7","6","6","4","5","5","5","2","5","6","7","3","4","767772447134191618","吴","112","Female","[""好她"",""坏她"",""好我"",""坏我""]","[""强她"",""弱她"",""强我"",""弱我""]","","","","","","","","yes","","","","","","","","","SRET","EW_formal","","key","f","6.943202643171758","768","428","朋友","努力","Positive","ability","","","","","","","","","","",""
"647","","j","psychophysics","69","195164","0.0-7.0-3.0-0.55","5","5","6","4","3","4","3","5","4","4","5","1","0","1","1","0","2","1","2","5","4","5","4","4","3","3","4","5","4","4","5","4","5","4","2","6","4","5","4","5","5","6","3","2","4","3","6","2","1","5","2","6","4","2","3","4","6","6","5","3","4","2","2","2","5","3","7","6","6","4","5","5","5","2","5","6","7","3","4","767772447134191618","吴","112","Female","[""好她"",""坏她"",""好我"",""坏我""]","[""强她"",""弱她"",""强我"",""弱我""]","","","","","","","","no","","","","","","","","","SRET","EW_formal","","key","j","6.944987288135562","768","428","自己","奸诈","Negative","morality","","","","","","","","","","",""
"586","","j","psychophysics","70","196755","0.0-7.0-3.0-0.56","5","5","6","4","3","4","3","5","4","4","5","1","0","1","1","0","2","1","2","5","4","5","4","4","3","3","4","5","4","4","5","4","5","4","2","6","4","5","4","5","5","6","3","2","4","3","6","2","1","5","2","6","4","2","3","4","6","6","5","3","4","2","2","2","5","3","7","6","6","4","5","5","5","2","5","6","7","3","4","767772447134191618","吴","112","Female","[""好她"",""坏她"",""好我"",""坏我""]","[""强她"",""弱她"",""强我"",""弱我""]","","","","","","","","no","","","","","","","","","SRET","EW_formal","","key","j","6.944460526315788","768","428","自己","混账","Negative","morality","","","","","","","","","","",""
"777","","f","psychophysics","71","198535","0.0-7.0-3.0-0.57","5","5","6","4","3","4","3","5","4","4","5","1","0","1","1","0","2","1","2","5","4","5","4","4","3","3","4","5","4","4","5","4","5","4","2","6","4","5","4","5","5","6","3","2","4","3","6","2","1","5","2","6","4","2","3","4","6","6","5","3","4","2","2","2","5","3","7","6","6","4","5","5","5","2","5","6","7","3","4","767772447134191618","吴","112","Female","[""好她"",""坏她"",""好我"",""坏我""]","[""强她"",""弱她"",""强我"",""弱我""]","","","","","","","","yes","","","","","","","","","SRET","EW_formal","","key","f","6.943773437499999","768","428","自己","扎实","Positive","ability","","","","","","","","","","",""
"647","","j","psychophysics","72","200184","0.0-7.0-3.0-0.58","5","5","6","4","3","4","3","5","4","4","5","1","0","1","1","0","2","1","2","5","4","5","4","4","3","3","4","5","4","4","5","4","5","4","2","6","4","5","4","5","5","6","3","2","4","3","6","2","1","5","2","6","4","2","3","4","6","6","5","3","4","2","2","2","5","3","7","6","6","4","5","5","5","2","5","6","7","3","4","767772447134191618","吴","112","Female","[""好她"",""坏她"",""好我"",""坏我""]","[""强她"",""弱她"",""强我"",""弱我""]","","","","","","","","no","","","","","","","","","SRET","EW_formal","","key","j","6.944516949152492","768","428","朋友","无耻","Negative","morality","","","","","","","","","","",""
"606","","f","psychophysics","73","201794","0.0-7.0-3.0-0.59","5","5","6","4","3","4","3","5","4","4","5","1","0","1","1","0","2","1","2","5","4","5","4","4","3","3","4","5","4","4","5","4","5","4","2","6","4","5","4","5","5","6","3","2","4","3","6","2","1","5","2","6","4","2","3","4","6","6","5","3","4","2","2","2","5","3","7","6","6","4","5","5","5","2","5","6","7","3","4","767772447134191618","吴","112","Female","[""好她"",""坏她"",""好我"",""坏我""]","[""强她"",""弱她"",""强我"",""弱我""]","","","","","","","","yes","","","","","","","","","SRET","EW_formal","","key","f","6.945160173160151","768","428","自己","义气","Positive","morality","","","","","","","","","","",""
"778","","j","psychophysics","74","203575","0.0-7.0-3.0-0.60","5","5","6","4","3","4","3","5","4","4","5","1","0","1","1","0","2","1","2","5","4","5","4","4","3","3","4","5","4","4","5","4","5","4","2","6","4","5","4","5","5","6","3","2","4","3","6","2","1","5","2","6","4","2","3","4","6","6","5","3","4","2","2","2","5","3","7","6","6","4","5","5","5","2","5","6","7","3","4","767772447134191618","吴","112","Female","[""好她"",""坏她"",""好我"",""坏我""]","[""强她"",""弱她"",""强我"",""弱我""]","","","","","","","","no","","","","","","","","","SRET","EW_formal","","key","j","6.9435468749999245","768","428","自己","短浅","Negative","ability","","","","","","","","","","",""
"625","","f","psychophysics","75","205204","0.0-7.0-3.0-0.61","5","5","6","4","3","4","3","5","4","4","5","1","0","1","1","0","2","1","2","5","4","5","4","4","3","3","4","5","4","4","5","4","5","4","2","6","4","5","4","5","5","6","3","2","4","3","6","2","1","5","2","6","4","2","3","4","6","6","5","3","4","2","2","2","5","3","7","6","6","4","5","5","5","2","5","6","7","3","4","767772447134191618","吴","112","Female","[""好她"",""坏她"",""好我"",""坏我""]","[""强她"",""弱她"",""强我"",""弱我""]","","","","","","","","yes","","","","","","","","","SRET","EW_formal","","key","f","6.94451502145929","768","428","朋友","忠诚","Positive","morality","","","","","","","","","","",""
"673","","f","psychophysics","76","206884","0.0-7.0-3.0-0.62","5","5","6","4","3","4","3","5","4","4","5","1","0","1","1","0","2","1","2","5","4","5","4","4","3","3","4","5","4","4","5","4","5","4","2","6","4","5","4","5","5","6","3","2","4","3","6","2","1","5","2","6","4","2","3","4","6","6","5","3","4","2","2","2","5","3","7","6","6","4","5","5","5","2","5","6","7","3","4","767772447134191618","吴","112","Female","[""好她"",""坏她"",""好我"",""坏我""]","[""强她"",""弱她"",""强我"",""弱我""]","","","","","","","","yes","","","","","","","","","SRET","EW_formal","","key","f","6.943721991701267","768","428","朋友","娴熟","Positive","ability","","","","","","","","","","",""
"508","","f","psychophysics","77","208395","0.0-7.0-3.0-0.63","5","5","6","4","3","4","3","5","4","4","5","1","0","1","1","0","2","1","2","5","4","5","4","4","3","3","4","5","4","4","5","4","5","4","2","6","4","5","4","5","5","6","3","2","4","3","6","2","1","5","2","6","4","2","3","4","6","6","5","3","4","2","2","2","5","3","7","6","6","4","5","5","5","2","5","6","7","3","4","767772447134191618","吴","112","Female","[""好她"",""坏她"",""好我"",""坏我""]","[""强她"",""弱她"",""强我"",""弱我""]","","","","","","","","yes","","","","","","","","","SRET","EW_formal","","key","f","6.94312903225813","768","428","朋友","忠良","Positive","morality","","","","","","","","","","",""
"727","","f","psychophysics","78","210124","0.0-7.0-3.0-0.64","5","5","6","4","3","4","3","5","4","4","5","1","0","1","1","0","2","1","2","5","4","5","4","4","3","3","4","5","4","4","5","4","5","4","2","6","4","5","4","5","5","6","3","2","4","3","6","2","1","5","2","6","4","2","3","4","6","6","5","3","4","2","2","2","5","3","7","6","6","4","5","5","5","2","5","6","7","3","4","767772447134191618","吴","112","Female","[""好她"",""坏她"",""好我"",""坏我""]","[""强她"",""弱她"",""强我"",""弱我""]","","","","","","","","yes","","","","","","","","","SRET","EW_formal","","key","f","6.9440887096773825","768","428","朋友","廉明","Positive","morality","","","","","","","","","","",""
"790","","f","psychophysics","79","211916","0.0-7.0-3.0-0.65","5","5","6","4","3","4","3","5","4","4","5","1","0","1","1","0","2","1","2","5","4","5","4","4","3","3","4","5","4","4","5","4","5","4","2","6","4","5","4","5","5","6","3","2","4","3","6","2","1","5","2","6","4","2","3","4","6","6","5","3","4","2","2","2","5","3","7","6","6","4","5","5","5","2","5","6","7","3","4","767772447134191618","吴","112","Female","[""好她"",""坏她"",""好我"",""坏我""]","[""强她"",""弱她"",""强我"",""弱我""]","","","","","","","","yes","","","","","","","","","SRET","EW_formal","","key","f","6.94381712062263","768","428","自己","刚正","Positive","morality","","","","","","","","","","",""
"587","","f","psychophysics","80","213505","0.0-7.0-3.0-0.66","5","5","6","4","3","4","3","5","4","4","5","1","0","1","1","0","2","1","2","5","4","5","4","4","3","3","4","5","4","4","5","4","5","4","2","6","4","5","4","5","5","6","3","2","4","3","6","2","1","5","2","6","4","2","3","4","6","6","5","3","4","2","2","2","5","3","7","6","6","4","5","5","5","2","5","6","7","3","4","767772447134191618","吴","112","Female","[""好她"",""坏她"",""好我"",""坏我""]","[""强她"",""弱她"",""强我"",""弱我""]","","","","","","","","yes","","","","","","","","","SRET","EW_formal","","key","f","6.944096491228137","768","428","自己","慷慨","Positive","morality","","","","","","","","","","",""
"608","","j","psychophysics","81","215115","0.0-7.0-3.0-0.67","5","5","6","4","3","4","3","5","4","4","5","1","0","1","1","0","2","1","2","5","4","5","4","4","3","3","4","5","4","4","5","4","5","4","2","6","4","5","4","5","5","6","3","2","4","3","6","2","1","5","2","6","4","2","3","4","6","6","5","3","4","2","2","2","5","3","7","6","6","4","5","5","5","2","5","6","7","3","4","767772447134191618","吴","112","Female","[""好她"",""坏她"",""好我"",""坏我""]","[""强她"",""弱她"",""强我"",""弱我""]","","","","","","","","no","","","","","","","","","SRET","EW_formal","","key","j","6.974426086956595","768","428","朋友","邪恶","Negative","morality","","","","","","","","","","",""
"686","","f","psychophysics","82","216803","0.0-7.0-3.0-0.68","5","5","6","4","3","4","3","5","4","4","5","1","0","1","1","0","2","1","2","5","4","5","4","4","3","3","4","5","4","4","5","4","5","4","2","6","4","5","4","5","5","6","3","2","4","3","6","2","1","5","2","6","4","2","3","4","6","6","5","3","4","2","2","2","5","3","7","6","6","4","5","5","5","2","5","6","7","3","4","767772447134191618","吴","112","Female","[""好她"",""坏她"",""好我"",""坏我""]","[""强她"",""弱她"",""强我"",""弱我""]","","","","","","","","yes","","","","","","","","","SRET","EW_formal","","key","f","6.944359504132246","768","428","自己","无私","Positive","morality","","","","","","","","","","",""
"577","","f","psychophysics","83","218383","0.0-7.0-3.0-0.69","5","5","6","4","3","4","3","5","4","4","5","1","0","1","1","0","2","1","2","5","4","5","4","4","3","3","4","5","4","4","5","4","5","4","2","6","4","5","4","5","5","6","3","2","4","3","6","2","1","5","2","6","4","2","3","4","6","6","5","3","4","2","2","2","5","3","7","6","6","4","5","5","5","2","5","6","7","3","4","767772447134191618","吴","112","Female","[""好她"",""坏她"",""好我"",""坏我""]","[""强她"",""弱她"",""强我"",""弱我""]","","","","","","","","yes","","","","","","","","","SRET","EW_formal","","key","f","6.9440663716814015","768","428","朋友","谦逊","Positive","morality","","","","","","","","","","",""
"828","","j","psychophysics","84","220213","0.0-7.0-3.0-0.70","5","5","6","4","3","4","3","5","4","4","5","1","0","1","1","0","2","1","2","5","4","5","4","4","3","3","4","5","4","4","5","4","5","4","2","6","4","5","4","5","5","6","3","2","4","3","6","2","1","5","2","6","4","2","3","4","6","6","5","3","4","2","2","2","5","3","7","6","6","4","5","5","5","2","5","6","7","3","4","767772447134191618","吴","112","Female","[""好她"",""坏她"",""好我"",""坏我""]","[""强她"",""弱她"",""强我"",""弱我""]","","","","","","","","no","","","","","","","","","SRET","EW_formal","","key","j","6.943878326996162","768","428","朋友","不仁","Negative","morality","","","","","","","","","","",""
"677","","j","psychophysics","85","221893","0.0-7.0-3.0-0.71","5","5","6","4","3","4","3","5","4","4","5","1","0","1","1","0","2","1","2","5","4","5","4","4","3","3","4","5","4","4","5","4","5","4","2","6","4","5","4","5","5","6","3","2","4","3","6","2","1","5","2","6","4","2","3","4","6","6","5","3","4","2","2","2","5","3","7","6","6","4","5","5","5","2","5","6","7","3","4","767772447134191618","吴","112","Female","[""好她"",""坏她"",""好我"",""坏我""]","[""强她"",""弱她"",""强我"",""弱我""]","","","","","","","","no","","","","","","","","","SRET","EW_formal","","key","j","6.944344398340247","768","428","朋友","盲目","Negative","ability","","","","","","","","","","",""
"608","","f","psychophysics","86","223503","0.0-7.0-3.0-0.72","5","5","6","4","3","4","3","5","4","4","5","1","0","1","1","0","2","1","2","5","4","5","4","4","3","3","4","5","4","4","5","4","5","4","2","6","4","5","4","5","5","6","3","2","4","3","6","2","1","5","2","6","4","2","3","4","6","6","5","3","4","2","2","2","5","3","7","6","6","4","5","5","5","2","5","6","7","3","4","767772447134191618","吴","112","Female","[""好她"",""坏她"",""好我"",""坏我""]","[""强她"",""弱她"",""强我"",""弱我""]","","","","","","","","yes","","","","","","","","","SRET","EW_formal","","key","f","6.945324675324655","768","428","朋友","懂行","Positive","ability","","","","","","","","","","",""
"1000","","j","psychophysics","87","225505","0.0-7.0-3.0-0.73","5","5","6","4","3","4","3","5","4","4","5","1","0","1","1","0","2","1","2","5","4","5","4","4","3","3","4","5","4","4","5","4","5","4","2","6","4","5","4","5","5","6","3","2","4","3","6","2","1","5","2","6","4","2","3","4","6","6","5","3","4","2","2","2","5","3","7","6","6","4","5","5","5","2","5","6","7","3","4","767772447134191618","吴","112","Female","[""好她"",""坏她"",""好我"",""坏我""]","[""强她"",""弱她"",""强我"",""弱我""]","","","","","","","","no","","","","","","","","","SRET","EW_formal","","key","j","6.944675958188164","768","428","自己","独断","Negative","ability","","","","","","","","","","",""
"627","","j","psychophysics","88","227134","0.0-7.0-3.0-0.74","5","5","6","4","3","4","3","5","4","4","5","1","0","1","1","0","2","1","2","5","4","5","4","4","3","3","4","5","4","4","5","4","5","4","2","6","4","5","4","5","5","6","3","2","4","3","6","2","1","5","2","6","4","2","3","4","6","6","5","3","4","2","2","2","5","3","7","6","6","4","5","5","5","2","5","6","7","3","4","767772447134191618","吴","112","Female","[""好她"",""坏她"",""好我"",""坏我""]","[""强她"",""弱她"",""强我"",""弱我""]","","","","","","","","no","","","","","","","","","SRET","EW_formal","","key","j","6.943846153846218","768","428","自己","黑心","Negative","morality","","","","","","","","","","",""
"568","","j","psychophysics","89","228704","0.0-7.0-3.0-0.75","5","5","6","4","3","4","3","5","4","4","5","1","0","1","1","0","2","1","2","5","4","5","4","4","3","3","4","5","4","4","5","4","5","4","2","6","4","5","4","5","5","6","3","2","4","3","6","2","1","5","2","6","4","2","3","4","6","6","5","3","4","2","2","2","5","3","7","6","6","4","5","5","5","2","5","6","7","3","4","767772447134191618","吴","112","Female","[""好她"",""坏她"",""好我"",""坏我""]","[""强她"",""弱她"",""强我"",""弱我""]","","","","","","","","no","","","","","","","","","SRET","EW_formal","","key","j","6.945568888888875","768","428","自己","失信","Negative","morality","","","","","","","","","","",""
"568","","j","psychophysics","90","230274","0.0-7.0-3.0-0.76","5","5","6","4","3","4","3","5","4","4","5","1","0","1","1","0","2","1","2","5","4","5","4","4","3","3","4","5","4","4","5","4","5","4","2","6","4","5","4","5","5","6","3","2","4","3","6","2","1","5","2","6","4","2","3","4","6","6","5","3","4","2","2","2","5","3","7","6","6","4","5","5","5","2","5","6","7","3","4","767772447134191618","吴","112","Female","[""好她"",""坏她"",""好我"",""坏我""]","[""强她"",""弱她"",""强我"",""弱我""]","","","","","","","","no","","","","","","","","","SRET","EW_formal","","key","j","6.944946666666591","768","428","自己","小人","Negative","morality","","","","","","","","","","",""
"1019","","j","psychophysics","91","232294","0.0-7.0-3.0-0.77","5","5","6","4","3","4","3","5","4","4","5","1","0","1","1","0","2","1","2","5","4","5","4","4","3","3","4","5","4","4","5","4","5","4","2","6","4","5","4","5","5","6","3","2","4","3","6","2","1","5","2","6","4","2","3","4","6","6","5","3","4","2","2","2","5","3","7","6","6","4","5","5","5","2","5","6","7","3","4","767772447134191618","吴","112","Female","[""好她"",""坏她"",""好我"",""坏我""]","[""强她"",""弱她"",""强我"",""弱我""]","","","","","","","","no","","","","","","","","","SRET","EW_formal","","key","j","6.944486206896595","768","428","朋友","犹豫","Negative","ability","","","","","","","","","","",""
"738","","j","psychophysics","92","234033","0.0-7.0-3.0-0.78","5","5","6","4","3","4","3","5","4","4","5","1","0","1","1","0","2","1","2","5","4","5","4","4","3","3","4","5","4","4","5","4","5","4","2","6","4","5","4","5","5","6","3","2","4","3","6","2","1","5","2","6","4","2","3","4","6","6","5","3","4","2","2","2","5","3","7","6","6","4","5","5","5","2","5","6","7","3","4","767772447134191618","吴","112","Female","[""好她"",""坏她"",""好我"",""坏我""]","[""强她"",""弱她"",""强我"",""弱我""]","","","","","","","","no","","","","","","","","","SRET","EW_formal","","key","j","6.943883534136553","768","428","朋友","弱智","Negative","ability","","","","","","","","","","",""
"735","","j","psychophysics","93","235774","0.0-7.0-3.0-0.79","5","5","6","4","3","4","3","5","4","4","5","1","0","1","1","0","2","1","2","5","4","5","4","4","3","3","4","5","4","4","5","4","5","4","2","6","4","5","4","5","5","6","3","2","4","3","6","2","1","5","2","6","4","2","3","4","6","6","5","3","4","2","2","2","5","3","7","6","6","4","5","5","5","2","5","6","7","3","4","767772447134191618","吴","112","Female","[""好她"",""坏她"",""好我"",""坏我""]","[""强她"",""弱她"",""强我"",""弱我""]","","","","","","","","no","","","","","","","","","SRET","EW_formal","","key","j","6.945043999999994","768","428","自己","拙笨","Negative","ability","","","","","","","","","","",""
"668","","j","psychophysics","94","237444","0.0-7.0-3.0-0.80","5","5","6","4","3","4","3","5","4","4","5","1","0","1","1","0","2","1","2","5","4","5","4","4","3","3","4","5","4","4","5","4","5","4","2","6","4","5","4","5","5","6","3","2","4","3","6","2","1","5","2","6","4","2","3","4","6","6","5","3","4","2","2","2","5","3","7","6","6","4","5","5","5","2","5","6","7","3","4","767772447134191618","吴","112","Female","[""好她"",""坏她"",""好我"",""坏我""]","[""强她"",""弱她"",""强我"",""弱我""]","","","","","","","","no","","","","","","","","","SRET","EW_formal","","key","j","6.945079497907995","768","428","自己","驽钝","Negative","ability","","","","","","","","","","",""
"577","","f","psychophysics","95","239023","0.0-7.0-3.0-0.81","5","5","6","4","3","4","3","5","4","4","5","1","0","1","1","0","2","1","2","5","4","5","4","4","3","3","4","5","4","4","5","4","5","4","2","6","4","5","4","5","5","6","3","2","4","3","6","2","1","5","2","6","4","2","3","4","6","6","5","3","4","2","2","2","5","3","7","6","6","4","5","5","5","2","5","6","7","3","4","767772447134191618","吴","112","Female","[""好她"",""坏她"",""好我"",""坏我""]","[""强她"",""弱她"",""强我"",""弱我""]","","","","","","","","yes","","","","","","","","","SRET","EW_formal","","key","f","6.943506607929545","768","428","自己","诚信","Positive","morality","","","","","","","","","","",""
"589","","f","psychophysics","96","240614","0.0-7.0-3.0-0.82","5","5","6","4","3","4","3","5","4","4","5","1","0","1","1","0","2","1","2","5","4","5","4","4","3","3","4","5","4","4","5","4","5","4","2","6","4","5","4","5","5","6","3","2","4","3","6","2","1","5","2","6","4","2","3","4","6","6","5","3","4","2","2","2","5","3","7","6","6","4","5","5","5","2","5","6","7","3","4","767772447134191618","吴","112","Female","[""好她"",""坏她"",""好我"",""坏我""]","[""强她"",""弱她"",""强我"",""弱我""]","","","","","","","","yes","","","","","","","","","SRET","EW_formal","","key","f","6.9446403508771795","768","428","朋友","守信","Positive","morality","","","","","","","","","","",""
"747","","j","psychophysics","97","242363","0.0-7.0-3.0-0.83","5","5","6","4","3","4","3","5","4","4","5","1","0","1","1","0","2","1","2","5","4","5","4","4","3","3","4","5","4","4","5","4","5","4","2","6","4","5","4","5","5","6","3","2","4","3","6","2","1","5","2","6","4","2","3","4","6","6","5","3","4","2","2","2","5","3","7","6","6","4","5","5","5","2","5","6","7","3","4","767772447134191618","吴","112","Female","[""好她"",""坏她"",""好我"",""坏我""]","[""强她"",""弱她"",""强我"",""弱我""]","","","","","","","","no","","","","","","","","","SRET","EW_formal","","key","j","6.944115537848599","768","428","朋友","拜金","Negative","morality","","","","","","","","","","",""
"549","","j","psychophysics","98","243914","0.0-7.0-3.0-0.84","5","5","6","4","3","4","3","5","4","4","5","1","0","1","1","0","2","1","2","5","4","5","4","4","3","3","4","5","4","4","5","4","5","4","2","6","4","5","4","5","5","6","3","2","4","3","6","2","1","5","2","6","4","2","3","4","6","6","5","3","4","2","2","2","5","3","7","6","6","4","5","5","5","2","5","6","7","3","4","767772447134191618","吴","112","Female","[""好她"",""坏她"",""好我"",""坏我""]","[""强她"",""弱她"",""强我"",""弱我""]","","","","","","","","no","","","","","","","","","SRET","EW_formal","","key","j","6.9444189189188865","768","428","朋友","低俗","Negative","morality","","","","","","","","","","",""
"663","","f","psychophysics","99","245582","0.0-7.0-3.0-0.85","5","5","6","4","3","4","3","5","4","4","5","1","0","1","1","0","2","1","2","5","4","5","4","4","3","3","4","5","4","4","5","4","5","4","2","6","4","5","4","5","5","6","3","2","4","3","6","2","1","5","2","6","4","2","3","4","6","6","5","3","4","2","2","2","5","3","7","6","6","4","5","5","5","2","5","6","7","3","4","767772447134191618","吴","112","Female","[""好她"",""坏她"",""好我"",""坏我""]","[""强她"",""弱她"",""强我"",""弱我""]","","","","","","","","yes","","","","","","","","","SRET","EW_formal","","key","f","6.943404166666611","768","428","朋友","素养","Positive","morality","","","","","","","","","","",""
"510","","f","psychophysics","100","247095","0.0-7.0-3.0-0.86","5","5","6","4","3","4","3","5","4","4","5","1","0","1","1","0","2","1","2","5","4","5","4","4","3","3","4","5","4","4","5","4","5","4","2","6","4","5","4","5","5","6","3","2","4","3","6","2","1","5","2","6","4","2","3","4","6","6","5","3","4","2","2","2","5","3","7","6","6","4","5","5","5","2","5","6","7","3","4","767772447134191618","吴","112","Female","[""好她"",""坏她"",""好我"",""坏我""]","[""强她"",""弱她"",""强我"",""弱我""]","","","","","","","","yes","","","","","","","","","SRET","EW_formal","","key","f","6.944555555555578","768","428","自己","主见","Positive","ability","","","","","","","","","","",""
"1164","","j","psychophysics","101","249263","0.0-7.0-3.0-0.87","5","5","6","4","3","4","3","5","4","4","5","1","0","1","1","0","2","1","2","5","4","5","4","4","3","3","4","5","4","4","5","4","5","4","2","6","4","5","4","5","5","6","3","2","4","3","6","2","1","5","2","6","4","2","3","4","6","6","5","3","4","2","2","2","5","3","7","6","6","4","5","5","5","2","5","6","7","3","4","767772447134191618","吴","112","Female","[""好她"",""坏她"",""好我"",""坏我""]","[""强她"",""弱她"",""强我"",""弱我""]","","","","","","","","no","","","","","","","","","SRET","EW_formal","","key","j","6.944166666666719","768","428","自己","缓慢","Negative","ability","","","","","","","","","","",""
"6343","
    <p><div style='color:white;font-size:35px; line-height:20px;'>计算任务</div></p><br>
    <p><div style='color:red;font-size:25px; line-height:20px;'>接下来，您将看到一些四则运算题，<b>请从键盘选择 0-9 进行反应。</b></div></p>
    <p><div style='color:red;font-size:25px; line-height:20px;'>请尽可能快地进行计算，计算的速度和正确率将影响报酬的发放。</div></p>
    <p><div class='footer' style='color:white;font-size:25px; line-height:20px;'>如果对本实验还有不清楚之处，请立即向实验员咨询。</p><p style='color:white;font-size:25px; line-height:20px;'>如果您明白了规则：</p><p style='color:white;font-size:22px; line-height:20px;'>请按 继续 进入练习</p>
    </div>
    ","0","html-button-response","102","255607","0.0-7.0-4.0","5","5","6","4","3","4","3","5","4","4","5","1","0","1","1","0","2","1","2","5","4","5","4","4","3","3","4","5","4","4","5","4","5","4","2","6","4","5","4","5","5","6","3","2","4","3","6","2","1","5","2","6","4","2","3","4","6","6","5","3","4","2","2","2","5","3","7","6","6","4","5","5","5","2","5","6","7","3","4","767772447134191618","吴","112","Female","[""好她"",""坏她"",""好我"",""坏我""]","[""强她"",""弱她"",""强我"",""弱我""]","","","","","","","","","","","","","","","","","SRET_math","math_instructions","Sat Dec 09 2023 13:24:40 GMT+0800 (中国标准时间)","","","","","","","","","","","","","","","","","","","",""
"1742","","2","psychophysics","103","257353","0.0-7.0-5.0-0.0","5","5","6","4","3","4","3","5","4","4","5","1","0","1","1","0","2","1","2","5","4","5","4","4","3","3","4","5","4","4","5","4","5","4","2","6","4","5","4","5","5","6","3","2","4","3","6","2","1","5","2","6","4","2","3","4","6","6","5","3","4","2","2","2","5","3","7","6","6","4","5","5","5","2","5","6","7","3","4","767772447134191618","吴","112","Female","[""好她"",""坏她"",""好我"",""坏我""]","[""强她"",""弱她"",""强我"",""弱我""]","","","","","","","","2","","","","","","","","","SRET","SRET_math_calculate","","key","2","6.96696812749005","768","428","","","","","19-17= ?","2","1","","","","","","","",""
"1765","","5","psychophysics","104","259123","0.0-7.0-5.0-0.1","5","5","6","4","3","4","3","5","4","4","5","1","0","1","1","0","2","1","2","5","4","5","4","4","3","3","4","5","4","4","5","4","5","4","2","6","4","5","4","5","5","6","3","2","4","3","6","2","1","5","2","6","4","2","3","4","6","6","5","3","4","2","2","2","5","3","7","6","6","4","5","5","5","2","5","6","7","3","4","767772447134191618","吴","112","Female","[""好她"",""坏她"",""好我"",""坏我""]","[""强她"",""弱她"",""强我"",""弱我""]","","","","","","","","5","","","","","","","","","SRET","SRET_math_calculate","","key","5","6.9442716535433116","768","428","","","","","10-5= ?","5","1","","","","","","","",""
"1989","","9","psychophysics","105","261115","0.0-7.0-5.0-0.2","5","5","6","4","3","4","3","5","4","4","5","1","0","1","1","0","2","1","2","5","4","5","4","4","3","3","4","5","4","4","5","4","5","4","2","6","4","5","4","5","5","6","3","2","4","3","6","2","1","5","2","6","4","2","3","4","6","6","5","3","4","2","2","2","5","3","7","6","6","4","5","5","5","2","5","6","7","3","4","767772447134191618","吴","112","Female","[""好她"",""坏她"",""好我"",""坏我""]","[""强她"",""弱她"",""强我"",""弱我""]","","","","","","","","9","","","","","","","","","SRET","SRET_math_calculate","","key","9","6.944213286713332","768","428","","","","","18/2= ?","9","1","","","","","","","",""
"1905","","4","psychophysics","106","263023","0.0-7.0-5.0-0.3","5","5","6","4","3","4","3","5","4","4","5","1","0","1","1","0","2","1","2","5","4","5","4","4","3","3","4","5","4","4","5","4","5","4","2","6","4","5","4","5","5","6","3","2","4","3","6","2","1","5","2","6","4","2","3","4","6","6","5","3","4","2","2","2","5","3","7","6","6","4","5","5","5","2","5","6","7","3","4","767772447134191618","吴","112","Female","[""好她"",""坏她"",""好我"",""坏我""]","[""强她"",""弱她"",""强我"",""弱我""]","","","","","","","","4","","","","","","","","","SRET","SRET_math_calculate","","key","4","6.943959706959711","768","428","","","","","13-9= ?","4","1","","","","","","","",""
"1775","","8","psychophysics","107","264802","0.0-7.0-5.0-0.4","5","5","6","4","3","4","3","5","4","4","5","1","0","1","1","0","2","1","2","5","4","5","4","4","3","3","4","5","4","4","5","4","5","4","2","6","4","5","4","5","5","6","3","2","4","3","6","2","1","5","2","6","4","2","3","4","6","6","5","3","4","2","2","2","5","3","7","6","6","4","5","5","5","2","5","6","7","3","4","767772447134191618","吴","112","Female","[""好她"",""坏她"",""好我"",""坏我""]","[""强她"",""弱她"",""强我"",""弱我""]","","","","","","","","8","","","","","","","","","SRET","SRET_math_calculate","","key","8","6.9425937500000146","768","428","","","","","6+2= ?","8","1","","","","","","","",""
"1880","","9","psychophysics","108","266684","0.0-7.0-5.0-0.5","5","5","6","4","3","4","3","5","4","4","5","1","0","1","1","0","2","1","2","5","4","5","4","4","3","3","4","5","4","4","5","4","5","4","2","6","4","5","4","5","5","6","3","2","4","3","6","2","1","5","2","6","4","2","3","4","6","6","5","3","4","2","2","2","5","3","7","6","6","4","5","5","5","2","5","6","7","3","4","767772447134191618","吴","112","Female","[""好她"",""坏她"",""好我"",""坏我""]","[""强她"",""弱她"",""强我"",""弱我""]","","","","","","","","9","","","","","","","","","SRET","SRET_math_calculate","","key","9","6.944096296296144","768","428","","","","","3*3= ?","9","1","","","","","","","",""
"1788","","4","psychophysics","109","268475","0.0-7.0-5.0-0.6","5","5","6","4","3","4","3","5","4","4","5","1","0","1","1","0","2","1","2","5","4","5","4","4","3","3","4","5","4","4","5","4","5","4","2","6","4","5","4","5","5","6","3","2","4","3","6","2","1","5","2","6","4","2","3","4","6","6","5","3","4","2","2","2","5","3","7","6","6","4","5","5","5","2","5","6","7","3","4","767772447134191618","吴","112","Female","[""好她"",""坏她"",""好我"",""坏我""]","[""强她"",""弱她"",""强我"",""弱我""]","","","","","","","","4","","","","","","","","","SRET","SRET_math_calculate","","key","4","6.943871595330784","768","428","","","","","3+1= ?","4","1","","","","","","","",""
"2036","","0","psychophysics","110","270514","0.0-7.0-5.0-0.7","5","5","6","4","3","4","3","5","4","4","5","1","0","1","1","0","2","1","2","5","4","5","4","4","3","3","4","5","4","4","5","4","5","4","2","6","4","5","4","5","5","6","3","2","4","3","6","2","1","5","2","6","4","2","3","4","6","6","5","3","4","2","2","2","5","3","7","6","6","4","5","5","5","2","5","6","7","3","4","767772447134191618","吴","112","Female","[""好她"",""坏她"",""好我"",""坏我""]","[""强她"",""弱她"",""强我"",""弱我""]","","","","","","","","0","","","","","","","","","SRET","SRET_math_calculate","","key","0","6.944027397260133","768","428","","","","","9-9= ?","0","1","","","","","","","",""
"1903","","2","psychophysics","111","272425","0.0-7.0-5.0-0.8","5","5","6","4","3","4","3","5","4","4","5","1","0","1","1","0","2","1","2","5","4","5","4","4","3","3","4","5","4","4","5","4","5","4","2","6","4","5","4","5","5","6","3","2","4","3","6","2","1","5","2","6","4","2","3","4","6","6","5","3","4","2","2","2","5","3","7","6","6","4","5","5","5","2","5","6","7","3","4","767772447134191618","吴","112","Female","[""好她"",""坏她"",""好我"",""坏我""]","[""强她"",""弱她"",""强我"",""弱我""]","","","","","","","","2","","","","","","","","","SRET","SRET_math_calculate","","key","2","6.945182481751969","768","428","","","","","8-5= ?","3","0","","","","","","","",""
"2721","","8","psychophysics","112","275154","0.0-7.0-5.0-0.9","5","5","6","4","3","4","3","5","4","4","5","1","0","1","1","0","2","1","2","5","4","5","4","4","3","3","4","5","4","4","5","4","5","4","2","6","4","5","4","5","5","6","3","2","4","3","6","2","1","5","2","6","4","2","3","4","6","6","5","3","4","2","2","2","5","3","7","6","6","4","5","5","5","2","5","6","7","3","4","767772447134191618","吴","112","Female","[""好她"",""坏她"",""好我"",""坏我""]","[""强她"",""弱她"",""强我"",""弱我""]","","","","","","","","8","","","","","","","","","SRET","SRET_math_calculate","","key","8","6.943587786259584","768","428","","","","","13-5= ?","8","1","","","","","","","",""
"2336","","1","psychophysics","113","277494","0.0-7.0-5.0-0.10","5","5","6","4","3","4","3","5","4","4","5","1","0","1","1","0","2","1","2","5","4","5","4","4","3","3","4","5","4","4","5","4","5","4","2","6","4","5","4","5","5","6","3","2","4","3","6","2","1","5","2","6","4","2","3","4","6","6","5","3","4","2","2","2","5","3","7","6","6","4","5","5","5","2","5","6","7","3","4","767772447134191618","吴","112","Female","[""好她"",""坏她"",""好我"",""坏我""]","[""强她"",""弱她"",""强我"",""弱我""]","","","","","","","","1","","","","","","","","","SRET","SRET_math_calculate","","key","1","6.94436716417914","768","428","","","","","10-9= ?","1","1","","","","","","","",""
"2025","","2","psychophysics","114","279523","0.0-7.0-5.0-0.11","5","5","6","4","3","4","3","5","4","4","5","1","0","1","1","0","2","1","2","5","4","5","4","4","3","3","4","5","4","4","5","4","5","4","2","6","4","5","4","5","5","6","3","2","4","3","6","2","1","5","2","6","4","2","3","4","6","6","5","3","4","2","2","2","5","3","7","6","6","4","5","5","5","2","5","6","7","3","4","767772447134191618","吴","112","Female","[""好她"",""坏她"",""好我"",""坏我""]","[""强她"",""弱她"",""强我"",""弱我""]","","","","","","","","2","","","","","","","","","SRET","SRET_math_calculate","","key","2","6.943578767123367","768","428","","","","","18/9= ?","2","1","","","","","","","",""
"1958","","2","psychophysics","115","281483","0.0-7.0-5.0-0.12","5","5","6","4","3","4","3","5","4","4","5","1","0","1","1","0","2","1","2","5","4","5","4","4","3","3","4","5","4","4","5","4","5","4","2","6","4","5","4","5","5","6","3","2","4","3","6","2","1","5","2","6","4","2","3","4","6","6","5","3","4","2","2","2","5","3","7","6","6","4","5","5","5","2","5","6","7","3","4","767772447134191618","吴","112","Female","[""好她"",""坏她"",""好我"",""坏我""]","[""强她"",""弱她"",""强我"",""弱我""]","","","","","","","","2","","","","","","","","","SRET","SRET_math_calculate","","key","2","6.944256227758044","768","428","","","","","5-3= ?","2","1","","","","","","","",""
"2011","","5","psychophysics","116","283503","0.0-7.0-5.0-0.13","5","5","6","4","3","4","3","5","4","4","5","1","0","1","1","0","2","1","2","5","4","5","4","4","3","3","4","5","4","4","5","4","5","4","2","6","4","5","4","5","5","6","3","2","4","3","6","2","1","5","2","6","4","2","3","4","6","6","5","3","4","2","2","2","5","3","7","6","6","4","5","5","5","2","5","6","7","3","4","767772447134191618","吴","112","Female","[""好她"",""坏她"",""好我"",""坏我""]","[""强她"",""弱她"",""强我"",""弱我""]","","","","","","","","5","","","","","","","","","SRET","SRET_math_calculate","","key","5","6.944886206896526","768","428","","","","","14-9= ?","5","1","","","","","","","",""
"1991","","2","psychophysics","117","285504","0.0-7.0-5.0-0.14","5","5","6","4","3","4","3","5","4","4","5","1","0","1","1","0","2","1","2","5","4","5","4","4","3","3","4","5","4","4","5","4","5","4","2","6","4","5","4","5","5","6","3","2","4","3","6","2","1","5","2","6","4","2","3","4","6","6","5","3","4","2","2","2","5","3","7","6","6","4","5","5","5","2","5","6","7","3","4","767772447134191618","吴","112","Female","[""好她"",""坏她"",""好我"",""坏我""]","[""强她"",""弱她"",""强我"",""弱我""]","","","","","","","","2","","","","","","","","","SRET","SRET_math_calculate","","key","2","6.944243902439099","768","428","","","","","29-27= ?","2","1","","","","","","","",""
"1859","","6","psychophysics","118","287373","0.0-7.0-5.0-0.15","5","5","6","4","3","4","3","5","4","4","5","1","0","1","1","0","2","1","2","5","4","5","4","4","3","3","4","5","4","4","5","4","5","4","2","6","4","5","4","5","5","6","3","2","4","3","6","2","1","5","2","6","4","2","3","4","6","6","5","3","4","2","2","2","5","3","7","6","6","4","5","5","5","2","5","6","7","3","4","767772447134191618","吴","112","Female","[""好她"",""坏她"",""好我"",""坏我""]","[""强她"",""弱她"",""强我"",""弱我""]","","","","","","","","6","","","","","","","","","SRET","SRET_math_calculate","","key","6","6.943664179104484","768","428","","","","","3*2= ?","6","1","","","","","","","",""
"2224","","0","psychophysics","119","289603","0.0-7.0-5.0-0.16","5","5","6","4","3","4","3","5","4","4","5","1","0","1","1","0","2","1","2","5","4","5","4","4","3","3","4","5","4","4","5","4","5","4","2","6","4","5","4","5","5","6","3","2","4","3","6","2","1","5","2","6","4","2","3","4","6","6","5","3","4","2","2","2","5","3","7","6","6","4","5","5","5","2","5","6","7","3","4","767772447134191618","吴","112","Female","[""好她"",""坏她"",""好我"",""坏我""]","[""强她"",""弱她"",""强我"",""弱我""]","","","","","","","","0","","","","","","","","","SRET","SRET_math_calculate","","key","0","6.943255451713316","768","428","","","","","6*0= ?","0","1","","","","","","","",""
"1889","","0","psychophysics","120","291493","0.0-7.0-5.0-0.17","5","5","6","4","3","4","3","5","4","4","5","1","0","1","1","0","2","1","2","5","4","5","4","4","3","3","4","5","4","4","5","4","5","4","2","6","4","5","4","5","5","6","3","2","4","3","6","2","1","5","2","6","4","2","3","4","6","6","5","3","4","2","2","2","5","3","7","6","6","4","5","5","5","2","5","6","7","3","4","767772447134191618","吴","112","Female","[""好她"",""坏她"",""好我"",""坏我""]","[""强她"",""弱她"",""强我"",""弱我""]","","","","","","","","0","","","","","","","","","SRET","SRET_math_calculate","","key","0","6.9445424354244265","768","428","","","","","22-22= ?","0","1","","","","","","","",""
"2028","","7","psychophysics","121","293523","0.0-7.0-5.0-0.18","5","5","6","4","3","4","3","5","4","4","5","1","0","1","1","0","2","1","2","5","4","5","4","4","3","3","4","5","4","4","5","4","5","4","2","6","4","5","4","5","5","6","3","2","4","3","6","2","1","5","2","6","4","2","3","4","6","6","5","3","4","2","2","2","5","3","7","6","6","4","5","5","5","2","5","6","7","3","4","767772447134191618","吴","112","Female","[""好她"",""坏她"",""好我"",""坏我""]","[""强她"",""弱她"",""强我"",""弱我""]","","","","","","","","7","","","","","","","","","SRET","SRET_math_calculate","","key","7","6.944831615120262","768","428","","","","","13-6= ?","7","1","","","","","","","",""
"1938","","7","psychophysics","122","295463","0.0-7.0-5.0-0.19","5","5","6","4","3","4","3","5","4","4","5","1","0","1","1","0","2","1","2","5","4","5","4","4","3","3","4","5","4","4","5","4","5","4","2","6","4","5","4","5","5","6","3","2","4","3","6","2","1","5","2","6","4","2","3","4","6","6","5","3","4","2","2","2","5","3","7","6","6","4","5","5","5","2","5","6","7","3","4","767772447134191618","吴","112","Female","[""好她"",""坏她"",""好我"",""坏我""]","[""强她"",""弱她"",""强我"",""弱我""]","","","","","","","","7","","","","","","","","","SRET","SRET_math_calculate","","key","7","6.943723021582667","768","428","","","","","1+6= ?","7","1","","","","","","","",""
"2105","","8","psychophysics","123","297572","0.0-7.0-5.0-0.20","5","5","6","4","3","4","3","5","4","4","5","1","0","1","1","0","2","1","2","5","4","5","4","4","3","3","4","5","4","4","5","4","5","4","2","6","4","5","4","5","5","6","3","2","4","3","6","2","1","5","2","6","4","2","3","4","6","6","5","3","4","2","2","2","5","3","7","6","6","4","5","5","5","2","5","6","7","3","4","767772447134191618","吴","112","Female","[""好她"",""坏她"",""好我"",""坏我""]","[""强她"",""弱她"",""强我"",""弱我""]","","","","","","","","8","","","","","","","","","SRET","SRET_math_calculate","","key","8","6.943584158415899","768","428","","","","","2+6= ?","8","1","","","","","","","",""
"2302","","6","psychophysics","124","299882","0.0-7.0-5.0-0.21","5","5","6","4","3","4","3","5","4","4","5","1","0","1","1","0","2","1","2","5","4","5","4","4","3","3","4","5","4","4","5","4","5","4","2","6","4","5","4","5","5","6","3","2","4","3","6","2","1","5","2","6","4","2","3","4","6","6","5","3","4","2","2","2","5","3","7","6","6","4","5","5","5","2","5","6","7","3","4","767772447134191618","吴","112","Female","[""好她"",""坏她"",""好我"",""坏我""]","[""强她"",""弱她"",""强我"",""弱我""]","","","","","","","","6","","","","","","","","","SRET","SRET_math_calculate","","key","6","6.94385542168688","768","428","","","","","8-2= ?","6","1","","","","","","","",""
"2029","","5","psychophysics","125","301915","0.0-7.0-5.0-0.22","5","5","6","4","3","4","3","5","4","4","5","1","0","1","1","0","2","1","2","5","4","5","4","4","3","3","4","5","4","4","5","4","5","4","2","6","4","5","4","5","5","6","3","2","4","3","6","2","1","5","2","6","4","2","3","4","6","6","5","3","4","2","2","2","5","3","7","6","6","4","5","5","5","2","5","6","7","3","4","767772447134191618","吴","112","Female","[""好她"",""坏她"",""好我"",""坏我""]","[""强她"",""弱她"",""强我"",""弱我""]","","","","","","","","5","","","","","","","","","SRET","SRET_math_calculate","","key","5","6.943791095890409","768","428","","","","","15-10= ?","5","1","","","","","","","",""
"2346","","2","psychophysics","126","304264","0.0-7.0-5.0-0.23","5","5","6","4","3","4","3","5","4","4","5","1","0","1","1","0","2","1","2","5","4","5","4","4","3","3","4","5","4","4","5","4","5","4","2","6","4","5","4","5","5","6","3","2","4","3","6","2","1","5","2","6","4","2","3","4","6","6","5","3","4","2","2","2","5","3","7","6","6","4","5","5","5","2","5","6","7","3","4","767772447134191618","吴","112","Female","[""好她"",""坏她"",""好我"",""坏我""]","[""强她"",""弱她"",""强我"",""弱我""]","","","","","","","","2","","","","","","","","","SRET","SRET_math_calculate","","key","2","6.944462908011825","768","428","","","","","1+1= ?","2","1","","","","","","","",""
"2018","","7","psychophysics","127","306284","0.0-7.0-5.0-0.24","5","5","6","4","3","4","3","5","4","4","5","1","0","1","1","0","2","1","2","5","4","5","4","4","3","3","4","5","4","4","5","4","5","4","2","6","4","5","4","5","5","6","3","2","4","3","6","2","1","5","2","6","4","2","3","4","6","6","5","3","4","2","2","2","5","3","7","6","6","4","5","5","5","2","5","6","7","3","4","767772447134191618","吴","112","Female","[""好她"",""坏她"",""好我"",""坏我""]","[""强她"",""弱她"",""强我"",""弱我""]","","","","","","","","7","","","","","","","","","SRET","SRET_math_calculate","","key","7","6.944172413793096","768","428","","","","","3+4= ?","7","1","","","","","","","",""
"1835","","2","psychophysics","128","308124","0.0-7.0-5.0-0.25","5","5","6","4","3","4","3","5","4","4","5","1","0","1","1","0","2","1","2","5","4","5","4","4","3","3","4","5","4","4","5","4","5","4","2","6","4","5","4","5","5","6","3","2","4","3","6","2","1","5","2","6","4","2","3","4","6","6","5","3","4","2","2","2","5","3","7","6","6","4","5","5","5","2","5","6","7","3","4","767772447134191618","吴","112","Female","[""好她"",""坏她"",""好我"",""坏我""]","[""强她"",""弱她"",""强我"",""弱我""]","","","","","","","","2","","","","","","","","","SRET","SRET_math_calculate","","key","2","6.944291666666686","768","428","","","","","9-7= ?","2","1","","","","","","","",""
"1836","","9","psychophysics","129","309963","0.0-7.0-5.0-0.26","5","5","6","4","3","4","3","5","4","4","5","1","0","1","1","0","2","1","2","5","4","5","4","4","3","3","4","5","4","4","5","4","5","4","2","6","4","5","4","5","5","6","3","2","4","3","6","2","1","5","2","6","4","2","3","4","6","6","5","3","4","2","2","2","5","3","7","6","6","4","5","5","5","2","5","6","7","3","4","767772447134191618","吴","112","Female","[""好她"",""坏她"",""好我"",""坏我""]","[""强她"",""弱她"",""强我"",""弱我""]","","","","","","","","9","","","","","","","","","SRET","SRET_math_calculate","","key","9","6.944909090909112","768","428","","","","","7+2= ?","9","1","","","","","","","",""
"1924","","0","psychophysics","130","311893","0.0-7.0-5.0-0.27","5","5","6","4","3","4","3","5","4","4","5","1","0","1","1","0","2","1","2","5","4","5","4","4","3","3","4","5","4","4","5","4","5","4","2","6","4","5","4","5","5","6","3","2","4","3","6","2","1","5","2","6","4","2","3","4","6","6","5","3","4","2","2","2","5","3","7","6","6","4","5","5","5","2","5","6","7","3","4","767772447134191618","吴","112","Female","[""好她"",""坏她"",""好我"",""坏我""]","[""强她"",""弱她"",""强我"",""弱我""]","","","","","","","","0","","","","","","","","","SRET","SRET_math_calculate","","key","0","6.9438880866425805","768","428","","","","","5*0= ?","0","1","","","","","","","",""
"1747","","0","psychophysics","131","313642","0.0-7.0-5.0-0.28","5","5","6","4","3","4","3","5","4","4","5","1","0","1","1","0","2","1","2","5","4","5","4","4","3","3","4","5","4","4","5","4","5","4","2","6","4","5","4","5","5","6","3","2","4","3","6","2","1","5","2","6","4","2","3","4","6","6","5","3","4","2","2","2","5","3","7","6","6","4","5","5","5","2","5","6","7","3","4","767772447134191618","吴","112","Female","[""好她"",""坏她"",""好我"",""坏我""]","[""强她"",""弱她"",""强我"",""弱我""]","","","","","","","","0","","","","","","","","","SRET","SRET_math_calculate","","key","0","6.94413545816711","768","428","","","","","7*0= ?","0","1","","","","","","","",""
"1949","","6","psychophysics","132","315593","0.0-7.0-5.0-0.29","5","5","6","4","3","4","3","5","4","4","5","1","0","1","1","0","2","1","2","5","4","5","4","4","3","3","4","5","4","4","5","4","5","4","2","6","4","5","4","5","5","6","3","2","4","3","6","2","1","5","2","6","4","2","3","4","6","6","5","3","4","2","2","2","5","3","7","6","6","4","5","5","5","2","5","6","7","3","4","767772447134191618","吴","112","Female","[""好她"",""坏她"",""好我"",""坏我""]","[""强她"",""弱她"",""强我"",""弱我""]","","","","","","","","6","","","","","","","","","SRET","SRET_math_calculate","","key","6","6.945100000000093","768","428","","","","","11-5= ?","6","1","","","","","","","",""
"2598","","1","psychophysics","133","318193","0.0-7.0-5.0-0.30","5","5","6","4","3","4","3","5","4","4","5","1","0","1","1","0","2","1","2","5","4","5","4","4","3","3","4","5","4","4","5","4","5","4","2","6","4","5","4","5","5","6","3","2","4","3","6","2","1","5","2","6","4","2","3","4","6","6","5","3","4","2","2","2","5","3","7","6","6","4","5","5","5","2","5","6","7","3","4","767772447134191618","吴","112","Female","[""好她"",""坏她"",""好我"",""坏我""]","[""强她"",""弱她"",""强我"",""弱我""]","","","","","","","","1","","","","","","","","","SRET","SRET_math_calculate","","key","1","6.943946380697062","768","428","","","","","4/4= ?","1","1","","","","","","","",""
"2012","","8","psychophysics","134","320213","0.0-7.0-5.0-0.31","5","5","6","4","3","4","3","5","4","4","5","1","0","1","1","0","2","1","2","5","4","5","4","4","3","3","4","5","4","4","5","4","5","4","2","6","4","5","4","5","5","6","3","2","4","3","6","2","1","5","2","6","4","2","3","4","6","6","5","3","4","2","2","2","5","3","7","6","6","4","5","5","5","2","5","6","7","3","4","767772447134191618","吴","112","Female","[""好她"",""坏她"",""好我"",""坏我""]","[""强她"",""弱她"",""强我"",""弱我""]","","","","","","","","8","","","","","","","","","SRET","SRET_math_calculate","","key","8","6.944658620689658","768","428","","","","","56/7= ?","8","1","","","","","","","",""
"2157","","3","psychophysics","135","322373","0.0-7.0-5.0-0.32","5","5","6","4","3","4","3","5","4","4","5","1","0","1","1","0","2","1","2","5","4","5","4","4","3","3","4","5","4","4","5","4","5","4","2","6","4","5","4","5","5","6","3","2","4","3","6","2","1","5","2","6","4","2","3","4","6","6","5","3","4","2","2","2","5","3","7","6","6","4","5","5","5","2","5","6","7","3","4","767772447134191618","吴","112","Female","[""好她"",""坏她"",""好我"",""坏我""]","[""强她"",""弱她"",""强我"",""弱我""]","","","","","","","","3","","","","","","","","","SRET","SRET_math_calculate","","key","3","6.944283870967751","768","428","","","","","6/2= ?","3","1","","","","","","","",""
"1820","","2","psychophysics","136","324195","0.0-7.0-5.0-0.33","5","5","6","4","3","4","3","5","4","4","5","1","0","1","1","0","2","1","2","5","4","5","4","4","3","3","4","5","4","4","5","4","5","4","2","6","4","5","4","5","5","6","3","2","4","3","6","2","1","5","2","6","4","2","3","4","6","6","5","3","4","2","2","2","5","3","7","6","6","4","5","5","5","2","5","6","7","3","4","767772447134191618","吴","112","Female","[""好她"",""坏她"",""好我"",""坏我""]","[""强她"",""弱她"",""强我"",""弱我""]","","","","","","","","2","","","","","","","","","SRET","SRET_math_calculate","","key","2","6.943393129770971","768","428","","","","","8-6= ?","2","1","","","","","","","",""
"2025","","8","psychophysics","137","326224","0.0-7.0-5.0-0.34","5","5","6","4","3","4","3","5","4","4","5","1","0","1","1","0","2","1","2","5","4","5","4","4","3","3","4","5","4","4","5","4","5","4","2","6","4","5","4","5","5","6","3","2","4","3","6","2","1","5","2","6","4","2","3","4","6","6","5","3","4","2","2","2","5","3","7","6","6","4","5","5","5","2","5","6","7","3","4","767772447134191618","吴","112","Female","[""好她"",""坏她"",""好我"",""坏我""]","[""强她"",""弱她"",""强我"",""弱我""]","","","","","","","","8","","","","","","","","","SRET","SRET_math_calculate","","key","8","6.944020618556773","768","428","","","","","50-42= ?","8","1","","","","","","","",""
"2076","","7","psychophysics","138","328301","0.0-7.0-5.0-0.35","5","5","6","4","3","4","3","5","4","4","5","1","0","1","1","0","2","1","2","5","4","5","4","4","3","3","4","5","4","4","5","4","5","4","2","6","4","5","4","5","5","6","3","2","4","3","6","2","1","5","2","6","4","2","3","4","6","6","5","3","4","2","2","2","5","3","7","6","6","4","5","5","5","2","5","6","7","3","4","767772447134191618","吴","112","Female","[""好她"",""坏她"",""好我"",""坏我""]","[""强她"",""弱她"",""强我"",""弱我""]","","","","","","","","7","","","","","","","","","SRET","SRET_math_calculate","","key","7","6.944261744966295","768","428","","","","","12-5= ?","7","1","","","","","","","",""
"1872","","5","psychophysics","139","330174","0.0-7.0-5.0-0.36","5","5","6","4","3","4","3","5","4","4","5","1","0","1","1","0","2","1","2","5","4","5","4","4","3","3","4","5","4","4","5","4","5","4","2","6","4","5","4","5","5","6","3","2","4","3","6","2","1","5","2","6","4","2","3","4","6","6","5","3","4","2","2","2","5","3","7","6","6","4","5","5","5","2","5","6","7","3","4","767772447134191618","吴","112","Female","[""好她"",""坏她"",""好我"",""坏我""]","[""强她"",""弱她"",""强我"",""弱我""]","","","","","","","","5","","","","","","","","","SRET","SRET_math_calculate","","key","5","6.944286245353075","768","428","","","","","4+1= ?","5","1","","","","","","","",""
"1748","","5","psychophysics","140","331925","0.0-7.0-5.0-0.37","5","5","6","4","3","4","3","5","4","4","5","1","0","1","1","0","2","1","2","5","4","5","4","4","3","3","4","5","4","4","5","4","5","4","2","6","4","5","4","5","5","6","3","2","4","3","6","2","1","5","2","6","4","2","3","4","6","6","5","3","4","2","2","2","5","3","7","6","6","4","5","5","5","2","5","6","7","3","4","767772447134191618","吴","112","Female","[""好她"",""坏她"",""好我"",""坏我""]","[""强她"",""弱她"",""强我"",""弱我""]","","","","","","","","5","","","","","","","","","SRET","SRET_math_calculate","","key","5","6.944219123506019","768","428","","","","","2+3= ?","5","1","","","","","","","",""
"1925","","0","psychophysics","141","333853","0.0-7.0-5.0-0.38","5","5","6","4","3","4","3","5","4","4","5","1","0","1","1","0","2","1","2","5","4","5","4","4","3","3","4","5","4","4","5","4","5","4","2","6","4","5","4","5","5","6","3","2","4","3","6","2","1","5","2","6","4","2","3","4","6","6","5","3","4","2","2","2","5","3","7","6","6","4","5","5","5","2","5","6","7","3","4","767772447134191618","吴","112","Female","[""好她"",""坏她"",""好我"",""坏我""]","[""强她"",""弱她"",""强我"",""弱我""]","","","","","","","","0","","","","","","","","","SRET","SRET_math_calculate","","key","0","6.944188405797172","768","428","","","","","12-12= ?","0","1","","","","","","","",""
"2067","","3","psychophysics","142","335924","0.0-7.0-5.0-0.39","5","5","6","4","3","4","3","5","4","4","5","1","0","1","1","0","2","1","2","5","4","5","4","4","3","3","4","5","4","4","5","4","5","4","2","6","4","5","4","5","5","6","3","2","4","3","6","2","1","5","2","6","4","2","3","4","6","6","5","3","4","2","2","2","5","3","7","6","6","4","5","5","5","2","5","6","7","3","4","767772447134191618","吴","112","Female","[""好她"",""坏她"",""好我"",""坏我""]","[""强她"",""弱她"",""强我"",""弱我""]","","","","","","","","3","","","","","","","","","SRET","SRET_math_calculate","","key","3","6.943214765100603","768","428","","","","","3*1= ?","3","1","","","","","","","",""
