"rt","stimulus","response","trial_type","trial_index","time_elapsed","internal_node_id","swb_1","swb_2","swb_3","swb_4","swb_5","LOT_1","LOT_2","LOT_3","LOT_4","LOT_5","LOT_6","IPC_1","IPC_2","IPC_3","IPC_4","IPC_5","IPC_6","IPC_7","IPC_8","MorIden_1","MorIden_2","MorIden_3","MorIden_4","MorIden_5","MorIden_6","MorIden_7","MorIden_8","MorIden_9","MorIden_10","moralSeImag_1","moralSeImag_2","moralSeImag_3","moralSeImag_4","moralSeImag_5","moralSeImag_6","moralSeImag_7","moralSeImag_8","moralSeImag_9","sde_1","sde_2","sde_3","sde_4","sde_5","sde_6","sde_7","sde_8","sde_9","sde_10","trap2","sde_11","sde_12","sde_13","sde_14","sde_15","sde_16","sde_17","sde_18","sde_19","sde_20","IM_1","IM_2","IM_3","IM_4","IM_5","IM_6","IM_7","IM_8","IM_9","IM_10","IM_11","IM_12","IM_13","IM_14","IM_15","IM_16","IM_17","IM_18","IM_19","IM_20","subj_idx","friend_name","ParticipantID","Sex","Word","Word2","value","success","timeout","failed_images","failed_audio","failed_video","user_agent","responses","item_order","radio_event_ids","radio_event_times","key_event_times","mouse_event_times","straightlining","zigzagging","honeypot","view_history","response_type","key_press","avg_frame_time","center_x","center_y","correct_response","correct","identity","Image","word","condition","task_id","screen_id","time_stamp","person","valence","domain","math","status","duration","question_order","trap2_item"
"56716","
   <p><div style='color:white; font-size: 25px'>您好，欢迎参加本次实验。</div></p>
   <p><div style='color:white; font-size: 25px'>为充分保障您的权利，请确保您已经知晓并同意《参与实验同意书》以及《数据公开知情同意书》。</div></p>
   <p><div style='color:white; font-size: 25px'>如果您未见过上述内容，请咨询实验员。</div></p>
   <p style='color:white; font-size: 25px'>如果您选择继续实验，则表示您已经清楚两份知情同意书的内容并同意。</p>
   <p><div style = ""color: pink;font-size:30px;"">请确保您记得day0的实验编号，您将在本次实验输入该编号，若您忘记，请咨询实验员后作答。</div></p>
   <p><div style = ""color:lightblue;font-size:25px;"">请您尽可能认真地作答，我们将依据您在各问卷和按键任务中的作答质量发放报酬。</div></p>
   <p> <div style = ""color: green""><按空格键至下页></div> </p>
   "," ","html-keyboard-response","0","56717","0.0-0.0","6","5","6","5","2","4","5","4","4","5","4","1","2","1","1","0","1","2","1","4","5","4","5","4","4","5","4","5","4","7","6","5","7","5","6","8","7","7","5","6","3","6","5","6","1","3","6","6","1","4","6","5","2","5","6","5","6","6","6","3","5","2","2","3","5","2","5","6","5","3","2","5","2","2","5","3","2","2","4","578883788969345024","沈","436","Male","[""好我"",""坏他"",""坏我"",""好他""]","[""强我"",""弱他"",""弱我"",""强他""]","","","","","","","","","","","","","","","","","","","","","","","","","","","","","","","","","","","","","","",""
"","","","call-function","1","56718","0.0-1.0-0.0","6","5","6","5","2","4","5","4","4","5","4","1","2","1","1","0","1","2","1","4","5","4","5","4","4","5","4","5","4","7","6","5","7","5","6","8","7","7","5","6","3","6","5","6","1","3","6","6","1","4","6","5","2","5","6","5","6","6","6","3","5","2","2","3","5","2","5","6","5","3","2","5","2","2","5","3","2","2","4","578883788969345024","沈","436","Male","[""好我"",""坏他"",""坏我"",""好他""]","[""强我"",""弱他"",""弱我"",""强他""]","","","","","","","","","","","","","","","","","","","","","","","","","","","","","","","","","","","","","","",""
"388476","","[{""name"":""Sex"",""value"":""0""},{""name"":""friend_name"",""value"":""沈""},{""name"":""ParticipantID"",""value"":""436""}]","survey-html-form","2","445195","0.0-1.0-1.0","6","5","6","5","2","4","5","4","4","5","4","1","2","1","1","0","1","2","1","4","5","4","5","4","4","5","4","5","4","7","6","5","7","5","6","8","7","7","5","6","3","6","5","6","1","3","6","6","1","4","6","5","2","5","6","5","6","6","6","3","5","2","2","3","5","2","5","6","5","3","2","5","2","2","5","3","2","2","4","578883788969345024","沈","436","Male","[""好我"",""坏他"",""坏我"",""好他""]","[""强我"",""弱他"",""弱我"",""强他""]","","","","","","","","","","","","","","","","","","","","","","","","","","","","","","","","","","","","","","",""
"","","","preload","3","445632","0.0-2.0","6","5","6","5","2","4","5","4","4","5","4","1","2","1","1","0","1","2","1","4","5","4","5","4","4","5","4","5","4","7","6","5","7","5","6","8","7","7","5","6","3","6","5","6","1","3","6","6","1","4","6","5","2","5","6","5","6","6","6","3","5","2","2","3","5","2","5","6","5","3","2","5","2","2","5","3","2","2","4","578883788969345024","沈","436","Male","[""好我"",""坏他"",""坏我"",""好他""]","[""强我"",""弱他"",""弱我"",""强他""]","","true","false","[]","[]","[]","","","","","","","","","","","","","","","","","","","","","","","","","","","","","","","","",""
"","","","fullscreen","4","447679","0.0-3.0","6","5","6","5","2","4","5","4","4","5","4","1","2","1","1","0","1","2","1","4","5","4","5","4","4","5","4","5","4","7","6","5","7","5","6","8","7","7","5","6","3","6","5","6","1","3","6","6","1","4","6","5","2","5","6","5","6","6","6","3","5","2","2","3","5","2","5","6","5","3","2","5","2","2","5","3","2","2","4","578883788969345024","沈","436","Male","[""好我"",""坏他"",""坏我"",""好他""]","[""强我"",""弱他"",""弱我"",""强他""]","","true","","","","","{}","","","","","","","","","","","","","","","","","","","","","","","","","","","","","","","",""
"10354.5","","{""Q01"":""6"",""Q02"":""5"",""Q03"":""6"",""Q04"":""5"",""Q05"":""2""}","survey-template","5","458035","0.0-4.0","6","5","6","5","2","4","5","4","4","5","4","1","2","1","1","0","1","2","1","4","5","4","5","4","4","5","4","5","4","7","6","5","7","5","6","8","7","7","5","6","3","6","5","6","1","3","6","6","1","4","6","5","2","5","6","5","6","6","6","3","5","2","2","3","5","2","5","6","5","3","2","5","2","2","5","3","2","2","4","578883788969345024","沈","436","Male","[""好我"",""坏他"",""坏我"",""好他""]","[""强我"",""弱他"",""弱我"",""强他""]","","","","","","","","{""Q01"":""6"",""Q02"":""5"",""Q03"":""6"",""Q04"":""5"",""Q05"":""2""}","[0,1,2,3,4]","[""Q01"",""Q02"",""Q03"",""Q04"",""Q05"",""Q03""]","[3025.600000023842,3897.900000035763,4721.900000035763,6809.900000035763,7929.800000011921,8801.800000011921]","[]","[3025.600000023842,3897.900000035763,4721.900000035763,6809.900000035763,7929.800000011921,8801.800000011921,10353.699999988079]","0.4","0.75","0","","","","","","","","","","","","","","","","","","","","","","",""
"12037.300000011921","","{""Q01"":""4"",""Q02"":""5"",""Q03"":""4"",""Q04"":""4"",""Q05"":""5"",""Q06"":""4""}","survey-template","6","470075","0.0-5.0","6","5","6","5","2","4","5","4","4","5","4","1","2","1","1","0","1","2","1","4","5","4","5","4","4","5","4","5","4","7","6","5","7","5","6","8","7","7","5","6","3","6","5","6","1","3","6","6","1","4","6","5","2","5","6","5","6","6","6","3","5","2","2","3","5","2","5","6","5","3","2","5","2","2","5","3","2","2","4","578883788969345024","沈","436","Male","[""好我"",""坏他"",""坏我"",""好他""]","[""强我"",""弱他"",""弱我"",""强他""]","","","","","","","","{""Q01"":""4"",""Q02"":""5"",""Q03"":""4"",""Q04"":""4"",""Q05"":""5"",""Q06"":""4""}","[0,1,2,3,4,5]","[""Q01"",""Q02"",""Q03"",""Q04"",""Q05"",""Q06""]","[1693,3492.699999988079,6068.899999976158,7277,8310.199999988079,9750]","[]","[1693,3492.699999988079,4533,6068.899999976158,7277,8310.199999988079,9750,12036.899999976158]","0.5","0.2","0","","","","","","","","","","","","","","","","","","","","","","",""
"10590.800000011921","","{""Q01"":""1"",""Q02"":""2"",""Q03"":""1"",""Q04"":""1"",""Q05"":""0"",""Q06"":""1"",""Q07"":""2"",""Q08"":""1""}","survey-template","7","480667","0.0-6.0","6","5","6","5","2","4","5","4","4","5","4","1","2","1","1","0","1","2","1","4","5","4","5","4","4","5","4","5","4","7","6","5","7","5","6","8","7","7","5","6","3","6","5","6","1","3","6","6","1","4","6","5","2","5","6","5","6","6","6","3","5","2","2","3","5","2","5","6","5","3","2","5","2","2","5","3","2","2","4","578883788969345024","沈","436","Male","[""好我"",""坏他"",""坏我"",""好他""]","[""强我"",""弱他"",""弱我"",""强他""]","","","","","","","","{""Q01"":""1"",""Q02"":""2"",""Q03"":""1"",""Q04"":""1"",""Q05"":""0"",""Q06"":""1"",""Q07"":""2"",""Q08"":""1""}","[0,1,2,3,4,5,6,7]","[""Q01"",""Q02"",""Q03"",""Q04"",""Q05"",""Q06"",""Q07"",""Q08""]","[2062.300000011921,3279.199999988079,4638.300000011921,5253.899999976158,6910.099999964237,8022.300000011921,9390,10110.199999988079]","[]","[2062.300000011921,3279.199999988079,4638.300000011921,5253.899999976158,5614.199999988079,6910.099999964237,8022.300000011921,9390,10110.199999988079,10590.199999988079]","0.625","0.8571428571428571","0","","","","","","","","","","","","","","","","","","","","","","",""
"10398","","","instructions","8","491066","0.0-7.0","6","5","6","5","2","4","5","4","4","5","4","1","2","1","1","0","1","2","1","4","5","4","5","4","4","5","4","5","4","7","6","5","7","5","6","8","7","7","5","6","3","6","5","6","1","3","6","6","1","4","6","5","2","5","6","5","6","6","6","3","5","2","2","3","5","2","5","6","5","3","2","5","2","2","5","3","2","2","4","578883788969345024","沈","436","Male","[""好我"",""坏他"",""坏我"",""好他""]","[""强我"",""弱他"",""弱我"",""强他""]","","","","","","","","","","","","","","","","","[{""page_index"":0,""viewing_time"":10398}]","","","","","","","","","","","","","","","","","","","","","",""
"153895","","","instructions","9","644962","0.0-8.0-1.0-0.0","6","5","6","5","2","4","5","4","4","5","4","1","2","1","1","0","1","2","1","4","5","4","5","4","4","5","4","5","4","7","6","5","7","5","6","8","7","7","5","6","3","6","5","6","1","3","6","6","1","4","6","5","2","5","6","5","6","6","6","3","5","2","2","3","5","2","5","6","5","3","2","5","2","2","5","3","2","2","4","578883788969345024","沈","436","Male","[""好我"",""坏他"",""坏我"",""好他""]","[""强我"",""弱他"",""弱我"",""强他""]","","","","","","","","","","","","","","","","","[{""page_index"":0,""viewing_time"":29111},{""page_index"":1,""viewing_time"":60216},{""page_index"":0,""viewing_time"":2312},{""page_index"":1,""viewing_time"":58232},{""page_index"":2,""viewing_time"":2688},{""page_index"":3,""viewing_time"":1336}]","","","","","","","","","","","","","","","","","","","","","",""
"null","","null","psychophysics","10","647166","0.0-8.0-1.0-1.0-0.0-0.0","6","5","6","5","2","4","5","4","4","5","4","1","2","1","1","0","1","2","1","4","5","4","5","4","4","5","4","5","4","7","6","5","7","5","6","8","7","7","5","6","3","6","5","6","1","3","6","6","1","4","6","5","2","5","6","5","6","6","6","3","5","2","2","3","5","2","5","6","5","3","2","5","2","2","5","3","2","2","4","578883788969345024","沈","436","Male","[""好我"",""坏他"",""坏我"",""好他""]","[""强我"",""弱他"",""弱我"",""强他""]","","","","","","","","null","","","","","","","","","","key","null","16.665534351145464","960","536","f","false","match","img/triangle.png","弱我","弱我","prac_ALT2_ability","practice_ability","","","","","","","","",""
"null","<span class='add_' style='color:yellow; font-size: 70px;'> 太慢! </span>","null","html-keyboard-response","11","647666","0.0-8.0-1.0-1.0-0.0-1.0","6","5","6","5","2","4","5","4","4","5","4","1","2","1","1","0","1","2","1","4","5","4","5","4","4","5","4","5","4","7","6","5","7","5","6","8","7","7","5","6","3","6","5","6","1","3","6","6","1","4","6","5","2","5","6","5","6","6","6","3","5","2","2","3","5","2","5","6","5","3","2","5","2","2","5","3","2","2","4","578883788969345024","沈","436","Male","[""好我"",""坏他"",""坏我"",""好他""]","[""强我"",""弱他"",""弱我"",""强他""]","","","","","","","","","","","","","","","","","","","","","","","","","","","","","","feedback_test","","","","","","","","",""
"1174","","j","psychophysics","12","649842","0.0-8.0-1.0-1.0-0.0-0.1","6","5","6","5","2","4","5","4","4","5","4","1","2","1","1","0","1","2","1","4","5","4","5","4","4","5","4","5","4","7","6","5","7","5","6","8","7","7","5","6","3","6","5","6","1","3","6","6","1","4","6","5","2","5","6","5","6","6","6","3","5","2","2","3","5","2","5","6","5","3","2","5","2","2","5","3","2","2","4","578883788969345024","沈","436","Male","[""好我"",""坏他"",""坏我"",""好他""]","[""强我"",""弱他"",""弱我"",""强他""]","","","","","","","","nonmatch","","","","","","","","","","key","j","16.664569230769008","960","536","j","true","nonmatch","img/triangle.png","强他","弱我","prac_ALT2_ability","practice_ability","","","","","","","","",""
"null","<span style='color:GreenYellow; font-size: 70px;'>正确! </span>","null","html-keyboard-response","13","650343","0.0-8.0-1.0-1.0-0.0-1.1","6","5","6","5","2","4","5","4","4","5","4","1","2","1","1","0","1","2","1","4","5","4","5","4","4","5","4","5","4","7","6","5","7","5","6","8","7","7","5","6","3","6","5","6","1","3","6","6","1","4","6","5","2","5","6","5","6","6","6","3","5","2","2","3","5","2","5","6","5","3","2","5","2","2","5","3","2","2","4","578883788969345024","沈","436","Male","[""好我"",""坏他"",""坏我"",""好他""]","[""强我"",""弱他"",""弱我"",""强他""]","","","","","","","","","","","","","","","","","","","","","","","","","","","","","","feedback_test","","","","","","","","",""
"954","","f","psychophysics","14","652298","0.0-8.0-1.0-1.0-0.0-0.2","6","5","6","5","2","4","5","4","4","5","4","1","2","1","1","0","1","2","1","4","5","4","5","4","4","5","4","5","4","7","6","5","7","5","6","8","7","7","5","6","3","6","5","6","1","3","6","6","1","4","6","5","2","5","6","5","6","6","6","3","5","2","2","3","5","2","5","6","5","3","2","5","2","2","5","3","2","2","4","578883788969345024","沈","436","Male","[""好我"",""坏他"",""坏我"",""好他""]","[""强我"",""弱他"",""弱我"",""强他""]","","","","","","","","match","","","","","","","","","","key","f","16.66737931034556","960","536","f","true","match","img/ellipse.png","强我","强我","prac_ALT2_ability","practice_ability","","","","","","","","",""
"null","<span style='color:GreenYellow; font-size: 70px;'>正确! </span>","null","html-keyboard-response","15","652799","0.0-8.0-1.0-1.0-0.0-1.2","6","5","6","5","2","4","5","4","4","5","4","1","2","1","1","0","1","2","1","4","5","4","5","4","4","5","4","5","4","7","6","5","7","5","6","8","7","7","5","6","3","6","5","6","1","3","6","6","1","4","6","5","2","5","6","5","6","6","6","3","5","2","2","3","5","2","5","6","5","3","2","5","2","2","5","3","2","2","4","578883788969345024","沈","436","Male","[""好我"",""坏他"",""坏我"",""好他""]","[""强我"",""弱他"",""弱我"",""强他""]","","","","","","","","","","","","","","","","","","","","","","","","","","","","","","feedback_test","","","","","","","","",""
"978","","j","psychophysics","16","654777","0.0-8.0-1.0-1.0-0.0-0.3","6","5","6","5","2","4","5","4","4","5","4","1","2","1","1","0","1","2","1","4","5","4","5","4","4","5","4","5","4","7","6","5","7","5","6","8","7","7","5","6","3","6","5","6","1","3","6","6","1","4","6","5","2","5","6","5","6","6","6","3","5","2","2","3","5","2","5","6","5","3","2","5","2","2","5","3","2","2","4","578883788969345024","沈","436","Male","[""好我"",""坏他"",""坏我"",""好他""]","[""强我"",""弱他"",""弱我"",""强他""]","","","","","","","","nonmatch","","","","","","","","","","key","j","16.66768644067806","960","536","j","true","nonmatch","img/triangle.png","弱他","弱我","prac_ALT2_ability","practice_ability","","","","","","","","",""
"null","<span style='color:GreenYellow; font-size: 70px;'>正确! </span>","null","html-keyboard-response","17","655278","0.0-8.0-1.0-1.0-0.0-1.3","6","5","6","5","2","4","5","4","4","5","4","1","2","1","1","0","1","2","1","4","5","4","5","4","4","5","4","5","4","7","6","5","7","5","6","8","7","7","5","6","3","6","5","6","1","3","6","6","1","4","6","5","2","5","6","5","6","6","6","3","5","2","2","3","5","2","5","6","5","3","2","5","2","2","5","3","2","2","4","578883788969345024","沈","436","Male","[""好我"",""坏他"",""坏我"",""好他""]","[""强我"",""弱他"",""弱我"",""强他""]","","","","","","","","","","","","","","","","","","","","","","","","","","","","","","feedback_test","","","","","","","","",""
"null","","null","psychophysics","18","657481","0.0-8.0-1.0-1.0-0.0-0.4","6","5","6","5","2","4","5","4","4","5","4","1","2","1","1","0","1","2","1","4","5","4","5","4","4","5","4","5","4","7","6","5","7","5","6","8","7","7","5","6","3","6","5","6","1","3","6","6","1","4","6","5","2","5","6","5","6","6","6","3","5","2","2","3","5","2","5","6","5","3","2","5","2","2","5","3","2","2","4","578883788969345024","沈","436","Male","[""好我"",""坏他"",""坏我"",""好他""]","[""强我"",""弱他"",""弱我"",""强他""]","","","","","","","","null","","","","","","","","","","key","null","16.665625954197917","960","536","f","false","match","img/square.png","弱他","弱他","prac_ALT2_ability","practice_ability","","","","","","","","",""
"null","<span class='add_' style='color:yellow; font-size: 70px;'> 太慢! </span>","null","html-keyboard-response","19","657983","0.0-8.0-1.0-1.0-0.0-1.4","6","5","6","5","2","4","5","4","4","5","4","1","2","1","1","0","1","2","1","4","5","4","5","4","4","5","4","5","4","7","6","5","7","5","6","8","7","7","5","6","3","6","5","6","1","3","6","6","1","4","6","5","2","5","6","5","6","6","6","3","5","2","2","3","5","2","5","6","5","3","2","5","2","2","5","3","2","2","4","578883788969345024","沈","436","Male","[""好我"",""坏他"",""坏我"",""好他""]","[""强我"",""弱他"",""弱我"",""强他""]","","","","","","","","","","","","","","","","","","","","","","","","","","","","","","feedback_test","","","","","","","","",""
"866","","j","psychophysics","20","659850","0.0-8.0-1.0-1.0-0.0-0.5","6","5","6","5","2","4","5","4","4","5","4","1","2","1","1","0","1","2","1","4","5","4","5","4","4","5","4","5","4","7","6","5","7","5","6","8","7","7","5","6","3","6","5","6","1","3","6","6","1","4","6","5","2","5","6","5","6","6","6","3","5","2","2","3","5","2","5","6","5","3","2","5","2","2","5","3","2","2","4","578883788969345024","沈","436","Male","[""好我"",""坏他"",""坏我"",""好他""]","[""强我"",""弱他"",""弱我"",""强他""]","","","","","","","","nonmatch","","","","","","","","","","key","j","16.665567567566754","960","536","j","true","nonmatch","img/square.png","强我","弱他","prac_ALT2_ability","practice_ability","","","","","","","","",""
"null","<span style='color:GreenYellow; font-size: 70px;'>正确! </span>","null","html-keyboard-response","21","660350","0.0-8.0-1.0-1.0-0.0-1.5","6","5","6","5","2","4","5","4","4","5","4","1","2","1","1","0","1","2","1","4","5","4","5","4","4","5","4","5","4","7","6","5","7","5","6","8","7","7","5","6","3","6","5","6","1","3","6","6","1","4","6","5","2","5","6","5","6","6","6","3","5","2","2","3","5","2","5","6","5","3","2","5","2","2","5","3","2","2","4","578883788969345024","沈","436","Male","[""好我"",""坏他"",""坏我"",""好他""]","[""强我"",""弱他"",""弱我"",""强他""]","","","","","","","","","","","","","","","","","","","","","","","","","","","","","","feedback_test","","","","","","","","",""
"865","","f","psychophysics","22","662217","0.0-8.0-1.0-1.0-0.0-0.6","6","5","6","5","2","4","5","4","4","5","4","1","2","1","1","0","1","2","1","4","5","4","5","4","4","5","4","5","4","7","6","5","7","5","6","8","7","7","5","6","3","6","5","6","1","3","6","6","1","4","6","5","2","5","6","5","6","6","6","3","5","2","2","3","5","2","5","6","5","3","2","5","2","2","5","3","2","2","4","578883788969345024","沈","436","Male","[""好我"",""坏他"",""坏我"",""好他""]","[""强我"",""弱他"",""弱我"",""强他""]","","","","","","","","match","","","","","","","","","","key","f","16.668207207206965","960","536","j","false","nonmatch","img/ellipse.png","弱他","强我","prac_ALT2_ability","practice_ability","","","","","","","","",""
"null","<span style='color:red; font-size: 70px;'>错误! </span>","null","html-keyboard-response","23","662718","0.0-8.0-1.0-1.0-0.0-1.6","6","5","6","5","2","4","5","4","4","5","4","1","2","1","1","0","1","2","1","4","5","4","5","4","4","5","4","5","4","7","6","5","7","5","6","8","7","7","5","6","3","6","5","6","1","3","6","6","1","4","6","5","2","5","6","5","6","6","6","3","5","2","2","3","5","2","5","6","5","3","2","5","2","2","5","3","2","2","4","578883788969345024","沈","436","Male","[""好我"",""坏他"",""坏我"",""好他""]","[""强我"",""弱他"",""弱我"",""强他""]","","","","","","","","","","","","","","","","","","","","","","","","","","","","","","feedback_test","","","","","","","","",""
"1171","","j","psychophysics","24","664890","0.0-8.0-1.0-1.0-0.0-0.7","6","5","6","5","2","4","5","4","4","5","4","1","2","1","1","0","1","2","1","4","5","4","5","4","4","5","4","5","4","7","6","5","7","5","6","8","7","7","5","6","3","6","5","6","1","3","6","6","1","4","6","5","2","5","6","5","6","6","6","3","5","2","2","3","5","2","5","6","5","3","2","5","2","2","5","3","2","2","4","578883788969345024","沈","436","Male","[""好我"",""坏他"",""坏我"",""好他""]","[""强我"",""弱他"",""弱我"",""强他""]","","","","","","","","nonmatch","","","","","","","","","","key","j","16.6671923076922","960","536","f","false","match","img/ellipse.png","强我","强我","prac_ALT2_ability","practice_ability","","","","","","","","",""
"null","<span style='color:red; font-size: 70px;'>错误! </span>","null","html-keyboard-response","25","665392","0.0-8.0-1.0-1.0-0.0-1.7","6","5","6","5","2","4","5","4","4","5","4","1","2","1","1","0","1","2","1","4","5","4","5","4","4","5","4","5","4","7","6","5","7","5","6","8","7","7","5","6","3","6","5","6","1","3","6","6","1","4","6","5","2","5","6","5","6","6","6","3","5","2","2","3","5","2","5","6","5","3","2","5","2","2","5","3","2","2","4","578883788969345024","沈","436","Male","[""好我"",""坏他"",""坏我"",""好他""]","[""强我"",""弱他"",""弱我"",""强他""]","","","","","","","","","","","","","","","","","","","","","","","","","","","","","","feedback_test","","","","","","","","",""
"865","","f","psychophysics","26","667257","0.0-8.0-1.0-1.0-0.0-0.8","6","5","6","5","2","4","5","4","4","5","4","1","2","1","1","0","1","2","1","4","5","4","5","4","4","5","4","5","4","7","6","5","7","5","6","8","7","7","5","6","3","6","5","6","1","3","6","6","1","4","6","5","2","5","6","5","6","6","6","3","5","2","2","3","5","2","5","6","5","3","2","5","2","2","5","3","2","2","4","578883788969345024","沈","436","Male","[""好我"",""坏他"",""坏我"",""好他""]","[""强我"",""弱他"",""弱我"",""强他""]","","","","","","","","match","","","","","","","","","","key","f","16.665549549549976","960","536","j","false","nonmatch","img/triangle.png","强我","弱我","prac_ALT2_ability","practice_ability","","","","","","","","",""
"null","<span style='color:red; font-size: 70px;'>错误! </span>","null","html-keyboard-response","27","667758","0.0-8.0-1.0-1.0-0.0-1.8","6","5","6","5","2","4","5","4","4","5","4","1","2","1","1","0","1","2","1","4","5","4","5","4","4","5","4","5","4","7","6","5","7","5","6","8","7","7","5","6","3","6","5","6","1","3","6","6","1","4","6","5","2","5","6","5","6","6","6","3","5","2","2","3","5","2","5","6","5","3","2","5","2","2","5","3","2","2","4","578883788969345024","沈","436","Male","[""好我"",""坏他"",""坏我"",""好他""]","[""强我"",""弱他"",""弱我"",""强他""]","","","","","","","","","","","","","","","","","","","","","","","","","","","","","","feedback_test","","","","","","","","",""
"897","","j","psychophysics","28","669657","0.0-8.0-1.0-1.0-0.0-0.9","6","5","6","5","2","4","5","4","4","5","4","1","2","1","1","0","1","2","1","4","5","4","5","4","4","5","4","5","4","7","6","5","7","5","6","8","7","7","5","6","3","6","5","6","1","3","6","6","1","4","6","5","2","5","6","5","6","6","6","3","5","2","2","3","5","2","5","6","5","3","2","5","2","2","5","3","2","2","4","578883788969345024","沈","436","Male","[""好我"",""坏他"",""坏我"",""好他""]","[""强我"",""弱他"",""弱我"",""强他""]","","","","","","","","nonmatch","","","","","","","","","","key","j","16.66622123893853","960","536","j","true","nonmatch","img/ellipse.png","强他","强我","prac_ALT2_ability","practice_ability","","","","","","","","",""
"null","<span style='color:GreenYellow; font-size: 70px;'>正确! </span>","null","html-keyboard-response","29","670158","0.0-8.0-1.0-1.0-0.0-1.9","6","5","6","5","2","4","5","4","4","5","4","1","2","1","1","0","1","2","1","4","5","4","5","4","4","5","4","5","4","7","6","5","7","5","6","8","7","7","5","6","3","6","5","6","1","3","6","6","1","4","6","5","2","5","6","5","6","6","6","3","5","2","2","3","5","2","5","6","5","3","2","5","2","2","5","3","2","2","4","578883788969345024","沈","436","Male","[""好我"",""坏他"",""坏我"",""好他""]","[""强我"",""弱他"",""弱我"",""强他""]","","","","","","","","","","","","","","","","","","","","","","","","","","","","","","feedback_test","","","","","","","","",""
"1115","","f","psychophysics","30","672273","0.0-8.0-1.0-1.0-0.0-0.10","6","5","6","5","2","4","5","4","4","5","4","1","2","1","1","0","1","2","1","4","5","4","5","4","4","5","4","5","4","7","6","5","7","5","6","8","7","7","5","6","3","6","5","6","1","3","6","6","1","4","6","5","2","5","6","5","6","6","6","3","5","2","2","3","5","2","5","6","5","3","2","5","2","2","5","3","2","2","4","578883788969345024","沈","436","Male","[""好我"",""坏他"",""坏我"",""好他""]","[""强我"",""弱他"",""弱我"",""强他""]","","","","","","","","match","","","","","","","","","","key","f","16.66427777777703","960","536","f","true","match","img/ellipse.png","强我","强我","prac_ALT2_ability","practice_ability","","","","","","","","",""
"null","<span style='color:GreenYellow; font-size: 70px;'>正确! </span>","null","html-keyboard-response","31","672784","0.0-8.0-1.0-1.0-0.0-1.10","6","5","6","5","2","4","5","4","4","5","4","1","2","1","1","0","1","2","1","4","5","4","5","4","4","5","4","5","4","7","6","5","7","5","6","8","7","7","5","6","3","6","5","6","1","3","6","6","1","4","6","5","2","5","6","5","6","6","6","3","5","2","2","3","5","2","5","6","5","3","2","5","2","2","5","3","2","2","4","578883788969345024","沈","436","Male","[""好我"",""坏他"",""坏我"",""好他""]","[""强我"",""弱他"",""弱我"",""强他""]","","","","","","","","","","","","","","","","","","","","","","","","","","","","","","feedback_test","","","","","","","","",""
"940","","f","psychophysics","32","674729","0.0-8.0-1.0-1.0-0.0-0.11","6","5","6","5","2","4","5","4","4","5","4","1","2","1","1","0","1","2","1","4","5","4","5","4","4","5","4","5","4","7","6","5","7","5","6","8","7","7","5","6","3","6","5","6","1","3","6","6","1","4","6","5","2","5","6","5","6","6","6","3","5","2","2","3","5","2","5","6","5","3","2","5","2","2","5","3","2","2","4","578883788969345024","沈","436","Male","[""好我"",""坏他"",""坏我"",""好他""]","[""强我"",""弱他"",""弱我"",""强他""]","","","","","","","","match","","","","","","","","","","key","f","16.667810344827714","960","536","f","true","match","img/hexagon.png","强他","强他","prac_ALT2_ability","practice_ability","","","","","","","","",""
"null","<span style='color:GreenYellow; font-size: 70px;'>正确! </span>","null","html-keyboard-response","33","675232","0.0-8.0-1.0-1.0-0.0-1.11","6","5","6","5","2","4","5","4","4","5","4","1","2","1","1","0","1","2","1","4","5","4","5","4","4","5","4","5","4","7","6","5","7","5","6","8","7","7","5","6","3","6","5","6","1","3","6","6","1","4","6","5","2","5","6","5","6","6","6","3","5","2","2","3","5","2","5","6","5","3","2","5","2","2","5","3","2","2","4","578883788969345024","沈","436","Male","[""好我"",""坏他"",""坏我"",""好他""]","[""强我"",""弱他"",""弱我"",""强他""]","","","","","","","","","","","","","","","","","","","","","","","","","","","","","","feedback_test","","","","","","","","",""
"1097","","j","psychophysics","34","677330","0.0-8.0-1.0-1.0-0.0-0.12","6","5","6","5","2","4","5","4","4","5","4","1","2","1","1","0","1","2","1","4","5","4","5","4","4","5","4","5","4","7","6","5","7","5","6","8","7","7","5","6","3","6","5","6","1","3","6","6","1","4","6","5","2","5","6","5","6","6","6","3","5","2","2","3","5","2","5","6","5","3","2","5","2","2","5","3","2","2","4","578883788969345024","沈","436","Male","[""好我"",""坏他"",""坏我"",""好他""]","[""强我"",""弱他"",""弱我"",""强他""]","","","","","","","","nonmatch","","","","","","","","","","key","j","16.667480000000445","960","536","j","true","nonmatch","img/ellipse.png","弱我","强我","prac_ALT2_ability","practice_ability","","","","","","","","",""
"null","<span style='color:GreenYellow; font-size: 70px;'>正确! </span>","null","html-keyboard-response","35","677831","0.0-8.0-1.0-1.0-0.0-1.12","6","5","6","5","2","4","5","4","4","5","4","1","2","1","1","0","1","2","1","4","5","4","5","4","4","5","4","5","4","7","6","5","7","5","6","8","7","7","5","6","3","6","5","6","1","3","6","6","1","4","6","5","2","5","6","5","6","6","6","3","5","2","2","3","5","2","5","6","5","3","2","5","2","2","5","3","2","2","4","578883788969345024","沈","436","Male","[""好我"",""坏他"",""坏我"",""好他""]","[""强我"",""弱他"",""弱我"",""强他""]","","","","","","","","","","","","","","","","","","","","","","","","","","","","","","feedback_test","","","","","","","","",""
"936","","j","psychophysics","36","679769","0.0-8.0-1.0-1.0-0.0-0.13","6","5","6","5","2","4","5","4","4","5","4","1","2","1","1","0","1","2","1","4","5","4","5","4","4","5","4","5","4","7","6","5","7","5","6","8","7","7","5","6","3","6","5","6","1","3","6","6","1","4","6","5","2","5","6","5","6","6","6","3","5","2","2","3","5","2","5","6","5","3","2","5","2","2","5","3","2","2","4","578883788969345024","沈","436","Male","[""好我"",""坏他"",""坏我"",""好他""]","[""强我"",""弱他"",""弱我"",""强他""]","","","","","","","","nonmatch","","","","","","","","","","key","j","16.667756521739268","960","536","f","false","match","img/triangle.png","弱我","弱我","prac_ALT2_ability","practice_ability","","","","","","","","",""
"null","<span style='color:red; font-size: 70px;'>错误! </span>","null","html-keyboard-response","37","680270","0.0-8.0-1.0-1.0-0.0-1.13","6","5","6","5","2","4","5","4","4","5","4","1","2","1","1","0","1","2","1","4","5","4","5","4","4","5","4","5","4","7","6","5","7","5","6","8","7","7","5","6","3","6","5","6","1","3","6","6","1","4","6","5","2","5","6","5","6","6","6","3","5","2","2","3","5","2","5","6","5","3","2","5","2","2","5","3","2","2","4","578883788969345024","沈","436","Male","[""好我"",""坏他"",""坏我"",""好他""]","[""强我"",""弱他"",""弱我"",""强他""]","","","","","","","","","","","","","","","","","","","","","","","","","","","","","","feedback_test","","","","","","","","",""
"890","","j","psychophysics","38","682161","0.0-8.0-1.0-1.0-0.0-0.14","6","5","6","5","2","4","5","4","4","5","4","1","2","1","1","0","1","2","1","4","5","4","5","4","4","5","4","5","4","7","6","5","7","5","6","8","7","7","5","6","3","6","5","6","1","3","6","6","1","4","6","5","2","5","6","5","6","6","6","3","5","2","2","3","5","2","5","6","5","3","2","5","2","2","5","3","2","2","4","578883788969345024","沈","436","Male","[""好我"",""坏他"",""坏我"",""好他""]","[""强我"",""弱他"",""弱我"",""强他""]","","","","","","","","nonmatch","","","","","","","","","","key","j","16.664628318584096","960","536","j","true","nonmatch","img/square.png","弱我","弱他","prac_ALT2_ability","practice_ability","","","","","","","","",""
"null","<span style='color:GreenYellow; font-size: 70px;'>正确! </span>","null","html-keyboard-response","39","682663","0.0-8.0-1.0-1.0-0.0-1.14","6","5","6","5","2","4","5","4","4","5","4","1","2","1","1","0","1","2","1","4","5","4","5","4","4","5","4","5","4","7","6","5","7","5","6","8","7","7","5","6","3","6","5","6","1","3","6","6","1","4","6","5","2","5","6","5","6","6","6","3","5","2","2","3","5","2","5","6","5","3","2","5","2","2","5","3","2","2","4","578883788969345024","沈","436","Male","[""好我"",""坏他"",""坏我"",""好他""]","[""强我"",""弱他"",""弱我"",""强他""]","","","","","","","","","","","","","","","","","","","","","","","","","","","","","","feedback_test","","","","","","","","",""
"842","","f","psychophysics","40","684506","0.0-8.0-1.0-1.0-0.0-0.15","6","5","6","5","2","4","5","4","4","5","4","1","2","1","1","0","1","2","1","4","5","4","5","4","4","5","4","5","4","7","6","5","7","5","6","8","7","7","5","6","3","6","5","6","1","3","6","6","1","4","6","5","2","5","6","5","6","6","6","3","5","2","2","3","5","2","5","6","5","3","2","5","2","2","5","3","2","2","4","578883788969345024","沈","436","Male","[""好我"",""坏他"",""坏我"",""好他""]","[""强我"",""弱他"",""弱我"",""强他""]","","","","","","","","match","","","","","","","","","","key","f","16.668081818181303","960","536","j","false","nonmatch","img/hexagon.png","弱我","强他","prac_ALT2_ability","practice_ability","","","","","","","","",""
"null","<span style='color:red; font-size: 70px;'>错误! </span>","null","html-keyboard-response","41","685007","0.0-8.0-1.0-1.0-0.0-1.15","6","5","6","5","2","4","5","4","4","5","4","1","2","1","1","0","1","2","1","4","5","4","5","4","4","5","4","5","4","7","6","5","7","5","6","8","7","7","5","6","3","6","5","6","1","3","6","6","1","4","6","5","2","5","6","5","6","6","6","3","5","2","2","3","5","2","5","6","5","3","2","5","2","2","5","3","2","2","4","578883788969345024","沈","436","Male","[""好我"",""坏他"",""坏我"",""好他""]","[""强我"",""弱他"",""弱我"",""强他""]","","","","","","","","","","","","","","","","","","","","","","","","","","","","","","feedback_test","","","","","","","","",""
"802","","f","psychophysics","42","686809","0.0-8.0-1.0-1.0-0.0-0.16","6","5","6","5","2","4","5","4","4","5","4","1","2","1","1","0","1","2","1","4","5","4","5","4","4","5","4","5","4","7","6","5","7","5","6","8","7","7","5","6","3","6","5","6","1","3","6","6","1","4","6","5","2","5","6","5","6","6","6","3","5","2","2","3","5","2","5","6","5","3","2","5","2","2","5","3","2","2","4","578883788969345024","沈","436","Male","[""好我"",""坏他"",""坏我"",""好他""]","[""强我"",""弱他"",""弱我"",""强他""]","","","","","","","","match","","","","","","","","","","key","f","16.665728971962686","960","536","f","true","match","img/square.png","弱他","弱他","prac_ALT2_ability","practice_ability","","","","","","","","",""
"null","<span style='color:GreenYellow; font-size: 70px;'>正确! </span>","null","html-keyboard-response","43","687310","0.0-8.0-1.0-1.0-0.0-1.16","6","5","6","5","2","4","5","4","4","5","4","1","2","1","1","0","1","2","1","4","5","4","5","4","4","5","4","5","4","7","6","5","7","5","6","8","7","7","5","6","3","6","5","6","1","3","6","6","1","4","6","5","2","5","6","5","6","6","6","3","5","2","2","3","5","2","5","6","5","3","2","5","2","2","5","3","2","2","4","578883788969345024","沈","436","Male","[""好我"",""坏他"",""坏我"",""好他""]","[""强我"",""弱他"",""弱我"",""强他""]","","","","","","","","","","","","","","","","","","","","","","","","","","","","","","feedback_test","","","","","","","","",""
"778","","j","psychophysics","44","689089","0.0-8.0-1.0-1.0-0.0-0.17","6","5","6","5","2","4","5","4","4","5","4","1","2","1","1","0","1","2","1","4","5","4","5","4","4","5","4","5","4","7","6","5","7","5","6","8","7","7","5","6","3","6","5","6","1","3","6","6","1","4","6","5","2","5","6","5","6","6","6","3","5","2","2","3","5","2","5","6","5","3","2","5","2","2","5","3","2","2","4","578883788969345024","沈","436","Male","[""好我"",""坏他"",""坏我"",""好他""]","[""强我"",""弱他"",""弱我"",""强他""]","","","","","","","","nonmatch","","","","","","","","","","key","j","16.66719811320753","960","536","j","true","nonmatch","img/hexagon.png","弱他","强他","prac_ALT2_ability","practice_ability","","","","","","","","",""
"null","<span style='color:GreenYellow; font-size: 70px;'>正确! </span>","null","html-keyboard-response","45","689591","0.0-8.0-1.0-1.0-0.0-1.17","6","5","6","5","2","4","5","4","4","5","4","1","2","1","1","0","1","2","1","4","5","4","5","4","4","5","4","5","4","7","6","5","7","5","6","8","7","7","5","6","3","6","5","6","1","3","6","6","1","4","6","5","2","5","6","5","6","6","6","3","5","2","2","3","5","2","5","6","5","3","2","5","2","2","5","3","2","2","4","578883788969345024","沈","436","Male","[""好我"",""坏他"",""坏我"",""好他""]","[""强我"",""弱他"",""弱我"",""强他""]","","","","","","","","","","","","","","","","","","","","","","","","","","","","","","feedback_test","","","","","","","","",""
"834","","f","psychophysics","46","691426","0.0-8.0-1.0-1.0-0.0-0.18","6","5","6","5","2","4","5","4","4","5","4","1","2","1","1","0","1","2","1","4","5","4","5","4","4","5","4","5","4","7","6","5","7","5","6","8","7","7","5","6","3","6","5","6","1","3","6","6","1","4","6","5","2","5","6","5","6","6","6","3","5","2","2","3","5","2","5","6","5","3","2","5","2","2","5","3","2","2","4","578883788969345024","沈","436","Male","[""好我"",""坏他"",""坏我"",""好他""]","[""强我"",""弱他"",""弱我"",""强他""]","","","","","","","","match","","","","","","","","","","key","f","16.665495412843942","960","536","f","true","match","img/square.png","弱他","弱他","prac_ALT2_ability","practice_ability","","","","","","","","",""
"null","<span style='color:GreenYellow; font-size: 70px;'>正确! </span>","null","html-keyboard-response","47","691927","0.0-8.0-1.0-1.0-0.0-1.18","6","5","6","5","2","4","5","4","4","5","4","1","2","1","1","0","1","2","1","4","5","4","5","4","4","5","4","5","4","7","6","5","7","5","6","8","7","7","5","6","3","6","5","6","1","3","6","6","1","4","6","5","2","5","6","5","6","6","6","3","5","2","2","3","5","2","5","6","5","3","2","5","2","2","5","3","2","2","4","578883788969345024","沈","436","Male","[""好我"",""坏他"",""坏我"",""好他""]","[""强我"",""弱他"",""弱我"",""强他""]","","","","","","","","","","","","","","","","","","","","","","","","","","","","","","feedback_test","","","","","","","","",""
"753","","f","psychophysics","48","693682","0.0-8.0-1.0-1.0-0.0-0.19","6","5","6","5","2","4","5","4","4","5","4","1","2","1","1","0","1","2","1","4","5","4","5","4","4","5","4","5","4","7","6","5","7","5","6","8","7","7","5","6","3","6","5","6","1","3","6","6","1","4","6","5","2","5","6","5","6","6","6","3","5","2","2","3","5","2","5","6","5","3","2","5","2","2","5","3","2","2","4","578883788969345024","沈","436","Male","[""好我"",""坏他"",""坏我"",""好他""]","[""强我"",""弱他"",""弱我"",""强他""]","","","","","","","","match","","","","","","","","","","key","f","16.667798076923084","960","536","j","false","nonmatch","img/square.png","强他","弱他","prac_ALT2_ability","practice_ability","","","","","","","","",""
"null","<span style='color:red; font-size: 70px;'>错误! </span>","null","html-keyboard-response","49","694183","0.0-8.0-1.0-1.0-0.0-1.19","6","5","6","5","2","4","5","4","4","5","4","1","2","1","1","0","1","2","1","4","5","4","5","4","4","5","4","5","4","7","6","5","7","5","6","8","7","7","5","6","3","6","5","6","1","3","6","6","1","4","6","5","2","5","6","5","6","6","6","3","5","2","2","3","5","2","5","6","5","3","2","5","2","2","5","3","2","2","4","578883788969345024","沈","436","Male","[""好我"",""坏他"",""坏我"",""好他""]","[""强我"",""弱他"",""弱我"",""强他""]","","","","","","","","","","","","","","","","","","","","","","","","","","","","","","feedback_test","","","","","","","","",""
"993","","f","psychophysics","50","696177","0.0-8.0-1.0-1.0-0.0-0.20","6","5","6","5","2","4","5","4","4","5","4","1","2","1","1","0","1","2","1","4","5","4","5","4","4","5","4","5","4","7","6","5","7","5","6","8","7","7","5","6","3","6","5","6","1","3","6","6","1","4","6","5","2","5","6","5","6","6","6","3","5","2","2","3","5","2","5","6","5","3","2","5","2","2","5","3","2","2","4","578883788969345024","沈","436","Male","[""好我"",""坏他"",""坏我"",""好他""]","[""强我"",""弱他"",""弱我"",""强他""]","","","","","","","","match","","","","","","","","","","key","f","16.66776470588168","960","536","f","true","match","img/hexagon.png","强他","强他","prac_ALT2_ability","practice_ability","","","","","","","","",""
"null","<span style='color:GreenYellow; font-size: 70px;'>正确! </span>","null","html-keyboard-response","51","696678","0.0-8.0-1.0-1.0-0.0-1.20","6","5","6","5","2","4","5","4","4","5","4","1","2","1","1","0","1","2","1","4","5","4","5","4","4","5","4","5","4","7","6","5","7","5","6","8","7","7","5","6","3","6","5","6","1","3","6","6","1","4","6","5","2","5","6","5","6","6","6","3","5","2","2","3","5","2","5","6","5","3","2","5","2","2","5","3","2","2","4","578883788969345024","沈","436","Male","[""好我"",""坏他"",""坏我"",""好他""]","[""强我"",""弱他"",""弱我"",""强他""]","","","","","","","","","","","","","","","","","","","","","","","","","","","","","","feedback_test","","","","","","","","",""
"1115","","j","psychophysics","52","698793","0.0-8.0-1.0-1.0-0.0-0.21","6","5","6","5","2","4","5","4","4","5","4","1","2","1","1","0","1","2","1","4","5","4","5","4","4","5","4","5","4","7","6","5","7","5","6","8","7","7","5","6","3","6","5","6","1","3","6","6","1","4","6","5","2","5","6","5","6","6","6","3","5","2","2","3","5","2","5","6","5","3","2","5","2","2","5","3","2","2","4","578883788969345024","沈","436","Male","[""好我"",""坏他"",""坏我"",""好他""]","[""强我"",""弱他"",""弱我"",""强他""]","","","","","","","","nonmatch","","","","","","","","","","key","j","16.66204761904812","960","536","f","false","match","img/triangle.png","弱我","弱我","prac_ALT2_ability","practice_ability","","","","","","","","",""
"null","<span style='color:red; font-size: 70px;'>错误! </span>","null","html-keyboard-response","53","699294","0.0-8.0-1.0-1.0-0.0-1.21","6","5","6","5","2","4","5","4","4","5","4","1","2","1","1","0","1","2","1","4","5","4","5","4","4","5","4","5","4","7","6","5","7","5","6","8","7","7","5","6","3","6","5","6","1","3","6","6","1","4","6","5","2","5","6","5","6","6","6","3","5","2","2","3","5","2","5","6","5","3","2","5","2","2","5","3","2","2","4","578883788969345024","沈","436","Male","[""好我"",""坏他"",""坏我"",""好他""]","[""强我"",""弱他"",""弱我"",""强他""]","","","","","","","","","","","","","","","","","","","","","","","","","","","","","","feedback_test","","","","","","","","",""
"994","","f","psychophysics","54","701290","0.0-8.0-1.0-1.0-0.0-0.22","6","5","6","5","2","4","5","4","4","5","4","1","2","1","1","0","1","2","1","4","5","4","5","4","4","5","4","5","4","7","6","5","7","5","6","8","7","7","5","6","3","6","5","6","1","3","6","6","1","4","6","5","2","5","6","5","6","6","6","3","5","2","2","3","5","2","5","6","5","3","2","5","2","2","5","3","2","2","4","578883788969345024","沈","436","Male","[""好我"",""坏他"",""坏我"",""好他""]","[""强我"",""弱他"",""弱我"",""强他""]","","","","","","","","match","","","","","","","","","","key","f","16.667521008402854","960","536","j","false","nonmatch","img/hexagon.png","强我","强他","prac_ALT2_ability","practice_ability","","","","","","","","",""
"null","<span style='color:red; font-size: 70px;'>错误! </span>","null","html-keyboard-response","55","701791","0.0-8.0-1.0-1.0-0.0-1.22","6","5","6","5","2","4","5","4","4","5","4","1","2","1","1","0","1","2","1","4","5","4","5","4","4","5","4","5","4","7","6","5","7","5","6","8","7","7","5","6","3","6","5","6","1","3","6","6","1","4","6","5","2","5","6","5","6","6","6","3","5","2","2","3","5","2","5","6","5","3","2","5","2","2","5","3","2","2","4","578883788969345024","沈","436","Male","[""好我"",""坏他"",""坏我"",""好他""]","[""强我"",""弱他"",""弱我"",""强他""]","","","","","","","","","","","","","","","","","","","","","","","","","","","","","","feedback_test","","","","","","","","",""
"1049","","f","psychophysics","56","703842","0.0-8.0-1.0-1.0-0.0-0.23","6","5","6","5","2","4","5","4","4","5","4","1","2","1","1","0","1","2","1","4","5","4","5","4","4","5","4","5","4","7","6","5","7","5","6","8","7","7","5","6","3","6","5","6","1","3","6","6","1","4","6","5","2","5","6","5","6","6","6","3","5","2","2","3","5","2","5","6","5","3","2","5","2","2","5","3","2","2","4","578883788969345024","沈","436","Male","[""好我"",""坏他"",""坏我"",""好他""]","[""强我"",""弱他"",""弱我"",""强他""]","","","","","","","","match","","","","","","","","","","key","f","16.665483606557483","960","536","f","true","match","img/hexagon.png","强他","强他","prac_ALT2_ability","practice_ability","","","","","","","","",""
"null","<span style='color:GreenYellow; font-size: 70px;'>正确! </span>","null","html-keyboard-response","57","704343","0.0-8.0-1.0-1.0-0.0-1.23","6","5","6","5","2","4","5","4","4","5","4","1","2","1","1","0","1","2","1","4","5","4","5","4","4","5","4","5","4","7","6","5","7","5","6","8","7","7","5","6","3","6","5","6","1","3","6","6","1","4","6","5","2","5","6","5","6","6","6","3","5","2","2","3","5","2","5","6","5","3","2","5","2","2","5","3","2","2","4","578883788969345024","沈","436","Male","[""好我"",""坏他"",""坏我"",""好他""]","[""强我"",""弱他"",""弱我"",""强他""]","","","","","","","","","","","","","","","","","","","","","","","","","","","","","","feedback_test","","","","","","","","",""
"913","","j","psychophysics","58","706258","0.0-8.0-1.0-1.0-0.0-0.24","6","5","6","5","2","4","5","4","4","5","4","1","2","1","1","0","1","2","1","4","5","4","5","4","4","5","4","5","4","7","6","5","7","5","6","8","7","7","5","6","3","6","5","6","1","3","6","6","1","4","6","5","2","5","6","5","6","6","6","3","5","2","2","3","5","2","5","6","5","3","2","5","2","2","5","3","2","2","4","578883788969345024","沈","436","Male","[""好我"",""坏他"",""坏我"",""好他""]","[""强我"",""弱他"",""弱我"",""强他""]","","","","","","","","nonmatch","","","","","","","","","","key","j","16.664877192982217","960","536","j","true","nonmatch","img/hexagon.png","强我","强他","prac_ALT2_ability","practice_ability","","","","","","","","",""
"null","<span style='color:GreenYellow; font-size: 70px;'>正确! </span>","null","html-keyboard-response","59","706758","0.0-8.0-1.0-1.0-0.0-1.24","6","5","6","5","2","4","5","4","4","5","4","1","2","1","1","0","1","2","1","4","5","4","5","4","4","5","4","5","4","7","6","5","7","5","6","8","7","7","5","6","3","6","5","6","1","3","6","6","1","4","6","5","2","5","6","5","6","6","6","3","5","2","2","3","5","2","5","6","5","3","2","5","2","2","5","3","2","2","4","578883788969345024","沈","436","Male","[""好我"",""坏他"",""坏我"",""好他""]","[""强我"",""弱他"",""弱我"",""强他""]","","","","","","","","","","","","","","","","","","","","","","","","","","","","","","feedback_test","","","","","","","","",""
"755","","f","psychophysics","60","708514","0.0-8.0-1.0-1.0-0.0-0.25","6","5","6","5","2","4","5","4","4","5","4","1","2","1","1","0","1","2","1","4","5","4","5","4","4","5","4","5","4","7","6","5","7","5","6","8","7","7","5","6","3","6","5","6","1","3","6","6","1","4","6","5","2","5","6","5","6","6","6","3","5","2","2","3","5","2","5","6","5","3","2","5","2","2","5","3","2","2","4","578883788969345024","沈","436","Male","[""好我"",""坏他"",""坏我"",""好他""]","[""强我"",""弱他"",""弱我"",""强他""]","","","","","","","","match","","","","","","","","","","key","f","16.665451923077434","960","536","j","false","nonmatch","img/square.png","强我","弱他","prac_ALT2_ability","practice_ability","","","","","","","","",""
"null","<span style='color:red; font-size: 70px;'>错误! </span>","null","html-keyboard-response","61","709016","0.0-8.0-1.0-1.0-0.0-1.25","6","5","6","5","2","4","5","4","4","5","4","1","2","1","1","0","1","2","1","4","5","4","5","4","4","5","4","5","4","7","6","5","7","5","6","8","7","7","5","6","3","6","5","6","1","3","6","6","1","4","6","5","2","5","6","5","6","6","6","3","5","2","2","3","5","2","5","6","5","3","2","5","2","2","5","3","2","2","4","578883788969345024","沈","436","Male","[""好我"",""坏他"",""坏我"",""好他""]","[""强我"",""弱他"",""弱我"",""强他""]","","","","","","","","","","","","","","","","","","","","","","","","","","","","","","feedback_test","","","","","","","","",""
"937","","f","psychophysics","62","710954","0.0-8.0-1.0-1.0-0.0-0.26","6","5","6","5","2","4","5","4","4","5","4","1","2","1","1","0","1","2","1","4","5","4","5","4","4","5","4","5","4","7","6","5","7","5","6","8","7","7","5","6","3","6","5","6","1","3","6","6","1","4","6","5","2","5","6","5","6","6","6","3","5","2","2","3","5","2","5","6","5","3","2","5","2","2","5","3","2","2","4","578883788969345024","沈","436","Male","[""好我"",""坏他"",""坏我"",""好他""]","[""强我"",""弱他"",""弱我"",""强他""]","","","","","","","","match","","","","","","","","","","key","f","16.667930434781898","960","536","j","false","nonmatch","img/ellipse.png","弱我","强我","prac_ALT2_ability","practice_ability","","","","","","","","",""
"null","<span style='color:red; font-size: 70px;'>错误! </span>","null","html-keyboard-response","63","711456","0.0-8.0-1.0-1.0-0.0-1.26","6","5","6","5","2","4","5","4","4","5","4","1","2","1","1","0","1","2","1","4","5","4","5","4","4","5","4","5","4","7","6","5","7","5","6","8","7","7","5","6","3","6","5","6","1","3","6","6","1","4","6","5","2","5","6","5","6","6","6","3","5","2","2","3","5","2","5","6","5","3","2","5","2","2","5","3","2","2","4","578883788969345024","沈","436","Male","[""好我"",""坏他"",""坏我"",""好他""]","[""强我"",""弱他"",""弱我"",""强他""]","","","","","","","","","","","","","","","","","","","","","","","","","","","","","","feedback_test","","","","","","","","",""
"960","","j","psychophysics","64","713418","0.0-8.0-1.0-1.0-0.0-0.27","6","5","6","5","2","4","5","4","4","5","4","1","2","1","1","0","1","2","1","4","5","4","5","4","4","5","4","5","4","7","6","5","7","5","6","8","7","7","5","6","3","6","5","6","1","3","6","6","1","4","6","5","2","5","6","5","6","6","6","3","5","2","2","3","5","2","5","6","5","3","2","5","2","2","5","3","2","2","4","578883788969345024","沈","436","Male","[""好我"",""坏他"",""坏我"",""好他""]","[""强我"",""弱他"",""弱我"",""强他""]","","","","","","","","nonmatch","","","","","","","","","","key","j","16.66516379310332","960","536","j","true","nonmatch","img/hexagon.png","弱我","强他","prac_ALT2_ability","practice_ability","","","","","","","","",""
"null","<span style='color:GreenYellow; font-size: 70px;'>正确! </span>","null","html-keyboard-response","65","713918","0.0-8.0-1.0-1.0-0.0-1.27","6","5","6","5","2","4","5","4","4","5","4","1","2","1","1","0","1","2","1","4","5","4","5","4","4","5","4","5","4","7","6","5","7","5","6","8","7","7","5","6","3","6","5","6","1","3","6","6","1","4","6","5","2","5","6","5","6","6","6","3","5","2","2","3","5","2","5","6","5","3","2","5","2","2","5","3","2","2","4","578883788969345024","沈","436","Male","[""好我"",""坏他"",""坏我"",""好他""]","[""强我"",""弱他"",""弱我"",""强他""]","","","","","","","","","","","","","","","","","","","","","","","","","","","","","","feedback_test","","","","","","","","",""
"914","","f","psychophysics","66","715833","0.0-8.0-1.0-1.0-0.0-0.28","6","5","6","5","2","4","5","4","4","5","4","1","2","1","1","0","1","2","1","4","5","4","5","4","4","5","4","5","4","7","6","5","7","5","6","8","7","7","5","6","3","6","5","6","1","3","6","6","1","4","6","5","2","5","6","5","6","6","6","3","5","2","2","3","5","2","5","6","5","3","2","5","2","2","5","3","2","2","4","578883788969345024","沈","436","Male","[""好我"",""坏他"",""坏我"",""好他""]","[""强我"",""弱他"",""弱我"",""强他""]","","","","","","","","match","","","","","","","","","","key","f","16.664254385964707","960","536","f","true","match","img/hexagon.png","强他","强他","prac_ALT2_ability","practice_ability","","","","","","","","",""
"null","<span style='color:GreenYellow; font-size: 70px;'>正确! </span>","null","html-keyboard-response","67","716335","0.0-8.0-1.0-1.0-0.0-1.28","6","5","6","5","2","4","5","4","4","5","4","1","2","1","1","0","1","2","1","4","5","4","5","4","4","5","4","5","4","7","6","5","7","5","6","8","7","7","5","6","3","6","5","6","1","3","6","6","1","4","6","5","2","5","6","5","6","6","6","3","5","2","2","3","5","2","5","6","5","3","2","5","2","2","5","3","2","2","4","578883788969345024","沈","436","Male","[""好我"",""坏他"",""坏我"",""好他""]","[""强我"",""弱他"",""弱我"",""强他""]","","","","","","","","","","","","","","","","","","","","","","","","","","","","","","feedback_test","","","","","","","","",""
"937","","j","psychophysics","68","718273","0.0-8.0-1.0-1.0-0.0-0.29","6","5","6","5","2","4","5","4","4","5","4","1","2","1","1","0","1","2","1","4","5","4","5","4","4","5","4","5","4","7","6","5","7","5","6","8","7","7","5","6","3","6","5","6","1","3","6","6","1","4","6","5","2","5","6","5","6","6","6","3","5","2","2","3","5","2","5","6","5","3","2","5","2","2","5","3","2","2","4","578883788969345024","沈","436","Male","[""好我"",""坏他"",""坏我"",""好他""]","[""强我"",""弱他"",""弱我"",""强他""]","","","","","","","","nonmatch","","","","","","","","","","key","j","16.664818965517796","960","536","j","true","nonmatch","img/square.png","强他","弱他","prac_ALT2_ability","practice_ability","","","","","","","","",""
"null","<span style='color:GreenYellow; font-size: 70px;'>正确! </span>","null","html-keyboard-response","69","718774","0.0-8.0-1.0-1.0-0.0-1.29","6","5","6","5","2","4","5","4","4","5","4","1","2","1","1","0","1","2","1","4","5","4","5","4","4","5","4","5","4","7","6","5","7","5","6","8","7","7","5","6","3","6","5","6","1","3","6","6","1","4","6","5","2","5","6","5","6","6","6","3","5","2","2","3","5","2","5","6","5","3","2","5","2","2","5","3","2","2","4","578883788969345024","沈","436","Male","[""好我"",""坏他"",""坏我"",""好他""]","[""强我"",""弱他"",""弱我"",""强他""]","","","","","","","","","","","","","","","","","","","","","","","","","","","","","","feedback_test","","","","","","","","",""
"1066","","f","psychophysics","70","720842","0.0-8.0-1.0-1.0-0.0-0.30","6","5","6","5","2","4","5","4","4","5","4","1","2","1","1","0","1","2","1","4","5","4","5","4","4","5","4","5","4","7","6","5","7","5","6","8","7","7","5","6","3","6","5","6","1","3","6","6","1","4","6","5","2","5","6","5","6","6","6","3","5","2","2","3","5","2","5","6","5","3","2","5","2","2","5","3","2","2","4","578883788969345024","沈","436","Male","[""好我"",""坏他"",""坏我"",""好他""]","[""强我"",""弱他"",""弱我"",""强他""]","","","","","","","","match","","","","","","","","","","key","f","16.66500000000034","960","536","j","false","nonmatch","img/ellipse.png","强他","强我","prac_ALT2_ability","practice_ability","","","","","","","","",""
"null","<span style='color:red; font-size: 70px;'>错误! </span>","null","html-keyboard-response","71","721342","0.0-8.0-1.0-1.0-0.0-1.30","6","5","6","5","2","4","5","4","4","5","4","1","2","1","1","0","1","2","1","4","5","4","5","4","4","5","4","5","4","7","6","5","7","5","6","8","7","7","5","6","3","6","5","6","1","3","6","6","1","4","6","5","2","5","6","5","6","6","6","3","5","2","2","3","5","2","5","6","5","3","2","5","2","2","5","3","2","2","4","578883788969345024","沈","436","Male","[""好我"",""坏他"",""坏我"",""好他""]","[""强我"",""弱他"",""弱我"",""强他""]","","","","","","","","","","","","","","","","","","","","","","","","","","","","","","feedback_test","","","","","","","","",""
"923","","j","psychophysics","72","723266","0.0-8.0-1.0-1.0-0.0-0.31","6","5","6","5","2","4","5","4","4","5","4","1","2","1","1","0","1","2","1","4","5","4","5","4","4","5","4","5","4","7","6","5","7","5","6","8","7","7","5","6","3","6","5","6","1","3","6","6","1","4","6","5","2","5","6","5","6","6","6","3","5","2","2","3","5","2","5","6","5","3","2","5","2","2","5","3","2","2","4","578883788969345024","沈","436","Male","[""好我"",""坏他"",""坏我"",""好他""]","[""强我"",""弱他"",""弱我"",""强他""]","","","","","","","","nonmatch","","","","","","","","","","key","j","16.6670789473686","960","536","j","true","nonmatch","img/ellipse.png","弱他","强我","prac_ALT2_ability","practice_ability","","","","","","","","",""
"null","<span style='color:GreenYellow; font-size: 70px;'>正确! </span>","null","html-keyboard-response","73","723766","0.0-8.0-1.0-1.0-0.0-1.31","6","5","6","5","2","4","5","4","4","5","4","1","2","1","1","0","1","2","1","4","5","4","5","4","4","5","4","5","4","7","6","5","7","5","6","8","7","7","5","6","3","6","5","6","1","3","6","6","1","4","6","5","2","5","6","5","6","6","6","3","5","2","2","3","5","2","5","6","5","3","2","5","2","2","5","3","2","2","4","578883788969345024","沈","436","Male","[""好我"",""坏他"",""坏我"",""好他""]","[""强我"",""弱他"",""弱我"",""强他""]","","","","","","","","","","","","","","","","","","","","","","","","","","","","","","feedback_test","","","","","","","","",""
"898","","j","psychophysics","74","725666","0.0-8.0-1.0-1.0-0.0-0.32","6","5","6","5","2","4","5","4","4","5","4","1","2","1","1","0","1","2","1","4","5","4","5","4","4","5","4","5","4","7","6","5","7","5","6","8","7","7","5","6","3","6","5","6","1","3","6","6","1","4","6","5","2","5","6","5","6","6","6","3","5","2","2","3","5","2","5","6","5","3","2","5","2","2","5","3","2","2","4","578883788969345024","沈","436","Male","[""好我"",""坏他"",""坏我"",""好他""]","[""强我"",""弱他"",""弱我"",""强他""]","","","","","","","","nonmatch","","","","","","","","","","key","j","16.66584070796452","960","536","j","true","nonmatch","img/hexagon.png","弱他","强他","prac_ALT2_ability","practice_ability","","","","","","","","",""
"null","<span style='color:GreenYellow; font-size: 70px;'>正确! </span>","null","html-keyboard-response","75","726166","0.0-8.0-1.0-1.0-0.0-1.32","6","5","6","5","2","4","5","4","4","5","4","1","2","1","1","0","1","2","1","4","5","4","5","4","4","5","4","5","4","7","6","5","7","5","6","8","7","7","5","6","3","6","5","6","1","3","6","6","1","4","6","5","2","5","6","5","6","6","6","3","5","2","2","3","5","2","5","6","5","3","2","5","2","2","5","3","2","2","4","578883788969345024","沈","436","Male","[""好我"",""坏他"",""坏我"",""好他""]","[""强我"",""弱他"",""弱我"",""强他""]","","","","","","","","","","","","","","","","","","","","","","","","","","","","","","feedback_test","","","","","","","","",""
"858","","j","psychophysics","76","728026","0.0-8.0-1.0-1.0-0.0-0.33","6","5","6","5","2","4","5","4","4","5","4","1","2","1","1","0","1","2","1","4","5","4","5","4","4","5","4","5","4","7","6","5","7","5","6","8","7","7","5","6","3","6","5","6","1","3","6","6","1","4","6","5","2","5","6","5","6","6","6","3","5","2","2","3","5","2","5","6","5","3","2","5","2","2","5","3","2","2","4","578883788969345024","沈","436","Male","[""好我"",""坏他"",""坏我"",""好他""]","[""强我"",""弱他"",""弱我"",""强他""]","","","","","","","","nonmatch","","","","","","","","","","key","j","16.667846846846267","960","536","j","true","nonmatch","img/square.png","弱我","弱他","prac_ALT2_ability","practice_ability","","","","","","","","",""
"null","<span style='color:GreenYellow; font-size: 70px;'>正确! </span>","null","html-keyboard-response","77","728526","0.0-8.0-1.0-1.0-0.0-1.33","6","5","6","5","2","4","5","4","4","5","4","1","2","1","1","0","1","2","1","4","5","4","5","4","4","5","4","5","4","7","6","5","7","5","6","8","7","7","5","6","3","6","5","6","1","3","6","6","1","4","6","5","2","5","6","5","6","6","6","3","5","2","2","3","5","2","5","6","5","3","2","5","2","2","5","3","2","2","4","578883788969345024","沈","436","Male","[""好我"",""坏他"",""坏我"",""好他""]","[""强我"",""弱他"",""弱我"",""强他""]","","","","","","","","","","","","","","","","","","","","","","","","","","","","","","feedback_test","","","","","","","","",""
"986","","f","psychophysics","78","730513","0.0-8.0-1.0-1.0-0.0-0.34","6","5","6","5","2","4","5","4","4","5","4","1","2","1","1","0","1","2","1","4","5","4","5","4","4","5","4","5","4","7","6","5","7","5","6","8","7","7","5","6","3","6","5","6","1","3","6","6","1","4","6","5","2","5","6","5","6","6","6","3","5","2","2","3","5","2","5","6","5","3","2","5","2","2","5","3","2","2","4","578883788969345024","沈","436","Male","[""好我"",""坏他"",""坏我"",""好他""]","[""强我"",""弱他"",""弱我"",""强他""]","","","","","","","","match","","","","","","","","","","key","f","16.66705084745713","960","536","f","true","match","img/ellipse.png","强我","强我","prac_ALT2_ability","practice_ability","","","","","","","","",""
"null","<span style='color:GreenYellow; font-size: 70px;'>正确! </span>","null","html-keyboard-response","79","731014","0.0-8.0-1.0-1.0-0.0-1.34","6","5","6","5","2","4","5","4","4","5","4","1","2","1","1","0","1","2","1","4","5","4","5","4","4","5","4","5","4","7","6","5","7","5","6","8","7","7","5","6","3","6","5","6","1","3","6","6","1","4","6","5","2","5","6","5","6","6","6","3","5","2","2","3","5","2","5","6","5","3","2","5","2","2","5","3","2","2","4","578883788969345024","沈","436","Male","[""好我"",""坏他"",""坏我"",""好他""]","[""强我"",""弱他"",""弱我"",""强他""]","","","","","","","","","","","","","","","","","","","","","","","","","","","","","","feedback_test","","","","","","","","",""
"null","","null","psychophysics","80","733216","0.0-8.0-1.0-1.0-0.0-0.35","6","5","6","5","2","4","5","4","4","5","4","1","2","1","1","0","1","2","1","4","5","4","5","4","4","5","4","5","4","7","6","5","7","5","6","8","7","7","5","6","3","6","5","6","1","3","6","6","1","4","6","5","2","5","6","5","6","6","6","3","5","2","2","3","5","2","5","6","5","3","2","5","2","2","5","3","2","2","4","578883788969345024","沈","436","Male","[""好我"",""坏他"",""坏我"",""好他""]","[""强我"",""弱他"",""弱我"",""强他""]","","","","","","","","null","","","","","","","","","","key","null","16.666793893129594","960","536","f","false","match","img/hexagon.png","强他","强他","prac_ALT2_ability","practice_ability","","","","","","","","",""
"null","<span class='add_' style='color:yellow; font-size: 70px;'> 太慢! </span>","null","html-keyboard-response","81","733717","0.0-8.0-1.0-1.0-0.0-1.35","6","5","6","5","2","4","5","4","4","5","4","1","2","1","1","0","1","2","1","4","5","4","5","4","4","5","4","5","4","7","6","5","7","5","6","8","7","7","5","6","3","6","5","6","1","3","6","6","1","4","6","5","2","5","6","5","6","6","6","3","5","2","2","3","5","2","5","6","5","3","2","5","2","2","5","3","2","2","4","578883788969345024","沈","436","Male","[""好我"",""坏他"",""坏我"",""好他""]","[""强我"",""弱他"",""弱我"",""强他""]","","","","","","","","","","","","","","","","","","","","","","","","","","","","","","feedback_test","","","","","","","","",""
"1011","","j","psychophysics","82","735730","0.0-8.0-1.0-1.0-0.0-0.36","6","5","6","5","2","4","5","4","4","5","4","1","2","1","1","0","1","2","1","4","5","4","5","4","4","5","4","5","4","7","6","5","7","5","6","8","7","7","5","6","3","6","5","6","1","3","6","6","1","4","6","5","2","5","6","5","6","6","6","3","5","2","2","3","5","2","5","6","5","3","2","5","2","2","5","3","2","2","4","578883788969345024","沈","436","Male","[""好我"",""坏他"",""坏我"",""好他""]","[""强我"",""弱他"",""弱我"",""强他""]","","","","","","","","nonmatch","","","","","","","","","","key","j","16.665374999999766","960","536","j","true","nonmatch","img/triangle.png","强我","弱我","prac_ALT2_ability","practice_ability","","","","","","","","",""
"null","<span style='color:GreenYellow; font-size: 70px;'>正确! </span>","null","html-keyboard-response","83","736231","0.0-8.0-1.0-1.0-0.0-1.36","6","5","6","5","2","4","5","4","4","5","4","1","2","1","1","0","1","2","1","4","5","4","5","4","4","5","4","5","4","7","6","5","7","5","6","8","7","7","5","6","3","6","5","6","1","3","6","6","1","4","6","5","2","5","6","5","6","6","6","3","5","2","2","3","5","2","5","6","5","3","2","5","2","2","5","3","2","2","4","578883788969345024","沈","436","Male","[""好我"",""坏他"",""坏我"",""好他""]","[""强我"",""弱他"",""弱我"",""强他""]","","","","","","","","","","","","","","","","","","","","","","","","","","","","","","feedback_test","","","","","","","","",""
"962","","j","psychophysics","84","738194","0.0-8.0-1.0-1.0-0.0-0.37","6","5","6","5","2","4","5","4","4","5","4","1","2","1","1","0","1","2","1","4","5","4","5","4","4","5","4","5","4","7","6","5","7","5","6","8","7","7","5","6","3","6","5","6","1","3","6","6","1","4","6","5","2","5","6","5","6","6","6","3","5","2","2","3","5","2","5","6","5","3","2","5","2","2","5","3","2","2","4","578883788969345024","沈","436","Male","[""好我"",""坏他"",""坏我"",""好他""]","[""强我"",""弱他"",""弱我"",""强他""]","","","","","","","","nonmatch","","","","","","","","","","key","j","16.667290598290382","960","536","j","true","nonmatch","img/triangle.png","弱他","弱我","prac_ALT2_ability","practice_ability","","","","","","","","",""
"null","<span style='color:GreenYellow; font-size: 70px;'>正确! </span>","null","html-keyboard-response","85","738694","0.0-8.0-1.0-1.0-0.0-1.37","6","5","6","5","2","4","5","4","4","5","4","1","2","1","1","0","1","2","1","4","5","4","5","4","4","5","4","5","4","7","6","5","7","5","6","8","7","7","5","6","3","6","5","6","1","3","6","6","1","4","6","5","2","5","6","5","6","6","6","3","5","2","2","3","5","2","5","6","5","3","2","5","2","2","5","3","2","2","4","578883788969345024","沈","436","Male","[""好我"",""坏他"",""坏我"",""好他""]","[""强我"",""弱他"",""弱我"",""强他""]","","","","","","","","","","","","","","","","","","","","","","","","","","","","","","feedback_test","","","","","","","","",""
"null","","null","psychophysics","86","740896","0.0-8.0-1.0-1.0-0.0-0.38","6","5","6","5","2","4","5","4","4","5","4","1","2","1","1","0","1","2","1","4","5","4","5","4","4","5","4","5","4","7","6","5","7","5","6","8","7","7","5","6","3","6","5","6","1","3","6","6","1","4","6","5","2","5","6","5","6","6","6","3","5","2","2","3","5","2","5","6","5","3","2","5","2","2","5","3","2","2","4","578883788969345024","沈","436","Male","[""好我"",""坏他"",""坏我"",""好他""]","[""强我"",""弱他"",""弱我"",""强他""]","","","","","","","","null","","","","","","","","","","key","null","16.667595419847007","960","536","f","false","match","img/hexagon.png","强他","强他","prac_ALT2_ability","practice_ability","","","","","","","","",""
"null","<span class='add_' style='color:yellow; font-size: 70px;'> 太慢! </span>","null","html-keyboard-response","87","741397","0.0-8.0-1.0-1.0-0.0-1.38","6","5","6","5","2","4","5","4","4","5","4","1","2","1","1","0","1","2","1","4","5","4","5","4","4","5","4","5","4","7","6","5","7","5","6","8","7","7","5","6","3","6","5","6","1","3","6","6","1","4","6","5","2","5","6","5","6","6","6","3","5","2","2","3","5","2","5","6","5","3","2","5","2","2","5","3","2","2","4","578883788969345024","沈","436","Male","[""好我"",""坏他"",""坏我"",""好他""]","[""强我"",""弱他"",""弱我"",""强他""]","","","","","","","","","","","","","","","","","","","","","","","","","","","","","","feedback_test","","","","","","","","",""
"931","","j","psychophysics","88","743330","0.0-8.0-1.0-1.0-0.0-0.39","6","5","6","5","2","4","5","4","4","5","4","1","2","1","1","0","1","2","1","4","5","4","5","4","4","5","4","5","4","7","6","5","7","5","6","8","7","7","5","6","3","6","5","6","1","3","6","6","1","4","6","5","2","5","6","5","6","6","6","3","5","2","2","3","5","2","5","6","5","3","2","5","2","2","5","3","2","2","4","578883788969345024","沈","436","Male","[""好我"",""坏他"",""坏我"",""好他""]","[""强我"",""弱他"",""弱我"",""强他""]","","","","","","","","nonmatch","","","","","","","","","","key","j","16.66768695652161","960","536","f","false","match","img/ellipse.png","强我","强我","prac_ALT2_ability","practice_ability","","","","","","","","",""
"null","<span style='color:red; font-size: 70px;'>错误! </span>","null","html-keyboard-response","89","743830","0.0-8.0-1.0-1.0-0.0-1.39","6","5","6","5","2","4","5","4","4","5","4","1","2","1","1","0","1","2","1","4","5","4","5","4","4","5","4","5","4","7","6","5","7","5","6","8","7","7","5","6","3","6","5","6","1","3","6","6","1","4","6","5","2","5","6","5","6","6","6","3","5","2","2","3","5","2","5","6","5","3","2","5","2","2","5","3","2","2","4","578883788969345024","沈","436","Male","[""好我"",""坏他"",""坏我"",""好他""]","[""强我"",""弱他"",""弱我"",""强他""]","","","","","","","","","","","","","","","","","","","","","","","","","","","","","","feedback_test","","","","","","","","",""
"826","","f","psychophysics","90","745657","0.0-8.0-1.0-1.0-0.0-0.40","6","5","6","5","2","4","5","4","4","5","4","1","2","1","1","0","1","2","1","4","5","4","5","4","4","5","4","5","4","7","6","5","7","5","6","8","7","7","5","6","3","6","5","6","1","3","6","6","1","4","6","5","2","5","6","5","6","6","6","3","5","2","2","3","5","2","5","6","5","3","2","5","2","2","5","3","2","2","4","578883788969345024","沈","436","Male","[""好我"",""坏他"",""坏我"",""好他""]","[""强我"",""弱他"",""弱我"",""强他""]","","","","","","","","match","","","","","","","","","","key","f","16.6677155963299","960","536","f","true","match","img/triangle.png","弱我","弱我","prac_ALT2_ability","practice_ability","","","","","","","","",""
"null","<span style='color:GreenYellow; font-size: 70px;'>正确! </span>","null","html-keyboard-response","91","746158","0.0-8.0-1.0-1.0-0.0-1.40","6","5","6","5","2","4","5","4","4","5","4","1","2","1","1","0","1","2","1","4","5","4","5","4","4","5","4","5","4","7","6","5","7","5","6","8","7","7","5","6","3","6","5","6","1","3","6","6","1","4","6","5","2","5","6","5","6","6","6","3","5","2","2","3","5","2","5","6","5","3","2","5","2","2","5","3","2","2","4","578883788969345024","沈","436","Male","[""好我"",""坏他"",""坏我"",""好他""]","[""强我"",""弱他"",""弱我"",""强他""]","","","","","","","","","","","","","","","","","","","","","","","","","","","","","","feedback_test","","","","","","","","",""
"1002","","f","psychophysics","92","748162","0.0-8.0-1.0-1.0-0.0-0.41","6","5","6","5","2","4","5","4","4","5","4","1","2","1","1","0","1","2","1","4","5","4","5","4","4","5","4","5","4","7","6","5","7","5","6","8","7","7","5","6","3","6","5","6","1","3","6","6","1","4","6","5","2","5","6","5","6","6","6","3","5","2","2","3","5","2","5","6","5","3","2","5","2","2","5","3","2","2","4","578883788969345024","沈","436","Male","[""好我"",""坏他"",""坏我"",""好他""]","[""强我"",""弱他"",""弱我"",""强他""]","","","","","","","","match","","","","","","","","","","key","f","16.666109243697417","960","536","f","true","match","img/triangle.png","弱我","弱我","prac_ALT2_ability","practice_ability","","","","","","","","",""
"null","<span style='color:GreenYellow; font-size: 70px;'>正确! </span>","null","html-keyboard-response","93","748668","0.0-8.0-1.0-1.0-0.0-1.41","6","5","6","5","2","4","5","4","4","5","4","1","2","1","1","0","1","2","1","4","5","4","5","4","4","5","4","5","4","7","6","5","7","5","6","8","7","7","5","6","3","6","5","6","1","3","6","6","1","4","6","5","2","5","6","5","6","6","6","3","5","2","2","3","5","2","5","6","5","3","2","5","2","2","5","3","2","2","4","578883788969345024","沈","436","Male","[""好我"",""坏他"",""坏我"",""好他""]","[""强我"",""弱他"",""弱我"",""强他""]","","","","","","","","","","","","","","","","","","","","","","","","","","","","","","feedback_test","","","","","","","","",""
"829","","j","psychophysics","94","750498","0.0-8.0-1.0-1.0-0.0-0.42","6","5","6","5","2","4","5","4","4","5","4","1","2","1","1","0","1","2","1","4","5","4","5","4","4","5","4","5","4","7","6","5","7","5","6","8","7","7","5","6","3","6","5","6","1","3","6","6","1","4","6","5","2","5","6","5","6","6","6","3","5","2","2","3","5","2","5","6","5","3","2","5","2","2","5","3","2","2","4","578883788969345024","沈","436","Male","[""好我"",""坏他"",""坏我"",""好他""]","[""强我"",""弱他"",""弱我"",""强他""]","","","","","","","","nonmatch","","","","","","","","","","key","j","16.665759259259275","960","536","f","false","match","img/square.png","弱他","弱他","prac_ALT2_ability","practice_ability","","","","","","","","",""
"null","<span style='color:red; font-size: 70px;'>错误! </span>","null","html-keyboard-response","95","750998","0.0-8.0-1.0-1.0-0.0-1.42","6","5","6","5","2","4","5","4","4","5","4","1","2","1","1","0","1","2","1","4","5","4","5","4","4","5","4","5","4","7","6","5","7","5","6","8","7","7","5","6","3","6","5","6","1","3","6","6","1","4","6","5","2","5","6","5","6","6","6","3","5","2","2","3","5","2","5","6","5","3","2","5","2","2","5","3","2","2","4","578883788969345024","沈","436","Male","[""好我"",""坏他"",""坏我"",""好他""]","[""强我"",""弱他"",""弱我"",""强他""]","","","","","","","","","","","","","","","","","","","","","","","","","","","","","","feedback_test","","","","","","","","",""
"null","","null","psychophysics","96","753199","0.0-8.0-1.0-1.0-0.0-0.43","6","5","6","5","2","4","5","4","4","5","4","1","2","1","1","0","1","2","1","4","5","4","5","4","4","5","4","5","4","7","6","5","7","5","6","8","7","7","5","6","3","6","5","6","1","3","6","6","1","4","6","5","2","5","6","5","6","6","6","3","5","2","2","3","5","2","5","6","5","3","2","5","2","2","5","3","2","2","4","578883788969345024","沈","436","Male","[""好我"",""坏他"",""坏我"",""好他""]","[""强我"",""弱他"",""弱我"",""强他""]","","","","","","","","null","","","","","","","","","","key","null","16.666862595419378","960","536","f","false","match","img/triangle.png","弱我","弱我","prac_ALT2_ability","practice_ability","","","","","","","","",""
"null","<span class='add_' style='color:yellow; font-size: 70px;'> 太慢! </span>","null","html-keyboard-response","97","753701","0.0-8.0-1.0-1.0-0.0-1.43","6","5","6","5","2","4","5","4","4","5","4","1","2","1","1","0","1","2","1","4","5","4","5","4","4","5","4","5","4","7","6","5","7","5","6","8","7","7","5","6","3","6","5","6","1","3","6","6","1","4","6","5","2","5","6","5","6","6","6","3","5","2","2","3","5","2","5","6","5","3","2","5","2","2","5","3","2","2","4","578883788969345024","沈","436","Male","[""好我"",""坏他"",""坏我"",""好他""]","[""强我"",""弱他"",""弱我"",""强他""]","","","","","","","","","","","","","","","","","","","","","","","","","","","","","","feedback_test","","","","","","","","",""
"1140","","f","psychophysics","98","755842","0.0-8.0-1.0-1.0-0.0-0.44","6","5","6","5","2","4","5","4","4","5","4","1","2","1","1","0","1","2","1","4","5","4","5","4","4","5","4","5","4","7","6","5","7","5","6","8","7","7","5","6","3","6","5","6","1","3","6","6","1","4","6","5","2","5","6","5","6","6","6","3","5","2","2","3","5","2","5","6","5","3","2","5","2","2","5","3","2","2","4","578883788969345024","沈","436","Male","[""好我"",""坏他"",""坏我"",""好他""]","[""强我"",""弱他"",""弱我"",""强他""]","","","","","","","","match","","","","","","","","","","key","f","16.666929133857902","960","536","f","true","match","img/square.png","弱他","弱他","prac_ALT2_ability","practice_ability","","","","","","","","",""
"null","<span style='color:GreenYellow; font-size: 70px;'>正确! </span>","null","html-keyboard-response","99","756342","0.0-8.0-1.0-1.0-0.0-1.44","6","5","6","5","2","4","5","4","4","5","4","1","2","1","1","0","1","2","1","4","5","4","5","4","4","5","4","5","4","7","6","5","7","5","6","8","7","7","5","6","3","6","5","6","1","3","6","6","1","4","6","5","2","5","6","5","6","6","6","3","5","2","2","3","5","2","5","6","5","3","2","5","2","2","5","3","2","2","4","578883788969345024","沈","436","Male","[""好我"",""坏他"",""坏我"",""好他""]","[""强我"",""弱他"",""弱我"",""强他""]","","","","","","","","","","","","","","","","","","","","","","","","","","","","","","feedback_test","","","","","","","","",""
"null","","null","psychophysics","100","758544","0.0-8.0-1.0-1.0-0.0-0.45","6","5","6","5","2","4","5","4","4","5","4","1","2","1","1","0","1","2","1","4","5","4","5","4","4","5","4","5","4","7","6","5","7","5","6","8","7","7","5","6","3","6","5","6","1","3","6","6","1","4","6","5","2","5","6","5","6","6","6","3","5","2","2","3","5","2","5","6","5","3","2","5","2","2","5","3","2","2","4","578883788969345024","沈","436","Male","[""好我"",""坏他"",""坏我"",""好他""]","[""强我"",""弱他"",""弱我"",""强他""]","","","","","","","","null","","","","","","","","","","key","null","16.667068702289622","960","536","j","false","nonmatch","img/triangle.png","强他","弱我","prac_ALT2_ability","practice_ability","","","","","","","","",""
"null","<span class='add_' style='color:yellow; font-size: 70px;'> 太慢! </span>","null","html-keyboard-response","101","759046","0.0-8.0-1.0-1.0-0.0-1.45","6","5","6","5","2","4","5","4","4","5","4","1","2","1","1","0","1","2","1","4","5","4","5","4","4","5","4","5","4","7","6","5","7","5","6","8","7","7","5","6","3","6","5","6","1","3","6","6","1","4","6","5","2","5","6","5","6","6","6","3","5","2","2","3","5","2","5","6","5","3","2","5","2","2","5","3","2","2","4","578883788969345024","沈","436","Male","[""好我"",""坏他"",""坏我"",""好他""]","[""强我"",""弱他"",""弱我"",""强他""]","","","","","","","","","","","","","","","","","","","","","","","","","","","","","","feedback_test","","","","","","","","",""
"747","","f","psychophysics","102","760793","0.0-8.0-1.0-1.0-0.0-0.46","6","5","6","5","2","4","5","4","4","5","4","1","2","1","1","0","1","2","1","4","5","4","5","4","4","5","4","5","4","7","6","5","7","5","6","8","7","7","5","6","3","6","5","6","1","3","6","6","1","4","6","5","2","5","6","5","6","6","6","3","5","2","2","3","5","2","5","6","5","3","2","5","2","2","5","3","2","2","4","578883788969345024","沈","436","Male","[""好我"",""坏他"",""坏我"",""好他""]","[""强我"",""弱他"",""弱我"",""强他""]","","","","","","","","match","","","","","","","","","","key","f","16.667951923076405","960","536","f","true","match","img/square.png","弱他","弱他","prac_ALT2_ability","practice_ability","","","","","","","","",""
"null","<span style='color:GreenYellow; font-size: 70px;'>正确! </span>","null","html-keyboard-response","103","761295","0.0-8.0-1.0-1.0-0.0-1.46","6","5","6","5","2","4","5","4","4","5","4","1","2","1","1","0","1","2","1","4","5","4","5","4","4","5","4","5","4","7","6","5","7","5","6","8","7","7","5","6","3","6","5","6","1","3","6","6","1","4","6","5","2","5","6","5","6","6","6","3","5","2","2","3","5","2","5","6","5","3","2","5","2","2","5","3","2","2","4","578883788969345024","沈","436","Male","[""好我"",""坏他"",""坏我"",""好他""]","[""强我"",""弱他"",""弱我"",""强他""]","","","","","","","","","","","","","","","","","","","","","","","","","","","","","","feedback_test","","","","","","","","",""
"978","","f","psychophysics","104","763274","0.0-8.0-1.0-1.0-0.0-0.47","6","5","6","5","2","4","5","4","4","5","4","1","2","1","1","0","1","2","1","4","5","4","5","4","4","5","4","5","4","7","6","5","7","5","6","8","7","7","5","6","3","6","5","6","1","3","6","6","1","4","6","5","2","5","6","5","6","6","6","3","5","2","2","3","5","2","5","6","5","3","2","5","2","2","5","3","2","2","4","578883788969345024","沈","436","Male","[""好我"",""坏他"",""坏我"",""好他""]","[""强我"",""弱他"",""弱我"",""强他""]","","","","","","","","match","","","","","","","","","","key","f","16.667957627118795","960","536","f","true","match","img/ellipse.png","强我","强我","prac_ALT2_ability","practice_ability","","","","","","","","",""
"null","<span style='color:GreenYellow; font-size: 70px;'>正确! </span>","null","html-keyboard-response","105","763775","0.0-8.0-1.0-1.0-0.0-1.47","6","5","6","5","2","4","5","4","4","5","4","1","2","1","1","0","1","2","1","4","5","4","5","4","4","5","4","5","4","7","6","5","7","5","6","8","7","7","5","6","3","6","5","6","1","3","6","6","1","4","6","5","2","5","6","5","6","6","6","3","5","2","2","3","5","2","5","6","5","3","2","5","2","2","5","3","2","2","4","578883788969345024","沈","436","Male","[""好我"",""坏他"",""坏我"",""好他""]","[""强我"",""弱他"",""弱我"",""强他""]","","","","","","","","","","","","","","","","","","","","","","","","","","","","","","feedback_test","","","","","","","","",""
"28794","<style>.context{color:white; font-size: 35px; line-height:40px}</style>                          <div><p class='context'>您正确回答了60% 的试次。</p><p class='context'>您的平均反应时为946毫秒。</p><p class='context'>恭喜您完成练习。按空格键进入正式实验。</p><p class='footer' style='color:white;font-size: 35px; line-height:40px;'>请在进入正式实验实验之前将您的<span style='color: lightgreen;'>食指</span>放在电脑键盘的相应键位上进行按键。</p>"," ","html-keyboard-response","106","792570","0.0-8.0-1.0-2.0","6","5","6","5","2","4","5","4","4","5","4","1","2","1","1","0","1","2","1","4","5","4","5","4","4","5","4","5","4","7","6","5","7","5","6","8","7","7","5","6","3","6","5","6","1","3","6","6","1","4","6","5","2","5","6","5","6","6","6","3","5","2","2","3","5","2","5","6","5","3","2","5","2","2","5","3","2","2","4","578883788969345024","沈","436","Male","[""好我"",""坏他"",""坏我"",""好他""]","[""强我"",""弱他"",""弱我"",""强他""]","","","","","","","","","","","","","","","","","","","","","","","","","","","","","","","","","","","","","","",""
"670","
  <p style='color: white; font-size: 22px'>请您将手指放在按键上，准备进入正式的匹配任务。</p>
  <p> <div style = ""color: green""><按空格键进入下一阶段的匹配任务></div></p>
  "," ","html-keyboard-response","107","793242","0.0-8.0-1.0-3.0","6","5","6","5","2","4","5","4","4","5","4","1","2","1","1","0","1","2","1","4","5","4","5","4","4","5","4","5","4","7","6","5","7","5","6","8","7","7","5","6","3","6","5","6","1","3","6","6","1","4","6","5","2","5","6","5","6","6","6","3","5","2","2","3","5","2","5","6","5","3","2","5","2","2","5","3","2","2","4","578883788969345024","沈","436","Male","[""好我"",""坏他"",""坏我"",""好他""]","[""强我"",""弱他"",""弱我"",""强他""]","","","","","","","","","","","","","","","","","","","","","","","","","","","","","","","","","","","","","","",""
"703","","f","psychophysics","108","794946","0.0-8.0-1.0-4.0-0.0-0.0","6","5","6","5","2","4","5","4","4","5","4","1","2","1","1","0","1","2","1","4","5","4","5","4","4","5","4","5","4","7","6","5","7","5","6","8","7","7","5","6","3","6","5","6","1","3","6","6","1","4","6","5","2","5","6","5","6","6","6","3","5","2","2","3","5","2","5","6","5","3","2","5","2","2","5","3","2","2","4","578883788969345024","沈","436","Male","[""好我"",""坏他"",""坏我"",""好他""]","[""强我"",""弱他"",""弱我"",""强他""]","","","","","","","","match","","","","","","","","","","key","f","16.6682277227715","960","536","f","true","match","img/ellipse.png","强我","强我","ALT2","ability","","","","","","","","",""
"null","<span style='color:GreenYellow; font-size: 70px;'>正确! </span>","null","html-keyboard-response","109","795446","0.0-8.0-1.0-4.0-0.0-1.0","6","5","6","5","2","4","5","4","4","5","4","1","2","1","1","0","1","2","1","4","5","4","5","4","4","5","4","5","4","7","6","5","7","5","6","8","7","7","5","6","3","6","5","6","1","3","6","6","1","4","6","5","2","5","6","5","6","6","6","3","5","2","2","3","5","2","5","6","5","3","2","5","2","2","5","3","2","2","4","578883788969345024","沈","436","Male","[""好我"",""坏他"",""坏我"",""好他""]","[""强我"",""弱他"",""弱我"",""强他""]","","","","","","","","","","","","","","","","","","","","","","","","","","","","","","feedback_test","","","","","","","","",""
"1019","","j","psychophysics","110","797466","0.0-8.0-1.0-4.0-0.0-0.1","6","5","6","5","2","4","5","4","4","5","4","1","2","1","1","0","1","2","1","4","5","4","5","4","4","5","4","5","4","7","6","5","7","5","6","8","7","7","5","6","3","6","5","6","1","3","6","6","1","4","6","5","2","5","6","5","6","6","6","3","5","2","2","3","5","2","5","6","5","3","2","5","2","2","5","3","2","2","4","578883788969345024","沈","436","Male","[""好我"",""坏他"",""坏我"",""好他""]","[""强我"",""弱他"",""弱我"",""强他""]","","","","","","","","nonmatch","","","","","","","","","","key","j","16.66535537190012","960","536","f","false","match","img/square.png","弱他","弱他","ALT2","ability","","","","","","","","",""
"null","<span style='color:red; font-size: 70px;'>错误! </span>","null","html-keyboard-response","111","797967","0.0-8.0-1.0-4.0-0.0-1.1","6","5","6","5","2","4","5","4","4","5","4","1","2","1","1","0","1","2","1","4","5","4","5","4","4","5","4","5","4","7","6","5","7","5","6","8","7","7","5","6","3","6","5","6","1","3","6","6","1","4","6","5","2","5","6","5","6","6","6","3","5","2","2","3","5","2","5","6","5","3","2","5","2","2","5","3","2","2","4","578883788969345024","沈","436","Male","[""好我"",""坏他"",""坏我"",""好他""]","[""强我"",""弱他"",""弱我"",""强他""]","","","","","","","","","","","","","","","","","","","","","","","","","","","","","","feedback_test","","","","","","","","",""
"1065","","f","psychophysics","112","800034","0.0-8.0-1.0-4.0-0.0-0.2","6","5","6","5","2","4","5","4","4","5","4","1","2","1","1","0","1","2","1","4","5","4","5","4","4","5","4","5","4","7","6","5","7","5","6","8","7","7","5","6","3","6","5","6","1","3","6","6","1","4","6","5","2","5","6","5","6","6","6","3","5","2","2","3","5","2","5","6","5","3","2","5","2","2","5","3","2","2","4","578883788969345024","沈","436","Male","[""好我"",""坏他"",""坏我"",""好他""]","[""强我"",""弱他"",""弱我"",""强他""]","","","","","","","","match","","","","","","","","","","key","f","16.664560975610065","960","536","f","true","match","img/hexagon.png","强他","强他","ALT2","ability","","","","","","","","",""
"null","<span style='color:GreenYellow; font-size: 70px;'>正确! </span>","null","html-keyboard-response","113","800534","0.0-8.0-1.0-4.0-0.0-1.2","6","5","6","5","2","4","5","4","4","5","4","1","2","1","1","0","1","2","1","4","5","4","5","4","4","5","4","5","4","7","6","5","7","5","6","8","7","7","5","6","3","6","5","6","1","3","6","6","1","4","6","5","2","5","6","5","6","6","6","3","5","2","2","3","5","2","5","6","5","3","2","5","2","2","5","3","2","2","4","578883788969345024","沈","436","Male","[""好我"",""坏他"",""坏我"",""好他""]","[""强我"",""弱他"",""弱我"",""强他""]","","","","","","","","","","","","","","","","","","","","","","","","","","","","","","feedback_test","","","","","","","","",""
"1050","","f","psychophysics","114","802585","0.0-8.0-1.0-4.0-0.0-0.3","6","5","6","5","2","4","5","4","4","5","4","1","2","1","1","0","1","2","1","4","5","4","5","4","4","5","4","5","4","7","6","5","7","5","6","8","7","7","5","6","3","6","5","6","1","3","6","6","1","4","6","5","2","5","6","5","6","6","6","3","5","2","2","3","5","2","5","6","5","3","2","5","2","2","5","3","2","2","4","578883788969345024","沈","436","Male","[""好我"",""坏他"",""坏我"",""好他""]","[""强我"",""弱他"",""弱我"",""强他""]","","","","","","","","match","","","","","","","","","","key","f","16.665073770491528","960","536","f","true","match","img/triangle.png","弱我","弱我","ALT2","ability","","","","","","","","",""
"null","<span style='color:GreenYellow; font-size: 70px;'>正确! </span>","null","html-keyboard-response","115","803086","0.0-8.0-1.0-4.0-0.0-1.3","6","5","6","5","2","4","5","4","4","5","4","1","2","1","1","0","1","2","1","4","5","4","5","4","4","5","4","5","4","7","6","5","7","5","6","8","7","7","5","6","3","6","5","6","1","3","6","6","1","4","6","5","2","5","6","5","6","6","6","3","5","2","2","3","5","2","5","6","5","3","2","5","2","2","5","3","2","2","4","578883788969345024","沈","436","Male","[""好我"",""坏他"",""坏我"",""好他""]","[""强我"",""弱他"",""弱我"",""强他""]","","","","","","","","","","","","","","","","","","","","","","","","","","","","","","feedback_test","","","","","","","","",""
"1066","","j","psychophysics","116","805154","0.0-8.0-1.0-4.0-0.0-0.4","6","5","6","5","2","4","5","4","4","5","4","1","2","1","1","0","1","2","1","4","5","4","5","4","4","5","4","5","4","7","6","5","7","5","6","8","7","7","5","6","3","6","5","6","1","3","6","6","1","4","6","5","2","5","6","5","6","6","6","3","5","2","2","3","5","2","5","6","5","3","2","5","2","2","5","3","2","2","4","578883788969345024","沈","436","Male","[""好我"",""坏他"",""坏我"",""好他""]","[""强我"",""弱他"",""弱我"",""强他""]","","","","","","","","nonmatch","","","","","","","","","","key","j","16.668000000000863","960","536","j","true","nonmatch","img/hexagon.png","强我","强他","ALT2","ability","","","","","","","","",""
"null","<span style='color:GreenYellow; font-size: 70px;'>正确! </span>","null","html-keyboard-response","117","805654","0.0-8.0-1.0-4.0-0.0-1.4","6","5","6","5","2","4","5","4","4","5","4","1","2","1","1","0","1","2","1","4","5","4","5","4","4","5","4","5","4","7","6","5","7","5","6","8","7","7","5","6","3","6","5","6","1","3","6","6","1","4","6","5","2","5","6","5","6","6","6","3","5","2","2","3","5","2","5","6","5","3","2","5","2","2","5","3","2","2","4","578883788969345024","沈","436","Male","[""好我"",""坏他"",""坏我"",""好他""]","[""强我"",""弱他"",""弱我"",""强他""]","","","","","","","","","","","","","","","","","","","","","","","","","","","","","","feedback_test","","","","","","","","",""
"826","","f","psychophysics","118","807482","0.0-8.0-1.0-4.0-0.0-0.5","6","5","6","5","2","4","5","4","4","5","4","1","2","1","1","0","1","2","1","4","5","4","5","4","4","5","4","5","4","7","6","5","7","5","6","8","7","7","5","6","3","6","5","6","1","3","6","6","1","4","6","5","2","5","6","5","6","6","6","3","5","2","2","3","5","2","5","6","5","3","2","5","2","2","5","3","2","2","4","578883788969345024","沈","436","Male","[""好我"",""坏他"",""坏我"",""好他""]","[""强我"",""弱他"",""弱我"",""强他""]","","","","","","","","match","","","","","","","","","","key","f","16.66780733944925","960","536","j","false","nonmatch","img/triangle.png","强我","弱我","ALT2","ability","","","","","","","","",""
"null","<span style='color:red; font-size: 70px;'>错误! </span>","null","html-keyboard-response","119","807983","0.0-8.0-1.0-4.0-0.0-1.5","6","5","6","5","2","4","5","4","4","5","4","1","2","1","1","0","1","2","1","4","5","4","5","4","4","5","4","5","4","7","6","5","7","5","6","8","7","7","5","6","3","6","5","6","1","3","6","6","1","4","6","5","2","5","6","5","6","6","6","3","5","2","2","3","5","2","5","6","5","3","2","5","2","2","5","3","2","2","4","578883788969345024","沈","436","Male","[""好我"",""坏他"",""坏我"",""好他""]","[""强我"",""弱他"",""弱我"",""强他""]","","","","","","","","","","","","","","","","","","","","","","","","","","","","","","feedback_test","","","","","","","","",""
"866","","j","psychophysics","120","809850","0.0-8.0-1.0-4.0-0.0-0.6","6","5","6","5","2","4","5","4","4","5","4","1","2","1","1","0","1","2","1","4","5","4","5","4","4","5","4","5","4","7","6","5","7","5","6","8","7","7","5","6","3","6","5","6","1","3","6","6","1","4","6","5","2","5","6","5","6","6","6","3","5","2","2","3","5","2","5","6","5","3","2","5","2","2","5","3","2","2","4","578883788969345024","沈","436","Male","[""好我"",""坏他"",""坏我"",""好他""]","[""强我"",""弱他"",""弱我"",""强他""]","","","","","","","","nonmatch","","","","","","","","","","key","j","16.663270270270463","960","536","j","true","nonmatch","img/ellipse.png","强他","强我","ALT2","ability","","","","","","","","",""
"null","<span style='color:GreenYellow; font-size: 70px;'>正确! </span>","null","html-keyboard-response","121","810350","0.0-8.0-1.0-4.0-0.0-1.6","6","5","6","5","2","4","5","4","4","5","4","1","2","1","1","0","1","2","1","4","5","4","5","4","4","5","4","5","4","7","6","5","7","5","6","8","7","7","5","6","3","6","5","6","1","3","6","6","1","4","6","5","2","5","6","5","6","6","6","3","5","2","2","3","5","2","5","6","5","3","2","5","2","2","5","3","2","2","4","578883788969345024","沈","436","Male","[""好我"",""坏他"",""坏我"",""好他""]","[""强我"",""弱他"",""弱我"",""强他""]","","","","","","","","","","","","","","","","","","","","","","","","","","","","","","feedback_test","","","","","","","","",""
"969","","f","psychophysics","122","812321","0.0-8.0-1.0-4.0-0.0-0.7","6","5","6","5","2","4","5","4","4","5","4","1","2","1","1","0","1","2","1","4","5","4","5","4","4","5","4","5","4","7","6","5","7","5","6","8","7","7","5","6","3","6","5","6","1","3","6","6","1","4","6","5","2","5","6","5","6","6","6","3","5","2","2","3","5","2","5","6","5","3","2","5","2","2","5","3","2","2","4","578883788969345024","沈","436","Male","[""好我"",""坏他"",""坏我"",""好他""]","[""强我"",""弱他"",""弱我"",""强他""]","","","","","","","","match","","","","","","","","","","key","f","16.667051282050647","960","536","f","true","match","img/triangle.png","弱我","弱我","ALT2","ability","","","","","","","","",""
"null","<span style='color:GreenYellow; font-size: 70px;'>正确! </span>","null","html-keyboard-response","123","812822","0.0-8.0-1.0-4.0-0.0-1.7","6","5","6","5","2","4","5","4","4","5","4","1","2","1","1","0","1","2","1","4","5","4","5","4","4","5","4","5","4","7","6","5","7","5","6","8","7","7","5","6","3","6","5","6","1","3","6","6","1","4","6","5","2","5","6","5","6","6","6","3","5","2","2","3","5","2","5","6","5","3","2","5","2","2","5","3","2","2","4","578883788969345024","沈","436","Male","[""好我"",""坏他"",""坏我"",""好他""]","[""强我"",""弱他"",""弱我"",""强他""]","","","","","","","","","","","","","","","","","","","","","","","","","","","","","","feedback_test","","","","","","","","",""
"755","","f","psychophysics","124","814578","0.0-8.0-1.0-4.0-0.0-0.8","6","5","6","5","2","4","5","4","4","5","4","1","2","1","1","0","1","2","1","4","5","4","5","4","4","5","4","5","4","7","6","5","7","5","6","8","7","7","5","6","3","6","5","6","1","3","6","6","1","4","6","5","2","5","6","5","6","6","6","3","5","2","2","3","5","2","5","6","5","3","2","5","2","2","5","3","2","2","4","578883788969345024","沈","436","Male","[""好我"",""坏他"",""坏我"",""好他""]","[""强我"",""弱他"",""弱我"",""强他""]","","","","","","","","match","","","","","","","","","","key","f","16.6676826923067","960","536","f","true","match","img/hexagon.png","强他","强他","ALT2","ability","","","","","","","","",""
"null","<span style='color:GreenYellow; font-size: 70px;'>正确! </span>","null","html-keyboard-response","125","815079","0.0-8.0-1.0-4.0-0.0-1.8","6","5","6","5","2","4","5","4","4","5","4","1","2","1","1","0","1","2","1","4","5","4","5","4","4","5","4","5","4","7","6","5","7","5","6","8","7","7","5","6","3","6","5","6","1","3","6","6","1","4","6","5","2","5","6","5","6","6","6","3","5","2","2","3","5","2","5","6","5","3","2","5","2","2","5","3","2","2","4","578883788969345024","沈","436","Male","[""好我"",""坏他"",""坏我"",""好他""]","[""强我"",""弱他"",""弱我"",""强他""]","","","","","","","","","","","","","","","","","","","","","","","","","","","","","","feedback_test","","","","","","","","",""
"986","","f","psychophysics","126","817066","0.0-8.0-1.0-4.0-0.0-0.9","6","5","6","5","2","4","5","4","4","5","4","1","2","1","1","0","1","2","1","4","5","4","5","4","4","5","4","5","4","7","6","5","7","5","6","8","7","7","5","6","3","6","5","6","1","3","6","6","1","4","6","5","2","5","6","5","6","6","6","3","5","2","2","3","5","2","5","6","5","3","2","5","2","2","5","3","2","2","4","578883788969345024","沈","436","Male","[""好我"",""坏他"",""坏我"",""好他""]","[""强我"",""弱他"",""弱我"",""强他""]","","","","","","","","match","","","","","","","","","","key","f","16.665613445378018","960","536","f","true","match","img/triangle.png","弱我","弱我","ALT2","ability","","","","","","","","",""
"null","<span style='color:GreenYellow; font-size: 70px;'>正确! </span>","null","html-keyboard-response","127","817567","0.0-8.0-1.0-4.0-0.0-1.9","6","5","6","5","2","4","5","4","4","5","4","1","2","1","1","0","1","2","1","4","5","4","5","4","4","5","4","5","4","7","6","5","7","5","6","8","7","7","5","6","3","6","5","6","1","3","6","6","1","4","6","5","2","5","6","5","6","6","6","3","5","2","2","3","5","2","5","6","5","3","2","5","2","2","5","3","2","2","4","578883788969345024","沈","436","Male","[""好我"",""坏他"",""坏我"",""好他""]","[""强我"",""弱他"",""弱我"",""强他""]","","","","","","","","","","","","","","","","","","","","","","","","","","","","","","feedback_test","","","","","","","","",""
"961","","f","psychophysics","128","819530","0.0-8.0-1.0-4.0-0.0-0.10","6","5","6","5","2","4","5","4","4","5","4","1","2","1","1","0","1","2","1","4","5","4","5","4","4","5","4","5","4","7","6","5","7","5","6","8","7","7","5","6","3","6","5","6","1","3","6","6","1","4","6","5","2","5","6","5","6","6","6","3","5","2","2","3","5","2","5","6","5","3","2","5","2","2","5","3","2","2","4","578883788969345024","沈","436","Male","[""好我"",""坏他"",""坏我"",""好他""]","[""强我"",""弱他"",""弱我"",""强他""]","","","","","","","","match","","","","","","","","","","key","f","16.66573275862049","960","536","j","false","nonmatch","img/square.png","强他","弱他","ALT2","ability","","","","","","","","",""
"null","<span style='color:red; font-size: 70px;'>错误! </span>","null","html-keyboard-response","129","820030","0.0-8.0-1.0-4.0-0.0-1.10","6","5","6","5","2","4","5","4","4","5","4","1","2","1","1","0","1","2","1","4","5","4","5","4","4","5","4","5","4","7","6","5","7","5","6","8","7","7","5","6","3","6","5","6","1","3","6","6","1","4","6","5","2","5","6","5","6","6","6","3","5","2","2","3","5","2","5","6","5","3","2","5","2","2","5","3","2","2","4","578883788969345024","沈","436","Male","[""好我"",""坏他"",""坏我"",""好他""]","[""强我"",""弱他"",""弱我"",""强他""]","","","","","","","","","","","","","","","","","","","","","","","","","","","","","","feedback_test","","","","","","","","",""
"747","","f","psychophysics","130","821778","0.0-8.0-1.0-4.0-0.0-0.11","6","5","6","5","2","4","5","4","4","5","4","1","2","1","1","0","1","2","1","4","5","4","5","4","4","5","4","5","4","7","6","5","7","5","6","8","7","7","5","6","3","6","5","6","1","3","6","6","1","4","6","5","2","5","6","5","6","6","6","3","5","2","2","3","5","2","5","6","5","3","2","5","2","2","5","3","2","2","4","578883788969345024","沈","436","Male","[""好我"",""坏他"",""坏我"",""好他""]","[""强我"",""弱他"",""弱我"",""强他""]","","","","","","","","match","","","","","","","","","","key","f","16.666689320388294","960","536","f","true","match","img/square.png","弱他","弱他","ALT2","ability","","","","","","","","",""
"null","<span style='color:GreenYellow; font-size: 70px;'>正确! </span>","null","html-keyboard-response","131","822279","0.0-8.0-1.0-4.0-0.0-1.11","6","5","6","5","2","4","5","4","4","5","4","1","2","1","1","0","1","2","1","4","5","4","5","4","4","5","4","5","4","7","6","5","7","5","6","8","7","7","5","6","3","6","5","6","1","3","6","6","1","4","6","5","2","5","6","5","6","6","6","3","5","2","2","3","5","2","5","6","5","3","2","5","2","2","5","3","2","2","4","578883788969345024","沈","436","Male","[""好我"",""坏他"",""坏我"",""好他""]","[""强我"",""弱他"",""弱我"",""强他""]","","","","","","","","","","","","","","","","","","","","","","","","","","","","","","feedback_test","","","","","","","","",""
"978","","f","psychophysics","132","824258","0.0-8.0-1.0-4.0-0.0-0.12","6","5","6","5","2","4","5","4","4","5","4","1","2","1","1","0","1","2","1","4","5","4","5","4","4","5","4","5","4","7","6","5","7","5","6","8","7","7","5","6","3","6","5","6","1","3","6","6","1","4","6","5","2","5","6","5","6","6","6","3","5","2","2","3","5","2","5","6","5","3","2","5","2","2","5","3","2","2","4","578883788969345024","沈","436","Male","[""好我"",""坏他"",""坏我"",""好他""]","[""强我"",""弱他"",""弱我"",""强他""]","","","","","","","","match","","","","","","","","","","key","f","16.6653474576276","960","536","j","false","nonmatch","img/square.png","弱我","弱他","ALT2","ability","","","","","","","","",""
"null","<span style='color:red; font-size: 70px;'>错误! </span>","null","html-keyboard-response","133","824759","0.0-8.0-1.0-4.0-0.0-1.12","6","5","6","5","2","4","5","4","4","5","4","1","2","1","1","0","1","2","1","4","5","4","5","4","4","5","4","5","4","7","6","5","7","5","6","8","7","7","5","6","3","6","5","6","1","3","6","6","1","4","6","5","2","5","6","5","6","6","6","3","5","2","2","3","5","2","5","6","5","3","2","5","2","2","5","3","2","2","4","578883788969345024","沈","436","Male","[""好我"",""坏他"",""坏我"",""好他""]","[""强我"",""弱他"",""弱我"",""强他""]","","","","","","","","","","","","","","","","","","","","","","","","","","","","","","feedback_test","","","","","","","","",""
"1114","","f","psychophysics","134","826874","0.0-8.0-1.0-4.0-0.0-0.13","6","5","6","5","2","4","5","4","4","5","4","1","2","1","1","0","1","2","1","4","5","4","5","4","4","5","4","5","4","7","6","5","7","5","6","8","7","7","5","6","3","6","5","6","1","3","6","6","1","4","6","5","2","5","6","5","6","6","6","3","5","2","2","3","5","2","5","6","5","3","2","5","2","2","5","3","2","2","4","578883788969345024","沈","436","Male","[""好我"",""坏他"",""坏我"",""好他""]","[""强我"",""弱他"",""弱我"",""强他""]","","","","","","","","match","","","","","","","","","","key","f","16.66659523809462","960","536","f","true","match","img/ellipse.png","强我","强我","ALT2","ability","","","","","","","","",""
"null","<span style='color:GreenYellow; font-size: 70px;'>正确! </span>","null","html-keyboard-response","135","827375","0.0-8.0-1.0-4.0-0.0-1.13","6","5","6","5","2","4","5","4","4","5","4","1","2","1","1","0","1","2","1","4","5","4","5","4","4","5","4","5","4","7","6","5","7","5","6","8","7","7","5","6","3","6","5","6","1","3","6","6","1","4","6","5","2","5","6","5","6","6","6","3","5","2","2","3","5","2","5","6","5","3","2","5","2","2","5","3","2","2","4","578883788969345024","沈","436","Male","[""好我"",""坏他"",""坏我"",""好他""]","[""强我"",""弱他"",""弱我"",""强他""]","","","","","","","","","","","","","","","","","","","","","","","","","","","","","","feedback_test","","","","","","","","",""
"850","","j","psychophysics","136","829226","0.0-8.0-1.0-4.0-0.0-0.14","6","5","6","5","2","4","5","4","4","5","4","1","2","1","1","0","1","2","1","4","5","4","5","4","4","5","4","5","4","7","6","5","7","5","6","8","7","7","5","6","3","6","5","6","1","3","6","6","1","4","6","5","2","5","6","5","6","6","6","3","5","2","2","3","5","2","5","6","5","3","2","5","2","2","5","3","2","2","4","578883788969345024","沈","436","Male","[""好我"",""坏他"",""坏我"",""好他""]","[""强我"",""弱他"",""弱我"",""强他""]","","","","","","","","nonmatch","","","","","","","","","","key","j","16.668199999999807","960","536","j","true","nonmatch","img/hexagon.png","弱我","强他","ALT2","ability","","","","","","","","",""
"null","<span style='color:GreenYellow; font-size: 70px;'>正确! </span>","null","html-keyboard-response","137","829727","0.0-8.0-1.0-4.0-0.0-1.14","6","5","6","5","2","4","5","4","4","5","4","1","2","1","1","0","1","2","1","4","5","4","5","4","4","5","4","5","4","7","6","5","7","5","6","8","7","7","5","6","3","6","5","6","1","3","6","6","1","4","6","5","2","5","6","5","6","6","6","3","5","2","2","3","5","2","5","6","5","3","2","5","2","2","5","3","2","2","4","578883788969345024","沈","436","Male","[""好我"",""坏他"",""坏我"",""好他""]","[""强我"",""弱他"",""弱我"",""强他""]","","","","","","","","","","","","","","","","","","","","","","","","","","","","","","feedback_test","","","","","","","","",""
"1003","","f","psychophysics","138","831730","0.0-8.0-1.0-4.0-0.0-0.15","6","5","6","5","2","4","5","4","4","5","4","1","2","1","1","0","1","2","1","4","5","4","5","4","4","5","4","5","4","7","6","5","7","5","6","8","7","7","5","6","3","6","5","6","1","3","6","6","1","4","6","5","2","5","6","5","6","6","6","3","5","2","2","3","5","2","5","6","5","3","2","5","2","2","5","3","2","2","4","578883788969345024","沈","436","Male","[""好我"",""坏他"",""坏我"",""好他""]","[""强我"",""弱他"",""弱我"",""强他""]","","","","","","","","match","","","","","","","","","","key","f","16.665571428571255","960","536","f","true","match","img/square.png","弱他","弱他","ALT2","ability","","","","","","","","",""
