"rt","stimulus","response","trial_type","trial_index","time_elapsed","internal_node_id","swb_1","swb_2","swb_3","swb_4","swb_5","LOT_1","LOT_2","LOT_3","LOT_4","LOT_5","LOT_6","IPC_1","IPC_2","IPC_3","IPC_4","IPC_5","IPC_6","IPC_7","IPC_8","MorIden_1","MorIden_2","MorIden_3","MorIden_4","MorIden_5","MorIden_6","MorIden_7","MorIden_8","MorIden_9","MorIden_10","moralSeImag_1","moralSeImag_2","moralSeImag_3","moralSeImag_4","moralSeImag_5","moralSeImag_6","moralSeImag_7","moralSeImag_8","moralSeImag_9","sde_1","sde_2","sde_3","sde_4","sde_5","sde_6","sde_7","sde_8","sde_9","sde_10","trap2","sde_11","sde_12","sde_13","sde_14","sde_15","sde_16","sde_17","sde_18","sde_19","sde_20","IM_1","IM_2","IM_3","IM_4","IM_5","IM_6","IM_7","IM_8","IM_9","IM_10","IM_11","IM_12","IM_13","IM_14","IM_15","IM_16","IM_17","IM_18","IM_19","IM_20","subj_idx","friend_name","ParticipantID","Sex","Word","Word2","value","success","timeout","failed_images","failed_audio","failed_video","user_agent","responses","item_order","radio_event_ids","radio_event_times","key_event_times","mouse_event_times","straightlining","zigzagging","honeypot","task_id","screen_id","time_stamp","response_type","key_press","avg_frame_time","center_x","center_y","person","word","valence","domain","math","correct_response","correct","status","view_history","identity","duration","Image","condition","question_order","trap2_item"
"6132","
   <p><div style='color:white; font-size: 25px'>您好，欢迎参加本次实验。</div></p>
   <p><div style='color:white; font-size: 25px'>为充分保障您的权利，请确保您已经知晓并同意《参与实验同意书》以及《数据公开知情同意书》。</div></p>
   <p><div style='color:white; font-size: 25px'>如果您未见过上述内容，请咨询实验员。</div></p>
   <p style='color:white; font-size: 25px'>如果您选择继续实验，则表示您已经清楚两份知情同意书的内容并同意。</p>
   <p><div style = ""color: pink;font-size:30px;"">请确保您记得day0的实验编号，您将在本次实验输入该编号，若您忘记，请咨询实验员后作答。</div></p>
   <p><div style = ""color:lightblue;font-size:25px;"">请您尽可能认真地作答，我们将依据您在各问卷和按键任务中的作答质量发放报酬。</div></p>
   <p> <div style = ""color: green""><按空格键至下页></div> </p>
   "," ","html-keyboard-response","0","6136","0.0-0.0","6","6","6","4","6","5","4","5","4","4","5","2","1","1","2","0","1","2","2","5","4","5","5","4","4","4","4","4","4","5","5","6","5","3","7","5","5","5","5","7","6","5","6","5","6","2","6","6","1","6","3","7","1","5","6","5","7","7","6","3","6","3","6","3","7","7","7","7","7","7","6","3","2","2","7","3","7","6","7","781830643909922818","王","90","Male","[""坏他"",""好我"",""坏我"",""好他""]","[""弱他"",""强我"",""弱我"",""强他""]","","","","","","","","","","","","","","","","","","","","","","","","","","","","","","","","","","","","","","",""
"","","","call-function","1","6136","0.0-1.0-0.0","6","6","6","4","6","5","4","5","4","4","5","2","1","1","2","0","1","2","2","5","4","5","5","4","4","4","4","4","4","5","5","6","5","3","7","5","5","5","5","7","6","5","6","5","6","2","6","6","1","6","3","7","1","5","6","5","7","7","6","3","6","3","6","3","7","7","7","7","7","7","6","3","2","2","7","3","7","6","7","781830643909922818","王","90","Male","[""坏他"",""好我"",""坏我"",""好他""]","[""弱他"",""强我"",""弱我"",""强他""]","","","","","","","","","","","","","","","","","","","","","","","","","","","","","","","","","","","","","","",""
"12460","","[{""name"":""friend_name"",""value"":""王""},{""name"":""ParticipantID"",""value"":""90""}]","survey-html-form","2","18597","0.0-1.0-1.0","6","6","6","4","6","5","4","5","4","4","5","2","1","1","2","0","1","2","2","5","4","5","5","4","4","4","4","4","4","5","5","6","5","3","7","5","5","5","5","7","6","5","6","5","6","2","6","6","1","6","3","7","1","5","6","5","7","7","6","3","6","3","6","3","7","7","7","7","7","7","6","3","2","2","7","3","7","6","7","781830643909922818","王","90","Male","[""坏他"",""好我"",""坏我"",""好他""]","[""弱他"",""强我"",""弱我"",""强他""]","","","","","","","","","","","","","","","","","","","","","","","","","","","","","","","","","","","","","","",""
"","","","preload","3","21861","0.0-2.0","6","6","6","4","6","5","4","5","4","4","5","2","1","1","2","0","1","2","2","5","4","5","5","4","4","4","4","4","4","5","5","6","5","3","7","5","5","5","5","7","6","5","6","5","6","2","6","6","1","6","3","7","1","5","6","5","7","7","6","3","6","3","6","3","7","7","7","7","7","7","6","3","2","2","7","3","7","6","7","781830643909922818","王","90","Male","[""坏他"",""好我"",""坏我"",""好他""]","[""弱他"",""强我"",""弱我"",""强他""]","","true","false","[]","[]","[]","","","","","","","","","","","","","","","","","","","","","","","","","","","","","","","","",""
"","","","fullscreen","4","23774","0.0-3.0","6","6","6","4","6","5","4","5","4","4","5","2","1","1","2","0","1","2","2","5","4","5","5","4","4","4","4","4","4","5","5","6","5","3","7","5","5","5","5","7","6","5","6","5","6","2","6","6","1","6","3","7","1","5","6","5","7","7","6","3","6","3","6","3","7","7","7","7","7","7","6","3","2","2","7","3","7","6","7","781830643909922818","王","90","Male","[""坏他"",""好我"",""坏我"",""好他""]","[""弱他"",""强我"",""弱我"",""强他""]","","true","","","","","{}","","","","","","","","","","","","","","","","","","","","","","","","","","","","","","","",""
"11403.600000023842","","{""Q01"":""6"",""Q02"":""6"",""Q03"":""6"",""Q04"":""4"",""Q05"":""6""}","survey-template","5","35180","0.0-4.0","6","6","6","4","6","5","4","5","4","4","5","2","1","1","2","0","1","2","2","5","4","5","5","4","4","4","4","4","4","5","5","6","5","3","7","5","5","5","5","7","6","5","6","5","6","2","6","6","1","6","3","7","1","5","6","5","7","7","6","3","6","3","6","3","7","7","7","7","7","7","6","3","2","2","7","3","7","6","7","781830643909922818","王","90","Male","[""坏他"",""好我"",""坏我"",""好他""]","[""弱他"",""强我"",""弱我"",""强他""]","","","","","","","","{""Q01"":""6"",""Q02"":""6"",""Q03"":""6"",""Q04"":""4"",""Q05"":""6""}","[0,1,2,3,4]","[""Q01"",""Q01"",""Q02"",""Q03"",""Q04"",""Q05""]","[2273.5,3420.600000023842,4876.100000023842,6099.899999976158,8233.5,10630]","[]","[2273.5,3420.600000023842,4876.100000023842,6099.899999976158,8233.5,9993.800000071526,10630,11402.200000047684]","0.8","0","0","","","","","","","","","","","","","","","","","","","","","","",""
"14910.600000023842","","{""Q01"":""5"",""Q02"":""4"",""Q03"":""5"",""Q04"":""4"",""Q05"":""4"",""Q06"":""5""}","survey-template","6","50094","0.0-5.0","6","6","6","4","6","5","4","5","4","4","5","2","1","1","2","0","1","2","2","5","4","5","5","4","4","4","4","4","4","5","5","6","5","3","7","5","5","5","5","7","6","5","6","5","6","2","6","6","1","6","3","7","1","5","6","5","7","7","6","3","6","3","6","3","7","7","7","7","7","7","6","3","2","2","7","3","7","6","7","781830643909922818","王","90","Male","[""坏他"",""好我"",""坏我"",""好他""]","[""弱他"",""强我"",""弱我"",""强他""]","","","","","","","","{""Q01"":""5"",""Q02"":""4"",""Q03"":""5"",""Q04"":""4"",""Q05"":""4"",""Q06"":""5""}","[0,1,2,3,4,5]","[""Q01"",""Q02"",""Q03"",""Q04"",""Q05"",""Q06""]","[2147.600000023842,4203.5,5581.600000023842,10227.5,11802.299999952316,14093.199999928474]","[]","[2147.600000023842,4203.5,5581.600000023842,10227.5,11802.299999952316,14093.199999928474,14909.600000023842]","0.5","0","0","","","","","","","","","","","","","","","","","","","","","","",""
"13727.600000023842","","{""Q01"":""2"",""Q02"":""1"",""Q03"":""1"",""Q04"":""2"",""Q05"":""0"",""Q06"":""1"",""Q07"":""2"",""Q08"":""2""}","survey-template","7","63824","0.0-6.0","6","6","6","4","6","5","4","5","4","4","5","2","1","1","2","0","1","2","2","5","4","5","5","4","4","4","4","4","4","5","5","6","5","3","7","5","5","5","5","7","6","5","6","5","6","2","6","6","1","6","3","7","1","5","6","5","7","7","6","3","6","3","6","3","7","7","7","7","7","7","6","3","2","2","7","3","7","6","7","781830643909922818","王","90","Male","[""坏他"",""好我"",""坏我"",""好他""]","[""弱他"",""强我"",""弱我"",""强他""]","","","","","","","","{""Q01"":""2"",""Q02"":""1"",""Q03"":""1"",""Q04"":""2"",""Q05"":""0"",""Q06"":""1"",""Q07"":""2"",""Q08"":""2""}","[0,1,2,3,4,5,6,7]","[""Q01"",""Q02"",""Q03"",""Q04"",""Q05"",""Q06"",""Q07"",""Q08""]","[2303,3775.899999976158,5203.799999952316,6977.899999976158,8811.899999976158,10302,11941.600000023842,13057.600000023842]","[]","[2303,3775.899999976158,5203.799999952316,6977.899999976158,8811.899999976158,10302,11941.600000023842,13057.600000023842,13726.5]","0.5","0.5714285714285714","0","","","","","","","","","","","","","","","","","","","","","","",""
"35970","
    <p><div style='color:white;font-size:35px; line-height:20px;'>词汇评估任务</div></p><br>
    <p><div style='color:white;font-size:25px; line-height:20px;'>请再次回忆该亲密的朋友，你们至少2年前就认识了，并且最近2年经常见面。</div></p>
    <p><div style='color:white;font-size:25px; line-height:20px;'>在本实验中，您将会看到一些形容词。</div></p>
    <p><div style='color:yellow;font-size:25px; line-height:20px;'>您的任务是判断这些形容词是否符合对您自己或您的朋友的描述。</div></p><p style='font-size:35px'>符合按<span style=""color:lightgreen""> f 键</span>，不符合按<span style=""color:red""> j 键</span></p>","0","html-button-response","8","99796","0.0-7.0-0.0","6","6","6","4","6","5","4","5","4","4","5","2","1","1","2","0","1","2","2","5","4","5","5","4","4","4","4","4","4","5","5","6","5","3","7","5","5","5","5","7","6","5","6","5","6","2","6","6","1","6","3","7","1","5","6","5","7","7","6","3","6","3","6","3","7","7","7","7","7","7","6","3","2","2","7","3","7","6","7","781830643909922818","王","90","Male","[""坏他"",""好我"",""坏我"",""好他""]","[""弱他"",""强我"",""弱我"",""强他""]","","","","","","","","","","","","","","","","","SRET_EW","EW_instructions","Tue Dec 12 2023 15:24:21 GMT+0800 (中国标准时间)","","","","","","","","","","","","","","","","","","","",""
"null","","null","psychophysics","9","102808","0.0-7.0-1.0-0.0","6","6","6","4","6","5","4","5","4","4","5","2","1","1","2","0","1","2","2","5","4","5","5","4","4","4","4","4","4","5","5","6","5","3","7","5","5","5","5","7","6","5","6","5","6","2","6","6","1","6","3","7","1","5","6","5","7","7","6","3","6","3","6","3","7","7","7","7","7","7","6","3","2","2","7","3","7","6","7","781830643909922818","王","90","Male","[""坏他"",""好我"",""坏我"",""好他""]","[""弱他"",""强我"",""弱我"",""强他""]","","","","","","","","","","","","","","","","","SRET_EW","EW_practice","","key","null","16.56574585635356","768","428","自己","刻板","Negative","ability","","","","","","","","","","",""
"1869","","j","psychophysics","10","105679","0.0-7.0-1.0-0.1","6","6","6","4","6","5","4","5","4","4","5","2","1","1","2","0","1","2","2","5","4","5","5","4","4","4","4","4","4","5","5","6","5","3","7","5","5","5","5","7","6","5","6","5","6","2","6","6","1","6","3","7","1","5","6","5","7","7","6","3","6","3","6","3","7","7","7","7","7","7","6","3","2","2","7","3","7","6","7","781830643909922818","王","90","Male","[""坏他"",""好我"",""坏我"",""好他""]","[""弱他"",""强我"",""弱我"",""强他""]","","","","","","","","no","","","","","","","","","SRET_EW","EW_practice","","key","j","16.66315789473681","768","428","朋友","徇私","Negative","morality","","","","","","","","","","",""
"1268","","f","psychophysics","11","107949","0.0-7.0-1.0-0.2","6","6","6","4","6","5","4","5","4","4","5","2","1","1","2","0","1","2","2","5","4","5","5","4","4","4","4","4","4","5","5","6","5","3","7","5","5","5","5","7","6","5","6","5","6","2","6","6","1","6","3","7","1","5","6","5","7","7","6","3","6","3","6","3","7","7","7","7","7","7","6","3","2","2","7","3","7","6","7","781830643909922818","王","90","Male","[""坏他"",""好我"",""坏我"",""好他""]","[""弱他"",""强我"",""弱我"",""强他""]","","","","","","","","yes","","","","","","","","","SRET_EW","EW_practice","","key","f","16.661481481481395","768","428","自己","严谨","Positive","ability","","","","","","","","","","",""
"1890","","f","psychophysics","12","110842","0.0-7.0-1.0-0.3","6","6","6","4","6","5","4","5","4","4","5","2","1","1","2","0","1","2","2","5","4","5","5","4","4","4","4","4","4","5","5","6","5","3","7","5","5","5","5","7","6","5","6","5","6","2","6","6","1","6","3","7","1","5","6","5","7","7","6","3","6","3","6","3","7","7","7","7","7","7","6","3","2","2","7","3","7","6","7","781830643909922818","王","90","Male","[""坏他"",""好我"",""坏我"",""好他""]","[""弱他"",""强我"",""弱我"",""强他""]","","","","","","","","yes","","","","","","","","","SRET_EW","EW_practice","","key","f","16.660693641618515","768","428","朋友","忠实","Positive","morality","","","","","","","","","","",""
"7973","
    <p><div style='color:white;font-size:35px; line-height:20px;'>请您再次阅读实验要求</div></p><br>
    <p><div style='color:white;font-size:25px; line-height:20px;'>请回忆某一个亲密的朋友，你们至少2年前就认识了，并且最近2年经常见面。</div></p>
    <p><div style='color:white;font-size:25px; line-height:20px;'>在本实验中，您将会看到一些形容词。</div></p>
    <p><div style='color:yellow;font-size:25px; line-height:20px;'>您的任务是判断这些形容词是否符合对您自己或您的朋友的描述。</div></p>
    <p><div class='footer' style='font-size:25px; line-height:20px;'>如果对本实验还有不清楚之处，请立即向实验员咨询。</p><p style='font-size:25px; line-height:20px;'>如果您明白了规则：</p><p style='font-size:22px; line-height:20px;'>请按 继续 进入正式实验</p>
    </div>
    <p style='font-size:35px'>符合按<span style=""color:lightgreen""> f 键</span>，不符合按<span style=""color:red""> j 键</span></p>","0","html-button-response","13","118815","0.0-7.0-2.0","6","6","6","4","6","5","4","5","4","4","5","2","1","1","2","0","1","2","2","5","4","5","5","4","4","4","4","4","4","5","5","6","5","3","7","5","5","5","5","7","6","5","6","5","6","2","6","6","1","6","3","7","1","5","6","5","7","7","6","3","6","3","6","3","7","7","7","7","7","7","6","3","2","2","7","3","7","6","7","781830643909922818","王","90","Male","[""坏他"",""好我"",""坏我"",""好他""]","[""弱他"",""强我"",""弱我"",""强他""]","","","","","","","","","","","","","","","","","SRET_EW","prac_instructions","Tue Dec 12 2023 15:24:21 GMT+0800 (中国标准时间)","","","","","","","","","","","","","","","","","","","",""
"null","","null","psychophysics","14","121820","0.0-7.0-3.0-0.0","6","6","6","4","6","5","4","5","4","4","5","2","1","1","2","0","1","2","2","5","4","5","5","4","4","4","4","4","4","5","5","6","5","3","7","5","5","5","5","7","6","5","6","5","6","2","6","6","1","6","3","7","1","5","6","5","7","7","6","3","6","3","6","3","7","7","7","7","7","7","6","3","2","2","7","3","7","6","7","781830643909922818","王","90","Male","[""坏他"",""好我"",""坏我"",""好他""]","[""弱他"",""强我"",""弱我"",""强他""]","","","","","","","","","","","","","","","","","SRET","EW_formal","","key","null","16.660555555555604","768","428","朋友","务实","Positive","ability","","","","","","","","","","",""
"1048","","j","psychophysics","15","123870","0.0-7.0-3.0-0.1","6","6","6","4","6","5","4","5","4","4","5","2","1","1","2","0","1","2","2","5","4","5","5","4","4","4","4","4","4","5","5","6","5","3","7","5","5","5","5","7","6","5","6","5","6","2","6","6","1","6","3","7","1","5","6","5","7","7","6","3","6","3","6","3","7","7","7","7","7","7","6","3","2","2","7","3","7","6","7","781830643909922818","王","90","Male","[""坏他"",""好我"",""坏我"",""好他""]","[""弱他"",""强我"",""弱我"",""强他""]","","","","","","","","no","","","","","","","","","SRET","EW_formal","","key","j","16.65983606557365","768","428","自己","说谎","Negative","morality","","","","","","","","","","",""
"897","","f","psychophysics","16","125769","0.0-7.0-3.0-0.2","6","6","6","4","6","5","4","5","4","4","5","2","1","1","2","0","1","2","2","5","4","5","5","4","4","4","4","4","4","5","5","6","5","3","7","5","5","5","5","7","6","5","6","5","6","2","6","6","1","6","3","7","1","5","6","5","7","7","6","3","6","3","6","3","7","7","7","7","7","7","6","3","2","2","7","3","7","6","7","781830643909922818","王","90","Male","[""坏他"",""好我"",""坏我"",""好他""]","[""弱他"",""强我"",""弱我"",""强他""]","","","","","","","","yes","","","","","","","","","SRET","EW_formal","","key","f","16.658407079645965","768","428","自己","坚贞","Positive","morality","","","","","","","","","","",""
"1506","","j","psychophysics","17","128276","0.0-7.0-3.0-0.3","6","6","6","4","6","5","4","5","4","4","5","2","1","1","2","0","1","2","2","5","4","5","5","4","4","4","4","4","4","5","5","6","5","3","7","5","5","5","5","7","6","5","6","5","6","2","6","6","1","6","3","7","1","5","6","5","7","7","6","3","6","3","6","3","7","7","7","7","7","7","6","3","2","2","7","3","7","6","7","781830643909922818","王","90","Male","[""坏他"",""好我"",""坏我"",""好他""]","[""弱他"",""强我"",""弱我"",""强他""]","","","","","","","","no","","","","","","","","","SRET","EW_formal","","key","j","16.66241610738263","768","428","朋友","迷糊","Negative","ability","","","","","","","","","","",""
"1689","","j","psychophysics","18","130966","0.0-7.0-3.0-0.4","6","6","6","4","6","5","4","5","4","4","5","2","1","1","2","0","1","2","2","5","4","5","5","4","4","4","4","4","4","5","5","6","5","3","7","5","5","5","5","7","6","5","6","5","6","2","6","6","1","6","3","7","1","5","6","5","7","7","6","3","6","3","6","3","7","7","7","7","7","7","6","3","2","2","7","3","7","6","7","781830643909922818","王","90","Male","[""坏他"",""好我"",""坏我"",""好他""]","[""弱他"",""强我"",""弱我"",""强他""]","","","","","","","","no","","","","","","","","","SRET","EW_formal","","key","j","16.660869565217535","768","428","朋友","阴毒","Negative","morality","","","","","","","","","","",""
"873","","f","psychophysics","19","132840","0.0-7.0-3.0-0.5","6","6","6","4","6","5","4","5","4","4","5","2","1","1","2","0","1","2","2","5","4","5","5","4","4","4","4","4","4","5","5","6","5","3","7","5","5","5","5","7","6","5","6","5","6","2","6","6","1","6","3","7","1","5","6","5","7","7","6","3","6","3","6","3","7","7","7","7","7","7","6","3","2","2","7","3","7","6","7","781830643909922818","王","90","Male","[""坏他"",""好我"",""坏我"",""好他""]","[""弱他"",""强我"",""弱我"",""强他""]","","","","","","","","yes","","","","","","","","","SRET","EW_formal","","key","f","16.661261261261473","768","428","朋友","高尚","Positive","morality","","","","","","","","","","",""
"1030","","f","psychophysics","20","134872","0.0-7.0-3.0-0.6","6","6","6","4","6","5","4","5","4","4","5","2","1","1","2","0","1","2","2","5","4","5","5","4","4","4","4","4","4","5","5","6","5","3","7","5","5","5","5","7","6","5","6","5","6","2","6","6","1","6","3","7","1","5","6","5","7","7","6","3","6","3","6","3","7","7","7","7","7","7","6","3","2","2","7","3","7","6","7","781830643909922818","王","90","Male","[""坏他"",""好我"",""坏我"",""好他""]","[""弱他"",""强我"",""弱我"",""强他""]","","","","","","","","yes","","","","","","","","","SRET","EW_formal","","key","f","16.66363636363651","768","428","自己","厚道","Positive","morality","","","","","","","","","","",""
"1032","","j","psychophysics","21","136905","0.0-7.0-3.0-0.7","6","6","6","4","6","5","4","5","4","4","5","2","1","1","2","0","1","2","2","5","4","5","5","4","4","4","4","4","4","5","5","6","5","3","7","5","5","5","5","7","6","5","6","5","6","2","6","6","1","6","3","7","1","5","6","5","7","7","6","3","6","3","6","3","7","7","7","7","7","7","6","3","2","2","7","3","7","6","7","781830643909922818","王","90","Male","[""坏他"",""好我"",""坏我"",""好他""]","[""弱他"",""强我"",""弱我"",""强他""]","","","","","","","","no","","","","","","","","","SRET","EW_formal","","key","j","16.66198347107443","768","428","自己","失信","Negative","morality","","","","","","","","","","",""
"1022","","f","psychophysics","22","138929","0.0-7.0-3.0-0.8","6","6","6","4","6","5","4","5","4","4","5","2","1","1","2","0","1","2","2","5","4","5","5","4","4","4","4","4","4","5","5","6","5","3","7","5","5","5","5","7","6","5","6","5","6","2","6","6","1","6","3","7","1","5","6","5","7","7","6","3","6","3","6","3","7","7","7","7","7","7","6","3","2","2","7","3","7","6","7","781830643909922818","王","90","Male","[""坏他"",""好我"",""坏我"",""好他""]","[""弱他"",""强我"",""弱我"",""强他""]","","","","","","","","yes","","","","","","","","","SRET","EW_formal","","key","f","16.660330578512347","768","428","自己","愚痴","Negative","ability","","","","","","","","","","",""
"898","","j","psychophysics","23","140830","0.0-7.0-3.0-0.9","6","6","6","4","6","5","4","5","4","4","5","2","1","1","2","0","1","2","2","5","4","5","5","4","4","4","4","4","4","5","5","6","5","3","7","5","5","5","5","7","6","5","6","5","6","2","6","6","1","6","3","7","1","5","6","5","7","7","6","3","6","3","6","3","7","7","7","7","7","7","6","3","2","2","7","3","7","6","7","781830643909922818","王","90","Male","[""坏他"",""好我"",""坏我"",""好他""]","[""弱他"",""强我"",""弱我"",""强他""]","","","","","","","","no","","","","","","","","","SRET","EW_formal","","key","j","16.6610619469025","768","428","朋友","无知","Negative","ability","","","","","","","","","","",""
"913","","j","psychophysics","24","142744","0.0-7.0-3.0-0.10","6","6","6","4","6","5","4","5","4","4","5","2","1","1","2","0","1","2","2","5","4","5","5","4","4","4","4","4","4","5","5","6","5","3","7","5","5","5","5","7","6","5","6","5","6","2","6","6","1","6","3","7","1","5","6","5","7","7","6","3","6","3","6","3","7","7","7","7","7","7","6","3","2","2","7","3","7","6","7","781830643909922818","王","90","Male","[""坏他"",""好我"",""坏我"",""好他""]","[""弱他"",""强我"",""弱我"",""强他""]","","","","","","","","no","","","","","","","","","SRET","EW_formal","","key","j","16.658771929824614","768","428","朋友","独断","Negative","ability","","","","","","","","","","",""
"725","","f","psychophysics","25","144469","0.0-7.0-3.0-0.11","6","6","6","4","6","5","4","5","4","4","5","2","1","1","2","0","1","2","2","5","4","5","5","4","4","4","4","4","4","5","5","6","5","3","7","5","5","5","5","7","6","5","6","5","6","2","6","6","1","6","3","7","1","5","6","5","7","7","6","3","6","3","6","3","7","7","7","7","7","7","6","3","2","2","7","3","7","6","7","781830643909922818","王","90","Male","[""坏他"",""好我"",""坏我"",""好他""]","[""弱他"",""强我"",""弱我"",""强他""]","","","","","","","","yes","","","","","","","","","SRET","EW_formal","","key","f","16.66176470588235","768","428","自己","高效","Positive","ability","","","","","","","","","","",""
"823","","j","psychophysics","26","146293","0.0-7.0-3.0-0.12","6","6","6","4","6","5","4","5","4","4","5","2","1","1","2","0","1","2","2","5","4","5","5","4","4","4","4","4","4","5","5","6","5","3","7","5","5","5","5","7","6","5","6","5","6","2","6","6","1","6","3","7","1","5","6","5","7","7","6","3","6","3","6","3","7","7","7","7","7","7","6","3","2","2","7","3","7","6","7","781830643909922818","王","90","Male","[""坏他"",""好我"",""坏我"",""好他""]","[""弱他"",""强我"",""弱我"",""强他""]","","","","","","","","no","","","","","","","","","SRET","EW_formal","","key","j","16.664220183486186","768","428","自己","草率","Negative","ability","","","","","","","","","","",""
"1273","","f","psychophysics","27","148567","0.0-7.0-3.0-0.13","6","6","6","4","6","5","4","5","4","4","5","2","1","1","2","0","1","2","2","5","4","5","5","4","4","4","4","4","4","5","5","6","5","3","7","5","5","5","5","7","6","5","6","5","6","2","6","6","1","6","3","7","1","5","6","5","7","7","6","3","6","3","6","3","7","7","7","7","7","7","6","3","2","2","7","3","7","6","7","781830643909922818","王","90","Male","[""坏他"",""好我"",""坏我"",""好他""]","[""弱他"",""强我"",""弱我"",""强他""]","","","","","","","","yes","","","","","","","","","SRET","EW_formal","","key","f","16.660000000000043","768","428","自己","好心","Positive","morality","","","","","","","","","","",""
"763","","j","psychophysics","28","150332","0.0-7.0-3.0-0.14","6","6","6","4","6","5","4","5","4","4","5","2","1","1","2","0","1","2","2","5","4","5","5","4","4","4","4","4","4","5","5","6","5","3","7","5","5","5","5","7","6","5","6","5","6","2","6","6","1","6","3","7","1","5","6","5","7","7","6","3","6","3","6","3","7","7","7","7","7","7","6","3","2","2","7","3","7","6","7","781830643909922818","王","90","Male","[""坏他"",""好我"",""坏我"",""好他""]","[""弱他"",""强我"",""弱我"",""强他""]","","","","","","","","no","","","","","","","","","SRET","EW_formal","","key","j","16.66190476190476","768","428","自己","虚伪","Negative","morality","","","","","","","","","","",""
"940","","f","psychophysics","29","152274","0.0-7.0-3.0-0.15","6","6","6","4","6","5","4","5","4","4","5","2","1","1","2","0","1","2","2","5","4","5","5","4","4","4","4","4","4","5","5","6","5","3","7","5","5","5","5","7","6","5","6","5","6","2","6","6","1","6","3","7","1","5","6","5","7","7","6","3","6","3","6","3","7","7","7","7","7","7","6","3","2","2","7","3","7","6","7","781830643909922818","王","90","Male","[""坏他"",""好我"",""坏我"",""好他""]","[""弱他"",""强我"",""弱我"",""强他""]","","","","","","","","yes","","","","","","","","","SRET","EW_formal","","key","f","16.658620689655123","768","428","自己","廉明","Positive","morality","","","","","","","","","","",""
"1656","","j","psychophysics","30","154932","0.0-7.0-3.0-0.16","6","6","6","4","6","5","4","5","4","4","5","2","1","1","2","0","1","2","2","5","4","5","5","4","4","4","4","4","4","5","5","6","5","3","7","5","5","5","5","7","6","5","6","5","6","2","6","6","1","6","3","7","1","5","6","5","7","7","6","3","6","3","6","3","7","7","7","7","7","7","6","3","2","2","7","3","7","6","7","781830643909922818","王","90","Male","[""坏他"",""好我"",""坏我"",""好他""]","[""弱他"",""强我"",""弱我"",""强他""]","","","","","","","","no","","","","","","","","","SRET","EW_formal","","key","j","16.662658227848176","768","428","自己","迂拙","Negative","ability","","","","","","","","","","",""
"1244","","j","psychophysics","31","157177","0.0-7.0-3.0-0.17","6","6","6","4","6","5","4","5","4","4","5","2","1","1","2","0","1","2","2","5","4","5","5","4","4","4","4","4","4","5","5","6","5","3","7","5","5","5","5","7","6","5","6","5","6","2","6","6","1","6","3","7","1","5","6","5","7","7","6","3","6","3","6","3","7","7","7","7","7","7","6","3","2","2","7","3","7","6","7","781830643909922818","王","90","Male","[""坏他"",""好我"",""坏我"",""好他""]","[""弱他"",""强我"",""弱我"",""强他""]","","","","","","","","no","","","","","","","","","SRET","EW_formal","","key","j","16.66417910447761","768","428","朋友","拜金","Negative","morality","","","","","","","","","","",""
"1103","","j","psychophysics","32","159281","0.0-7.0-3.0-0.18","6","6","6","4","6","5","4","5","4","4","5","2","1","1","2","0","1","2","2","5","4","5","5","4","4","4","4","4","4","5","5","6","5","3","7","5","5","5","5","7","6","5","6","5","6","2","6","6","1","6","3","7","1","5","6","5","7","7","6","3","6","3","6","3","7","7","7","7","7","7","6","3","2","2","7","3","7","6","7","781830643909922818","王","90","Male","[""坏他"",""好我"",""坏我"",""好他""]","[""弱他"",""强我"",""弱我"",""强他""]","","","","","","","","no","","","","","","","","","SRET","EW_formal","","key","j","16.66","768","428","自己","贪腐","Negative","morality","","","","","","","","","","",""
"1073","","j","psychophysics","33","161355","0.0-7.0-3.0-0.19","6","6","6","4","6","5","4","5","4","4","5","2","1","1","2","0","1","2","2","5","4","5","5","4","4","4","4","4","4","5","5","6","5","3","7","5","5","5","5","7","6","5","6","5","6","2","6","6","1","6","3","7","1","5","6","5","7","7","6","3","6","3","6","3","7","7","7","7","7","7","6","3","2","2","7","3","7","6","7","781830643909922818","王","90","Male","[""坏他"",""好我"",""坏我"",""好他""]","[""弱他"",""强我"",""弱我"",""强他""]","","","","","","","","no","","","","","","","","","SRET","EW_formal","","key","j","16.662903225806545","768","428","自己","龌龊","Negative","morality","","","","","","","","","","",""
"882","","f","psychophysics","34","163238","0.0-7.0-3.0-0.20","6","6","6","4","6","5","4","5","4","4","5","2","1","1","2","0","1","2","2","5","4","5","5","4","4","4","4","4","4","5","5","6","5","3","7","5","5","5","5","7","6","5","6","5","6","2","6","6","1","6","3","7","1","5","6","5","7","7","6","3","6","3","6","3","7","7","7","7","7","7","6","3","2","2","7","3","7","6","7","781830643909922818","王","90","Male","[""坏他"",""好我"",""坏我"",""好他""]","[""弱他"",""强我"",""弱我"",""强他""]","","","","","","","","yes","","","","","","","","","SRET","EW_formal","","key","f","16.659821428571636","768","428","朋友","礼貌","Positive","morality","","","","","","","","","","",""
"797","","j","psychophysics","35","165036","0.0-7.0-3.0-0.21","6","6","6","4","6","5","4","5","4","4","5","2","1","1","2","0","1","2","2","5","4","5","5","4","4","4","4","4","4","5","5","6","5","3","7","5","5","5","5","7","6","5","6","5","6","2","6","6","1","6","3","7","1","5","6","5","7","7","6","3","6","3","6","3","7","7","7","7","7","7","6","3","2","2","7","3","7","6","7","781830643909922818","王","90","Male","[""坏他"",""好我"",""坏我"",""好他""]","[""弱他"",""强我"",""弱我"",""强他""]","","","","","","","","no","","","","","","","","","SRET","EW_formal","","key","j","16.661682242990818","768","428","朋友","愚蠢","Negative","ability","","","","","","","","","","",""
"1415","","f","psychophysics","36","167452","0.0-7.0-3.0-0.22","6","6","6","4","6","5","4","5","4","4","5","2","1","1","2","0","1","2","2","5","4","5","5","4","4","4","4","4","4","5","5","6","5","3","7","5","5","5","5","7","6","5","6","5","6","2","6","6","1","6","3","7","1","5","6","5","7","7","6","3","6","3","6","3","7","7","7","7","7","7","6","3","2","2","7","3","7","6","7","781830643909922818","王","90","Male","[""坏他"",""好我"",""坏我"",""好他""]","[""弱他"",""强我"",""弱我"",""强他""]","","","","","","","","yes","","","","","","","","","SRET","EW_formal","","key","f","16.661805555555677","768","428","朋友","刻苦","Positive","ability","","","","","","","","","","",""
"1081","","j","psychophysics","37","169535","0.0-7.0-3.0-0.23","6","6","6","4","6","5","4","5","4","4","5","2","1","1","2","0","1","2","2","5","4","5","5","4","4","4","4","4","4","5","5","6","5","3","7","5","5","5","5","7","6","5","6","5","6","2","6","6","1","6","3","7","1","5","6","5","7","7","6","3","6","3","6","3","7","7","7","7","7","7","6","3","2","2","7","3","7","6","7","781830643909922818","王","90","Male","[""坏他"",""好我"",""坏我"",""好他""]","[""弱他"",""强我"",""弱我"",""强他""]","","","","","","","","no","","","","","","","","","SRET","EW_formal","","key","j","16.65806451612908","768","428","自己","学霸","Positive","ability","","","","","","","","","","",""
"1015","","j","psychophysics","38","171552","0.0-7.0-3.0-0.24","6","6","6","4","6","5","4","5","4","4","5","2","1","1","2","0","1","2","2","5","4","5","5","4","4","4","4","4","4","5","5","6","5","3","7","5","5","5","5","7","6","5","6","5","6","2","6","6","1","6","3","7","1","5","6","5","7","7","6","3","6","3","6","3","7","7","7","7","7","7","6","3","2","2","7","3","7","6","7","781830643909922818","王","90","Male","[""坏他"",""好我"",""坏我"",""好他""]","[""弱他"",""强我"",""弱我"",""强他""]","","","","","","","","no","","","","","","","","","SRET","EW_formal","","key","j","16.659999999999854","768","428","朋友","昏庸","Negative","ability","","","","","","","","","","",""
"714","","j","psychophysics","39","173267","0.0-7.0-3.0-0.25","6","6","6","4","6","5","4","5","4","4","5","2","1","1","2","0","1","2","2","5","4","5","5","4","4","4","4","4","4","5","5","6","5","3","7","5","5","5","5","7","6","5","6","5","6","2","6","6","1","6","3","7","1","5","6","5","7","7","6","3","6","3","6","3","7","7","7","7","7","7","6","3","2","2","7","3","7","6","7","781830643909922818","王","90","Male","[""坏他"",""好我"",""坏我"",""好他""]","[""弱他"",""强我"",""弱我"",""强他""]","","","","","","","","no","","","","","","","","","SRET","EW_formal","","key","j","16.66176470588235","768","428","朋友","贪污","Negative","morality","","","","","","","","","","",""
"970","","f","psychophysics","40","175239","0.0-7.0-3.0-0.26","6","6","6","4","6","5","4","5","4","4","5","2","1","1","2","0","1","2","2","5","4","5","5","4","4","4","4","4","4","5","5","6","5","3","7","5","5","5","5","7","6","5","6","5","6","2","6","6","1","6","3","7","1","5","6","5","7","7","6","3","6","3","6","3","7","7","7","7","7","7","6","3","2","2","7","3","7","6","7","781830643909922818","王","90","Male","[""坏他"",""好我"",""坏我"",""好他""]","[""弱他"",""强我"",""弱我"",""强他""]","","","","","","","","yes","","","","","","","","","SRET","EW_formal","","key","f","16.664102564102663","768","428","自己","君子","Positive","morality","","","","","","","","","","",""
"941","","f","psychophysics","41","177182","0.0-7.0-3.0-0.27","6","6","6","4","6","5","4","5","4","4","5","2","1","1","2","0","1","2","2","5","4","5","5","4","4","4","4","4","4","5","5","6","5","3","7","5","5","5","5","7","6","5","6","5","6","2","6","6","1","6","3","7","1","5","6","5","7","7","6","3","6","3","6","3","7","7","7","7","7","7","6","3","2","2","7","3","7","6","7","781830643909922818","王","90","Male","[""坏他"",""好我"",""坏我"",""好他""]","[""弱他"",""强我"",""弱我"",""强他""]","","","","","","","","yes","","","","","","","","","SRET","EW_formal","","key","f","16.65948275862069","768","428","朋友","守法","Positive","morality","","","","","","","","","","",""
"610","","f","psychophysics","42","178792","0.0-7.0-3.0-0.28","6","6","6","4","6","5","4","5","4","4","5","2","1","1","2","0","1","2","2","5","4","5","5","4","4","4","4","4","4","5","5","6","5","3","7","5","5","5","5","7","6","5","6","5","6","2","6","6","1","6","3","7","1","5","6","5","7","7","6","3","6","3","6","3","7","7","7","7","7","7","6","3","2","2","7","3","7","6","7","781830643909922818","王","90","Male","[""坏他"",""好我"",""坏我"",""好他""]","[""弱他"",""强我"",""弱我"",""强他""]","","","","","","","","yes","","","","","","","","","SRET","EW_formal","","key","f","16.658947368421114","768","428","自己","爱国","Positive","morality","","","","","","","","","","",""
"694","","j","psychophysics","43","180488","0.0-7.0-3.0-0.29","6","6","6","4","6","5","4","5","4","4","5","2","1","1","2","0","1","2","2","5","4","5","5","4","4","4","4","4","4","5","5","6","5","3","7","5","5","5","5","7","6","5","6","5","6","2","6","6","1","6","3","7","1","5","6","5","7","7","6","3","6","3","6","3","7","7","7","7","7","7","6","3","2","2","7","3","7","6","7","781830643909922818","王","90","Male","[""坏他"",""好我"",""坏我"",""好他""]","[""弱他"",""强我"",""弱我"",""强他""]","","","","","","","","no","","","","","","","","","SRET","EW_formal","","key","j","16.661386138614034","768","428","朋友","短视","Negative","ability","","","","","","","","","","",""
"613","","j","psychophysics","44","182103","0.0-7.0-3.0-0.30","6","6","6","4","6","5","4","5","4","4","5","2","1","1","2","0","1","2","2","5","4","5","5","4","4","4","4","4","4","5","5","6","5","3","7","5","5","5","5","7","6","5","6","5","6","2","6","6","1","6","3","7","1","5","6","5","7","7","6","3","6","3","6","3","7","7","7","7","7","7","6","3","2","2","7","3","7","6","7","781830643909922818","王","90","Male","[""坏他"",""好我"",""坏我"",""好他""]","[""弱他"",""强我"",""弱我"",""强他""]","","","","","","","","no","","","","","","","","","SRET","EW_formal","","key","j","16.660416666666606","768","428","朋友","低劣","Negative","morality","","","","","","","","","","",""
"null","","null","psychophysics","45","185108","0.0-7.0-3.0-0.31","6","6","6","4","6","5","4","5","4","4","5","2","1","1","2","0","1","2","2","5","4","5","5","4","4","4","4","4","4","5","5","6","5","3","7","5","5","5","5","7","6","5","6","5","6","2","6","6","1","6","3","7","1","5","6","5","7","7","6","3","6","3","6","3","7","7","7","7","7","7","6","3","2","2","7","3","7","6","7","781830643909922818","王","90","Male","[""坏他"",""好我"",""坏我"",""好他""]","[""弱他"",""强我"",""弱我"",""强他""]","","","","","","","","","","","","","","","","","SRET","EW_formal","","key","null","16.66145251396645","768","428","自己","歹毒","Negative","morality","","","","","","","","","","",""
"726","","f","psychophysics","46","186838","0.0-7.0-3.0-0.32","6","6","6","4","6","5","4","5","4","4","5","2","1","1","2","0","1","2","2","5","4","5","5","4","4","4","4","4","4","5","5","6","5","3","7","5","5","5","5","7","6","5","6","5","6","2","6","6","1","6","3","7","1","5","6","5","7","7","6","3","6","3","6","3","7","7","7","7","7","7","6","3","2","2","7","3","7","6","7","781830643909922818","王","90","Male","[""坏他"",""好我"",""坏我"",""好他""]","[""弱他"",""强我"",""弱我"",""强他""]","","","","","","","","yes","","","","","","","","","SRET","EW_formal","","key","f","16.658252427184635","768","428","朋友","清廉","Positive","morality","","","","","","","","","","",""
"807","","f","psychophysics","47","188645","0.0-7.0-3.0-0.33","6","6","6","4","6","5","4","5","4","4","5","2","1","1","2","0","1","2","2","5","4","5","5","4","4","4","4","4","4","5","5","6","5","3","7","5","5","5","5","7","6","5","6","5","6","2","6","6","1","6","3","7","1","5","6","5","7","7","6","3","6","3","6","3","7","7","7","7","7","7","6","3","2","2","7","3","7","6","7","781830643909922818","王","90","Male","[""坏他"",""好我"",""坏我"",""好他""]","[""弱他"",""强我"",""弱我"",""强他""]","","","","","","","","yes","","","","","","","","","SRET","EW_formal","","key","f","16.65740740740741","768","428","自己","善心","Positive","morality","","","","","","","","","","",""
"856","","j","psychophysics","48","190502","0.0-7.0-3.0-0.34","6","6","6","4","6","5","4","5","4","4","5","2","1","1","2","0","1","2","2","5","4","5","5","4","4","4","4","4","4","5","5","6","5","3","7","5","5","5","5","7","6","5","6","5","6","2","6","6","1","6","3","7","1","5","6","5","7","7","6","3","6","3","6","3","7","7","7","7","7","7","6","3","2","2","7","3","7","6","7","781830643909922818","王","90","Male","[""坏他"",""好我"",""坏我"",""好他""]","[""弱他"",""强我"",""弱我"",""强他""]","","","","","","","","no","","","","","","","","","SRET","EW_formal","","key","j","16.659999999999787","768","428","朋友","庸碌","Negative","ability","","","","","","","","","","",""
"794","","f","psychophysics","49","192297","0.0-7.0-3.0-0.35","6","6","6","4","6","5","4","5","4","4","5","2","1","1","2","0","1","2","2","5","4","5","5","4","4","4","4","4","4","5","5","6","5","3","7","5","5","5","5","7","6","5","6","5","6","2","6","6","1","6","3","7","1","5","6","5","7","7","6","3","6","3","6","3","7","7","7","7","7","7","6","3","2","2","7","3","7","6","7","781830643909922818","王","90","Male","[""坏他"",""好我"",""坏我"",""好他""]","[""弱他"",""强我"",""弱我"",""强他""]","","","","","","","","yes","","","","","","","","","SRET","EW_formal","","key","f","16.662616822429854","768","428","自己","忠勇","Positive","morality","","","","","","","","","","",""
"848","","f","psychophysics","50","194146","0.0-7.0-3.0-0.36","6","6","6","4","6","5","4","5","4","4","5","2","1","1","2","0","1","2","2","5","4","5","5","4","4","4","4","4","4","5","5","6","5","3","7","5","5","5","5","7","6","5","6","5","6","2","6","6","1","6","3","7","1","5","6","5","7","7","6","3","6","3","6","3","7","7","7","7","7","7","6","3","2","2","7","3","7","6","7","781830643909922818","王","90","Male","[""坏他"",""好我"",""坏我"",""好他""]","[""弱他"",""强我"",""弱我"",""强他""]","","","","","","","","yes","","","","","","","","","SRET","EW_formal","","key","f","16.660909090909197","768","428","朋友","侠义","Positive","morality","","","","","","","","","","",""
"646","","f","psychophysics","51","195793","0.0-7.0-3.0-0.37","6","6","6","4","6","5","4","5","4","4","5","2","1","1","2","0","1","2","2","5","4","5","5","4","4","4","4","4","4","5","5","6","5","3","7","5","5","5","5","7","6","5","6","5","6","2","6","6","1","6","3","7","1","5","6","5","7","7","6","3","6","3","6","3","7","7","7","7","7","7","6","3","2","2","7","3","7","6","7","781830643909922818","王","90","Male","[""坏他"",""好我"",""坏我"",""好他""]","[""弱他"",""强我"",""弱我"",""强他""]","","","","","","","","yes","","","","","","","","","SRET","EW_formal","","key","f","16.660204081632475","768","428","自己","利落","Positive","ability","","","","","","","","","","",""
"740","","f","psychophysics","52","197533","0.0-7.0-3.0-0.38","6","6","6","4","6","5","4","5","4","4","5","2","1","1","2","0","1","2","2","5","4","5","5","4","4","4","4","4","4","5","5","6","5","3","7","5","5","5","5","7","6","5","6","5","6","2","6","6","1","6","3","7","1","5","6","5","7","7","6","3","6","3","6","3","7","7","7","7","7","7","6","3","2","2","7","3","7","6","7","781830643909922818","王","90","Male","[""坏他"",""好我"",""坏我"",""好他""]","[""弱他"",""强我"",""弱我"",""强他""]","","","","","","","","yes","","","","","","","","","SRET","EW_formal","","key","f","16.65728155339817","768","428","自己","周到","Positive","ability","","","","","","","","","","",""
"585","","f","psychophysics","53","199119","0.0-7.0-3.0-0.39","6","6","6","4","6","5","4","5","4","4","5","2","1","1","2","0","1","2","2","5","4","5","5","4","4","4","4","4","4","5","5","6","5","3","7","5","5","5","5","7","6","5","6","5","6","2","6","6","1","6","3","7","1","5","6","5","7","7","6","3","6","3","6","3","7","7","7","7","7","7","6","3","2","2","7","3","7","6","7","781830643909922818","王","90","Male","[""坏他"",""好我"",""坏我"",""好他""]","[""弱他"",""强我"",""弱我"",""强他""]","","","","","","","","yes","","","","","","","","","SRET","EW_formal","","key","f","16.662765957446684","768","428","朋友","聪明","Positive","ability","","","","","","","","","","",""
"613","","f","psychophysics","54","200736","0.0-7.0-3.0-0.40","6","6","6","4","6","5","4","5","4","4","5","2","1","1","2","0","1","2","2","5","4","5","5","4","4","4","4","4","4","5","5","6","5","3","7","5","5","5","5","7","6","5","6","5","6","2","6","6","1","6","3","7","1","5","6","5","7","7","6","3","6","3","6","3","7","7","7","7","7","7","6","3","2","2","7","3","7","6","7","781830643909922818","王","90","Male","[""坏他"",""好我"",""坏我"",""好他""]","[""弱他"",""强我"",""弱我"",""强他""]","","","","","","","","yes","","","","","","","","","SRET","EW_formal","","key","f","16.661458333333332","768","428","朋友","能干","Positive","ability","","","","","","","","","","",""
"986","","j","psychophysics","55","202723","0.0-7.0-3.0-0.41","6","6","6","4","6","5","4","5","4","4","5","2","1","1","2","0","1","2","2","5","4","5","5","4","4","4","4","4","4","5","5","6","5","3","7","5","5","5","5","7","6","5","6","5","6","2","6","6","1","6","3","7","1","5","6","5","7","7","6","3","6","3","6","3","7","7","7","7","7","7","6","3","2","2","7","3","7","6","7","781830643909922818","王","90","Male","[""坏他"",""好我"",""坏我"",""好他""]","[""弱他"",""强我"",""弱我"",""强他""]","","","","","","","","no","","","","","","","","","SRET","EW_formal","","key","j","16.658823529411716","768","428","自己","不孝","Negative","morality","","","","","","","","","","",""
"1196","","f","psychophysics","56","204922","0.0-7.0-3.0-0.42","6","6","6","4","6","5","4","5","4","4","5","2","1","1","2","0","1","2","2","5","4","5","5","4","4","4","4","4","4","5","5","6","5","3","7","5","5","5","5","7","6","5","6","5","6","2","6","6","1","6","3","7","1","5","6","5","7","7","6","3","6","3","6","3","7","7","7","7","7","7","6","3","2","2","7","3","7","6","7","781830643909922818","王","90","Male","[""坏他"",""好我"",""坏我"",""好他""]","[""弱他"",""强我"",""弱我"",""强他""]","","","","","","","","yes","","","","","","","","","SRET","EW_formal","","key","f","16.662595419847463","768","428","自己","勤恳","Positive","morality","","","","","","","","","","",""
"728","","j","psychophysics","57","206651","0.0-7.0-3.0-0.43","6","6","6","4","6","5","4","5","4","4","5","2","1","1","2","0","1","2","2","5","4","5","5","4","4","4","4","4","4","5","5","6","5","3","7","5","5","5","5","7","6","5","6","5","6","2","6","6","1","6","3","7","1","5","6","5","7","7","6","3","6","3","6","3","7","7","7","7","7","7","6","3","2","2","7","3","7","6","7","781830643909922818","王","90","Male","[""坏他"",""好我"",""坏我"",""好他""]","[""弱他"",""强我"",""弱我"",""强他""]","","","","","","","","no","","","","","","","","","SRET","EW_formal","","key","j","16.662745098039274","768","428","朋友","恶劣","Negative","morality","","","","","","","","","","",""
"783","","f","psychophysics","58","208438","0.0-7.0-3.0-0.44","6","6","6","4","6","5","4","5","4","4","5","2","1","1","2","0","1","2","2","5","4","5","5","4","4","4","4","4","4","5","5","6","5","3","7","5","5","5","5","7","6","5","6","5","6","2","6","6","1","6","3","7","1","5","6","5","7","7","6","3","6","3","6","3","7","7","7","7","7","7","6","3","2","2","7","3","7","6","7","781830643909922818","王","90","Male","[""坏他"",""好我"",""坏我"",""好他""]","[""弱他"",""强我"",""弱我"",""强他""]","","","","","","","","yes","","","","","","","","","SRET","EW_formal","","key","f","16.661682242990818","768","428","自己","犹豫","Negative","ability","","","","","","","","","","",""
"781","","j","psychophysics","59","210221","0.0-7.0-3.0-0.45","6","6","6","4","6","5","4","5","4","4","5","2","1","1","2","0","1","2","2","5","4","5","5","4","4","4","4","4","4","5","5","6","5","3","7","5","5","5","5","7","6","5","6","5","6","2","6","6","1","6","3","7","1","5","6","5","7","7","6","3","6","3","6","3","7","7","7","7","7","7","6","3","2","2","7","3","7","6","7","781830643909922818","王","90","Male","[""坏他"",""好我"",""坏我"",""好他""]","[""弱他"",""强我"",""弱我"",""强他""]","","","","","","","","no","","","","","","","","","SRET","EW_formal","","key","j","16.661320754717035","768","428","朋友","罪恶","Negative","morality","","","","","","","","","","",""
"759","","j","psychophysics","60","211981","0.0-7.0-3.0-0.46","6","6","6","4","6","5","4","5","4","4","5","2","1","1","2","0","1","2","2","5","4","5","5","4","4","4","4","4","4","5","5","6","5","3","7","5","5","5","5","7","6","5","6","5","6","2","6","6","1","6","3","7","1","5","6","5","7","7","6","3","6","3","6","3","7","7","7","7","7","7","6","3","2","2","7","3","7","6","7","781830643909922818","王","90","Male","[""坏他"",""好我"",""坏我"",""好他""]","[""弱他"",""强我"",""弱我"",""强他""]","","","","","","","","no","","","","","","","","","SRET","EW_formal","","key","j","16.66153846153835","768","428","自己","狡诈","Negative","morality","","","","","","","","","","",""
"867","","f","psychophysics","61","213853","0.0-7.0-3.0-0.47","6","6","6","4","6","5","4","5","4","4","5","2","1","1","2","0","1","2","2","5","4","5","5","4","4","4","4","4","4","5","5","6","5","3","7","5","5","5","5","7","6","5","6","5","6","2","6","6","1","6","3","7","1","5","6","5","7","7","6","3","6","3","6","3","7","7","7","7","7","7","6","3","2","2","7","3","7","6","7","781830643909922818","王","90","Male","[""坏他"",""好我"",""坏我"",""好他""]","[""弱他"",""强我"",""弱我"",""强他""]","","","","","","","","yes","","","","","","","","","SRET","EW_formal","","key","f","16.660714285714285","768","428","自己","中用","Positive","ability","","","","","","","","","","",""
"797","","j","psychophysics","62","215652","0.0-7.0-3.0-0.48","6","6","6","4","6","5","4","5","4","4","5","2","1","1","2","0","1","2","2","5","4","5","5","4","4","4","4","4","4","5","5","6","5","3","7","5","5","5","5","7","6","5","6","5","6","2","6","6","1","6","3","7","1","5","6","5","7","7","6","3","6","3","6","3","7","7","7","7","7","7","6","3","2","2","7","3","7","6","7","781830643909922818","王","90","Male","[""坏他"",""好我"",""坏我"",""好他""]","[""弱他"",""强我"",""弱我"",""强他""]","","","","","","","","no","","","","","","","","","SRET","EW_formal","","key","j","16.66355140186916","768","428","自己","粗心","Negative","ability","","","","","","","","","","",""
"1366","","j","psychophysics","63","218019","0.0-7.0-3.0-0.49","6","6","6","4","6","5","4","5","4","4","5","2","1","1","2","0","1","2","2","5","4","5","5","4","4","4","4","4","4","5","5","6","5","3","7","5","5","5","5","7","6","5","6","5","6","2","6","6","1","6","3","7","1","5","6","5","7","7","6","3","6","3","6","3","7","7","7","7","7","7","6","3","2","2","7","3","7","6","7","781830643909922818","王","90","Male","[""坏他"",""好我"",""坏我"",""好他""]","[""弱他"",""强我"",""弱我"",""强他""]","","","","","","","","no","","","","","","","","","SRET","EW_formal","","key","j","16.660283687943096","768","428","自己","仁厚","Positive","morality","","","","","","","","","","",""
"862","","f","psychophysics","64","219883","0.0-7.0-3.0-0.50","6","6","6","4","6","5","4","5","4","4","5","2","1","1","2","0","1","2","2","5","4","5","5","4","4","4","4","4","4","5","5","6","5","3","7","5","5","5","5","7","6","5","6","5","6","2","6","6","1","6","3","7","1","5","6","5","7","7","6","3","6","3","6","3","7","7","7","7","7","7","6","3","2","2","7","3","7","6","7","781830643909922818","王","90","Male","[""坏他"",""好我"",""坏我"",""好他""]","[""弱他"",""强我"",""弱我"",""强他""]","","","","","","","","yes","","","","","","","","","SRET","EW_formal","","key","f","16.66216216216216","768","428","自己","守信","Positive","morality","","","","","","","","","","",""
"687","","j","psychophysics","65","221572","0.0-7.0-3.0-0.51","6","6","6","4","6","5","4","5","4","4","5","2","1","1","2","0","1","2","2","5","4","5","5","4","4","4","4","4","4","5","5","6","5","3","7","5","5","5","5","7","6","5","6","5","6","2","6","6","1","6","3","7","1","5","6","5","7","7","6","3","6","3","6","3","7","7","7","7","7","7","6","3","2","2","7","3","7","6","7","781830643909922818","王","90","Male","[""坏他"",""好我"",""坏我"",""好他""]","[""弱他"",""强我"",""弱我"",""强他""]","","","","","","","","no","","","","","","","","","SRET","EW_formal","","key","j","16.664000000000232","768","428","朋友","迟钝","Negative","ability","","","","","","","","","","",""
"699","","j","psychophysics","66","223273","0.0-7.0-3.0-0.52","6","6","6","4","6","5","4","5","4","4","5","2","1","1","2","0","1","2","2","5","4","5","5","4","4","4","4","4","4","5","5","6","5","3","7","5","5","5","5","7","6","5","6","5","6","2","6","6","1","6","3","7","1","5","6","5","7","7","6","3","6","3","6","3","7","7","7","7","7","7","6","3","2","2","7","3","7","6","7","781830643909922818","王","90","Male","[""坏他"",""好我"",""坏我"",""好他""]","[""弱他"",""强我"",""弱我"",""强他""]","","","","","","","","no","","","","","","","","","SRET","EW_formal","","key","j","16.660396039604077","768","428","朋友","黑心","Negative","morality","","","","","","","","","","",""
"660","","f","psychophysics","67","224934","0.0-7.0-3.0-0.53","6","6","6","4","6","5","4","5","4","4","5","2","1","1","2","0","1","2","2","5","4","5","5","4","4","4","4","4","4","5","5","6","5","3","7","5","5","5","5","7","6","5","6","5","6","2","6","6","1","6","3","7","1","5","6","5","7","7","6","3","6","3","6","3","7","7","7","7","7","7","6","3","2","2","7","3","7","6","7","781830643909922818","王","90","Male","[""坏他"",""好我"",""坏我"",""好他""]","[""弱他"",""强我"",""弱我"",""强他""]","","","","","","","","yes","","","","","","","","","SRET","EW_formal","","key","f","16.659595959596135","768","428","朋友","精干","Positive","ability","","","","","","","","","","",""
"832","","j","psychophysics","68","226768","0.0-7.0-3.0-0.54","6","6","6","4","6","5","4","5","4","4","5","2","1","1","2","0","1","2","2","5","4","5","5","4","4","4","4","4","4","5","5","6","5","3","7","5","5","5","5","7","6","5","6","5","6","2","6","6","1","6","3","7","1","5","6","5","7","7","6","3","6","3","6","3","7","7","7","7","7","7","6","3","2","2","7","3","7","6","7","781830643909922818","王","90","Male","[""坏他"",""好我"",""坏我"",""好他""]","[""弱他"",""强我"",""弱我"",""强他""]","","","","","","","","no","","","","","","","","","SRET","EW_formal","","key","j","16.66146788990831","768","428","朋友","无助","Negative","ability","","","","","","","","","","",""
"698","","f","psychophysics","69","228468","0.0-7.0-3.0-0.55","6","6","6","4","6","5","4","5","4","4","5","2","1","1","2","0","1","2","2","5","4","5","5","4","4","4","4","4","4","5","5","6","5","3","7","5","5","5","5","7","6","5","6","5","6","2","6","6","1","6","3","7","1","5","6","5","7","7","6","3","6","3","6","3","7","7","7","7","7","7","6","3","2","2","7","3","7","6","7","781830643909922818","王","90","Male","[""坏他"",""好我"",""坏我"",""好他""]","[""弱他"",""强我"",""弱我"",""强他""]","","","","","","","","yes","","","","","","","","","SRET","EW_formal","","key","f","16.662376237623704","768","428","自己","勤奋","Positive","ability","","","","","","","","","","",""
"681","","j","psychophysics","70","230150","0.0-7.0-3.0-0.56","6","6","6","4","6","5","4","5","4","4","5","2","1","1","2","0","1","2","2","5","4","5","5","4","4","4","4","4","4","5","5","6","5","3","7","5","5","5","5","7","6","5","6","5","6","2","6","6","1","6","3","7","1","5","6","5","7","7","6","3","6","3","6","3","7","7","7","7","7","7","6","3","2","2","7","3","7","6","7","781830643909922818","王","90","Male","[""坏他"",""好我"",""坏我"",""好他""]","[""弱他"",""强我"",""弱我"",""强他""]","","","","","","","","no","","","","","","","","","SRET","EW_formal","","key","j","16.66399999999994","768","428","朋友","缺德","Negative","morality","","","","","","","","","","",""
"664","","f","psychophysics","71","231816","0.0-7.0-3.0-0.57","6","6","6","4","6","5","4","5","4","4","5","2","1","1","2","0","1","2","2","5","4","5","5","4","4","4","4","4","4","5","5","6","5","3","7","5","5","5","5","7","6","5","6","5","6","2","6","6","1","6","3","7","1","5","6","5","7","7","6","3","6","3","6","3","7","7","7","7","7","7","6","3","2","2","7","3","7","6","7","781830643909922818","王","90","Male","[""坏他"",""好我"",""坏我"",""好他""]","[""弱他"",""强我"",""弱我"",""强他""]","","","","","","","","yes","","","","","","","","","SRET","EW_formal","","key","f","16.661616161616163","768","428","朋友","正气","Positive","morality","","","","","","","","","","",""
"687","","f","psychophysics","72","233506","0.0-7.0-3.0-0.58","6","6","6","4","6","5","4","5","4","4","5","2","1","1","2","0","1","2","2","5","4","5","5","4","4","4","4","4","4","5","5","6","5","3","7","5","5","5","5","7","6","5","6","5","6","2","6","6","1","6","3","7","1","5","6","5","7","7","6","3","6","3","6","3","7","7","7","7","7","7","6","3","2","2","7","3","7","6","7","781830643909922818","王","90","Male","[""坏他"",""好我"",""坏我"",""好他""]","[""弱他"",""强我"",""弱我"",""强他""]","","","","","","","","yes","","","","","","","","","SRET","EW_formal","","key","f","16.66","768","428","朋友","扎实","Positive","ability","","","","","","","","","","",""
"617","","f","psychophysics","73","235123","0.0-7.0-3.0-0.59","6","6","6","4","6","5","4","5","4","4","5","2","1","1","2","0","1","2","2","5","4","5","5","4","4","4","4","4","4","5","5","6","5","3","7","5","5","5","5","7","6","5","6","5","6","2","6","6","1","6","3","7","1","5","6","5","7","7","6","3","6","3","6","3","7","7","7","7","7","7","6","3","2","2","7","3","7","6","7","781830643909922818","王","90","Male","[""坏他"",""好我"",""坏我"",""好他""]","[""弱他"",""强我"",""弱我"",""强他""]","","","","","","","","yes","","","","","","","","","SRET","EW_formal","","key","f","16.662500000000062","768","428","朋友","上进","Positive","ability","","","","","","","","","","",""
"737","","j","psychophysics","74","236862","0.0-7.0-3.0-0.60","6","6","6","4","6","5","4","5","4","4","5","2","1","1","2","0","1","2","2","5","4","5","5","4","4","4","4","4","4","5","5","6","5","3","7","5","5","5","5","7","6","5","6","5","6","2","6","6","1","6","3","7","1","5","6","5","7","7","6","3","6","3","6","3","7","7","7","7","7","7","6","3","2","2","7","3","7","6","7","781830643909922818","王","90","Male","[""坏他"",""好我"",""坏我"",""好他""]","[""弱他"",""强我"",""弱我"",""强他""]","","","","","","","","no","","","","","","","","","SRET","EW_formal","","key","j","16.660576923077034","768","428","朋友","才尽","Negative","ability","","","","","","","","","","",""
"954","","j","psychophysics","75","238817","0.0-7.0-3.0-0.61","6","6","6","4","6","5","4","5","4","4","5","2","1","1","2","0","1","2","2","5","4","5","5","4","4","4","4","4","4","5","5","6","5","3","7","5","5","5","5","7","6","5","6","5","6","2","6","6","1","6","3","7","1","5","6","5","7","7","6","3","6","3","6","3","7","7","7","7","7","7","6","3","2","2","7","3","7","6","7","781830643909922818","王","90","Male","[""坏他"",""好我"",""坏我"",""好他""]","[""弱他"",""强我"",""弱我"",""强他""]","","","","","","","","no","","","","","","","","","SRET","EW_formal","","key","j","16.66206896551714","768","428","自己","马虎","Negative","ability","","","","","","","","","","",""
"1202","","f","psychophysics","76","241019","0.0-7.0-3.0-0.62","6","6","6","4","6","5","4","5","4","4","5","2","1","1","2","0","1","2","2","5","4","5","5","4","4","4","4","4","4","5","5","6","5","3","7","5","5","5","5","7","6","5","6","5","6","2","6","6","1","6","3","7","1","5","6","5","7","7","6","3","6","3","6","3","7","7","7","7","7","7","6","3","2","2","7","3","7","6","7","781830643909922818","王","90","Male","[""坏他"",""好我"",""坏我"",""好他""]","[""弱他"",""强我"",""弱我"",""强他""]","","","","","","","","yes","","","","","","","","","SRET","EW_formal","","key","f","16.65877862595411","768","428","朋友","有力","Positive","ability","","","","","","","","","","",""
"560","","j","psychophysics","77","242581","0.0-7.0-3.0-0.63","6","6","6","4","6","5","4","5","4","4","5","2","1","1","2","0","1","2","2","5","4","5","5","4","4","4","4","4","4","5","5","6","5","3","7","5","5","5","5","7","6","5","6","5","6","2","6","6","1","6","3","7","1","5","6","5","7","7","6","3","6","3","6","3","7","7","7","7","7","7","6","3","2","2","7","3","7","6","7","781830643909922818","王","90","Male","[""坏他"",""好我"",""坏我"",""好他""]","[""弱他"",""强我"",""弱我"",""强他""]","","","","","","","","no","","","","","","","","","SRET","EW_formal","","key","j","16.660215053763377","768","428","自己","偏私","Negative","morality","","","","","","","","","","",""
"793","","f","psychophysics","78","244376","0.0-7.0-3.0-0.64","6","6","6","4","6","5","4","5","4","4","5","2","1","1","2","0","1","2","2","5","4","5","5","4","4","4","4","4","4","5","5","6","5","3","7","5","5","5","5","7","6","5","6","5","6","2","6","6","1","6","3","7","1","5","6","5","7","7","6","3","6","3","6","3","7","7","7","7","7","7","6","3","2","2","7","3","7","6","7","781830643909922818","王","90","Male","[""坏他"",""好我"",""坏我"",""好他""]","[""弱他"",""强我"",""弱我"",""强他""]","","","","","","","","yes","","","","","","","","","SRET","EW_formal","","key","f","16.661682242990818","768","428","朋友","慈悲","Positive","morality","","","","","","","","","","",""
"788","","j","psychophysics","79","246166","0.0-7.0-3.0-0.65","6","6","6","4","6","5","4","5","4","4","5","2","1","1","2","0","1","2","2","5","4","5","5","4","4","4","4","4","4","5","5","6","5","3","7","5","5","5","5","7","6","5","6","5","6","2","6","6","1","6","3","7","1","5","6","5","7","7","6","3","6","3","6","3","7","7","7","7","7","7","6","3","2","2","7","3","7","6","7","781830643909922818","王","90","Male","[""坏他"",""好我"",""坏我"",""好他""]","[""弱他"",""强我"",""弱我"",""强他""]","","","","","","","","no","","","","","","","","","SRET","EW_formal","","key","j","16.659433962264096","768","428","朋友","虚假","Negative","morality","","","","","","","","","","",""
"794","","f","psychophysics","80","247960","0.0-7.0-3.0-0.66","6","6","6","4","6","5","4","5","4","4","5","2","1","1","2","0","1","2","2","5","4","5","5","4","4","4","4","4","4","5","5","6","5","3","7","5","5","5","5","7","6","5","6","5","6","2","6","6","1","6","3","7","1","5","6","5","7","7","6","3","6","3","6","3","7","7","7","7","7","7","6","3","2","2","7","3","7","6","7","781830643909922818","王","90","Male","[""坏他"",""好我"",""坏我"",""好他""]","[""弱他"",""强我"",""弱我"",""强他""]","","","","","","","","yes","","","","","","","","","SRET","EW_formal","","key","f","16.6588785046729","768","428","自己","稳健","Positive","ability","","","","","","","","","","",""
"805","","j","psychophysics","81","249767","0.0-7.0-3.0-0.67","6","6","6","4","6","5","4","5","4","4","5","2","1","1","2","0","1","2","2","5","4","5","5","4","4","4","4","4","4","5","5","6","5","3","7","5","5","5","5","7","6","5","6","5","6","2","6","6","1","6","3","7","1","5","6","5","7","7","6","3","6","3","6","3","7","7","7","7","7","7","6","3","2","2","7","3","7","6","7","781830643909922818","王","90","Male","[""坏他"",""好我"",""坏我"",""好他""]","[""弱他"",""强我"",""弱我"",""强他""]","","","","","","","","no","","","","","","","","","SRET","EW_formal","","key","j","16.661682242990818","768","428","自己","奸险","Negative","morality","","","","","","","","","","",""
"793","","j","psychophysics","82","251561","0.0-7.0-3.0-0.68","6","6","6","4","6","5","4","5","4","4","5","2","1","1","2","0","1","2","2","5","4","5","5","4","4","4","4","4","4","5","5","6","5","3","7","5","5","5","5","7","6","5","6","5","6","2","6","6","1","6","3","7","1","5","6","5","7","7","6","3","6","3","6","3","7","7","7","7","7","7","6","3","2","2","7","3","7","6","7","781830643909922818","王","90","Male","[""坏他"",""好我"",""坏我"",""好他""]","[""弱他"",""强我"",""弱我"",""强他""]","","","","","","","","no","","","","","","","","","SRET","EW_formal","","key","j","16.661682242990818","768","428","自己","盲目","Negative","ability","","","","","","","","","","",""
"969","","f","psychophysics","83","253532","0.0-7.0-3.0-0.69","6","6","6","4","6","5","4","5","4","4","5","2","1","1","2","0","1","2","2","5","4","5","5","4","4","4","4","4","4","5","5","6","5","3","7","5","5","5","5","7","6","5","6","5","6","2","6","6","1","6","3","7","1","5","6","5","7","7","6","3","6","3","6","3","7","7","7","7","7","7","6","3","2","2","7","3","7","6","7","781830643909922818","王","90","Male","[""坏他"",""好我"",""坏我"",""好他""]","[""弱他"",""强我"",""弱我"",""强他""]","","","","","","","","yes","","","","","","","","","SRET","EW_formal","","key","f","16.66068376068391","768","428","朋友","肯干","Positive","ability","","","","","","","","","","",""
"821","","f","psychophysics","84","255355","0.0-7.0-3.0-0.70","6","6","6","4","6","5","4","5","4","4","5","2","1","1","2","0","1","2","2","5","4","5","5","4","4","4","4","4","4","5","5","6","5","3","7","5","5","5","5","7","6","5","6","5","6","2","6","6","1","6","3","7","1","5","6","5","7","7","6","3","6","3","6","3","7","7","7","7","7","7","6","3","2","2","7","3","7","6","7","781830643909922818","王","90","Male","[""坏他"",""好我"",""坏我"",""好他""]","[""弱他"",""强我"",""弱我"",""强他""]","","","","","","","","yes","","","","","","","","","SRET","EW_formal","","key","f","16.660550458715598","768","428","朋友","远见","Positive","ability","","","","","","","","","","",""
"615","","j","psychophysics","85","256972","0.0-7.0-3.0-0.71","6","6","6","4","6","5","4","5","4","4","5","2","1","1","2","0","1","2","2","5","4","5","5","4","4","4","4","4","4","5","5","6","5","3","7","5","5","5","5","7","6","5","6","5","6","2","6","6","1","6","3","7","1","5","6","5","7","7","6","3","6","3","6","3","7","7","7","7","7","7","6","3","2","2","7","3","7","6","7","781830643909922818","王","90","Male","[""坏他"",""好我"",""坏我"",""好他""]","[""弱他"",""强我"",""弱我"",""强他""]","","","","","","","","no","","","","","","","","","SRET","EW_formal","","key","j","16.66354166666618","768","428","自己","无能","Negative","ability","","","","","","","","","","",""
"1101","","j","psychophysics","86","259074","0.0-7.0-3.0-0.72","6","6","6","4","6","5","4","5","4","4","5","2","1","1","2","0","1","2","2","5","4","5","5","4","4","4","4","4","4","5","5","6","5","3","7","5","5","5","5","7","6","5","6","5","6","2","6","6","1","6","3","7","1","5","6","5","7","7","6","3","6","3","6","3","7","7","7","7","7","7","6","3","2","2","7","3","7","6","7","781830643909922818","王","90","Male","[""坏他"",""好我"",""坏我"",""好他""]","[""弱他"",""强我"",""弱我"",""强他""]","","","","","","","","no","","","","","","","","","SRET","EW_formal","","key","j","16.660799999999814","768","428","自己","拖延","Negative","ability","","","","","","","","","","",""
"963","","f","psychophysics","87","261039","0.0-7.0-3.0-0.73","6","6","6","4","6","5","4","5","4","4","5","2","1","1","2","0","1","2","2","5","4","5","5","4","4","4","4","4","4","5","5","6","5","3","7","5","5","5","5","7","6","5","6","5","6","2","6","6","1","6","3","7","1","5","6","5","7","7","6","3","6","3","6","3","7","7","7","7","7","7","6","3","2","2","7","3","7","6","7","781830643909922818","王","90","Male","[""坏他"",""好我"",""坏我"",""好他""]","[""弱他"",""强我"",""弱我"",""强他""]","","","","","","","","yes","","","","","","","","","SRET","EW_formal","","key","f","16.65811965811966","768","428","自己","博学","Positive","ability","","","","","","","","","","",""
"904","","f","psychophysics","88","262943","0.0-7.0-3.0-0.74","6","6","6","4","6","5","4","5","4","4","5","2","1","1","2","0","1","2","2","5","4","5","5","4","4","4","4","4","4","5","5","6","5","3","7","5","5","5","5","7","6","5","6","5","6","2","6","6","1","6","3","7","1","5","6","5","7","7","6","3","6","3","6","3","7","7","7","7","7","7","6","3","2","2","7","3","7","6","7","781830643909922818","王","90","Male","[""坏他"",""好我"",""坏我"",""好他""]","[""弱他"",""强我"",""弱我"",""强他""]","","","","","","","","yes","","","","","","","","","SRET","EW_formal","","key","f","16.657522123893703","768","428","朋友","孝顺","Positive","morality","","","","","","","","","","",""
"1215","","j","psychophysics","89","265160","0.0-7.0-3.0-0.75","6","6","6","4","6","5","4","5","4","4","5","2","1","1","2","0","1","2","2","5","4","5","5","4","4","4","4","4","4","5","5","6","5","3","7","5","5","5","5","7","6","5","6","5","6","2","6","6","1","6","3","7","1","5","6","5","7","7","6","3","6","3","6","3","7","7","7","7","7","7","6","3","2","2","7","3","7","6","7","781830643909922818","王","90","Male","[""坏他"",""好我"",""坏我"",""好他""]","[""弱他"",""强我"",""弱我"",""强他""]","","","","","","","","no","","","","","","","","","SRET","EW_formal","","key","j","16.661363636363546","768","428","朋友","驽钝","Negative","ability","","","","","","","","","","",""
"1177","","j","psychophysics","90","267338","0.0-7.0-3.0-0.76","6","6","6","4","6","5","4","5","4","4","5","2","1","1","2","0","1","2","2","5","4","5","5","4","4","4","4","4","4","5","5","6","5","3","7","5","5","5","5","7","6","5","6","5","6","2","6","6","1","6","3","7","1","5","6","5","7","7","6","3","6","3","6","3","7","7","7","7","7","7","6","3","2","2","7","3","7","6","7","781830643909922818","王","90","Male","[""坏他"",""好我"",""坏我"",""好他""]","[""弱他"",""强我"",""弱我"",""强他""]","","","","","","","","no","","","","","","","","","SRET","EW_formal","","key","j","16.663076923076567","768","428","自己","无敌","Positive","ability","","","","","","","","","","",""
"811","","j","psychophysics","91","269151","0.0-7.0-3.0-0.77","6","6","6","4","6","5","4","5","4","4","5","2","1","1","2","0","1","2","2","5","4","5","5","4","4","4","4","4","4","5","5","6","5","3","7","5","5","5","5","7","6","5","6","5","6","2","6","6","1","6","3","7","1","5","6","5","7","7","6","3","6","3","6","3","7","7","7","7","7","7","6","3","2","2","7","3","7","6","7","781830643909922818","王","90","Male","[""坏他"",""好我"",""坏我"",""好他""]","[""弱他"",""强我"",""弱我"",""强他""]","","","","","","","","no","","","","","","","","","SRET","EW_formal","","key","j","16.660185185185078","768","428","朋友","无赖","Negative","morality","","","","","","","","","","",""
"798","","f","psychophysics","92","270949","0.0-7.0-3.0-0.78","6","6","6","4","6","5","4","5","4","4","5","2","1","1","2","0","1","2","2","5","4","5","5","4","4","4","4","4","4","5","5","6","5","3","7","5","5","5","5","7","6","5","6","5","6","2","6","6","1","6","3","7","1","5","6","5","7","7","6","3","6","3","6","3","7","7","7","7","7","7","6","3","2","2","7","3","7","6","7","781830643909922818","王","90","Male","[""坏他"",""好我"",""坏我"",""好他""]","[""弱他"",""强我"",""弱我"",""强他""]","","","","","","","","yes","","","","","","","","","SRET","EW_formal","","key","f","16.66168224299109","768","428","朋友","谦逊","Positive","morality","","","","","","","","","","",""
"718","","f","psychophysics","93","272669","0.0-7.0-3.0-0.79","6","6","6","4","6","5","4","5","4","4","5","2","1","1","2","0","1","2","2","5","4","5","5","4","4","4","4","4","4","5","5","6","5","3","7","5","5","5","5","7","6","5","6","5","6","2","6","6","1","6","3","7","1","5","6","5","7","7","6","3","6","3","6","3","7","7","7","7","7","7","6","3","2","2","7","3","7","6","7","781830643909922818","王","90","Male","[""坏他"",""好我"",""坏我"",""好他""]","[""弱他"",""强我"",""弱我"",""强他""]","","","","","","","","yes","","","","","","","","","SRET","EW_formal","","key","f","16.65882352941188","768","428","自己","博识","Positive","ability","","","","","","","","","","",""
"1136","","f","psychophysics","94","274807","0.0-7.0-3.0-0.80","6","6","6","4","6","5","4","5","4","4","5","2","1","1","2","0","1","2","2","5","4","5","5","4","4","4","4","4","4","5","5","6","5","3","7","5","5","5","5","7","6","5","6","5","6","2","6","6","1","6","3","7","1","5","6","5","7","7","6","3","6","3","6","3","7","7","7","7","7","7","6","3","2","2","7","3","7","6","7","781830643909922818","王","90","Male","[""坏他"",""好我"",""坏我"",""好他""]","[""弱他"",""强我"",""弱我"",""强他""]","","","","","","","","yes","","","","","","","","","SRET","EW_formal","","key","f","16.662204724409722","768","428","自己","新手","Negative","ability","","","","","","","","","","",""
"695","","f","psychophysics","95","276504","0.0-7.0-3.0-0.81","6","6","6","4","6","5","4","5","4","4","5","2","1","1","2","0","1","2","2","5","4","5","5","4","4","4","4","4","4","5","5","6","5","3","7","5","5","5","5","7","6","5","6","5","6","2","6","6","1","6","3","7","1","5","6","5","7","7","6","3","6","3","6","3","7","7","7","7","7","7","6","3","2","2","7","3","7","6","7","781830643909922818","王","90","Male","[""坏他"",""好我"",""坏我"",""好他""]","[""弱他"",""强我"",""弱我"",""强他""]","","","","","","","","yes","","","","","","","","","SRET","EW_formal","","key","f","16.660396039603498","768","428","朋友","刚正","Positive","morality","","","","","","","","","","",""
"688","","j","psychophysics","96","278193","0.0-7.0-3.0-0.82","6","6","6","4","6","5","4","5","4","4","5","2","1","1","2","0","1","2","2","5","4","5","5","4","4","4","4","4","4","5","5","6","5","3","7","5","5","5","5","7","6","5","6","5","6","2","6","6","1","6","3","7","1","5","6","5","7","7","6","3","6","3","6","3","7","7","7","7","7","7","6","3","2","2","7","3","7","6","7","781830643909922818","王","90","Male","[""坏他"",""好我"",""坏我"",""好他""]","[""弱他"",""强我"",""弱我"",""强他""]","","","","","","","","no","","","","","","","","","SRET","EW_formal","","key","j","16.657999999999884","768","428","自己","淫乱","Negative","morality","","","","","","","","","","",""
"706","","f","psychophysics","97","279903","0.0-7.0-3.0-0.83","6","6","6","4","6","5","4","5","4","4","5","2","1","1","2","0","1","2","2","5","4","5","5","4","4","4","4","4","4","5","5","6","5","3","7","5","5","5","5","7","6","5","6","5","6","2","6","6","1","6","3","7","1","5","6","5","7","7","6","3","6","3","6","3","7","7","7","7","7","7","6","3","2","2","7","3","7","6","7","781830643909922818","王","90","Male","[""坏他"",""好我"",""坏我"",""好他""]","[""弱他"",""强我"",""弱我"",""强他""]","","","","","","","","yes","","","","","","","","","SRET","EW_formal","","key","f","16.662745098039558","768","428","朋友","沉着","Positive","ability","","","","","","","","","","",""
"760","","j","psychophysics","98","281664","0.0-7.0-3.0-0.84","6","6","6","4","6","5","4","5","4","4","5","2","1","1","2","0","1","2","2","5","4","5","5","4","4","4","4","4","4","5","5","6","5","3","7","5","5","5","5","7","6","5","6","5","6","2","6","6","1","6","3","7","1","5","6","5","7","7","6","3","6","3","6","3","7","7","7","7","7","7","6","3","2","2","7","3","7","6","7","781830643909922818","王","90","Male","[""坏他"",""好我"",""坏我"",""好他""]","[""弱他"",""强我"",""弱我"",""强他""]","","","","","","","","no","","","","","","","","","SRET","EW_formal","","key","j","16.66285714285692","768","428","自己","缓慢","Negative","ability","","","","","","","","","","",""
"849","","f","psychophysics","99","283514","0.0-7.0-3.0-0.85","6","6","6","4","6","5","4","5","4","4","5","2","1","1","2","0","1","2","2","5","4","5","5","4","4","4","4","4","4","5","5","6","5","3","7","5","5","5","5","7","6","5","6","5","6","2","6","6","1","6","3","7","1","5","6","5","7","7","6","3","6","3","6","3","7","7","7","7","7","7","6","3","2","2","7","3","7","6","7","781830643909922818","王","90","Male","[""坏他"",""好我"",""坏我"",""好他""]","[""弱他"",""强我"",""弱我"",""强他""]","","","","","","","","yes","","","","","","","","","SRET","EW_formal","","key","f","16.661818181818077","768","428","自己","主见","Positive","ability","","","","","","","","","","",""
"765","","j","psychophysics","100","285280","0.0-7.0-3.0-0.86","6","6","6","4","6","5","4","5","4","4","5","2","1","1","2","0","1","2","2","5","4","5","5","4","4","4","4","4","4","5","5","6","5","3","7","5","5","5","5","7","6","5","6","5","6","2","6","6","1","6","3","7","1","5","6","5","7","7","6","3","6","3","6","3","7","7","7","7","7","7","6","3","2","2","7","3","7","6","7","781830643909922818","王","90","Male","[""坏他"",""好我"",""坏我"",""好他""]","[""弱他"",""强我"",""弱我"",""强他""]","","","","","","","","no","","","","","","","","","SRET","EW_formal","","key","j","16.65999999999989","768","428","朋友","低俗","Negative","morality","","","","","","","","","","",""
"1113","","f","psychophysics","101","287395","0.0-7.0-3.0-0.87","6","6","6","4","6","5","4","5","4","4","5","2","1","1","2","0","1","2","2","5","4","5","5","4","4","4","4","4","4","5","5","6","5","3","7","5","5","5","5","7","6","5","6","5","6","2","6","6","1","6","3","7","1","5","6","5","7","7","6","3","6","3","6","3","7","7","7","7","7","7","6","3","2","2","7","3","7","6","7","781830643909922818","王","90","Male","[""坏他"",""好我"",""坏我"",""好他""]","[""弱他"",""强我"",""弱我"",""强他""]","","","","","","","","yes","","","","","","","","","SRET","EW_formal","","key","f","16.661904761904946","768","428","朋友","素养","Positive","morality","","","","","","","","","","",""
"5471","
    <p><div style='color:white;font-size:35px; line-height:20px;'>计算任务</div></p><br>
    <p><div style='color:red;font-size:25px; line-height:20px;'>接下来，您将看到一些四则运算题，<b>请从键盘选择 0-9 进行反应。</b></div></p>
    <p><div style='color:red;font-size:25px; line-height:20px;'>请尽可能快地进行计算，计算的速度和正确率将影响报酬的发放。</div></p>
    <p><div class='footer' style='color:white;font-size:25px; line-height:20px;'>如果对本实验还有不清楚之处，请立即向实验员咨询。</p><p style='color:white;font-size:25px; line-height:20px;'>如果您明白了规则：</p><p style='color:white;font-size:22px; line-height:20px;'>请按 继续 进入练习</p>
    </div>
    ","0","html-button-response","102","292867","0.0-7.0-4.0","6","6","6","4","6","5","4","5","4","4","5","2","1","1","2","0","1","2","2","5","4","5","5","4","4","4","4","4","4","5","5","6","5","3","7","5","5","5","5","7","6","5","6","5","6","2","6","6","1","6","3","7","1","5","6","5","7","7","6","3","6","3","6","3","7","7","7","7","7","7","6","3","2","2","7","3","7","6","7","781830643909922818","王","90","Male","[""坏他"",""好我"",""坏我"",""好他""]","[""弱他"",""强我"",""弱我"",""强他""]","","","","","","","","","","","","","","","","","SRET_math","math_instructions","Tue Dec 12 2023 15:24:21 GMT+0800 (中国标准时间)","","","","","","","","","","","","","","","","","","","",""
"5419","","7","psychophysics","103","298292","0.0-7.0-5.0-0.0","6","6","6","4","6","5","4","5","4","4","5","2","1","1","2","0","1","2","2","5","4","5","5","4","4","4","4","4","4","5","5","6","5","3","7","5","5","5","5","7","6","5","6","5","6","2","6","6","1","6","3","7","1","5","6","5","7","7","6","3","6","3","6","3","7","7","7","7","7","7","6","3","2","2","7","3","7","6","7","781830643909922818","王","90","Male","[""坏他"",""好我"",""坏我"",""好他""]","[""弱他"",""强我"",""弱我"",""强他""]","","","","","","","","7","","","","","","","","","SRET","SRET_math_calculate","","key","7","16.610736196319124","768","428","","","","","11-4= ?","7","1","","","","","","","",""
"2195","","8","psychophysics","104","300492","0.0-7.0-5.0-0.1","6","6","6","4","6","5","4","5","4","4","5","2","1","1","2","0","1","2","2","5","4","5","5","4","4","4","4","4","4","5","5","6","5","3","7","5","5","5","5","7","6","5","6","5","6","2","6","6","1","6","3","7","1","5","6","5","7","7","6","3","6","3","6","3","7","7","7","7","7","7","6","3","2","2","7","3","7","6","7","781830643909922818","王","90","Male","[""坏他"",""好我"",""坏我"",""好他""]","[""弱他"",""强我"",""弱我"",""强他""]","","","","","","","","8","","","","","","","","","SRET","SRET_math_calculate","","key","8","16.65877862595411","768","428","","","","","5+3= ?","8","1","","","","","","","",""
"2326","","2","psychophysics","105","302823","0.0-7.0-5.0-0.2","6","6","6","4","6","5","4","5","4","4","5","2","1","1","2","0","1","2","2","5","4","5","5","4","4","4","4","4","4","5","5","6","5","3","7","5","5","5","5","7","6","5","6","5","6","2","6","6","1","6","3","7","1","5","6","5","7","7","6","3","6","3","6","3","7","7","7","7","7","7","6","3","2","2","7","3","7","6","7","781830643909922818","王","90","Male","[""坏他"",""好我"",""坏我"",""好他""]","[""弱他"",""强我"",""弱我"",""强他""]","","","","","","","","2","","","","","","","","","SRET","SRET_math_calculate","","key","2","16.661151079136857","768","428","","","","","19-17= ?","2","1","","","","","","","",""
"1886","","2","psychophysics","106","304714","0.0-7.0-5.0-0.3","6","6","6","4","6","5","4","5","4","4","5","2","1","1","2","0","1","2","2","5","4","5","5","4","4","4","4","4","4","5","5","6","5","3","7","5","5","5","5","7","6","5","6","5","6","2","6","6","1","6","3","7","1","5","6","5","7","7","6","3","6","3","6","3","7","7","7","7","7","7","6","3","2","2","7","3","7","6","7","781830643909922818","王","90","Male","[""坏他"",""好我"",""坏我"",""好他""]","[""弱他"",""强我"",""弱我"",""强他""]","","","","","","","","2","","","","","","","","","SRET","SRET_math_calculate","","key","2","16.661607142856933","768","428","","","","","1+1= ?","2","1","","","","","","","",""
"2419","","9","psychophysics","107","307139","0.0-7.0-5.0-0.4","6","6","6","4","6","5","4","5","4","4","5","2","1","1","2","0","1","2","2","5","4","5","5","4","4","4","4","4","4","5","5","6","5","3","7","5","5","5","5","7","6","5","6","5","6","2","6","6","1","6","3","7","1","5","6","5","7","7","6","3","6","3","6","3","7","7","7","7","7","7","6","3","2","2","7","3","7","6","7","781830643909922818","王","90","Male","[""坏他"",""好我"",""坏我"",""好他""]","[""弱他"",""强我"",""弱我"",""强他""]","","","","","","","","9","","","","","","","","","SRET","SRET_math_calculate","","key","9","16.661379310344987","768","428","","","","","1+8= ?","9","1","","","","","","","",""
"2115","","4","psychophysics","108","309259","0.0-7.0-5.0-0.5","6","6","6","4","6","5","4","5","4","4","5","2","1","1","2","0","1","2","2","5","4","5","5","4","4","4","4","4","4","5","5","6","5","3","7","5","5","5","5","7","6","5","6","5","6","2","6","6","1","6","3","7","1","5","6","5","7","7","6","3","6","3","6","3","7","7","7","7","7","7","6","3","2","2","7","3","7","6","7","781830643909922818","王","90","Male","[""坏他"",""好我"",""坏我"",""好他""]","[""弱他"",""强我"",""弱我"",""强他""]","","","","","","","","4","","","","","","","","","SRET","SRET_math_calculate","","key","4","16.658730158730158","768","428","","","","","8-4= ?","4","1","","","","","","","",""
"2552","","8","psychophysics","109","311814","0.0-7.0-5.0-0.6","6","6","6","4","6","5","4","5","4","4","5","2","1","1","2","0","1","2","2","5","4","5","5","4","4","4","4","4","4","5","5","6","5","3","7","5","5","5","5","7","6","5","6","5","6","2","6","6","1","6","3","7","1","5","6","5","7","7","6","3","6","3","6","3","7","7","7","7","7","7","6","3","2","2","7","3","7","6","7","781830643909922818","王","90","Male","[""坏他"",""好我"",""坏我"",""好他""]","[""弱他"",""强我"",""弱我"",""强他""]","","","","","","","","8","","","","","","","","","SRET","SRET_math_calculate","","key","8","16.660526315789628","768","428","","","","","1+7= ?","8","1","","","","","","","",""
"2081","","6","psychophysics","110","313904","0.0-7.0-5.0-0.7","6","6","6","4","6","5","4","5","4","4","5","2","1","1","2","0","1","2","2","5","4","5","5","4","4","4","4","4","4","5","5","6","5","3","7","5","5","5","5","7","6","5","6","5","6","2","6","6","1","6","3","7","1","5","6","5","7","7","6","3","6","3","6","3","7","7","7","7","7","7","6","3","2","2","7","3","7","6","7","781830643909922818","王","90","Male","[""坏他"",""好我"",""坏我"",""好他""]","[""弱他"",""强我"",""弱我"",""强他""]","","","","","","","","6","","","","","","","","","SRET","SRET_math_calculate","","key","6","16.65919999999972","768","428","","","","","9-3= ?","6","1","","","","","","","",""
"3297","","7","psychophysics","111","317206","0.0-7.0-5.0-0.8","6","6","6","4","6","5","4","5","4","4","5","2","1","1","2","0","1","2","2","5","4","5","5","4","4","4","4","4","4","5","5","6","5","3","7","5","5","5","5","7","6","5","6","5","6","2","6","6","1","6","3","7","1","5","6","5","7","7","6","3","6","3","6","3","7","7","7","7","7","7","6","3","2","2","7","3","7","6","7","781830643909922818","王","90","Male","[""坏他"",""好我"",""坏我"",""好他""]","[""弱他"",""强我"",""弱我"",""强他""]","","","","","","","","7","","","","","","","","","SRET","SRET_math_calculate","","key","7","16.661928934009975","768","428","","","","","13-6= ?","7","1","","","","","","","",""
"5380","","5","psychophysics","112","322590","0.0-7.0-5.0-0.9","6","6","6","4","6","5","4","5","4","4","5","2","1","1","2","0","1","2","2","5","4","5","5","4","4","4","4","4","4","5","5","6","5","3","7","5","5","5","5","7","6","5","6","5","6","2","6","6","1","6","3","7","1","5","6","5","7","7","6","3","6","3","6","3","7","7","7","7","7","7","6","3","2","2","7","3","7","6","7","781830643909922818","王","90","Male","[""坏他"",""好我"",""坏我"",""好他""]","[""弱他"",""强我"",""弱我"",""强他""]","","","","","","","","5","","","","","","","","","SRET","SRET_math_calculate","","key","5","16.65993788819876","768","428","","","","","8-3= ? ","5","1","","","","","","","",""
"2122","","9","psychophysics","113","324716","0.0-7.0-5.0-0.10","6","6","6","4","6","5","4","5","4","4","5","2","1","1","2","0","1","2","2","5","4","5","5","4","4","4","4","4","4","5","5","6","5","3","7","5","5","5","5","7","6","5","6","5","6","2","6","6","1","6","3","7","1","5","6","5","7","7","6","3","6","3","6","3","7","7","7","7","7","7","6","3","2","2","7","3","7","6","7","781830643909922818","王","90","Male","[""坏他"",""好我"",""坏我"",""好他""]","[""弱他"",""强我"",""弱我"",""强他""]","","","","","","","","9","","","","","","","","","SRET","SRET_math_calculate","","key","9","16.66377952755896","768","428","","","","","3+6= ?","9","1","","","","","","","",""
"2313","","3","psychophysics","114","327034","0.0-7.0-5.0-0.11","6","6","6","4","6","5","4","5","4","4","5","2","1","1","2","0","1","2","2","5","4","5","5","4","4","4","4","4","4","5","5","6","5","3","7","5","5","5","5","7","6","5","6","5","6","2","6","6","1","6","3","7","1","5","6","5","7","7","6","3","6","3","6","3","7","7","7","7","7","7","6","3","2","2","7","3","7","6","7","781830643909922818","王","90","Male","[""坏他"",""好我"",""坏我"",""好他""]","[""弱他"",""强我"",""弱我"",""强他""]","","","","","","","","3","","","","","","","","","SRET","SRET_math_calculate","","key","3","16.661594202898467","768","428","","","","","3+0= ?","3","1","","","","","","","",""
"2981","","8","psychophysics","115","330019","0.0-7.0-5.0-0.12","6","6","6","4","6","5","4","5","4","4","5","2","1","1","2","0","1","2","2","5","4","5","5","4","4","4","4","4","4","5","5","6","5","3","7","5","5","5","5","7","6","5","6","5","6","2","6","6","1","6","3","7","1","5","6","5","7","7","6","3","6","3","6","3","7","7","7","7","7","7","6","3","2","2","7","3","7","6","7","781830643909922818","王","90","Male","[""坏他"",""好我"",""坏我"",""好他""]","[""弱他"",""强我"",""弱我"",""强他""]","","","","","","","","8","","","","","","","","","SRET","SRET_math_calculate","","key","8","16.658988764044878","768","428","","","","","13-5= ?","8","1","","","","","","","",""
"2657","","3","psychophysics","116","332680","0.0-7.0-5.0-0.13","6","6","6","4","6","5","4","5","4","4","5","2","1","1","2","0","1","2","2","5","4","5","5","4","4","4","4","4","4","5","5","6","5","3","7","5","5","5","5","7","6","5","6","5","6","2","6","6","1","6","3","7","1","5","6","5","7","7","6","3","6","3","6","3","7","7","7","7","7","7","6","3","2","2","7","3","7","6","7","781830643909922818","王","90","Male","[""坏他"",""好我"",""坏我"",""好他""]","[""弱他"",""强我"",""弱我"",""强他""]","","","","","","","","3","","","","","","","","","SRET","SRET_math_calculate","","key","3","16.66100628930803","768","428","","","","","21/7=  ?","3","1","","","","","","","",""
"2447","","6","psychophysics","117","335131","0.0-7.0-5.0-0.14","6","6","6","4","6","5","4","5","4","4","5","2","1","1","2","0","1","2","2","5","4","5","5","4","4","4","4","4","4","5","5","6","5","3","7","5","5","5","5","7","6","5","6","5","6","2","6","6","1","6","3","7","1","5","6","5","7","7","6","3","6","3","6","3","7","7","7","7","7","7","6","3","2","2","7","3","7","6","7","781830643909922818","王","90","Male","[""坏他"",""好我"",""坏我"",""好他""]","[""弱他"",""强我"",""弱我"",""强他""]","","","","","","","","6","","","","","","","","","SRET","SRET_math_calculate","","key","6","16.663013698630454","768","428","","","","","4+2= ?","6","1","","","","","","","",""
"2044","","5","psychophysics","118","337179","0.0-7.0-5.0-0.15","6","6","6","4","6","5","4","5","4","4","5","2","1","1","2","0","1","2","2","5","4","5","5","4","4","4","4","4","4","5","5","6","5","3","7","5","5","5","5","7","6","5","6","5","6","2","6","6","1","6","3","7","1","5","6","5","7","7","6","3","6","3","6","3","7","7","7","7","7","7","6","3","2","2","7","3","7","6","7","781830643909922818","王","90","Male","[""坏他"",""好我"",""坏我"",""好他""]","[""弱他"",""强我"",""弱我"",""强他""]","","","","","","","","5","","","","","","","","","SRET","SRET_math_calculate","","key","5","16.660655737705206","768","428","","","","","3+2= ?","5","1","","","","","","","",""
"2496","","7","psychophysics","119","339679","0.0-7.0-5.0-0.16","6","6","6","4","6","5","4","5","4","4","5","2","1","1","2","0","1","2","2","5","4","5","5","4","4","4","4","4","4","5","5","6","5","3","7","5","5","5","5","7","6","5","6","5","6","2","6","6","1","6","3","7","1","5","6","5","7","7","6","3","6","3","6","3","7","7","7","7","7","7","6","3","2","2","7","3","7","6","7","781830643909922818","王","90","Male","[""坏他"",""好我"",""坏我"",""好他""]","[""弱他"",""强我"",""弱我"",""强他""]","","","","","","","","7","","","","","","","","","SRET","SRET_math_calculate","","key","7","16.661073825503355","768","428","","","","","4+3= ?","7","1","","","","","","","",""
"2861","","6","psychophysics","120","342544","0.0-7.0-5.0-0.17","6","6","6","4","6","5","4","5","4","4","5","2","1","1","2","0","1","2","2","5","4","5","5","4","4","4","4","4","4","5","5","6","5","3","7","5","5","5","5","7","6","5","6","5","6","2","6","6","1","6","3","7","1","5","6","5","7","7","6","3","6","3","6","3","7","7","7","7","7","7","6","3","2","2","7","3","7","6","7","781830643909922818","王","90","Male","[""坏他"",""好我"",""坏我"",""好他""]","[""弱他"",""强我"",""弱我"",""强他""]","","","","","","","","6","","","","","","","","","SRET","SRET_math_calculate","","key","6","16.65964912280695","768","428","","","","","11-5= ?","6","1","","","","","","","",""
"2377","","4","psychophysics","121","344926","0.0-7.0-5.0-0.18","6","6","6","4","6","5","4","5","4","4","5","2","1","1","2","0","1","2","2","5","4","5","5","4","4","4","4","4","4","5","5","6","5","3","7","5","5","5","5","7","6","5","6","5","6","2","6","6","1","6","3","7","1","5","6","5","7","7","6","3","6","3","6","3","7","7","7","7","7","7","6","3","2","2","7","3","7","6","7","781830643909922818","王","90","Male","[""坏他"",""好我"",""坏我"",""好他""]","[""弱他"",""强我"",""弱我"",""强他""]","","","","","","","","4","","","","","","","","","SRET","SRET_math_calculate","","key","4","16.661971830985916","768","428","","","","","9-5= ?","4","1","","","","","","","",""
"2328","","3","psychophysics","122","347259","0.0-7.0-5.0-0.19","6","6","6","4","6","5","4","5","4","4","5","2","1","1","2","0","1","2","2","5","4","5","5","4","4","4","4","4","4","5","5","6","5","3","7","5","5","5","5","7","6","5","6","5","6","2","6","6","1","6","3","7","1","5","6","5","7","7","6","3","6","3","6","3","7","7","7","7","7","7","6","3","2","2","7","3","7","6","7","781830643909922818","王","90","Male","[""坏他"",""好我"",""坏我"",""好他""]","[""弱他"",""强我"",""弱我"",""强他""]","","","","","","","","3","","","","","","","","","SRET","SRET_math_calculate","","key","3","16.66330935251807","768","428","","","","","12/4= ?","3","1","","","","","","","",""
"2227","","9","psychophysics","123","349491","0.0-7.0-5.0-0.20","6","6","6","4","6","5","4","5","4","4","5","2","1","1","2","0","1","2","2","5","4","5","5","4","4","4","4","4","4","5","5","6","5","3","7","5","5","5","5","7","6","5","6","5","6","2","6","6","1","6","3","7","1","5","6","5","7","7","6","3","6","3","6","3","7","7","7","7","7","7","6","3","2","2","7","3","7","6","7","781830643909922818","王","90","Male","[""坏他"",""好我"",""坏我"",""好他""]","[""弱他"",""强我"",""弱我"",""强他""]","","","","","","","","9","","","","","","","","","SRET","SRET_math_calculate","","key","9","16.660902255638835","768","428","","","","","1+8= ?","9","1","","","","","","","",""
"2527","","8","psychophysics","124","352023","0.0-7.0-5.0-0.21","6","6","6","4","6","5","4","5","4","4","5","2","1","1","2","0","1","2","2","5","4","5","5","4","4","4","4","4","4","5","5","6","5","3","7","5","5","5","5","7","6","5","6","5","6","2","6","6","1","6","3","7","1","5","6","5","7","7","6","3","6","3","6","3","7","7","7","7","7","7","6","3","2","2","7","3","7","6","7","781830643909922818","王","90","Male","[""坏他"",""好我"",""坏我"",""好他""]","[""弱他"",""强我"",""弱我"",""强他""]","","","","","","","","8","","","","","","","","","SRET","SRET_math_calculate","","key","8","16.660927152317804","768","428","","","","","2*4= ?","8","1","","","","","","","",""
"2585","","3","psychophysics","125","354613","0.0-7.0-5.0-0.22","6","6","6","4","6","5","4","5","4","4","5","2","1","1","2","0","1","2","2","5","4","5","5","4","4","4","4","4","4","5","5","6","5","3","7","5","5","5","5","7","6","5","6","5","6","2","6","6","1","6","3","7","1","5","6","5","7","7","6","3","6","3","6","3","7","7","7","7","7","7","6","3","2","2","7","3","7","6","7","781830643909922818","王","90","Male","[""坏他"",""好我"",""坏我"",""好他""]","[""弱他"",""强我"",""弱我"",""强他""]","","","","","","","","3","","","","","","","","","SRET","SRET_math_calculate","","key","3","16.66038961038931","768","428","","","","","9/3= ?","3","1","","","","","","","",""
"2421","","4","psychophysics","126","357040","0.0-7.0-5.0-0.23","6","6","6","4","6","5","4","5","4","4","5","2","1","1","2","0","1","2","2","5","4","5","5","4","4","4","4","4","4","5","5","6","5","3","7","5","5","5","5","7","6","5","6","5","6","2","6","6","1","6","3","7","1","5","6","5","7","7","6","3","6","3","6","3","7","7","7","7","7","7","6","3","2","2","7","3","7","6","7","781830643909922818","王","90","Male","[""坏他"",""好我"",""坏我"",""好他""]","[""弱他"",""强我"",""弱我"",""强他""]","","","","","","","","4","","","","","","","","","SRET","SRET_math_calculate","","key","4","16.659310344827425","768","428","","","","","13-9= ?","4","1","","","","","","","",""
"2413","","6","psychophysics","127","359456","0.0-7.0-5.0-0.24","6","6","6","4","6","5","4","5","4","4","5","2","1","1","2","0","1","2","2","5","4","5","5","4","4","4","4","4","4","5","5","6","5","3","7","5","5","5","5","7","6","5","6","5","6","2","6","6","1","6","3","7","1","5","6","5","7","7","6","3","6","3","6","3","7","7","7","7","7","7","6","3","2","2","7","3","7","6","7","781830643909922818","王","90","Male","[""坏他"",""好我"",""坏我"",""好他""]","[""弱他"",""强我"",""弱我"",""强他""]","","","","","","","","6","","","","","","","","","SRET","SRET_math_calculate","","key","6","16.661805555555475","768","428","","","","","3*2= ?","6","1","","","","","","","",""
"2468","","7","psychophysics","128","361928","0.0-7.0-5.0-0.25","6","6","6","4","6","5","4","5","4","4","5","2","1","1","2","0","1","2","2","5","4","5","5","4","4","4","4","4","4","5","5","6","5","3","7","5","5","5","5","7","6","5","6","5","6","2","6","6","1","6","3","7","1","5","6","5","7","7","6","3","6","3","6","3","7","7","7","7","7","7","6","3","2","2","7","3","7","6","7","781830643909922818","王","90","Male","[""坏他"",""好我"",""坏我"",""好他""]","[""弱他"",""强我"",""弱我"",""强他""]","","","","","","","","7","","","","","","","","","SRET","SRET_math_calculate","","key","7","16.661224489796","768","428","","","","","7*1=  ?","7","1","","","","","","","",""
"2320","","5","psychophysics","129","364255","0.0-7.0-5.0-0.26","6","6","6","4","6","5","4","5","4","4","5","2","1","1","2","0","1","2","2","5","4","5","5","4","4","4","4","4","4","5","5","6","5","3","7","5","5","5","5","7","6","5","6","5","6","2","6","6","1","6","3","7","1","5","6","5","7","7","6","3","6","3","6","3","7","7","7","7","7","7","6","3","2","2","7","3","7","6","7","781830643909922818","王","90","Male","[""坏他"",""好我"",""坏我"",""好他""]","[""弱他"",""强我"",""弱我"",""强他""]","","","","","","","","5","","","","","","","","","SRET","SRET_math_calculate","","key","5","16.66187050359712","768","428","","","","","15-10= ?","5","1","","","","","","","",""
"2514","","3","psychophysics","130","366772","0.0-7.0-5.0-0.27","6","6","6","4","6","5","4","5","4","4","5","2","1","1","2","0","1","2","2","5","4","5","5","4","4","4","4","4","4","5","5","6","5","3","7","5","5","5","5","7","6","5","6","5","6","2","6","6","1","6","3","7","1","5","6","5","7","7","6","3","6","3","6","3","7","7","7","7","7","7","6","3","2","2","7","3","7","6","7","781830643909922818","王","90","Male","[""坏他"",""好我"",""坏我"",""好他""]","[""弱他"",""强我"",""弱我"",""强他""]","","","","","","","","3","","","","","","","","","SRET","SRET_math_calculate","","key","3","16.66133333333341","768","428","","","","","8-5= ?","3","1","","","","","","","",""
"2215","","0","psychophysics","131","368990","0.0-7.0-5.0-0.28","6","6","6","4","6","5","4","5","4","4","5","2","1","1","2","0","1","2","2","5","4","5","5","4","4","4","4","4","4","5","5","6","5","3","7","5","5","5","5","7","6","5","6","5","6","2","6","6","1","6","3","7","1","5","6","5","7","7","6","3","6","3","6","3","7","7","7","7","7","7","6","3","2","2","7","3","7","6","7","781830643909922818","王","90","Male","[""坏他"",""好我"",""坏我"",""好他""]","[""弱他"",""强我"",""弱我"",""强他""]","","","","","","","","0","","","","","","","","","SRET","SRET_math_calculate","","key","0","16.662121212121388","768","428","","","","","9-9= ?","0","1","","","","","","","",""
"2940","","8","psychophysics","132","371934","0.0-7.0-5.0-0.29","6","6","6","4","6","5","4","5","4","4","5","2","1","1","2","0","1","2","2","5","4","5","5","4","4","4","4","4","4","5","5","6","5","3","7","5","5","5","5","7","6","5","6","5","6","2","6","6","1","6","3","7","1","5","6","5","7","7","6","3","6","3","6","3","7","7","7","7","7","7","6","3","2","2","7","3","7","6","7","781830643909922818","王","90","Male","[""坏他"",""好我"",""坏我"",""好他""]","[""弱他"",""强我"",""弱我"",""强他""]","","","","","","","","8","","","","","","","","","SRET","SRET_math_calculate","","key","8","16.661931818181817","768","428","","","","","3+5= ?","8","1","","","","","","","",""
"2089","","5","psychophysics","133","374027","0.0-7.0-5.0-0.30","6","6","6","4","6","5","4","5","4","4","5","2","1","1","2","0","1","2","2","5","4","5","5","4","4","4","4","4","4","5","5","6","5","3","7","5","5","5","5","7","6","5","6","5","6","2","6","6","1","6","3","7","1","5","6","5","7","7","6","3","6","3","6","3","7","7","7","7","7","7","6","3","2","2","7","3","7","6","7","781830643909922818","王","90","Male","[""坏他"",""好我"",""坏我"",""好他""]","[""弱他"",""强我"",""弱我"",""强他""]","","","","","","","","5","","","","","","","","","SRET","SRET_math_calculate","","key","5","16.65887096774203","768","428","","","","","9-4= ?","5","1","","","","","","","",""
"2747","","5","psychophysics","134","376781","0.0-7.0-5.0-0.31","6","6","6","4","6","5","4","5","4","4","5","2","1","1","2","0","1","2","2","5","4","5","5","4","4","4","4","4","4","5","5","6","5","3","7","5","5","5","5","7","6","5","6","5","6","2","6","6","1","6","3","7","1","5","6","5","7","7","6","3","6","3","6","3","7","7","7","7","7","7","6","3","2","2","7","3","7","6","7","781830643909922818","王","90","Male","[""坏他"",""好我"",""坏我"",""好他""]","[""弱他"",""强我"",""弱我"",""强他""]","","","","","","","","5","","","","","","","","","SRET","SRET_math_calculate","","key","5","16.66060606060606","768","428","","","","","17-12= ? ","5","1","","","","","","","",""
"2162","","4","psychophysics","135","378947","0.0-7.0-5.0-0.32","6","6","6","4","6","5","4","5","4","4","5","2","1","1","2","0","1","2","2","5","4","5","5","4","4","4","4","4","4","5","5","6","5","3","7","5","5","5","5","7","6","5","6","5","6","2","6","6","1","6","3","7","1","5","6","5","7","7","6","3","6","3","6","3","7","7","7","7","7","7","6","3","2","2","7","3","7","6","7","781830643909922818","王","90","Male","[""坏他"",""好我"",""坏我"",""好他""]","[""弱他"",""强我"",""弱我"",""强他""]","","","","","","","","4","","","","","","","","","SRET","SRET_math_calculate","","key","4","16.66046511627916","768","428","","","","","2+2= ?","4","1","","","","","","","",""
"2544","","0","psychophysics","136","381496","0.0-7.0-5.0-0.33","6","6","6","4","6","5","4","5","4","4","5","2","1","1","2","0","1","2","2","5","4","5","5","4","4","4","4","4","4","5","5","6","5","3","7","5","5","5","5","7","6","5","6","5","6","2","6","6","1","6","3","7","1","5","6","5","7","7","6","3","6","3","6","3","7","7","7","7","7","7","6","3","2","2","7","3","7","6","7","781830643909922818","王","90","Male","[""坏他"",""好我"",""坏我"",""好他""]","[""弱他"",""强我"",""弱我"",""强他""]","","","","","","","","0","","","","","","","","","SRET","SRET_math_calculate","","key","0","16.66184210526339","768","428","","","","","6*0= ?","0","1","","","","","","","",""
"2238","","8","psychophysics","137","383739","0.0-7.0-5.0-0.34","6","6","6","4","6","5","4","5","4","4","5","2","1","1","2","0","1","2","2","5","4","5","5","4","4","4","4","4","4","5","5","6","5","3","7","5","5","5","5","7","6","5","6","5","6","2","6","6","1","6","3","7","1","5","6","5","7","7","6","3","6","3","6","3","7","7","7","7","7","7","6","3","2","2","7","3","7","6","7","781830643909922818","王","90","Male","[""坏他"",""好我"",""坏我"",""好他""]","[""弱他"",""强我"",""弱我"",""强他""]","","","","","","","","8","","","","","","","","","SRET","SRET_math_calculate","","key","8","16.66090225563927","768","428","","","","","1*8= ?","8","1","","","","","","","",""
"2167","","8","psychophysics","138","385912","0.0-7.0-5.0-0.35","6","6","6","4","6","5","4","5","4","4","5","2","1","1","2","0","1","2","2","5","4","5","5","4","4","4","4","4","4","5","5","6","5","3","7","5","5","5","5","7","6","5","6","5","6","2","6","6","1","6","3","7","1","5","6","5","7","7","6","3","6","3","6","3","7","7","7","7","7","7","6","3","2","2","7","3","7","6","7","781830643909922818","王","90","Male","[""坏他"",""好我"",""坏我"",""好他""]","[""弱他"",""强我"",""弱我"",""强他""]","","","","","","","","8","","","","","","","","","SRET","SRET_math_calculate","","key","8","16.65846153846136","768","428","","","","","8*1= ?","8","1","","","","","","","",""
"2098","","3","psychophysics","139","388014","0.0-7.0-5.0-0.36","6","6","6","4","6","5","4","5","4","4","5","2","1","1","2","0","1","2","2","5","4","5","5","4","4","4","4","4","4","5","5","6","5","3","7","5","5","5","5","7","6","5","6","5","6","2","6","6","1","6","3","7","1","5","6","5","7","7","6","3","6","3","6","3","7","7","7","7","7","7","6","3","2","2","7","3","7","6","7","781830643909922818","王","90","Male","[""坏他"",""好我"",""坏我"",""好他""]","[""弱他"",""强我"",""弱我"",""强他""]","","","","","","","","3","","","","","","","","","SRET","SRET_math_calculate","","key","3","16.661600000000092","768","428","","","","","2+1= ?","3","1","","","","","","","",""
"2145","","7","psychophysics","140","390162","0.0-7.0-5.0-0.37","6","6","6","4","6","5","4","5","4","4","5","2","1","1","2","0","1","2","2","5","4","5","5","4","4","4","4","4","4","5","5","6","5","3","7","5","5","5","5","7","6","5","6","5","6","2","6","6","1","6","3","7","1","5","6","5","7","7","6","3","6","3","6","3","7","7","7","7","7","7","6","3","2","2","7","3","7","6","7","781830643909922818","王","90","Male","[""坏他"",""好我"",""坏我"",""好他""]","[""弱他"",""强我"",""弱我"",""强他""]","","","","","","","","7","","","","","","","","","SRET","SRET_math_calculate","","key","7","16.662500000000364","768","428","","","","","8-1= ?","7","1","","","","","","","",""
"2427","","0","psychophysics","141","392593","0.0-7.0-5.0-0.38","6","6","6","4","6","5","4","5","4","4","5","2","1","1","2","0","1","2","2","5","4","5","5","4","4","4","4","4","4","5","5","6","5","3","7","5","5","5","5","7","6","5","6","5","6","2","6","6","1","6","3","7","1","5","6","5","7","7","6","3","6","3","6","3","7","7","7","7","7","7","6","3","2","2","7","3","7","6","7","781830643909922818","王","90","Male","[""坏他"",""好我"",""坏我"",""好他""]","[""弱他"",""强我"",""弱我"",""强他""]","","","","","","","","0","","","","","","","","","SRET","SRET_math_calculate","","key","0","16.659310344827425","768","428","","","","","32-32= ?","0","1","","","","","","","",""
"2876","","1","psychophysics","142","395475","0.0-7.0-5.0-0.39","6","6","6","4","6","5","4","5","4","4","5","2","1","1","2","0","1","2","2","5","4","5","5","4","4","4","4","4","4","5","5","6","5","3","7","5","5","5","5","7","6","5","6","5","6","2","6","6","1","6","3","7","1","5","6","5","7","7","6","3","6","3","6","3","7","7","7","7","7","7","6","3","2","2","7","3","7","6","7","781830643909922818","王","90","Male","[""坏他"",""好我"",""坏我"",""好他""]","[""弱他"",""强我"",""弱我"",""强他""]","","","","","","","","1","","","","","","","","","SRET","SRET_math_calculate","","key","1","16.662790697674417","768","428","","","","","12/12= ?","1","1","","","","","","","",""
"2295","","8","psychophysics","143","397775","0.0-7.0-5.0-0.40","6","6","6","4","6","5","4","5","4","4","5","2","1","1","2","0","1","2","2","5","4","5","5","4","4","4","4","4","4","5","5","6","5","3","7","5","5","5","5","7","6","5","6","5","6","2","6","6","1","6","3","7","1","5","6","5","7","7","6","3","6","3","6","3","7","7","7","7","7","7","6","3","2","2","7","3","7","6","7","781830643909922818","王","90","Male","[""坏他"",""好我"",""坏我"",""好他""]","[""弱他"",""强我"",""弱我"",""强他""]","","","","","","","","8","","","","","","","","","SRET","SRET_math_calculate","","key","8","16.657664233576472","768","428","","","","","7+1= ?","8","1","","","","","","","",""
