"rt","stimulus","response","trial_type","trial_index","time_elapsed","internal_node_id","swb_1","swb_2","swb_3","swb_4","swb_5","LOT_1","LOT_2","LOT_3","LOT_4","LOT_5","LOT_6","IPC_1","IPC_2","IPC_3","IPC_4","IPC_5","IPC_6","IPC_7","IPC_8","MorIden_1","MorIden_2","MorIden_3","MorIden_4","MorIden_5","MorIden_6","MorIden_7","MorIden_8","MorIden_9","MorIden_10","moralSeImag_1","moralSeImag_2","moralSeImag_3","moralSeImag_4","moralSeImag_5","moralSeImag_6","moralSeImag_7","moralSeImag_8","moralSeImag_9","sde_1","sde_2","sde_3","sde_4","sde_5","sde_6","sde_7","sde_8","sde_9","sde_10","trap2","sde_11","sde_12","sde_13","sde_14","sde_15","sde_16","sde_17","sde_18","sde_19","sde_20","IM_1","IM_2","IM_3","IM_4","IM_5","IM_6","IM_7","IM_8","IM_9","IM_10","IM_11","IM_12","IM_13","IM_14","IM_15","IM_16","IM_17","IM_18","IM_19","IM_20","subj_idx","friend_name","ParticipantID","Sex","Word","Word2","value","success","timeout","failed_images","failed_audio","failed_video","user_agent","responses","item_order","radio_event_ids","radio_event_times","key_event_times","mouse_event_times","straightlining","zigzagging","honeypot","view_history","response_type","key_press","avg_frame_time","center_x","center_y","correct_response","correct","identity","Image","word","condition","task_id","screen_id","time_stamp","person","valence","domain","math","status","duration","question_order","trap2_item"
"14311","
   <p><div style='color:white; font-size: 25px'>您好，欢迎参加本次实验。</div></p>
   <p><div style='color:white; font-size: 25px'>为充分保障您的权利，请确保您已经知晓并同意《参与实验同意书》以及《数据公开知情同意书》。</div></p>
   <p><div style='color:white; font-size: 25px'>如果您未见过上述内容，请咨询实验员。</div></p>
   <p style='color:white; font-size: 25px'>如果您选择继续实验，则表示您已经清楚两份知情同意书的内容并同意。</p>
   <p><div style = ""color: pink;font-size:30px;"">请确保您记得day0的实验编号，您将在本次实验输入该编号，若您忘记，请咨询实验员后作答。</div></p>
   <p><div style = ""color:lightblue;font-size:25px;"">请您尽可能认真地作答，我们将依据您在各问卷和按键任务中的作答质量发放报酬。</div></p>
   <p> <div style = ""color: green""><按空格键至下页></div> </p>
   "," ","html-keyboard-response","0","14313","0.0-0.0","3","3","4","2","3","4","3","3","4","3","4","1","0","0","1","-1","0","2","0","4","4","5","4","3","1","3","3","4","4","6","5","6","6","7","7","6","7","7","5","6","4","6","5","5","5","6","4","4","1","5","4","4","4","5","4","4","7","5","5","5","4","5","5","5","6","4","4","3","6","7","5","5","6","6","3","5","6","5","5","772063807198728193","封","320","Female","[""坏我"",""好她"",""好我"",""坏她""]","[""弱我"",""强她"",""强我"",""弱她""]","","","","","","","","","","","","","","","","","","","","","","","","","","","","","","","","","","","","","","",""
"","","","call-function","1","14315","0.0-1.0-0.0","3","3","4","2","3","4","3","3","4","3","4","1","0","0","1","-1","0","2","0","4","4","5","4","3","1","3","3","4","4","6","5","6","6","7","7","6","7","7","5","6","4","6","5","5","5","6","4","4","1","5","4","4","4","5","4","4","7","5","5","5","4","5","5","5","6","4","4","3","6","7","5","5","6","6","3","5","6","5","5","772063807198728193","封","320","Female","[""坏我"",""好她"",""好我"",""坏她""]","[""弱我"",""强她"",""强我"",""弱她""]","","","","","","","","","","","","","","","","","","","","","","","","","","","","","","","","","","","","","","",""
"18856","","[{""name"":""Sex"",""value"":""1""},{""name"":""friend_name"",""value"":""封""},{""name"":""ParticipantID"",""value"":""320""}]","survey-html-form","2","33172","0.0-1.0-1.0","3","3","4","2","3","4","3","3","4","3","4","1","0","0","1","-1","0","2","0","4","4","5","4","3","1","3","3","4","4","6","5","6","6","7","7","6","7","7","5","6","4","6","5","5","5","6","4","4","1","5","4","4","4","5","4","4","7","5","5","5","4","5","5","5","6","4","4","3","6","7","5","5","6","6","3","5","6","5","5","772063807198728193","封","320","Female","[""坏我"",""好她"",""好我"",""坏她""]","[""弱我"",""强她"",""强我"",""弱她""]","","","","","","","","","","","","","","","","","","","","","","","","","","","","","","","","","","","","","","",""
"","","","preload","3","33575","0.0-2.0","3","3","4","2","3","4","3","3","4","3","4","1","0","0","1","-1","0","2","0","4","4","5","4","3","1","3","3","4","4","6","5","6","6","7","7","6","7","7","5","6","4","6","5","5","5","6","4","4","1","5","4","4","4","5","4","4","7","5","5","5","4","5","5","5","6","4","4","3","6","7","5","5","6","6","3","5","6","5","5","772063807198728193","封","320","Female","[""坏我"",""好她"",""好我"",""坏她""]","[""弱我"",""强她"",""强我"",""弱她""]","","true","false","[]","[]","[]","","","","","","","","","","","","","","","","","","","","","","","","","","","","","","","","",""
"","","","fullscreen","4","65089","0.0-3.0","3","3","4","2","3","4","3","3","4","3","4","1","0","0","1","-1","0","2","0","4","4","5","4","3","1","3","3","4","4","6","5","6","6","7","7","6","7","7","5","6","4","6","5","5","5","6","4","4","1","5","4","4","4","5","4","4","7","5","5","5","4","5","5","5","6","4","4","3","6","7","5","5","6","6","3","5","6","5","5","772063807198728193","封","320","Female","[""坏我"",""好她"",""好我"",""坏她""]","[""弱我"",""强她"",""强我"",""弱她""]","","true","","","","","{}","","","","","","","","","","","","","","","","","","","","","","","","","","","","","","","",""
"21186.79999998212","","{""Q01"":""3"",""Q02"":""3"",""Q03"":""4"",""Q04"":""2"",""Q05"":""3""}","survey-template","5","86279","0.0-4.0","3","3","4","2","3","4","3","3","4","3","4","1","0","0","1","-1","0","2","0","4","4","5","4","3","1","3","3","4","4","6","5","6","6","7","7","6","7","7","5","6","4","6","5","5","5","6","4","4","1","5","4","4","4","5","4","4","7","5","5","5","4","5","5","5","6","4","4","3","6","7","5","5","6","6","3","5","6","5","5","772063807198728193","封","320","Female","[""坏我"",""好她"",""好我"",""坏她""]","[""弱我"",""强她"",""强我"",""弱她""]","","","","","","","","{""Q01"":""3"",""Q02"":""3"",""Q03"":""4"",""Q04"":""2"",""Q05"":""3""}","[0,1,2,3,4]","[""Q01"",""Q02"",""Q03"",""Q04"",""Q05""]","[7686.4000000059605,9350.699999988079,11300.299999982119,13768.59999999404,20375.09999999404]","[]","[7686.4000000059605,9350.699999988079,11300.299999982119,13768.59999999404,20375.09999999404,21185.90000000596]","0.6","0.5","0","","","","","","","","","","","","","","","","","","","","","","",""
"31718.100000023842","","{""Q01"":""4"",""Q02"":""3"",""Q03"":""3"",""Q04"":""4"",""Q05"":""3"",""Q06"":""4""}","survey-template","6","118003","0.0-5.0","3","3","4","2","3","4","3","3","4","3","4","1","0","0","1","-1","0","2","0","4","4","5","4","3","1","3","3","4","4","6","5","6","6","7","7","6","7","7","5","6","4","6","5","5","5","6","4","4","1","5","4","4","4","5","4","4","7","5","5","5","4","5","5","5","6","4","4","3","6","7","5","5","6","6","3","5","6","5","5","772063807198728193","封","320","Female","[""坏我"",""好她"",""好我"",""坏她""]","[""弱我"",""强她"",""强我"",""弱她""]","","","","","","","","{""Q01"":""4"",""Q02"":""3"",""Q03"":""3"",""Q04"":""4"",""Q05"":""3"",""Q06"":""4""}","[0,1,2,3,4,5]","[""Q01"",""Q02"",""Q03"",""Q04"",""Q06"",""Q05""]","[6963.800000011921,13638,15117.300000011921,21099.70000001788,26229.80000001192,27869.100000023842]","[]","[5051.700000017881,6963.800000011921,12518.600000023842,13638,15117.300000011921,18709.600000023842,21099.70000001788,22015.100000023842,26229.80000001192,27869.100000023842,31717.5]","0.5","0.8","0","","","","","","","","","","","","","","","","","","","","","","",""
"44924.80000001192","","{""Q01"":""1"",""Q02"":""0"",""Q03"":""0"",""Q04"":""1"",""Q05"":""-1"",""Q06"":""0"",""Q07"":""2"",""Q08"":""0""}","survey-template","7","162932","0.0-6.0","3","3","4","2","3","4","3","3","4","3","4","1","0","0","1","-1","0","2","0","4","4","5","4","3","1","3","3","4","4","6","5","6","6","7","7","6","7","7","5","6","4","6","5","5","5","6","4","4","1","5","4","4","4","5","4","4","7","5","5","5","4","5","5","5","6","4","4","3","6","7","5","5","6","6","3","5","6","5","5","772063807198728193","封","320","Female","[""坏我"",""好她"",""好我"",""坏她""]","[""弱我"",""强她"",""强我"",""弱她""]","","","","","","","","{""Q01"":""1"",""Q02"":""0"",""Q03"":""0"",""Q04"":""1"",""Q05"":""-1"",""Q06"":""0"",""Q07"":""2"",""Q08"":""0""}","[0,1,2,3,4,5,6,7]","[""Q01"",""Q02"",""Q02"",""Q03"",""Q04"",""Q05"",""Q06"",""Q07"",""Q08""]","[9447.09999999404,12810.90000000596,14847,24928.20000001788,30171.5,32884.40000000596,35505.59999999404,40031.80000001192,43126.5]","[]","[6180.700000017881,9447.09999999404,12810.90000000596,14847,24928.20000001788,30171.5,32884.40000000596,35505.59999999404,40031.80000001192,43126.5,44923.80000001192]","0.5","0.42857142857142855","0","","","","","","","","","","","","","","","","","","","","","","",""
"57651","","","instructions","8","220587","0.0-7.0","3","3","4","2","3","4","3","3","4","3","4","1","0","0","1","-1","0","2","0","4","4","5","4","3","1","3","3","4","4","6","5","6","6","7","7","6","7","7","5","6","4","6","5","5","5","6","4","4","1","5","4","4","4","5","4","4","7","5","5","5","4","5","5","5","6","4","4","3","6","7","5","5","6","6","3","5","6","5","5","772063807198728193","封","320","Female","[""坏我"",""好她"",""好我"",""坏她""]","[""弱我"",""强她"",""强我"",""弱她""]","","","","","","","","","","","","","","","","","[{""page_index"":0,""viewing_time"":57650}]","","","","","","","","","","","","","","","","","","","","","",""
"92584","","","instructions","9","313172","0.0-8.0-0.0-0.0","3","3","4","2","3","4","3","3","4","3","4","1","0","0","1","-1","0","2","0","4","4","5","4","3","1","3","3","4","4","6","5","6","6","7","7","6","7","7","5","6","4","6","5","5","5","6","4","4","1","5","4","4","4","5","4","4","7","5","5","5","4","5","5","5","6","4","4","3","6","7","5","5","6","6","3","5","6","5","5","772063807198728193","封","320","Female","[""坏我"",""好她"",""好我"",""坏她""]","[""弱我"",""强她"",""强我"",""弱她""]","","","","","","","","","","","","","","","","","[{""page_index"":0,""viewing_time"":26190},{""page_index"":1,""viewing_time"":48779},{""page_index"":2,""viewing_time"":13773},{""page_index"":3,""viewing_time"":3842}]","","","","","","","","","","","","","","","","","","","","","",""
"null","","null","psychophysics","10","315377","0.0-8.0-0.0-1.0-0.0-0.0","3","3","4","2","3","4","3","3","4","3","4","1","0","0","1","-1","0","2","0","4","4","5","4","3","1","3","3","4","4","6","5","6","6","7","7","6","7","7","5","6","4","6","5","5","5","6","4","4","1","5","4","4","4","5","4","4","7","5","5","5","4","5","5","5","6","4","4","3","6","7","5","5","6","6","3","5","6","5","5","772063807198728193","封","320","Female","[""坏我"",""好她"",""好我"",""坏她""]","[""弱我"",""强她"",""强我"",""弱她""]","","","","","","","","null","","","","","","","","","","key","null","16.666465648854746","640","356","f","false","match","img/pentagon.png","坏她","坏她","prac_ALT2_moral","practice_moral","","","","","","","","",""
"null","<span class='add_' style='color:yellow; font-size: 70px;'> 太慢! </span>","null","html-keyboard-response","11","315880","0.0-8.0-0.0-1.0-0.0-1.0","3","3","4","2","3","4","3","3","4","3","4","1","0","0","1","-1","0","2","0","4","4","5","4","3","1","3","3","4","4","6","5","6","6","7","7","6","7","7","5","6","4","6","5","5","5","6","4","4","1","5","4","4","4","5","4","4","7","5","5","5","4","5","5","5","6","4","4","3","6","7","5","5","6","6","3","5","6","5","5","772063807198728193","封","320","Female","[""坏我"",""好她"",""好我"",""坏她""]","[""弱我"",""强她"",""强我"",""弱她""]","","","","","","","","","","","","","","","","","","","","","","","","","","","","","","feedback_test","","","","","","","","",""
"528","","f","psychophysics","12","317410","0.0-8.0-0.0-1.0-0.0-0.1","3","3","4","2","3","4","3","3","4","3","4","1","0","0","1","-1","0","2","0","4","4","5","4","3","1","3","3","4","4","6","5","6","6","7","7","6","7","7","5","6","4","6","5","5","5","6","4","4","1","5","4","4","4","5","4","4","7","5","5","5","4","5","5","5","6","4","4","3","6","7","5","5","6","6","3","5","6","5","5","772063807198728193","封","320","Female","[""坏我"",""好她"",""好我"",""坏她""]","[""弱我"",""强她"",""强我"",""弱她""]","","","","","","","","match","","","","","","","","","","key","f","16.665340659341002","640","356","j","false","nonmatch","img/diamond.png","坏我","好她","prac_ALT2_moral","practice_moral","","","","","","","","",""
"null","<span style='color:red; font-size: 70px;'>错误! </span>","null","html-keyboard-response","13","317911","0.0-8.0-0.0-1.0-0.0-1.1","3","3","4","2","3","4","3","3","4","3","4","1","0","0","1","-1","0","2","0","4","4","5","4","3","1","3","3","4","4","6","5","6","6","7","7","6","7","7","5","6","4","6","5","5","5","6","4","4","1","5","4","4","4","5","4","4","7","5","5","5","4","5","5","5","6","4","4","3","6","7","5","5","6","6","3","5","6","5","5","772063807198728193","封","320","Female","[""坏我"",""好她"",""好我"",""坏她""]","[""弱我"",""强她"",""强我"",""弱她""]","","","","","","","","","","","","","","","","","","","","","","","","","","","","","","feedback_test","","","","","","","","",""
"559","","j","psychophysics","14","319471","0.0-8.0-0.0-1.0-0.0-0.2","3","3","4","2","3","4","3","3","4","3","4","1","0","0","1","-1","0","2","0","4","4","5","4","3","1","3","3","4","4","6","5","6","6","7","7","6","7","7","5","6","4","6","5","5","5","6","4","4","1","5","4","4","4","5","4","4","7","5","5","5","4","5","5","5","6","4","4","3","6","7","5","5","6","6","3","5","6","5","5","772063807198728193","封","320","Female","[""坏我"",""好她"",""好我"",""坏她""]","[""弱我"",""强她"",""强我"",""弱她""]","","","","","","","","nonmatch","","","","","","","","","","key","j","16.666569892472904","640","356","j","true","nonmatch","img/pentagon.png","坏我","坏她","prac_ALT2_moral","practice_moral","","","","","","","","",""
"null","<span style='color:GreenYellow; font-size: 70px;'>正确! </span>","null","html-keyboard-response","15","319973","0.0-8.0-0.0-1.0-0.0-1.2","3","3","4","2","3","4","3","3","4","3","4","1","0","0","1","-1","0","2","0","4","4","5","4","3","1","3","3","4","4","6","5","6","6","7","7","6","7","7","5","6","4","6","5","5","5","6","4","4","1","5","4","4","4","5","4","4","7","5","5","5","4","5","5","5","6","4","4","3","6","7","5","5","6","6","3","5","6","5","5","772063807198728193","封","320","Female","[""坏我"",""好她"",""好我"",""坏她""]","[""弱我"",""强她"",""强我"",""弱她""]","","","","","","","","","","","","","","","","","","","","","","","","","","","","","","feedback_test","","","","","","","","",""
"379","","f","psychophysics","16","321353","0.0-8.0-0.0-1.0-0.0-0.3","3","3","4","2","3","4","3","3","4","3","4","1","0","0","1","-1","0","2","0","4","4","5","4","3","1","3","3","4","4","6","5","6","6","7","7","6","7","7","5","6","4","6","5","5","5","6","4","4","1","5","4","4","4","5","4","4","7","5","5","5","4","5","5","5","6","4","4","3","6","7","5","5","6","6","3","5","6","5","5","772063807198728193","封","320","Female","[""坏我"",""好她"",""好我"",""坏她""]","[""弱我"",""强她"",""强我"",""弱她""]","","","","","","","","match","","","","","","","","","","key","f","16.66633333333331","640","356","f","true","match","img/circle.png","坏我","坏我","prac_ALT2_moral","practice_moral","","","","","","","","",""
"null","<span style='color:GreenYellow; font-size: 70px;'>正确! </span>","null","html-keyboard-response","17","321854","0.0-8.0-0.0-1.0-0.0-1.3","3","3","4","2","3","4","3","3","4","3","4","1","0","0","1","-1","0","2","0","4","4","5","4","3","1","3","3","4","4","6","5","6","6","7","7","6","7","7","5","6","4","6","5","5","5","6","4","4","1","5","4","4","4","5","4","4","7","5","5","5","4","5","5","5","6","4","4","3","6","7","5","5","6","6","3","5","6","5","5","772063807198728193","封","320","Female","[""坏我"",""好她"",""好我"",""坏她""]","[""弱我"",""强她"",""强我"",""弱她""]","","","","","","","","","","","","","","","","","","","","","","","","","","","","","","feedback_test","","","","","","","","",""
"409","","f","psychophysics","18","323265","0.0-8.0-0.0-1.0-0.0-0.4","3","3","4","2","3","4","3","3","4","3","4","1","0","0","1","-1","0","2","0","4","4","5","4","3","1","3","3","4","4","6","5","6","6","7","7","6","7","7","5","6","4","6","5","5","5","6","4","4","1","5","4","4","4","5","4","4","7","5","5","5","4","5","5","5","6","4","4","3","6","7","5","5","6","6","3","5","6","5","5","772063807198728193","封","320","Female","[""坏我"",""好她"",""好我"",""坏她""]","[""弱我"",""强她"",""强我"",""弱她""]","","","","","","","","match","","","","","","","","","","key","f","16.666987951807062","640","356","j","false","nonmatch","img/circle.png","坏她","坏我","prac_ALT2_moral","practice_moral","","","","","","","","",""
"null","<span style='color:red; font-size: 70px;'>错误! </span>","null","html-keyboard-response","19","323778","0.0-8.0-0.0-1.0-0.0-1.4","3","3","4","2","3","4","3","3","4","3","4","1","0","0","1","-1","0","2","0","4","4","5","4","3","1","3","3","4","4","6","5","6","6","7","7","6","7","7","5","6","4","6","5","5","5","6","4","4","1","5","4","4","4","5","4","4","7","5","5","5","4","5","5","5","6","4","4","3","6","7","5","5","6","6","3","5","6","5","5","772063807198728193","封","320","Female","[""坏我"",""好她"",""好我"",""坏她""]","[""弱我"",""强她"",""强我"",""弱她""]","","","","","","","","","","","","","","","","","","","","","","","","","","","","","","feedback_test","","","","","","","","",""
"601","","j","psychophysics","20","325381","0.0-8.0-0.0-1.0-0.0-0.5","3","3","4","2","3","4","3","3","4","3","4","1","0","0","1","-1","0","2","0","4","4","5","4","3","1","3","3","4","4","6","5","6","6","7","7","6","7","7","5","6","4","6","5","5","5","6","4","4","1","5","4","4","4","5","4","4","7","5","5","5","4","5","5","5","6","4","4","3","6","7","5","5","6","6","3","5","6","5","5","772063807198728193","封","320","Female","[""坏我"",""好她"",""好我"",""坏她""]","[""弱我"",""强她"",""强我"",""弱她""]","","","","","","","","nonmatch","","","","","","","","","","key","j","16.66682105263156","640","356","f","false","match","img/diamond.png","好她","好她","prac_ALT2_moral","practice_moral","","","","","","","","",""
"null","<span style='color:red; font-size: 70px;'>错误! </span>","null","html-keyboard-response","21","325882","0.0-8.0-0.0-1.0-0.0-1.5","3","3","4","2","3","4","3","3","4","3","4","1","0","0","1","-1","0","2","0","4","4","5","4","3","1","3","3","4","4","6","5","6","6","7","7","6","7","7","5","6","4","6","5","5","5","6","4","4","1","5","4","4","4","5","4","4","7","5","5","5","4","5","5","5","6","4","4","3","6","7","5","5","6","6","3","5","6","5","5","772063807198728193","封","320","Female","[""坏我"",""好她"",""好我"",""坏她""]","[""弱我"",""强她"",""强我"",""弱她""]","","","","","","","","","","","","","","","","","","","","","","","","","","","","","","feedback_test","","","","","","","","",""
"308","","f","psychophysics","22","327192","0.0-8.0-0.0-1.0-0.0-0.6","3","3","4","2","3","4","3","3","4","3","4","1","0","0","1","-1","0","2","0","4","4","5","4","3","1","3","3","4","4","6","5","6","6","7","7","6","7","7","5","6","4","6","5","5","5","6","4","4","1","5","4","4","4","5","4","4","7","5","5","5","4","5","5","5","6","4","4","3","6","7","5","5","6","6","3","5","6","5","5","772063807198728193","封","320","Female","[""坏我"",""好她"",""好我"",""坏她""]","[""弱我"",""强她"",""强我"",""弱她""]","","","","","","","","match","","","","","","","","","","key","f","16.666884615385268","640","356","j","false","nonmatch","img/square.png","坏她","好我","prac_ALT2_moral","practice_moral","","","","","","","","",""
"null","<span style='color:red; font-size: 70px;'>错误! </span>","null","html-keyboard-response","23","327693","0.0-8.0-0.0-1.0-0.0-1.6","3","3","4","2","3","4","3","3","4","3","4","1","0","0","1","-1","0","2","0","4","4","5","4","3","1","3","3","4","4","6","5","6","6","7","7","6","7","7","5","6","4","6","5","5","5","6","4","4","1","5","4","4","4","5","4","4","7","5","5","5","4","5","5","5","6","4","4","3","6","7","5","5","6","6","3","5","6","5","5","772063807198728193","封","320","Female","[""坏我"",""好她"",""好我"",""坏她""]","[""弱我"",""强她"",""强我"",""弱她""]","","","","","","","","","","","","","","","","","","","","","","","","","","","","","","feedback_test","","","","","","","","",""
"426","","j","psychophysics","24","329120","0.0-8.0-0.0-1.0-0.0-0.7","3","3","4","2","3","4","3","3","4","3","4","1","0","0","1","-1","0","2","0","4","4","5","4","3","1","3","3","4","4","6","5","6","6","7","7","6","7","7","5","6","4","6","5","5","5","6","4","4","1","5","4","4","4","5","4","4","7","5","5","5","4","5","5","5","6","4","4","3","6","7","5","5","6","6","3","5","6","5","5","772063807198728193","封","320","Female","[""坏我"",""好她"",""好我"",""坏她""]","[""弱我"",""强她"",""强我"",""弱她""]","","","","","","","","nonmatch","","","","","","","","","","key","j","16.66634117647088","640","356","j","true","nonmatch","img/diamond.png","好我","好她","prac_ALT2_moral","practice_moral","","","","","","","","",""
"null","<span style='color:GreenYellow; font-size: 70px;'>正确! </span>","null","html-keyboard-response","25","329622","0.0-8.0-0.0-1.0-0.0-1.7","3","3","4","2","3","4","3","3","4","3","4","1","0","0","1","-1","0","2","0","4","4","5","4","3","1","3","3","4","4","6","5","6","6","7","7","6","7","7","5","6","4","6","5","5","5","6","4","4","1","5","4","4","4","5","4","4","7","5","5","5","4","5","5","5","6","4","4","3","6","7","5","5","6","6","3","5","6","5","5","772063807198728193","封","320","Female","[""坏我"",""好她"",""好我"",""坏她""]","[""弱我"",""强她"",""强我"",""弱她""]","","","","","","","","","","","","","","","","","","","","","","","","","","","","","","feedback_test","","","","","","","","",""
"498","","j","psychophysics","26","331121","0.0-8.0-0.0-1.0-0.0-0.8","3","3","4","2","3","4","3","3","4","3","4","1","0","0","1","-1","0","2","0","4","4","5","4","3","1","3","3","4","4","6","5","6","6","7","7","6","7","7","5","6","4","6","5","5","5","6","4","4","1","5","4","4","4","5","4","4","7","5","5","5","4","5","5","5","6","4","4","3","6","7","5","5","6","6","3","5","6","5","5","772063807198728193","封","320","Female","[""坏我"",""好她"",""好我"",""坏她""]","[""弱我"",""强她"",""强我"",""弱她""]","","","","","","","","nonmatch","","","","","","","","","","key","j","16.66748314606761","640","356","j","true","nonmatch","img/circle.png","好我","坏我","prac_ALT2_moral","practice_moral","","","","","","","","",""
"null","<span style='color:GreenYellow; font-size: 70px;'>正确! </span>","null","html-keyboard-response","27","331622","0.0-8.0-0.0-1.0-0.0-1.8","3","3","4","2","3","4","3","3","4","3","4","1","0","0","1","-1","0","2","0","4","4","5","4","3","1","3","3","4","4","6","5","6","6","7","7","6","7","7","5","6","4","6","5","5","5","6","4","4","1","5","4","4","4","5","4","4","7","5","5","5","4","5","5","5","6","4","4","3","6","7","5","5","6","6","3","5","6","5","5","772063807198728193","封","320","Female","[""坏我"",""好她"",""好我"",""坏她""]","[""弱我"",""强她"",""强我"",""弱她""]","","","","","","","","","","","","","","","","","","","","","","","","","","","","","","feedback_test","","","","","","","","",""
"379","","f","psychophysics","28","333004","0.0-8.0-0.0-1.0-0.0-0.9","3","3","4","2","3","4","3","3","4","3","4","1","0","0","1","-1","0","2","0","4","4","5","4","3","1","3","3","4","4","6","5","6","6","7","7","6","7","7","5","6","4","6","5","5","5","6","4","4","1","5","4","4","4","5","4","4","7","5","5","5","4","5","5","5","6","4","4","3","6","7","5","5","6","6","3","5","6","5","5","772063807198728193","封","320","Female","[""坏我"",""好她"",""好我"",""坏她""]","[""弱我"",""强她"",""强我"",""弱她""]","","","","","","","","match","","","","","","","","","","key","f","16.667666666666737","640","356","f","true","match","img/diamond.png","好她","好她","prac_ALT2_moral","practice_moral","","","","","","","","",""
"null","<span style='color:GreenYellow; font-size: 70px;'>正确! </span>","null","html-keyboard-response","29","333505","0.0-8.0-0.0-1.0-0.0-1.9","3","3","4","2","3","4","3","3","4","3","4","1","0","0","1","-1","0","2","0","4","4","5","4","3","1","3","3","4","4","6","5","6","6","7","7","6","7","7","5","6","4","6","5","5","5","6","4","4","1","5","4","4","4","5","4","4","7","5","5","5","4","5","5","5","6","4","4","3","6","7","5","5","6","6","3","5","6","5","5","772063807198728193","封","320","Female","[""坏我"",""好她"",""好我"",""坏她""]","[""弱我"",""强她"",""强我"",""弱她""]","","","","","","","","","","","","","","","","","","","","","","","","","","","","","","feedback_test","","","","","","","","",""
"515","","j","psychophysics","30","335024","0.0-8.0-0.0-1.0-0.0-0.10","3","3","4","2","3","4","3","3","4","3","4","1","0","0","1","-1","0","2","0","4","4","5","4","3","1","3","3","4","4","6","5","6","6","7","7","6","7","7","5","6","4","6","5","5","5","6","4","4","1","5","4","4","4","5","4","4","7","5","5","5","4","5","5","5","6","4","4","3","6","7","5","5","6","6","3","5","6","5","5","772063807198728193","封","320","Female","[""坏我"",""好她"",""好我"",""坏她""]","[""弱我"",""强她"",""强我"",""弱她""]","","","","","","","","nonmatch","","","","","","","","","","key","j","16.667144444443856","640","356","f","false","match","img/square.png","好我","好我","prac_ALT2_moral","practice_moral","","","","","","","","",""
"null","<span style='color:red; font-size: 70px;'>错误! </span>","null","html-keyboard-response","31","335525","0.0-8.0-0.0-1.0-0.0-1.10","3","3","4","2","3","4","3","3","4","3","4","1","0","0","1","-1","0","2","0","4","4","5","4","3","1","3","3","4","4","6","5","6","6","7","7","6","7","7","5","6","4","6","5","5","5","6","4","4","1","5","4","4","4","5","4","4","7","5","5","5","4","5","5","5","6","4","4","3","6","7","5","5","6","6","3","5","6","5","5","772063807198728193","封","320","Female","[""坏我"",""好她"",""好我"",""坏她""]","[""弱我"",""强她"",""强我"",""弱她""]","","","","","","","","","","","","","","","","","","","","","","","","","","","","","","feedback_test","","","","","","","","",""
"929","","f","psychophysics","32","337457","0.0-8.0-0.0-1.0-0.0-0.11","3","3","4","2","3","4","3","3","4","3","4","1","0","0","1","-1","0","2","0","4","4","5","4","3","1","3","3","4","4","6","5","6","6","7","7","6","7","7","5","6","4","6","5","5","5","6","4","4","1","5","4","4","4","5","4","4","7","5","5","5","4","5","5","5","6","4","4","3","6","7","5","5","6","6","3","5","6","5","5","772063807198728193","封","320","Female","[""坏我"",""好她"",""好我"",""坏她""]","[""弱我"",""强她"",""强我"",""弱她""]","","","","","","","","match","","","","","","","","","","key","f","16.666513043478556","640","356","f","true","match","img/diamond.png","好她","好她","prac_ALT2_moral","practice_moral","","","","","","","","",""
"null","<span style='color:GreenYellow; font-size: 70px;'>正确! </span>","null","html-keyboard-response","33","337959","0.0-8.0-0.0-1.0-0.0-1.11","3","3","4","2","3","4","3","3","4","3","4","1","0","0","1","-1","0","2","0","4","4","5","4","3","1","3","3","4","4","6","5","6","6","7","7","6","7","7","5","6","4","6","5","5","5","6","4","4","1","5","4","4","4","5","4","4","7","5","5","5","4","5","5","5","6","4","4","3","6","7","5","5","6","6","3","5","6","5","5","772063807198728193","封","320","Female","[""坏我"",""好她"",""好我"",""坏她""]","[""弱我"",""强她"",""强我"",""弱她""]","","","","","","","","","","","","","","","","","","","","","","","","","","","","","","feedback_test","","","","","","","","",""
"686","","f","psychophysics","34","339647","0.0-8.0-0.0-1.0-0.0-0.12","3","3","4","2","3","4","3","3","4","3","4","1","0","0","1","-1","0","2","0","4","4","5","4","3","1","3","3","4","4","6","5","6","6","7","7","6","7","7","5","6","4","6","5","5","5","6","4","4","1","5","4","4","4","5","4","4","7","5","5","5","4","5","5","5","6","4","4","3","6","7","5","5","6","6","3","5","6","5","5","772063807198728193","封","320","Female","[""坏我"",""好她"",""好我"",""坏她""]","[""弱我"",""强她"",""强我"",""弱她""]","","","","","","","","match","","","","","","","","","","key","f","16.666330000000308","640","356","j","false","nonmatch","img/pentagon.png","好我","坏她","prac_ALT2_moral","practice_moral","","","","","","","","",""
"null","<span style='color:red; font-size: 70px;'>错误! </span>","null","html-keyboard-response","35","340148","0.0-8.0-0.0-1.0-0.0-1.12","3","3","4","2","3","4","3","3","4","3","4","1","0","0","1","-1","0","2","0","4","4","5","4","3","1","3","3","4","4","6","5","6","6","7","7","6","7","7","5","6","4","6","5","5","5","6","4","4","1","5","4","4","4","5","4","4","7","5","5","5","4","5","5","5","6","4","4","3","6","7","5","5","6","6","3","5","6","5","5","772063807198728193","封","320","Female","[""坏我"",""好她"",""好我"",""坏她""]","[""弱我"",""强她"",""强我"",""弱她""]","","","","","","","","","","","","","","","","","","","","","","","","","","","","","","feedback_test","","","","","","","","",""
"267","","j","psychophysics","36","341416","0.0-8.0-0.0-1.0-0.0-0.13","3","3","4","2","3","4","3","3","4","3","4","1","0","0","1","-1","0","2","0","4","4","5","4","3","1","3","3","4","4","6","5","6","6","7","7","6","7","7","5","6","4","6","5","5","5","6","4","4","1","5","4","4","4","5","4","4","7","5","5","5","4","5","5","5","6","4","4","3","6","7","5","5","6","6","3","5","6","5","5","772063807198728193","封","320","Female","[""坏我"",""好她"",""好我"",""坏她""]","[""弱我"",""强她"",""强我"",""弱她""]","","","","","","","","nonmatch","","","","","","","","","","key","j","16.666559999999592","640","356","f","false","match","img/square.png","好我","好我","prac_ALT2_moral","practice_moral","","","","","","","","",""
"null","<span style='color:red; font-size: 70px;'>错误! </span>","null","html-keyboard-response","37","341917","0.0-8.0-0.0-1.0-0.0-1.13","3","3","4","2","3","4","3","3","4","3","4","1","0","0","1","-1","0","2","0","4","4","5","4","3","1","3","3","4","4","6","5","6","6","7","7","6","7","7","5","6","4","6","5","5","5","6","4","4","1","5","4","4","4","5","4","4","7","5","5","5","4","5","5","5","6","4","4","3","6","7","5","5","6","6","3","5","6","5","5","772063807198728193","封","320","Female","[""坏我"",""好她"",""好我"",""坏她""]","[""弱我"",""强她"",""强我"",""弱她""]","","","","","","","","","","","","","","","","","","","","","","","","","","","","","","feedback_test","","","","","","","","",""
"889","","j","psychophysics","38","343808","0.0-8.0-0.0-1.0-0.0-0.14","3","3","4","2","3","4","3","3","4","3","4","1","0","0","1","-1","0","2","0","4","4","5","4","3","1","3","3","4","4","6","5","6","6","7","7","6","7","7","5","6","4","6","5","5","5","6","4","4","1","5","4","4","4","5","4","4","7","5","5","5","4","5","5","5","6","4","4","3","6","7","5","5","6","6","3","5","6","5","5","772063807198728193","封","320","Female","[""坏我"",""好她"",""好我"",""坏她""]","[""弱我"",""强她"",""强我"",""弱她""]","","","","","","","","nonmatch","","","","","","","","","","key","j","16.66670796460167","640","356","j","true","nonmatch","img/square.png","坏我","好我","prac_ALT2_moral","practice_moral","","","","","","","","",""
"null","<span style='color:GreenYellow; font-size: 70px;'>正确! </span>","null","html-keyboard-response","39","344310","0.0-8.0-0.0-1.0-0.0-1.14","3","3","4","2","3","4","3","3","4","3","4","1","0","0","1","-1","0","2","0","4","4","5","4","3","1","3","3","4","4","6","5","6","6","7","7","6","7","7","5","6","4","6","5","5","5","6","4","4","1","5","4","4","4","5","4","4","7","5","5","5","4","5","5","5","6","4","4","3","6","7","5","5","6","6","3","5","6","5","5","772063807198728193","封","320","Female","[""坏我"",""好她"",""好我"",""坏她""]","[""弱我"",""强她"",""强我"",""弱她""]","","","","","","","","","","","","","","","","","","","","","","","","","","","","","","feedback_test","","","","","","","","",""
"832","","f","psychophysics","40","346144","0.0-8.0-0.0-1.0-0.0-0.15","3","3","4","2","3","4","3","3","4","3","4","1","0","0","1","-1","0","2","0","4","4","5","4","3","1","3","3","4","4","6","5","6","6","7","7","6","7","7","5","6","4","6","5","5","5","6","4","4","1","5","4","4","4","5","4","4","7","5","5","5","4","5","5","5","6","4","4","3","6","7","5","5","6","6","3","5","6","5","5","772063807198728193","封","320","Female","[""坏我"",""好她"",""好我"",""坏她""]","[""弱我"",""强她"",""强我"",""弱她""]","","","","","","","","match","","","","","","","","","","key","f","16.6669633027525","640","356","f","true","match","img/circle.png","坏我","坏我","prac_ALT2_moral","practice_moral","","","","","","","","",""
"null","<span style='color:GreenYellow; font-size: 70px;'>正确! </span>","null","html-keyboard-response","41","346645","0.0-8.0-0.0-1.0-0.0-1.15","3","3","4","2","3","4","3","3","4","3","4","1","0","0","1","-1","0","2","0","4","4","5","4","3","1","3","3","4","4","6","5","6","6","7","7","6","7","7","5","6","4","6","5","5","5","6","4","4","1","5","4","4","4","5","4","4","7","5","5","5","4","5","5","5","6","4","4","3","6","7","5","5","6","6","3","5","6","5","5","772063807198728193","封","320","Female","[""坏我"",""好她"",""好我"",""坏她""]","[""弱我"",""强她"",""强我"",""弱她""]","","","","","","","","","","","","","","","","","","","","","","","","","","","","","","feedback_test","","","","","","","","",""
"760","","f","psychophysics","42","348407","0.0-8.0-0.0-1.0-0.0-0.16","3","3","4","2","3","4","3","3","4","3","4","1","0","0","1","-1","0","2","0","4","4","5","4","3","1","3","3","4","4","6","5","6","6","7","7","6","7","7","5","6","4","6","5","5","5","6","4","4","1","5","4","4","4","5","4","4","7","5","5","5","4","5","5","5","6","4","4","3","6","7","5","5","6","6","3","5","6","5","5","772063807198728193","封","320","Female","[""坏我"",""好她"",""好我"",""坏她""]","[""弱我"",""强她"",""强我"",""弱她""]","","","","","","","","match","","","","","","","","","","key","f","16.667238095238073","640","356","j","false","nonmatch","img/square.png","好她","好我","prac_ALT2_moral","practice_moral","","","","","","","","",""
"null","<span style='color:red; font-size: 70px;'>错误! </span>","null","html-keyboard-response","43","348908","0.0-8.0-0.0-1.0-0.0-1.16","3","3","4","2","3","4","3","3","4","3","4","1","0","0","1","-1","0","2","0","4","4","5","4","3","1","3","3","4","4","6","5","6","6","7","7","6","7","7","5","6","4","6","5","5","5","6","4","4","1","5","4","4","4","5","4","4","7","5","5","5","4","5","5","5","6","4","4","3","6","7","5","5","6","6","3","5","6","5","5","772063807198728193","封","320","Female","[""坏我"",""好她"",""好我"",""坏她""]","[""弱我"",""强她"",""强我"",""弱她""]","","","","","","","","","","","","","","","","","","","","","","","","","","","","","","feedback_test","","","","","","","","",""
"797","","f","psychophysics","44","350707","0.0-8.0-0.0-1.0-0.0-0.17","3","3","4","2","3","4","3","3","4","3","4","1","0","0","1","-1","0","2","0","4","4","5","4","3","1","3","3","4","4","6","5","6","6","7","7","6","7","7","5","6","4","6","5","5","5","6","4","4","1","5","4","4","4","5","4","4","7","5","5","5","4","5","5","5","6","4","4","3","6","7","5","5","6","6","3","5","6","5","5","772063807198728193","封","320","Female","[""坏我"",""好她"",""好我"",""坏她""]","[""弱我"",""强她"",""强我"",""弱她""]","","","","","","","","match","","","","","","","","","","key","f","16.66654205607483","640","356","f","true","match","img/pentagon.png","坏她","坏她","prac_ALT2_moral","practice_moral","","","","","","","","",""
"null","<span style='color:GreenYellow; font-size: 70px;'>正确! </span>","null","html-keyboard-response","45","351208","0.0-8.0-0.0-1.0-0.0-1.17","3","3","4","2","3","4","3","3","4","3","4","1","0","0","1","-1","0","2","0","4","4","5","4","3","1","3","3","4","4","6","5","6","6","7","7","6","7","7","5","6","4","6","5","5","5","6","4","4","1","5","4","4","4","5","4","4","7","5","5","5","4","5","5","5","6","4","4","3","6","7","5","5","6","6","3","5","6","5","5","772063807198728193","封","320","Female","[""坏我"",""好她"",""好我"",""坏她""]","[""弱我"",""强她"",""强我"",""弱她""]","","","","","","","","","","","","","","","","","","","","","","","","","","","","","","feedback_test","","","","","","","","",""
"1019","","j","psychophysics","46","353230","0.0-8.0-0.0-1.0-0.0-0.18","3","3","4","2","3","4","3","3","4","3","4","1","0","0","1","-1","0","2","0","4","4","5","4","3","1","3","3","4","4","6","5","6","6","7","7","6","7","7","5","6","4","6","5","5","5","6","4","4","1","5","4","4","4","5","4","4","7","5","5","5","4","5","5","5","6","4","4","3","6","7","5","5","6","6","3","5","6","5","5","772063807198728193","封","320","Female","[""坏我"",""好她"",""好我"",""坏她""]","[""弱我"",""强她"",""强我"",""弱她""]","","","","","","","","nonmatch","","","","","","","","","","key","j","16.66717499999989","640","356","f","false","match","img/circle.png","坏我","坏我","prac_ALT2_moral","practice_moral","","","","","","","","",""
"null","<span style='color:red; font-size: 70px;'>错误! </span>","null","html-keyboard-response","47","353732","0.0-8.0-0.0-1.0-0.0-1.18","3","3","4","2","3","4","3","3","4","3","4","1","0","0","1","-1","0","2","0","4","4","5","4","3","1","3","3","4","4","6","5","6","6","7","7","6","7","7","5","6","4","6","5","5","5","6","4","4","1","5","4","4","4","5","4","4","7","5","5","5","4","5","5","5","6","4","4","3","6","7","5","5","6","6","3","5","6","5","5","772063807198728193","封","320","Female","[""坏我"",""好她"",""好我"",""坏她""]","[""弱我"",""强她"",""强我"",""弱她""]","","","","","","","","","","","","","","","","","","","","","","","","","","","","","","feedback_test","","","","","","","","",""
"799","","f","psychophysics","48","355533","0.0-8.0-0.0-1.0-0.0-0.19","3","3","4","2","3","4","3","3","4","3","4","1","0","0","1","-1","0","2","0","4","4","5","4","3","1","3","3","4","4","6","5","6","6","7","7","6","7","7","5","6","4","6","5","5","5","6","4","4","1","5","4","4","4","5","4","4","7","5","5","5","4","5","5","5","6","4","4","3","6","7","5","5","6","6","3","5","6","5","5","772063807198728193","封","320","Female","[""坏我"",""好她"",""好我"",""坏她""]","[""弱我"",""强她"",""强我"",""弱她""]","","","","","","","","match","","","","","","","","","","key","f","16.666551401869125","640","356","f","true","match","img/square.png","好我","好我","prac_ALT2_moral","practice_moral","","","","","","","","",""
"null","<span style='color:GreenYellow; font-size: 70px;'>正确! </span>","null","html-keyboard-response","49","356034","0.0-8.0-0.0-1.0-0.0-1.19","3","3","4","2","3","4","3","3","4","3","4","1","0","0","1","-1","0","2","0","4","4","5","4","3","1","3","3","4","4","6","5","6","6","7","7","6","7","7","5","6","4","6","5","5","5","6","4","4","1","5","4","4","4","5","4","4","7","5","5","5","4","5","5","5","6","4","4","3","6","7","5","5","6","6","3","5","6","5","5","772063807198728193","封","320","Female","[""坏我"",""好她"",""好我"",""坏她""]","[""弱我"",""强她"",""强我"",""弱她""]","","","","","","","","","","","","","","","","","","","","","","","","","","","","","","feedback_test","","","","","","","","",""
"300","","f","psychophysics","50","357336","0.0-8.0-0.0-1.0-0.0-0.20","3","3","4","2","3","4","3","3","4","3","4","1","0","0","1","-1","0","2","0","4","4","5","4","3","1","3","3","4","4","6","5","6","6","7","7","6","7","7","5","6","4","6","5","5","5","6","4","4","1","5","4","4","4","5","4","4","7","5","5","5","4","5","5","5","6","4","4","3","6","7","5","5","6","6","3","5","6","5","5","772063807198728193","封","320","Female","[""坏我"",""好她"",""好我"",""坏她""]","[""弱我"",""强她"",""强我"",""弱她""]","","","","","","","","match","","","","","","","","","","key","f","16.66693506493496","640","356","f","true","match","img/pentagon.png","坏她","坏她","prac_ALT2_moral","practice_moral","","","","","","","","",""
"null","<span style='color:GreenYellow; font-size: 70px;'>正确! </span>","null","html-keyboard-response","51","357837","0.0-8.0-0.0-1.0-0.0-1.20","3","3","4","2","3","4","3","3","4","3","4","1","0","0","1","-1","0","2","0","4","4","5","4","3","1","3","3","4","4","6","5","6","6","7","7","6","7","7","5","6","4","6","5","5","5","6","4","4","1","5","4","4","4","5","4","4","7","5","5","5","4","5","5","5","6","4","4","3","6","7","5","5","6","6","3","5","6","5","5","772063807198728193","封","320","Female","[""坏我"",""好她"",""好我"",""坏她""]","[""弱我"",""强她"",""强我"",""弱她""]","","","","","","","","","","","","","","","","","","","","","","","","","","","","","","feedback_test","","","","","","","","",""
"423","","f","psychophysics","52","359262","0.0-8.0-0.0-1.0-0.0-0.21","3","3","4","2","3","4","3","3","4","3","4","1","0","0","1","-1","0","2","0","4","4","5","4","3","1","3","3","4","4","6","5","6","6","7","7","6","7","7","5","6","4","6","5","5","5","6","4","4","1","5","4","4","4","5","4","4","7","5","5","5","4","5","5","5","6","4","4","3","6","7","5","5","6","6","3","5","6","5","5","772063807198728193","封","320","Female","[""坏我"",""好她"",""好我"",""坏她""]","[""弱我"",""强她"",""强我"",""弱她""]","","","","","","","","match","","","","","","","","","","key","f","16.66665476190489","640","356","j","false","nonmatch","img/pentagon.png","好她","坏她","prac_ALT2_moral","practice_moral","","","","","","","","",""
"null","<span style='color:red; font-size: 70px;'>错误! </span>","null","html-keyboard-response","53","359763","0.0-8.0-0.0-1.0-0.0-1.21","3","3","4","2","3","4","3","3","4","3","4","1","0","0","1","-1","0","2","0","4","4","5","4","3","1","3","3","4","4","6","5","6","6","7","7","6","7","7","5","6","4","6","5","5","5","6","4","4","1","5","4","4","4","5","4","4","7","5","5","5","4","5","5","5","6","4","4","3","6","7","5","5","6","6","3","5","6","5","5","772063807198728193","封","320","Female","[""坏我"",""好她"",""好我"",""坏她""]","[""弱我"",""强她"",""强我"",""弱她""]","","","","","","","","","","","","","","","","","","","","","","","","","","","","","","feedback_test","","","","","","","","",""
"760","","f","psychophysics","54","361524","0.0-8.0-0.0-1.0-0.0-0.22","3","3","4","2","3","4","3","3","4","3","4","1","0","0","1","-1","0","2","0","4","4","5","4","3","1","3","3","4","4","6","5","6","6","7","7","6","7","7","5","6","4","6","5","5","5","6","4","4","1","5","4","4","4","5","4","4","7","5","5","5","4","5","5","5","6","4","4","3","6","7","5","5","6","6","3","5","6","5","5","772063807198728193","封","320","Female","[""坏我"",""好她"",""好我"",""坏她""]","[""弱我"",""强她"",""强我"",""弱她""]","","","","","","","","match","","","","","","","","","","key","f","16.66707619047624","640","356","j","false","nonmatch","img/diamond.png","坏她","好她","prac_ALT2_moral","practice_moral","","","","","","","","",""
"null","<span style='color:red; font-size: 70px;'>错误! </span>","null","html-keyboard-response","55","362026","0.0-8.0-0.0-1.0-0.0-1.22","3","3","4","2","3","4","3","3","4","3","4","1","0","0","1","-1","0","2","0","4","4","5","4","3","1","3","3","4","4","6","5","6","6","7","7","6","7","7","5","6","4","6","5","5","5","6","4","4","1","5","4","4","4","5","4","4","7","5","5","5","4","5","5","5","6","4","4","3","6","7","5","5","6","6","3","5","6","5","5","772063807198728193","封","320","Female","[""坏我"",""好她"",""好我"",""坏她""]","[""弱我"",""强她"",""强我"",""弱她""]","","","","","","","","","","","","","","","","","","","","","","","","","","","","","","feedback_test","","","","","","","","",""
"802","","f","psychophysics","56","363830","0.0-8.0-0.0-1.0-0.0-0.23","3","3","4","2","3","4","3","3","4","3","4","1","0","0","1","-1","0","2","0","4","4","5","4","3","1","3","3","4","4","6","5","6","6","7","7","6","7","7","5","6","4","6","5","5","5","6","4","4","1","5","4","4","4","5","4","4","7","5","5","5","4","5","5","5","6","4","4","3","6","7","5","5","6","6","3","5","6","5","5","772063807198728193","封","320","Female","[""坏我"",""好她"",""好我"",""坏她""]","[""弱我"",""强她"",""强我"",""弱她""]","","","","","","","","match","","","","","","","","","","key","f","16.667046728972064","640","356","j","false","nonmatch","img/circle.png","好她","坏我","prac_ALT2_moral","practice_moral","","","","","","","","",""
"null","<span style='color:red; font-size: 70px;'>错误! </span>","null","html-keyboard-response","57","364331","0.0-8.0-0.0-1.0-0.0-1.23","3","3","4","2","3","4","3","3","4","3","4","1","0","0","1","-1","0","2","0","4","4","5","4","3","1","3","3","4","4","6","5","6","6","7","7","6","7","7","5","6","4","6","5","5","5","6","4","4","1","5","4","4","4","5","4","4","7","5","5","5","4","5","5","5","6","4","4","3","6","7","5","5","6","6","3","5","6","5","5","772063807198728193","封","320","Female","[""坏我"",""好她"",""好我"",""坏她""]","[""弱我"",""强她"",""强我"",""弱她""]","","","","","","","","","","","","","","","","","","","","","","","","","","","","","","feedback_test","","","","","","","","",""
"446","","j","psychophysics","58","365780","0.0-8.0-0.0-1.0-0.0-0.24","3","3","4","2","3","4","3","3","4","3","4","1","0","0","1","-1","0","2","0","4","4","5","4","3","1","3","3","4","4","6","5","6","6","7","7","6","7","7","5","6","4","6","5","5","5","6","4","4","1","5","4","4","4","5","4","4","7","5","5","5","4","5","5","5","6","4","4","3","6","7","5","5","6","6","3","5","6","5","5","772063807198728193","封","320","Female","[""坏我"",""好她"",""好我"",""坏她""]","[""弱我"",""强她"",""强我"",""弱她""]","","","","","","","","nonmatch","","","","","","","","","","key","j","16.66716279069755","640","356","j","true","nonmatch","img/circle.png","好她","坏我","prac_ALT2_moral","practice_moral","","","","","","","","",""
"null","<span style='color:GreenYellow; font-size: 70px;'>正确! </span>","null","html-keyboard-response","59","366281","0.0-8.0-0.0-1.0-0.0-1.24","3","3","4","2","3","4","3","3","4","3","4","1","0","0","1","-1","0","2","0","4","4","5","4","3","1","3","3","4","4","6","5","6","6","7","7","6","7","7","5","6","4","6","5","5","5","6","4","4","1","5","4","4","4","5","4","4","7","5","5","5","4","5","5","5","6","4","4","3","6","7","5","5","6","6","3","5","6","5","5","772063807198728193","封","320","Female","[""坏我"",""好她"",""好我"",""坏她""]","[""弱我"",""强她"",""强我"",""弱她""]","","","","","","","","","","","","","","","","","","","","","","","","","","","","","","feedback_test","","","","","","","","",""
"1017","","j","psychophysics","60","368300","0.0-8.0-0.0-1.0-0.0-0.25","3","3","4","2","3","4","3","3","4","3","4","1","0","0","1","-1","0","2","0","4","4","5","4","3","1","3","3","4","4","6","5","6","6","7","7","6","7","7","5","6","4","6","5","5","5","6","4","4","1","5","4","4","4","5","4","4","7","5","5","5","4","5","5","5","6","4","4","3","6","7","5","5","6","6","3","5","6","5","5","772063807198728193","封","320","Female","[""坏我"",""好她"",""好我"",""坏她""]","[""弱我"",""强她"",""强我"",""弱她""]","","","","","","","","nonmatch","","","","","","","","","","key","j","16.66668333333364","640","356","j","true","nonmatch","img/pentagon.png","好她","坏她","prac_ALT2_moral","practice_moral","","","","","","","","",""
"null","<span style='color:GreenYellow; font-size: 70px;'>正确! </span>","null","html-keyboard-response","61","368801","0.0-8.0-0.0-1.0-0.0-1.25","3","3","4","2","3","4","3","3","4","3","4","1","0","0","1","-1","0","2","0","4","4","5","4","3","1","3","3","4","4","6","5","6","6","7","7","6","7","7","5","6","4","6","5","5","5","6","4","4","1","5","4","4","4","5","4","4","7","5","5","5","4","5","5","5","6","4","4","3","6","7","5","5","6","6","3","5","6","5","5","772063807198728193","封","320","Female","[""坏我"",""好她"",""好我"",""坏她""]","[""弱我"",""强她"",""强我"",""弱她""]","","","","","","","","","","","","","","","","","","","","","","","","","","","","","","feedback_test","","","","","","","","",""
"477","","f","psychophysics","62","370280","0.0-8.0-0.0-1.0-0.0-0.26","3","3","4","2","3","4","3","3","4","3","4","1","0","0","1","-1","0","2","0","4","4","5","4","3","1","3","3","4","4","6","5","6","6","7","7","6","7","7","5","6","4","6","5","5","5","6","4","4","1","5","4","4","4","5","4","4","7","5","5","5","4","5","5","5","6","4","4","3","6","7","5","5","6","6","3","5","6","5","5","772063807198728193","封","320","Female","[""坏我"",""好她"",""好我"",""坏她""]","[""弱我"",""强她"",""强我"",""弱她""]","","","","","","","","match","","","","","","","","","","key","f","16.666511363636264","640","356","j","false","nonmatch","img/square.png","好她","好我","prac_ALT2_moral","practice_moral","","","","","","","","",""
"null","<span style='color:red; font-size: 70px;'>错误! </span>","null","html-keyboard-response","63","370781","0.0-8.0-0.0-1.0-0.0-1.26","3","3","4","2","3","4","3","3","4","3","4","1","0","0","1","-1","0","2","0","4","4","5","4","3","1","3","3","4","4","6","5","6","6","7","7","6","7","7","5","6","4","6","5","5","5","6","4","4","1","5","4","4","4","5","4","4","7","5","5","5","4","5","5","5","6","4","4","3","6","7","5","5","6","6","3","5","6","5","5","772063807198728193","封","320","Female","[""坏我"",""好她"",""好我"",""坏她""]","[""弱我"",""强她"",""强我"",""弱她""]","","","","","","","","","","","","","","","","","","","","","","","","","","","","","","feedback_test","","","","","","","","",""
"302","","j","psychophysics","64","372085","0.0-8.0-0.0-1.0-0.0-0.27","3","3","4","2","3","4","3","3","4","3","4","1","0","0","1","-1","0","2","0","4","4","5","4","3","1","3","3","4","4","6","5","6","6","7","7","6","7","7","5","6","4","6","5","5","5","6","4","4","1","5","4","4","4","5","4","4","7","5","5","5","4","5","5","5","6","4","4","3","6","7","5","5","6","6","3","5","6","5","5","772063807198728193","封","320","Female","[""坏我"",""好她"",""好我"",""坏她""]","[""弱我"",""强她"",""强我"",""弱她""]","","","","","","","","nonmatch","","","","","","","","","","key","j","16.667311688312086","640","356","j","true","nonmatch","img/diamond.png","坏我","好她","prac_ALT2_moral","practice_moral","","","","","","","","",""
"null","<span style='color:GreenYellow; font-size: 70px;'>正确! </span>","null","html-keyboard-response","65","372587","0.0-8.0-0.0-1.0-0.0-1.27","3","3","4","2","3","4","3","3","4","3","4","1","0","0","1","-1","0","2","0","4","4","5","4","3","1","3","3","4","4","6","5","6","6","7","7","6","7","7","5","6","4","6","5","5","5","6","4","4","1","5","4","4","4","5","4","4","7","5","5","5","4","5","5","5","6","4","4","3","6","7","5","5","6","6","3","5","6","5","5","772063807198728193","封","320","Female","[""坏我"",""好她"",""好我"",""坏她""]","[""弱我"",""强她"",""强我"",""弱她""]","","","","","","","","","","","","","","","","","","","","","","","","","","","","","","feedback_test","","","","","","","","",""
"493","","j","psychophysics","66","374082","0.0-8.0-0.0-1.0-0.0-0.28","3","3","4","2","3","4","3","3","4","3","4","1","0","0","1","-1","0","2","0","4","4","5","4","3","1","3","3","4","4","6","5","6","6","7","7","6","7","7","5","6","4","6","5","5","5","6","4","4","1","5","4","4","4","5","4","4","7","5","5","5","4","5","5","5","6","4","4","3","6","7","5","5","6","6","3","5","6","5","5","772063807198728193","封","320","Female","[""坏我"",""好她"",""好我"",""坏她""]","[""弱我"",""强她"",""强我"",""弱她""]","","","","","","","","nonmatch","","","","","","","","","","key","j","16.666977272727475","640","356","j","true","nonmatch","img/circle.png","坏她","坏我","prac_ALT2_moral","practice_moral","","","","","","","","",""
"null","<span style='color:GreenYellow; font-size: 70px;'>正确! </span>","null","html-keyboard-response","67","374583","0.0-8.0-0.0-1.0-0.0-1.28","3","3","4","2","3","4","3","3","4","3","4","1","0","0","1","-1","0","2","0","4","4","5","4","3","1","3","3","4","4","6","5","6","6","7","7","6","7","7","5","6","4","6","5","5","5","6","4","4","1","5","4","4","4","5","4","4","7","5","5","5","4","5","5","5","6","4","4","3","6","7","5","5","6","6","3","5","6","5","5","772063807198728193","封","320","Female","[""坏我"",""好她"",""好我"",""坏她""]","[""弱我"",""强她"",""强我"",""弱她""]","","","","","","","","","","","","","","","","","","","","","","","","","","","","","","feedback_test","","","","","","","","",""
"688","","f","psychophysics","68","376274","0.0-8.0-0.0-1.0-0.0-0.29","3","3","4","2","3","4","3","3","4","3","4","1","0","0","1","-1","0","2","0","4","4","5","4","3","1","3","3","4","4","6","5","6","6","7","7","6","7","7","5","6","4","6","5","5","5","6","4","4","1","5","4","4","4","5","4","4","7","5","5","5","4","5","5","5","6","4","4","3","6","7","5","5","6","6","3","5","6","5","5","772063807198728193","封","320","Female","[""坏我"",""好她"",""好我"",""坏她""]","[""弱我"",""强她"",""强我"",""弱她""]","","","","","","","","match","","","","","","","","","","key","f","16.66664356435649","640","356","f","true","match","img/square.png","好我","好我","prac_ALT2_moral","practice_moral","","","","","","","","",""
"null","<span style='color:GreenYellow; font-size: 70px;'>正确! </span>","null","html-keyboard-response","69","376776","0.0-8.0-0.0-1.0-0.0-1.29","3","3","4","2","3","4","3","3","4","3","4","1","0","0","1","-1","0","2","0","4","4","5","4","3","1","3","3","4","4","6","5","6","6","7","7","6","7","7","5","6","4","6","5","5","5","6","4","4","1","5","4","4","4","5","4","4","7","5","5","5","4","5","5","5","6","4","4","3","6","7","5","5","6","6","3","5","6","5","5","772063807198728193","封","320","Female","[""坏我"",""好她"",""好我"",""坏她""]","[""弱我"",""强她"",""强我"",""弱她""]","","","","","","","","","","","","","","","","","","","","","","","","","","","","","","feedback_test","","","","","","","","",""
"622","","f","psychophysics","70","378400","0.0-8.0-0.0-1.0-0.0-0.30","3","3","4","2","3","4","3","3","4","3","4","1","0","0","1","-1","0","2","0","4","4","5","4","3","1","3","3","4","4","6","5","6","6","7","7","6","7","7","5","6","4","6","5","5","5","6","4","4","1","5","4","4","4","5","4","4","7","5","5","5","4","5","5","5","6","4","4","3","6","7","5","5","6","6","3","5","6","5","5","772063807198728193","封","320","Female","[""坏我"",""好她"",""好我"",""坏她""]","[""弱我"",""强她"",""强我"",""弱她""]","","","","","","","","match","","","","","","","","","","key","f","16.66618750000028","640","356","f","true","match","img/square.png","好我","好我","prac_ALT2_moral","practice_moral","","","","","","","","",""
"null","<span style='color:GreenYellow; font-size: 70px;'>正确! </span>","null","html-keyboard-response","71","378901","0.0-8.0-0.0-1.0-0.0-1.30","3","3","4","2","3","4","3","3","4","3","4","1","0","0","1","-1","0","2","0","4","4","5","4","3","1","3","3","4","4","6","5","6","6","7","7","6","7","7","5","6","4","6","5","5","5","6","4","4","1","5","4","4","4","5","4","4","7","5","5","5","4","5","5","5","6","4","4","3","6","7","5","5","6","6","3","5","6","5","5","772063807198728193","封","320","Female","[""坏我"",""好她"",""好我"",""坏她""]","[""弱我"",""强她"",""强我"",""弱她""]","","","","","","","","","","","","","","","","","","","","","","","","","","","","","","feedback_test","","","","","","","","",""
"813","","j","psychophysics","72","380715","0.0-8.0-0.0-1.0-0.0-0.31","3","3","4","2","3","4","3","3","4","3","4","1","0","0","1","-1","0","2","0","4","4","5","4","3","1","3","3","4","4","6","5","6","6","7","7","6","7","7","5","6","4","6","5","5","5","6","4","4","1","5","4","4","4","5","4","4","7","5","5","5","4","5","5","5","6","4","4","3","6","7","5","5","6","6","3","5","6","5","5","772063807198728193","封","320","Female","[""坏我"",""好她"",""好我"",""坏她""]","[""弱我"",""强她"",""强我"",""弱她""]","","","","","","","","nonmatch","","","","","","","","","","key","j","16.666740740741027","640","356","j","true","nonmatch","img/pentagon.png","好我","坏她","prac_ALT2_moral","practice_moral","","","","","","","","",""
"null","<span style='color:GreenYellow; font-size: 70px;'>正确! </span>","null","html-keyboard-response","73","381228","0.0-8.0-0.0-1.0-0.0-1.31","3","3","4","2","3","4","3","3","4","3","4","1","0","0","1","-1","0","2","0","4","4","5","4","3","1","3","3","4","4","6","5","6","6","7","7","6","7","7","5","6","4","6","5","5","5","6","4","4","1","5","4","4","4","5","4","4","7","5","5","5","4","5","5","5","6","4","4","3","6","7","5","5","6","6","3","5","6","5","5","772063807198728193","封","320","Female","[""坏我"",""好她"",""好我"",""坏她""]","[""弱我"",""强她"",""强我"",""弱她""]","","","","","","","","","","","","","","","","","","","","","","","","","","","","","","feedback_test","","","","","","","","",""
"833","","f","psychophysics","74","383063","0.0-8.0-0.0-1.0-0.0-0.32","3","3","4","2","3","4","3","3","4","3","4","1","0","0","1","-1","0","2","0","4","4","5","4","3","1","3","3","4","4","6","5","6","6","7","7","6","7","7","5","6","4","6","5","5","5","6","4","4","1","5","4","4","4","5","4","4","7","5","5","5","4","5","5","5","6","4","4","3","6","7","5","5","6","6","3","5","6","5","5","772063807198728193","封","320","Female","[""坏我"",""好她"",""好我"",""坏她""]","[""弱我"",""强她"",""强我"",""弱她""]","","","","","","","","match","","","","","","","","","","key","f","16.66685321100949","640","356","j","false","nonmatch","img/square.png","坏她","好我","prac_ALT2_moral","practice_moral","","","","","","","","",""
"null","<span style='color:red; font-size: 70px;'>错误! </span>","null","html-keyboard-response","75","383564","0.0-8.0-0.0-1.0-0.0-1.32","3","3","4","2","3","4","3","3","4","3","4","1","0","0","1","-1","0","2","0","4","4","5","4","3","1","3","3","4","4","6","5","6","6","7","7","6","7","7","5","6","4","6","5","5","5","6","4","4","1","5","4","4","4","5","4","4","7","5","5","5","4","5","5","5","6","4","4","3","6","7","5","5","6","6","3","5","6","5","5","772063807198728193","封","320","Female","[""坏我"",""好她"",""好我"",""坏她""]","[""弱我"",""强她"",""强我"",""弱她""]","","","","","","","","","","","","","","","","","","","","","","","","","","","","","","feedback_test","","","","","","","","",""
"576","","j","psychophysics","76","385142","0.0-8.0-0.0-1.0-0.0-0.33","3","3","4","2","3","4","3","3","4","3","4","1","0","0","1","-1","0","2","0","4","4","5","4","3","1","3","3","4","4","6","5","6","6","7","7","6","7","7","5","6","4","6","5","5","5","6","4","4","1","5","4","4","4","5","4","4","7","5","5","5","4","5","5","5","6","4","4","3","6","7","5","5","6","6","3","5","6","5","5","772063807198728193","封","320","Female","[""坏我"",""好她"",""好我"",""坏她""]","[""弱我"",""强她"",""强我"",""弱她""]","","","","","","","","nonmatch","","","","","","","","","","key","j","16.666914893617047","640","356","f","false","match","img/pentagon.png","坏她","坏她","prac_ALT2_moral","practice_moral","","","","","","","","",""
"null","<span style='color:red; font-size: 70px;'>错误! </span>","null","html-keyboard-response","77","385643","0.0-8.0-0.0-1.0-0.0-1.33","3","3","4","2","3","4","3","3","4","3","4","1","0","0","1","-1","0","2","0","4","4","5","4","3","1","3","3","4","4","6","5","6","6","7","7","6","7","7","5","6","4","6","5","5","5","6","4","4","1","5","4","4","4","5","4","4","7","5","5","5","4","5","5","5","6","4","4","3","6","7","5","5","6","6","3","5","6","5","5","772063807198728193","封","320","Female","[""坏我"",""好她"",""好我"",""坏她""]","[""弱我"",""强她"",""强我"",""弱她""]","","","","","","","","","","","","","","","","","","","","","","","","","","","","","","feedback_test","","","","","","","","",""
"458","","f","psychophysics","78","387103","0.0-8.0-0.0-1.0-0.0-0.34","3","3","4","2","3","4","3","3","4","3","4","1","0","0","1","-1","0","2","0","4","4","5","4","3","1","3","3","4","4","6","5","6","6","7","7","6","7","7","5","6","4","6","5","5","5","6","4","4","1","5","4","4","4","5","4","4","7","5","5","5","4","5","5","5","6","4","4","3","6","7","5","5","6","6","3","5","6","5","5","772063807198728193","封","320","Female","[""坏我"",""好她"",""好我"",""坏她""]","[""弱我"",""强她"",""强我"",""弱她""]","","","","","","","","match","","","","","","","","","","key","f","16.666930232558475","640","356","f","true","match","img/square.png","好我","好我","prac_ALT2_moral","practice_moral","","","","","","","","",""
"null","<span style='color:GreenYellow; font-size: 70px;'>正确! </span>","null","html-keyboard-response","79","387605","0.0-8.0-0.0-1.0-0.0-1.34","3","3","4","2","3","4","3","3","4","3","4","1","0","0","1","-1","0","2","0","4","4","5","4","3","1","3","3","4","4","6","5","6","6","7","7","6","7","7","5","6","4","6","5","5","5","6","4","4","1","5","4","4","4","5","4","4","7","5","5","5","4","5","5","5","6","4","4","3","6","7","5","5","6","6","3","5","6","5","5","772063807198728193","封","320","Female","[""坏我"",""好她"",""好我"",""坏她""]","[""弱我"",""强她"",""强我"",""弱她""]","","","","","","","","","","","","","","","","","","","","","","","","","","","","","","feedback_test","","","","","","","","",""
"685","","f","psychophysics","80","389291","0.0-8.0-0.0-1.0-0.0-0.35","3","3","4","2","3","4","3","3","4","3","4","1","0","0","1","-1","0","2","0","4","4","5","4","3","1","3","3","4","4","6","5","6","6","7","7","6","7","7","5","6","4","6","5","5","5","6","4","4","1","5","4","4","4","5","4","4","7","5","5","5","4","5","5","5","6","4","4","3","6","7","5","5","6","6","3","5","6","5","5","772063807198728193","封","320","Female","[""坏我"",""好她"",""好我"",""坏她""]","[""弱我"",""强她"",""强我"",""弱她""]","","","","","","","","match","","","","","","","","","","key","f","16.666630000000005","640","356","f","true","match","img/circle.png","坏我","坏我","prac_ALT2_moral","practice_moral","","","","","","","","",""
"null","<span style='color:GreenYellow; font-size: 70px;'>正确! </span>","null","html-keyboard-response","81","389792","0.0-8.0-0.0-1.0-0.0-1.35","3","3","4","2","3","4","3","3","4","3","4","1","0","0","1","-1","0","2","0","4","4","5","4","3","1","3","3","4","4","6","5","6","6","7","7","6","7","7","5","6","4","6","5","5","5","6","4","4","1","5","4","4","4","5","4","4","7","5","5","5","4","5","5","5","6","4","4","3","6","7","5","5","6","6","3","5","6","5","5","772063807198728193","封","320","Female","[""坏我"",""好她"",""好我"",""坏她""]","[""弱我"",""强她"",""强我"",""弱她""]","","","","","","","","","","","","","","","","","","","","","","","","","","","","","","feedback_test","","","","","","","","",""
"540","","f","psychophysics","82","391334","0.0-8.0-0.0-1.0-0.0-0.36","3","3","4","2","3","4","3","3","4","3","4","1","0","0","1","-1","0","2","0","4","4","5","4","3","1","3","3","4","4","6","5","6","6","7","7","6","7","7","5","6","4","6","5","5","5","6","4","4","1","5","4","4","4","5","4","4","7","5","5","5","4","5","5","5","6","4","4","3","6","7","5","5","6","6","3","5","6","5","5","772063807198728193","封","320","Female","[""坏我"",""好她"",""好我"",""坏她""]","[""弱我"",""强她"",""强我"",""弱她""]","","","","","","","","match","","","","","","","","","","key","f","16.66749450549417","640","356","j","false","nonmatch","img/square.png","坏我","好我","prac_ALT2_moral","practice_moral","","","","","","","","",""
"null","<span style='color:red; font-size: 70px;'>错误! </span>","null","html-keyboard-response","83","391834","0.0-8.0-0.0-1.0-0.0-1.36","3","3","4","2","3","4","3","3","4","3","4","1","0","0","1","-1","0","2","0","4","4","5","4","3","1","3","3","4","4","6","5","6","6","7","7","6","7","7","5","6","4","6","5","5","5","6","4","4","1","5","4","4","4","5","4","4","7","5","5","5","4","5","5","5","6","4","4","3","6","7","5","5","6","6","3","5","6","5","5","772063807198728193","封","320","Female","[""坏我"",""好她"",""好我"",""坏她""]","[""弱我"",""强她"",""强我"",""弱她""]","","","","","","","","","","","","","","","","","","","","","","","","","","","","","","feedback_test","","","","","","","","",""
"527","","j","psychophysics","84","393364","0.0-8.0-0.0-1.0-0.0-0.37","3","3","4","2","3","4","3","3","4","3","4","1","0","0","1","-1","0","2","0","4","4","5","4","3","1","3","3","4","4","6","5","6","6","7","7","6","7","7","5","6","4","6","5","5","5","6","4","4","1","5","4","4","4","5","4","4","7","5","5","5","4","5","5","5","6","4","4","3","6","7","5","5","6","6","3","5","6","5","5","772063807198728193","封","320","Female","[""坏我"",""好她"",""好我"",""坏她""]","[""弱我"",""强她"",""强我"",""弱她""]","","","","","","","","nonmatch","","","","","","","","","","key","j","16.667329670329817","640","356","j","true","nonmatch","img/pentagon.png","坏我","坏她","prac_ALT2_moral","practice_moral","","","","","","","","",""
"null","<span style='color:GreenYellow; font-size: 70px;'>正确! </span>","null","html-keyboard-response","85","393865","0.0-8.0-0.0-1.0-0.0-1.37","3","3","4","2","3","4","3","3","4","3","4","1","0","0","1","-1","0","2","0","4","4","5","4","3","1","3","3","4","4","6","5","6","6","7","7","6","7","7","5","6","4","6","5","5","5","6","4","4","1","5","4","4","4","5","4","4","7","5","5","5","4","5","5","5","6","4","4","3","6","7","5","5","6","6","3","5","6","5","5","772063807198728193","封","320","Female","[""坏我"",""好她"",""好我"",""坏她""]","[""弱我"",""强她"",""强我"",""弱她""]","","","","","","","","","","","","","","","","","","","","","","","","","","","","","","feedback_test","","","","","","","","",""
"434","","j","psychophysics","86","395301","0.0-8.0-0.0-1.0-0.0-0.38","3","3","4","2","3","4","3","3","4","3","4","1","0","0","1","-1","0","2","0","4","4","5","4","3","1","3","3","4","4","6","5","6","6","7","7","6","7","7","5","6","4","6","5","5","5","6","4","4","1","5","4","4","4","5","4","4","7","5","5","5","4","5","5","5","6","4","4","3","6","7","5","5","6","6","3","5","6","5","5","772063807198728193","封","320","Female","[""坏我"",""好她"",""好我"",""坏她""]","[""弱我"",""强她"",""强我"",""弱她""]","","","","","","","","nonmatch","","","","","","","","","","key","j","16.667788235293976","640","356","f","false","match","img/circle.png","坏我","坏我","prac_ALT2_moral","practice_moral","","","","","","","","",""
"null","<span style='color:red; font-size: 70px;'>错误! </span>","null","html-keyboard-response","87","395803","0.0-8.0-0.0-1.0-0.0-1.38","3","3","4","2","3","4","3","3","4","3","4","1","0","0","1","-1","0","2","0","4","4","5","4","3","1","3","3","4","4","6","5","6","6","7","7","6","7","7","5","6","4","6","5","5","5","6","4","4","1","5","4","4","4","5","4","4","7","5","5","5","4","5","5","5","6","4","4","3","6","7","5","5","6","6","3","5","6","5","5","772063807198728193","封","320","Female","[""坏我"",""好她"",""好我"",""坏她""]","[""弱我"",""强她"",""强我"",""弱她""]","","","","","","","","","","","","","","","","","","","","","","","","","","","","","","feedback_test","","","","","","","","",""
"681","","f","psychophysics","88","397485","0.0-8.0-0.0-1.0-0.0-0.39","3","3","4","2","3","4","3","3","4","3","4","1","0","0","1","-1","0","2","0","4","4","5","4","3","1","3","3","4","4","6","5","6","6","7","7","6","7","7","5","6","4","6","5","5","5","6","4","4","1","5","4","4","4","5","4","4","7","5","5","5","4","5","5","5","6","4","4","3","6","7","5","5","6","6","3","5","6","5","5","772063807198728193","封","320","Female","[""坏我"",""好她"",""好我"",""坏她""]","[""弱我"",""强她"",""强我"",""弱她""]","","","","","","","","match","","","","","","","","","","key","f","16.667727272727085","640","356","f","true","match","img/diamond.png","好她","好她","prac_ALT2_moral","practice_moral","","","","","","","","",""
"null","<span style='color:GreenYellow; font-size: 70px;'>正确! </span>","null","html-keyboard-response","89","397987","0.0-8.0-0.0-1.0-0.0-1.39","3","3","4","2","3","4","3","3","4","3","4","1","0","0","1","-1","0","2","0","4","4","5","4","3","1","3","3","4","4","6","5","6","6","7","7","6","7","7","5","6","4","6","5","5","5","6","4","4","1","5","4","4","4","5","4","4","7","5","5","5","4","5","5","5","6","4","4","3","6","7","5","5","6","6","3","5","6","5","5","772063807198728193","封","320","Female","[""坏我"",""好她"",""好我"",""坏她""]","[""弱我"",""强她"",""强我"",""弱她""]","","","","","","","","","","","","","","","","","","","","","","","","","","","","","","feedback_test","","","","","","","","",""
"1036","","f","psychophysics","90","400024","0.0-8.0-0.0-1.0-0.0-0.40","3","3","4","2","3","4","3","3","4","3","4","1","0","0","1","-1","0","2","0","4","4","5","4","3","1","3","3","4","4","6","5","6","6","7","7","6","7","7","5","6","4","6","5","5","5","6","4","4","1","5","4","4","4","5","4","4","7","5","5","5","4","5","5","5","6","4","4","3","6","7","5","5","6","6","3","5","6","5","5","772063807198728193","封","320","Female","[""坏我"",""好她"",""好我"",""坏她""]","[""弱我"",""强她"",""强我"",""弱她""]","","","","","","","","match","","","","","","","","","","key","f","16.66665289256181","640","356","f","true","match","img/pentagon.png","坏她","坏她","prac_ALT2_moral","practice_moral","","","","","","","","",""
"null","<span style='color:GreenYellow; font-size: 70px;'>正确! </span>","null","html-keyboard-response","91","400526","0.0-8.0-0.0-1.0-0.0-1.40","3","3","4","2","3","4","3","3","4","3","4","1","0","0","1","-1","0","2","0","4","4","5","4","3","1","3","3","4","4","6","5","6","6","7","7","6","7","7","5","6","4","6","5","5","5","6","4","4","1","5","4","4","4","5","4","4","7","5","5","5","4","5","5","5","6","4","4","3","6","7","5","5","6","6","3","5","6","5","5","772063807198728193","封","320","Female","[""坏我"",""好她"",""好我"",""坏她""]","[""弱我"",""强她"",""强我"",""弱她""]","","","","","","","","","","","","","","","","","","","","","","","","","","","","","","feedback_test","","","","","","","","",""
"655","","f","psychophysics","92","402182","0.0-8.0-0.0-1.0-0.0-0.41","3","3","4","2","3","4","3","3","4","3","4","1","0","0","1","-1","0","2","0","4","4","5","4","3","1","3","3","4","4","6","5","6","6","7","7","6","7","7","5","6","4","6","5","5","5","6","4","4","1","5","4","4","4","5","4","4","7","5","5","5","4","5","5","5","6","4","4","3","6","7","5","5","6","6","3","5","6","5","5","772063807198728193","封","320","Female","[""坏我"",""好她"",""好我"",""坏她""]","[""弱我"",""强她"",""强我"",""弱她""]","","","","","","","","match","","","","","","","","","","key","f","16.66680612244907","640","356","f","true","match","img/diamond.png","好她","好她","prac_ALT2_moral","practice_moral","","","","","","","","",""
"null","<span style='color:GreenYellow; font-size: 70px;'>正确! </span>","null","html-keyboard-response","93","402683","0.0-8.0-0.0-1.0-0.0-1.41","3","3","4","2","3","4","3","3","4","3","4","1","0","0","1","-1","0","2","0","4","4","5","4","3","1","3","3","4","4","6","5","6","6","7","7","6","7","7","5","6","4","6","5","5","5","6","4","4","1","5","4","4","4","5","4","4","7","5","5","5","4","5","5","5","6","4","4","3","6","7","5","5","6","6","3","5","6","5","5","772063807198728193","封","320","Female","[""坏我"",""好她"",""好我"",""坏她""]","[""弱我"",""强她"",""强我"",""弱她""]","","","","","","","","","","","","","","","","","","","","","","","","","","","","","","feedback_test","","","","","","","","",""
"1057","","f","psychophysics","94","404742","0.0-8.0-0.0-1.0-0.0-0.42","3","3","4","2","3","4","3","3","4","3","4","1","0","0","1","-1","0","2","0","4","4","5","4","3","1","3","3","4","4","6","5","6","6","7","7","6","7","7","5","6","4","6","5","5","5","6","4","4","1","5","4","4","4","5","4","4","7","5","5","5","4","5","5","5","6","4","4","3","6","7","5","5","6","6","3","5","6","5","5","772063807198728193","封","320","Female","[""坏我"",""好她"",""好我"",""坏她""]","[""弱我"",""强她"",""强我"",""弱她""]","","","","","","","","match","","","","","","","","","","key","f","16.66657723577237","640","356","f","true","match","img/diamond.png","好她","好她","prac_ALT2_moral","practice_moral","","","","","","","","",""
"null","<span style='color:GreenYellow; font-size: 70px;'>正确! </span>","null","html-keyboard-response","95","405249","0.0-8.0-0.0-1.0-0.0-1.42","3","3","4","2","3","4","3","3","4","3","4","1","0","0","1","-1","0","2","0","4","4","5","4","3","1","3","3","4","4","6","5","6","6","7","7","6","7","7","5","6","4","6","5","5","5","6","4","4","1","5","4","4","4","5","4","4","7","5","5","5","4","5","5","5","6","4","4","3","6","7","5","5","6","6","3","5","6","5","5","772063807198728193","封","320","Female","[""坏我"",""好她"",""好我"",""坏她""]","[""弱我"",""强她"",""强我"",""弱她""]","","","","","","","","","","","","","","","","","","","","","","","","","","","","","","feedback_test","","","","","","","","",""
"855","","j","psychophysics","96","407106","0.0-8.0-0.0-1.0-0.0-0.43","3","3","4","2","3","4","3","3","4","3","4","1","0","0","1","-1","0","2","0","4","4","5","4","3","1","3","3","4","4","6","5","6","6","7","7","6","7","7","5","6","4","6","5","5","5","6","4","4","1","5","4","4","4","5","4","4","7","5","5","5","4","5","5","5","6","4","4","3","6","7","5","5","6","6","3","5","6","5","5","772063807198728193","封","320","Female","[""坏我"",""好她"",""好我"",""坏她""]","[""弱我"",""强她"",""强我"",""弱她""]","","","","","","","","nonmatch","","","","","","","","","","key","j","16.66652252252249","640","356","j","true","nonmatch","img/diamond.png","坏她","好她","prac_ALT2_moral","practice_moral","","","","","","","","",""
"null","<span style='color:GreenYellow; font-size: 70px;'>正确! </span>","null","html-keyboard-response","97","407609","0.0-8.0-0.0-1.0-0.0-1.43","3","3","4","2","3","4","3","3","4","3","4","1","0","0","1","-1","0","2","0","4","4","5","4","3","1","3","3","4","4","6","5","6","6","7","7","6","7","7","5","6","4","6","5","5","5","6","4","4","1","5","4","4","4","5","4","4","7","5","5","5","4","5","5","5","6","4","4","3","6","7","5","5","6","6","3","5","6","5","5","772063807198728193","封","320","Female","[""坏我"",""好她"",""好我"",""坏她""]","[""弱我"",""强她"",""强我"",""弱她""]","","","","","","","","","","","","","","","","","","","","","","","","","","","","","","feedback_test","","","","","","","","",""
"830","","j","psychophysics","98","409440","0.0-8.0-0.0-1.0-0.0-0.44","3","3","4","2","3","4","3","3","4","3","4","1","0","0","1","-1","0","2","0","4","4","5","4","3","1","3","3","4","4","6","5","6","6","7","7","6","7","7","5","6","4","6","5","5","5","6","4","4","1","5","4","4","4","5","4","4","7","5","5","5","4","5","5","5","6","4","4","3","6","7","5","5","6","6","3","5","6","5","5","772063807198728193","封","320","Female","[""坏我"",""好她"",""好我"",""坏她""]","[""弱我"",""强她"",""强我"",""弱她""]","","","","","","","","nonmatch","","","","","","","","","","key","j","16.666981651376155","640","356","f","false","match","img/circle.png","坏我","坏我","prac_ALT2_moral","practice_moral","","","","","","","","",""
"null","<span style='color:red; font-size: 70px;'>错误! </span>","null","html-keyboard-response","99","409941","0.0-8.0-0.0-1.0-0.0-1.44","3","3","4","2","3","4","3","3","4","3","4","1","0","0","1","-1","0","2","0","4","4","5","4","3","1","3","3","4","4","6","5","6","6","7","7","6","7","7","5","6","4","6","5","5","5","6","4","4","1","5","4","4","4","5","4","4","7","5","5","5","4","5","5","5","6","4","4","3","6","7","5","5","6","6","3","5","6","5","5","772063807198728193","封","320","Female","[""坏我"",""好她"",""好我"",""坏她""]","[""弱我"",""强她"",""强我"",""弱她""]","","","","","","","","","","","","","","","","","","","","","","","","","","","","","","feedback_test","","","","","","","","",""
"567","","f","psychophysics","100","411510","0.0-8.0-0.0-1.0-0.0-0.45","3","3","4","2","3","4","3","3","4","3","4","1","0","0","1","-1","0","2","0","4","4","5","4","3","1","3","3","4","4","6","5","6","6","7","7","6","7","7","5","6","4","6","5","5","5","6","4","4","1","5","4","4","4","5","4","4","7","5","5","5","4","5","5","5","6","4","4","3","6","7","5","5","6","6","3","5","6","5","5","772063807198728193","封","320","Female","[""坏我"",""好她"",""好我"",""坏她""]","[""弱我"",""强她"",""强我"",""弱她""]","","","","","","","","match","","","","","","","","","","key","f","16.66649462365588","640","356","j","false","nonmatch","img/diamond.png","好我","好她","prac_ALT2_moral","practice_moral","","","","","","","","",""
"null","<span style='color:red; font-size: 70px;'>错误! </span>","null","html-keyboard-response","101","412014","0.0-8.0-0.0-1.0-0.0-1.45","3","3","4","2","3","4","3","3","4","3","4","1","0","0","1","-1","0","2","0","4","4","5","4","3","1","3","3","4","4","6","5","6","6","7","7","6","7","7","5","6","4","6","5","5","5","6","4","4","1","5","4","4","4","5","4","4","7","5","5","5","4","5","5","5","6","4","4","3","6","7","5","5","6","6","3","5","6","5","5","772063807198728193","封","320","Female","[""坏我"",""好她"",""好我"",""坏她""]","[""弱我"",""强她"",""强我"",""弱她""]","","","","","","","","","","","","","","","","","","","","","","","","","","","","","","feedback_test","","","","","","","","",""
"520","","f","psychophysics","102","413536","0.0-8.0-0.0-1.0-0.0-0.46","3","3","4","2","3","4","3","3","4","3","4","1","0","0","1","-1","0","2","0","4","4","5","4","3","1","3","3","4","4","6","5","6","6","7","7","6","7","7","5","6","4","6","5","5","5","6","4","4","1","5","4","4","4","5","4","4","7","5","5","5","4","5","5","5","6","4","4","3","6","7","5","5","6","6","3","5","6","5","5","772063807198728193","封","320","Female","[""坏我"",""好她"",""好我"",""坏她""]","[""弱我"",""强她"",""强我"",""弱她""]","","","","","","","","match","","","","","","","","","","key","f","16.667033333333286","640","356","j","false","nonmatch","img/circle.png","好我","坏我","prac_ALT2_moral","practice_moral","","","","","","","","",""
"null","<span style='color:red; font-size: 70px;'>错误! </span>","null","html-keyboard-response","103","414038","0.0-8.0-0.0-1.0-0.0-1.46","3","3","4","2","3","4","3","3","4","3","4","1","0","0","1","-1","0","2","0","4","4","5","4","3","1","3","3","4","4","6","5","6","6","7","7","6","7","7","5","6","4","6","5","5","5","6","4","4","1","5","4","4","4","5","4","4","7","5","5","5","4","5","5","5","6","4","4","3","6","7","5","5","6","6","3","5","6","5","5","772063807198728193","封","320","Female","[""坏我"",""好她"",""好我"",""坏她""]","[""弱我"",""强她"",""强我"",""弱她""]","","","","","","","","","","","","","","","","","","","","","","","","","","","","","","feedback_test","","","","","","","","",""
"333","","j","psychophysics","104","415372","0.0-8.0-0.0-1.0-0.0-0.47","3","3","4","2","3","4","3","3","4","3","4","1","0","0","1","-1","0","2","0","4","4","5","4","3","1","3","3","4","4","6","5","6","6","7","7","6","7","7","5","6","4","6","5","5","5","6","4","4","1","5","4","4","4","5","4","4","7","5","5","5","4","5","5","5","6","4","4","3","6","7","5","5","6","6","3","5","6","5","5","772063807198728193","封","320","Female","[""坏我"",""好她"",""好我"",""坏她""]","[""弱我"",""强她"",""强我"",""弱她""]","","","","","","","","nonmatch","","","","","","","","","","key","j","16.664341772151992","640","356","f","false","match","img/pentagon.png","坏她","坏她","prac_ALT2_moral","practice_moral","","","","","","","","",""
"null","<span style='color:red; font-size: 70px;'>错误! </span>","null","html-keyboard-response","105","415872","0.0-8.0-0.0-1.0-0.0-1.47","3","3","4","2","3","4","3","3","4","3","4","1","0","0","1","-1","0","2","0","4","4","5","4","3","1","3","3","4","4","6","5","6","6","7","7","6","7","7","5","6","4","6","5","5","5","6","4","4","1","5","4","4","4","5","4","4","7","5","5","5","4","5","5","5","6","4","4","3","6","7","5","5","6","6","3","5","6","5","5","772063807198728193","封","320","Female","[""坏我"",""好她"",""好我"",""坏她""]","[""弱我"",""强她"",""强我"",""弱她""]","","","","","","","","","","","","","","","","","","","","","","","","","","","","","","feedback_test","","","","","","","","",""
"44482","<style>.context{color:white; font-size: 35px; line-height:40px}</style>                            <div><p class='context'>您正确回答了54% 的试次。</p><p class='context'>您的平均反应时为659毫秒。</p><p class='context'>按空格键继续。</p></div>"," ","html-keyboard-response","106","460357","0.0-8.0-0.0-1.0-1.0-0.0","3","3","4","2","3","4","3","3","4","3","4","1","0","0","1","-1","0","2","0","4","4","5","4","3","1","3","3","4","4","6","5","6","6","7","7","6","7","7","5","6","4","6","5","5","5","6","4","4","1","5","4","4","4","5","4","4","7","5","5","5","4","5","5","5","6","4","4","3","6","7","5","5","6","6","3","5","6","5","5","772063807198728193","封","320","Female","[""坏我"",""好她"",""好我"",""坏她""]","[""弱我"",""强她"",""强我"",""弱她""]","","","","","","","","","","","","","","","","","","","","","","","","","","","","","","","","","","","","","","",""
"9511","","","instructions","107","469870","0.0-8.0-0.0-1.0-1.0-1.0","3","3","4","2","3","4","3","3","4","3","4","1","0","0","1","-1","0","2","0","4","4","5","4","3","1","3","3","4","4","6","5","6","6","7","7","6","7","7","5","6","4","6","5","5","5","6","4","4","1","5","4","4","4","5","4","4","7","5","5","5","4","5","5","5","6","4","4","3","6","7","5","5","6","6","3","5","6","5","5","772063807198728193","封","320","Female","[""坏我"",""好她"",""好我"",""坏她""]","[""弱我"",""强她"",""强我"",""弱她""]","","","","","","","","","","","","","","","","","[{""page_index"":0,""viewing_time"":2149},{""page_index"":1,""viewing_time"":2458},{""page_index"":2,""viewing_time"":4904}]","","","","","","","","","","","","","","","","","","","","","",""
"null","","null","psychophysics","108","472074","0.0-8.0-0.0-1.1-0.1-0.48","3","3","4","2","3","4","3","3","4","3","4","1","0","0","1","-1","0","2","0","4","4","5","4","3","1","3","3","4","4","6","5","6","6","7","7","6","7","7","5","6","4","6","5","5","5","6","4","4","1","5","4","4","4","5","4","4","7","5","5","5","4","5","5","5","6","4","4","3","6","7","5","5","6","6","3","5","6","5","5","772063807198728193","封","320","Female","[""坏我"",""好她"",""好我"",""坏她""]","[""弱我"",""强她"",""强我"",""弱她""]","","","","","","","","null","","","","","","","","","","key","null","16.727503816794002","640","356","j","false","nonmatch","img/circle.png","好她","坏我","prac_ALT2_moral","practice_moral","","","","","","","","",""
"null","<span class='add_' style='color:yellow; font-size: 70px;'> 太慢! </span>","null","html-keyboard-response","109","472576","0.0-8.0-0.0-1.1-0.1-1.48","3","3","4","2","3","4","3","3","4","3","4","1","0","0","1","-1","0","2","0","4","4","5","4","3","1","3","3","4","4","6","5","6","6","7","7","6","7","7","5","6","4","6","5","5","5","6","4","4","1","5","4","4","4","5","4","4","7","5","5","5","4","5","5","5","6","4","4","3","6","7","5","5","6","6","3","5","6","5","5","772063807198728193","封","320","Female","[""坏我"",""好她"",""好我"",""坏她""]","[""弱我"",""强她"",""强我"",""弱她""]","","","","","","","","","","","","","","","","","","","","","","","","","","","","","","feedback_test","","","","","","","","",""
"908","","f","psychophysics","110","474485","0.0-8.0-0.0-1.1-0.1-0.49","3","3","4","2","3","4","3","3","4","3","4","1","0","0","1","-1","0","2","0","4","4","5","4","3","1","3","3","4","4","6","5","6","6","7","7","6","7","7","5","6","4","6","5","5","5","6","4","4","1","5","4","4","4","5","4","4","7","5","5","5","4","5","5","5","6","4","4","3","6","7","5","5","6","6","3","5","6","5","5","772063807198728193","封","320","Female","[""坏我"",""好她"",""好我"",""坏她""]","[""弱我"",""强她"",""强我"",""弱她""]","","","","","","","","match","","","","","","","","","","key","f","16.66701769911472","640","356","f","true","match","img/circle.png","坏我","坏我","prac_ALT2_moral","practice_moral","","","","","","","","",""
"null","<span style='color:GreenYellow; font-size: 70px;'>正确! </span>","null","html-keyboard-response","111","474986","0.0-8.0-0.0-1.1-0.1-1.49","3","3","4","2","3","4","3","3","4","3","4","1","0","0","1","-1","0","2","0","4","4","5","4","3","1","3","3","4","4","6","5","6","6","7","7","6","7","7","5","6","4","6","5","5","5","6","4","4","1","5","4","4","4","5","4","4","7","5","5","5","4","5","5","5","6","4","4","3","6","7","5","5","6","6","3","5","6","5","5","772063807198728193","封","320","Female","[""坏我"",""好她"",""好我"",""坏她""]","[""弱我"",""强她"",""强我"",""弱她""]","","","","","","","","","","","","","","","","","","","","","","","","","","","","","","feedback_test","","","","","","","","",""
"901","","f","psychophysics","112","476889","0.0-8.0-0.0-1.1-0.1-0.50","3","3","4","2","3","4","3","3","4","3","4","1","0","0","1","-1","0","2","0","4","4","5","4","3","1","3","3","4","4","6","5","6","6","7","7","6","7","7","5","6","4","6","5","5","5","6","4","4","1","5","4","4","4","5","4","4","7","5","5","5","4","5","5","5","6","4","4","3","6","7","5","5","6","6","3","5","6","5","5","772063807198728193","封","320","Female","[""坏我"",""好她"",""好我"",""坏她""]","[""弱我"",""强她"",""强我"",""弱她""]","","","","","","","","match","","","","","","","","","","key","f","16.666433628318334","640","356","f","true","match","img/square.png","好我","好我","prac_ALT2_moral","practice_moral","","","","","","","","",""
"null","<span style='color:GreenYellow; font-size: 70px;'>正确! </span>","null","html-keyboard-response","113","477390","0.0-8.0-0.0-1.1-0.1-1.50","3","3","4","2","3","4","3","3","4","3","4","1","0","0","1","-1","0","2","0","4","4","5","4","3","1","3","3","4","4","6","5","6","6","7","7","6","7","7","5","6","4","6","5","5","5","6","4","4","1","5","4","4","4","5","4","4","7","5","5","5","4","5","5","5","6","4","4","3","6","7","5","5","6","6","3","5","6","5","5","772063807198728193","封","320","Female","[""坏我"",""好她"",""好我"",""坏她""]","[""弱我"",""强她"",""强我"",""弱她""]","","","","","","","","","","","","","","","","","","","","","","","","","","","","","","feedback_test","","","","","","","","",""
"581","","f","psychophysics","114","478973","0.0-8.0-0.0-1.1-0.1-0.51","3","3","4","2","3","4","3","3","4","3","4","1","0","0","1","-1","0","2","0","4","4","5","4","3","1","3","3","4","4","6","5","6","6","7","7","6","7","7","5","6","4","6","5","5","5","6","4","4","1","5","4","4","4","5","4","4","7","5","5","5","4","5","5","5","6","4","4","3","6","7","5","5","6","6","3","5","6","5","5","772063807198728193","封","320","Female","[""坏我"",""好她"",""好我"",""坏她""]","[""弱我"",""强她"",""强我"",""弱她""]","","","","","","","","match","","","","","","","","","","key","f","16.667085106383038","640","356","j","false","nonmatch","img/circle.png","好我","坏我","prac_ALT2_moral","practice_moral","","","","","","","","",""
"null","<span style='color:red; font-size: 70px;'>错误! </span>","null","html-keyboard-response","115","479475","0.0-8.0-0.0-1.1-0.1-1.51","3","3","4","2","3","4","3","3","4","3","4","1","0","0","1","-1","0","2","0","4","4","5","4","3","1","3","3","4","4","6","5","6","6","7","7","6","7","7","5","6","4","6","5","5","5","6","4","4","1","5","4","4","4","5","4","4","7","5","5","5","4","5","5","5","6","4","4","3","6","7","5","5","6","6","3","5","6","5","5","772063807198728193","封","320","Female","[""坏我"",""好她"",""好我"",""坏她""]","[""弱我"",""强她"",""强我"",""弱她""]","","","","","","","","","","","","","","","","","","","","","","","","","","","","","","feedback_test","","","","","","","","",""
"842","","j","psychophysics","116","481318","0.0-8.0-0.0-1.1-0.1-0.52","3","3","4","2","3","4","3","3","4","3","4","1","0","0","1","-1","0","2","0","4","4","5","4","3","1","3","3","4","4","6","5","6","6","7","7","6","7","7","5","6","4","6","5","5","5","6","4","4","1","5","4","4","4","5","4","4","7","5","5","5","4","5","5","5","6","4","4","3","6","7","5","5","6","6","3","5","6","5","5","772063807198728193","封","320","Female","[""坏我"",""好她"",""好我"",""坏她""]","[""弱我"",""强她"",""强我"",""弱她""]","","","","","","","","nonmatch","","","","","","","","","","key","j","16.66673394495412","640","356","j","true","nonmatch","img/pentagon.png","好她","坏她","prac_ALT2_moral","practice_moral","","","","","","","","",""
"null","<span style='color:GreenYellow; font-size: 70px;'>正确! </span>","null","html-keyboard-response","117","481820","0.0-8.0-0.0-1.1-0.1-1.52","3","3","4","2","3","4","3","3","4","3","4","1","0","0","1","-1","0","2","0","4","4","5","4","3","1","3","3","4","4","6","5","6","6","7","7","6","7","7","5","6","4","6","5","5","5","6","4","4","1","5","4","4","4","5","4","4","7","5","5","5","4","5","5","5","6","4","4","3","6","7","5","5","6","6","3","5","6","5","5","772063807198728193","封","320","Female","[""坏我"",""好她"",""好我"",""坏她""]","[""弱我"",""强她"",""强我"",""弱她""]","","","","","","","","","","","","","","","","","","","","","","","","","","","","","","feedback_test","","","","","","","","",""
"922","","j","psychophysics","118","483744","0.0-8.0-0.0-1.1-0.1-0.53","3","3","4","2","3","4","3","3","4","3","4","1","0","0","1","-1","0","2","0","4","4","5","4","3","1","3","3","4","4","6","5","6","6","7","7","6","7","7","5","6","4","6","5","5","5","6","4","4","1","5","4","4","4","5","4","4","7","5","5","5","4","5","5","5","6","4","4","3","6","7","5","5","6","6","3","5","6","5","5","772063807198728193","封","320","Female","[""坏我"",""好她"",""好我"",""坏她""]","[""弱我"",""强她"",""强我"",""弱她""]","","","","","","","","nonmatch","","","","","","","","","","key","j","16.66684210526332","640","356","f","false","match","img/diamond.png","好她","好她","prac_ALT2_moral","practice_moral","","","","","","","","",""
"null","<span style='color:red; font-size: 70px;'>错误! </span>","null","html-keyboard-response","119","484246","0.0-8.0-0.0-1.1-0.1-1.53","3","3","4","2","3","4","3","3","4","3","4","1","0","0","1","-1","0","2","0","4","4","5","4","3","1","3","3","4","4","6","5","6","6","7","7","6","7","7","5","6","4","6","5","5","5","6","4","4","1","5","4","4","4","5","4","4","7","5","5","5","4","5","5","5","6","4","4","3","6","7","5","5","6","6","3","5","6","5","5","772063807198728193","封","320","Female","[""坏我"",""好她"",""好我"",""坏她""]","[""弱我"",""强她"",""强我"",""弱她""]","","","","","","","","","","","","","","","","","","","","","","","","","","","","","","feedback_test","","","","","","","","",""
"681","","f","psychophysics","120","485928","0.0-8.0-0.0-1.1-0.1-0.54","3","3","4","2","3","4","3","3","4","3","4","1","0","0","1","-1","0","2","0","4","4","5","4","3","1","3","3","4","4","6","5","6","6","7","7","6","7","7","5","6","4","6","5","5","5","6","4","4","1","5","4","4","4","5","4","4","7","5","5","5","4","5","5","5","6","4","4","3","6","7","5","5","6","6","3","5","6","5","5","772063807198728193","封","320","Female","[""坏我"",""好她"",""好我"",""坏她""]","[""弱我"",""强她"",""强我"",""弱她""]","","","","","","","","match","","","","","","","","","","key","f","16.666269999999784","640","356","j","false","nonmatch","img/pentagon.png","坏我","坏她","prac_ALT2_moral","practice_moral","","","","","","","","",""
"null","<span style='color:red; font-size: 70px;'>错误! </span>","null","html-keyboard-response","121","486430","0.0-8.0-0.0-1.1-0.1-1.54","3","3","4","2","3","4","3","3","4","3","4","1","0","0","1","-1","0","2","0","4","4","5","4","3","1","3","3","4","4","6","5","6","6","7","7","6","7","7","5","6","4","6","5","5","5","6","4","4","1","5","4","4","4","5","4","4","7","5","5","5","4","5","5","5","6","4","4","3","6","7","5","5","6","6","3","5","6","5","5","772063807198728193","封","320","Female","[""坏我"",""好她"",""好我"",""坏她""]","[""弱我"",""强她"",""强我"",""弱她""]","","","","","","","","","","","","","","","","","","","","","","","","","","","","","","feedback_test","","","","","","","","",""
"null","","null","psychophysics","122","488633","0.0-8.0-0.0-1.1-0.1-0.55","3","3","4","2","3","4","3","3","4","3","4","1","0","0","1","-1","0","2","0","4","4","5","4","3","1","3","3","4","4","6","5","6","6","7","7","6","7","7","5","6","4","6","5","5","5","6","4","4","1","5","4","4","4","5","4","4","7","5","5","5","4","5","5","5","6","4","4","3","6","7","5","5","6","6","3","5","6","5","5","772063807198728193","封","320","Female","[""坏我"",""好她"",""好我"",""坏她""]","[""弱我"",""强她"",""强我"",""弱她""]","","","","","","","","null","","","","","","","","","","key","null","16.66645801526704","640","356","j","false","nonmatch","img/diamond.png","坏我","好她","prac_ALT2_moral","practice_moral","","","","","","","","",""
"null","<span class='add_' style='color:yellow; font-size: 70px;'> 太慢! </span>","null","html-keyboard-response","123","489134","0.0-8.0-0.0-1.1-0.1-1.55","3","3","4","2","3","4","3","3","4","3","4","1","0","0","1","-1","0","2","0","4","4","5","4","3","1","3","3","4","4","6","5","6","6","7","7","6","7","7","5","6","4","6","5","5","5","6","4","4","1","5","4","4","4","5","4","4","7","5","5","5","4","5","5","5","6","4","4","3","6","7","5","5","6","6","3","5","6","5","5","772063807198728193","封","320","Female","[""坏我"",""好她"",""好我"",""坏她""]","[""弱我"",""强她"",""强我"",""弱她""]","","","","","","","","","","","","","","","","","","","","","","","","","","","","","","feedback_test","","","","","","","","",""
"876","","j","psychophysics","124","491012","0.0-8.0-0.0-1.1-0.1-0.56","3","3","4","2","3","4","3","3","4","3","4","1","0","0","1","-1","0","2","0","4","4","5","4","3","1","3","3","4","4","6","5","6","6","7","7","6","7","7","5","6","4","6","5","5","5","6","4","4","1","5","4","4","4","5","4","4","7","5","5","5","4","5","5","5","6","4","4","3","6","7","5","5","6","6","3","5","6","5","5","772063807198728193","封","320","Female","[""坏我"",""好她"",""好我"",""坏她""]","[""弱我"",""强她"",""强我"",""弱她""]","","","","","","","","nonmatch","","","","","","","","","","key","j","16.66531531531563","640","356","f","false","match","img/diamond.png","好她","好她","prac_ALT2_moral","practice_moral","","","","","","","","",""
"null","<span style='color:red; font-size: 70px;'>错误! </span>","null","html-keyboard-response","125","491513","0.0-8.0-0.0-1.1-0.1-1.56","3","3","4","2","3","4","3","3","4","3","4","1","0","0","1","-1","0","2","0","4","4","5","4","3","1","3","3","4","4","6","5","6","6","7","7","6","7","7","5","6","4","6","5","5","5","6","4","4","1","5","4","4","4","5","4","4","7","5","5","5","4","5","5","5","6","4","4","3","6","7","5","5","6","6","3","5","6","5","5","772063807198728193","封","320","Female","[""坏我"",""好她"",""好我"",""坏她""]","[""弱我"",""强她"",""强我"",""弱她""]","","","","","","","","","","","","","","","","","","","","","","","","","","","","","","feedback_test","","","","","","","","",""
"689","","f","psychophysics","126","493204","0.0-8.0-0.0-1.1-0.1-0.57","3","3","4","2","3","4","3","3","4","3","4","1","0","0","1","-1","0","2","0","4","4","5","4","3","1","3","3","4","4","6","5","6","6","7","7","6","7","7","5","6","4","6","5","5","5","6","4","4","1","5","4","4","4","5","4","4","7","5","5","5","4","5","5","5","6","4","4","3","6","7","5","5","6","6","3","5","6","5","5","772063807198728193","封","320","Female","[""坏我"",""好她"",""好我"",""坏她""]","[""弱我"",""强她"",""强我"",""弱她""]","","","","","","","","match","","","","","","","","","","key","f","16.667524752475664","640","356","j","false","nonmatch","img/diamond.png","好我","好她","prac_ALT2_moral","practice_moral","","","","","","","","",""
"null","<span style='color:red; font-size: 70px;'>错误! </span>","null","html-keyboard-response","127","493705","0.0-8.0-0.0-1.1-0.1-1.57","3","3","4","2","3","4","3","3","4","3","4","1","0","0","1","-1","0","2","0","4","4","5","4","3","1","3","3","4","4","6","5","6","6","7","7","6","7","7","5","6","4","6","5","5","5","6","4","4","1","5","4","4","4","5","4","4","7","5","5","5","4","5","5","5","6","4","4","3","6","7","5","5","6","6","3","5","6","5","5","772063807198728193","封","320","Female","[""坏我"",""好她"",""好我"",""坏她""]","[""弱我"",""强她"",""强我"",""弱她""]","","","","","","","","","","","","","","","","","","","","","","","","","","","","","","feedback_test","","","","","","","","",""
"1177","","j","psychophysics","128","495884","0.0-8.0-0.0-1.1-0.1-0.58","3","3","4","2","3","4","3","3","4","3","4","1","0","0","1","-1","0","2","0","4","4","5","4","3","1","3","3","4","4","6","5","6","6","7","7","6","7","7","5","6","4","6","5","5","5","6","4","4","1","5","4","4","4","5","4","4","7","5","5","5","4","5","5","5","6","4","4","3","6","7","5","5","6","6","3","5","6","5","5","772063807198728193","封","320","Female","[""坏我"",""好她"",""好我"",""坏她""]","[""弱我"",""强她"",""强我"",""弱她""]","","","","","","","","nonmatch","","","","","","","","","","key","j","16.667124031007816","640","356","f","false","match","img/pentagon.png","坏她","坏她","prac_ALT2_moral","practice_moral","","","","","","","","",""
"null","<span style='color:red; font-size: 70px;'>错误! </span>","null","html-keyboard-response","129","496386","0.0-8.0-0.0-1.1-0.1-1.58","3","3","4","2","3","4","3","3","4","3","4","1","0","0","1","-1","0","2","0","4","4","5","4","3","1","3","3","4","4","6","5","6","6","7","7","6","7","7","5","6","4","6","5","5","5","6","4","4","1","5","4","4","4","5","4","4","7","5","5","5","4","5","5","5","6","4","4","3","6","7","5","5","6","6","3","5","6","5","5","772063807198728193","封","320","Female","[""坏我"",""好她"",""好我"",""坏她""]","[""弱我"",""强她"",""强我"",""弱她""]","","","","","","","","","","","","","","","","","","","","","","","","","","","","","","feedback_test","","","","","","","","",""
"1188","","j","psychophysics","130","498576","0.0-8.0-0.0-1.1-0.1-0.59","3","3","4","2","3","4","3","3","4","3","4","1","0","0","1","-1","0","2","0","4","4","5","4","3","1","3","3","4","4","6","5","6","6","7","7","6","7","7","5","6","4","6","5","5","5","6","4","4","1","5","4","4","4","5","4","4","7","5","5","5","4","5","5","5","6","4","4","3","6","7","5","5","6","6","3","5","6","5","5","772063807198728193","封","320","Female","[""坏我"",""好她"",""好我"",""坏她""]","[""弱我"",""强她"",""强我"",""弱她""]","","","","","","","","nonmatch","","","","","","","","","","key","j","16.66590769230791","640","356","f","false","match","img/circle.png","坏我","坏我","prac_ALT2_moral","practice_moral","","","","","","","","",""
"null","<span style='color:red; font-size: 70px;'>错误! </span>","null","html-keyboard-response","131","499077","0.0-8.0-0.0-1.1-0.1-1.59","3","3","4","2","3","4","3","3","4","3","4","1","0","0","1","-1","0","2","0","4","4","5","4","3","1","3","3","4","4","6","5","6","6","7","7","6","7","7","5","6","4","6","5","5","5","6","4","4","1","5","4","4","4","5","4","4","7","5","5","5","4","5","5","5","6","4","4","3","6","7","5","5","6","6","3","5","6","5","5","772063807198728193","封","320","Female","[""坏我"",""好她"",""好我"",""坏她""]","[""弱我"",""强她"",""强我"",""弱她""]","","","","","","","","","","","","","","","","","","","","","","","","","","","","","","feedback_test","","","","","","","","",""
"779","","f","psychophysics","132","500858","0.0-8.0-0.0-1.1-0.1-0.60","3","3","4","2","3","4","3","3","4","3","4","1","0","0","1","-1","0","2","0","4","4","5","4","3","1","3","3","4","4","6","5","6","6","7","7","6","7","7","5","6","4","6","5","5","5","6","4","4","1","5","4","4","4","5","4","4","7","5","5","5","4","5","5","5","6","4","4","3","6","7","5","5","6","6","3","5","6","5","5","772063807198728193","封","320","Female","[""坏我"",""好她"",""好我"",""坏她""]","[""弱我"",""强她"",""强我"",""弱她""]","","","","","","","","match","","","","","","","","","","key","f","16.666735849056597","640","356","f","true","match","img/square.png","好我","好我","prac_ALT2_moral","practice_moral","","","","","","","","",""
"null","<span style='color:GreenYellow; font-size: 70px;'>正确! </span>","null","html-keyboard-response","133","501359","0.0-8.0-0.0-1.1-0.1-1.60","3","3","4","2","3","4","3","3","4","3","4","1","0","0","1","-1","0","2","0","4","4","5","4","3","1","3","3","4","4","6","5","6","6","7","7","6","7","7","5","6","4","6","5","5","5","6","4","4","1","5","4","4","4","5","4","4","7","5","5","5","4","5","5","5","6","4","4","3","6","7","5","5","6","6","3","5","6","5","5","772063807198728193","封","320","Female","[""坏我"",""好她"",""好我"",""坏她""]","[""弱我"",""强她"",""强我"",""弱她""]","","","","","","","","","","","","","","","","","","","","","","","","","","","","","","feedback_test","","","","","","","","",""
"963","","j","psychophysics","134","503323","0.0-8.0-0.0-1.1-0.1-0.61","3","3","4","2","3","4","3","3","4","3","4","1","0","0","1","-1","0","2","0","4","4","5","4","3","1","3","3","4","4","6","5","6","6","7","7","6","7","7","5","6","4","6","5","5","5","6","4","4","1","5","4","4","4","5","4","4","7","5","5","5","4","5","5","5","6","4","4","3","6","7","5","5","6","6","3","5","6","5","5","772063807198728193","封","320","Female","[""坏我"",""好她"",""好我"",""坏她""]","[""弱我"",""强她"",""强我"",""弱她""]","","","","","","","","nonmatch","","","","","","","","","","key","j","16.666418803418473","640","356","j","true","nonmatch","img/pentagon.png","好我","坏她","prac_ALT2_moral","practice_moral","","","","","","","","",""
"null","<span style='color:GreenYellow; font-size: 70px;'>正确! </span>","null","html-keyboard-response","135","503825","0.0-8.0-0.0-1.1-0.1-1.61","3","3","4","2","3","4","3","3","4","3","4","1","0","0","1","-1","0","2","0","4","4","5","4","3","1","3","3","4","4","6","5","6","6","7","7","6","7","7","5","6","4","6","5","5","5","6","4","4","1","5","4","4","4","5","4","4","7","5","5","5","4","5","5","5","6","4","4","3","6","7","5","5","6","6","3","5","6","5","5","772063807198728193","封","320","Female","[""坏我"",""好她"",""好我"",""坏她""]","[""弱我"",""强她"",""强我"",""弱她""]","","","","","","","","","","","","","","","","","","","","","","","","","","","","","","feedback_test","","","","","","","","",""
"1178","","f","psychophysics","136","506004","0.0-8.0-0.0-1.1-0.1-0.62","3","3","4","2","3","4","3","3","4","3","4","1","0","0","1","-1","0","2","0","4","4","5","4","3","1","3","3","4","4","6","5","6","6","7","7","6","7","7","5","6","4","6","5","5","5","6","4","4","1","5","4","4","4","5","4","4","7","5","5","5","4","5","5","5","6","4","4","3","6","7","5","5","6","6","3","5","6","5","5","772063807198728193","封","320","Female","[""坏我"",""好她"",""好我"",""坏她""]","[""弱我"",""强她"",""强我"",""弱她""]","","","","","","","","match","","","","","","","","","","key","f","16.66686923076945","640","356","f","true","match","img/diamond.png","好她","好她","prac_ALT2_moral","practice_moral","","","","","","","","",""
"null","<span style='color:GreenYellow; font-size: 70px;'>正确! </span>","null","html-keyboard-response","137","506506","0.0-8.0-0.0-1.1-0.1-1.62","3","3","4","2","3","4","3","3","4","3","4","1","0","0","1","-1","0","2","0","4","4","5","4","3","1","3","3","4","4","6","5","6","6","7","7","6","7","7","5","6","4","6","5","5","5","6","4","4","1","5","4","4","4","5","4","4","7","5","5","5","4","5","5","5","6","4","4","3","6","7","5","5","6","6","3","5","6","5","5","772063807198728193","封","320","Female","[""坏我"",""好她"",""好我"",""坏她""]","[""弱我"",""强她"",""强我"",""弱她""]","","","","","","","","","","","","","","","","","","","","","","","","","","","","","","feedback_test","","","","","","","","",""
"909","","f","psychophysics","138","508416","0.0-8.0-0.0-1.1-0.1-0.63","3","3","4","2","3","4","3","3","4","3","4","1","0","0","1","-1","0","2","0","4","4","5","4","3","1","3","3","4","4","6","5","6","6","7","7","6","7","7","5","6","4","6","5","5","5","6","4","4","1","5","4","4","4","5","4","4","7","5","5","5","4","5","5","5","6","4","4","3","6","7","5","5","6","6","3","5","6","5","5","772063807198728193","封","320","Female","[""坏我"",""好她"",""好我"",""坏她""]","[""弱我"",""强她"",""强我"",""弱她""]","","","","","","","","match","","","","","","","","","","key","f","16.666592920354084","640","356","f","true","match","img/pentagon.png","坏她","坏她","prac_ALT2_moral","practice_moral","","","","","","","","",""
