"rt","stimulus","response","trial_type","trial_index","time_elapsed","internal_node_id","swb_1","swb_2","swb_3","swb_4","swb_5","LOT_1","LOT_2","LOT_3","LOT_4","LOT_5","LOT_6","IPC_1","IPC_2","IPC_3","IPC_4","IPC_5","IPC_6","IPC_7","IPC_8","MorIden_1","MorIden_2","MorIden_3","MorIden_4","MorIden_5","MorIden_6","MorIden_7","MorIden_8","MorIden_9","MorIden_10","moralSeImag_1","moralSeImag_2","moralSeImag_3","moralSeImag_4","moralSeImag_5","moralSeImag_6","moralSeImag_7","moralSeImag_8","moralSeImag_9","sde_1","sde_2","sde_3","sde_4","sde_5","sde_6","sde_7","sde_8","sde_9","sde_10","trap2","sde_11","sde_12","sde_13","sde_14","sde_15","sde_16","sde_17","sde_18","sde_19","sde_20","IM_1","IM_2","IM_3","IM_4","IM_5","IM_6","IM_7","IM_8","IM_9","IM_10","IM_11","IM_12","IM_13","IM_14","IM_15","IM_16","IM_17","IM_18","IM_19","IM_20","subj_idx","friend_name","ParticipantID","Sex","Word","Word2","value","success","timeout","failed_images","failed_audio","failed_video","user_agent","responses","item_order","radio_event_ids","radio_event_times","key_event_times","mouse_event_times","straightlining","zigzagging","honeypot","view_history","response_type","key_press","avg_frame_time","center_x","center_y","correct_response","correct","identity","Image","word","condition","task_id","screen_id","time_stamp","person","valence","domain","math","status","duration","question_order","trap2_item"
"5262","
   <p><div style='color:white; font-size: 25px'>您好，欢迎参加本次实验。</div></p>
   <p><div style='color:white; font-size: 25px'>为充分保障您的权利，请确保您已经知晓并同意《参与实验同意书》以及《数据公开知情同意书》。</div></p>
   <p><div style='color:white; font-size: 25px'>如果您未见过上述内容，请咨询实验员。</div></p>
   <p style='color:white; font-size: 25px'>如果您选择继续实验，则表示您已经清楚两份知情同意书的内容并同意。</p>
   <p><div style = ""color: pink;font-size:30px;"">请确保您记得day0的实验编号，您将在本次实验输入该编号，若您忘记，请咨询实验员后作答。</div></p>
   <p><div style = ""color:lightblue;font-size:25px;"">请您尽可能认真地作答，我们将依据您在各问卷和按键任务中的作答质量发放报酬。</div></p>
   <p> <div style = ""color: green""><按空格键至下页></div> </p>
   "," ","html-keyboard-response","0","5263","0.0-0.0","4","4","4","3","3","4","3","3","4","4","5","0","0","0","1","-1","1","1","1","4","4","5","5","4","4","4","4","5","4","6","7","6","7","6","6","7","8","8","5","4","3","5","5","3","5","5","5","4","7","4","3","5","2","4","4","4","4","2","4","3","5","5","7","4","7","4","5","5","6","5","5","5","7","4","5","4","6","4","6","718763547043037184","li","604","Female","[""好我"",""坏她"",""坏我"",""好她""]","[""强我"",""弱她"",""弱我"",""强她""]","","","","","","","","","","","","","","","","","","","","","","","","","","","","","","","","","","","","","","",""
"","","","call-function","1","5264","0.0-1.0-0.0","4","4","4","3","3","4","3","3","4","4","5","0","0","0","1","-1","1","1","1","4","4","5","5","4","4","4","4","5","4","6","7","6","7","6","6","7","8","8","5","4","3","5","5","3","5","5","5","4","7","4","3","5","2","4","4","4","4","2","4","3","5","5","7","4","7","4","5","5","6","5","5","5","7","4","5","4","6","4","6","718763547043037184","li","604","Female","[""好我"",""坏她"",""坏我"",""好她""]","[""强我"",""弱她"",""弱我"",""强她""]","","","","","","","","","","","","","","","","","","","","","","","","","","","","","","","","","","","","","","",""
"167511","","[{""name"":""Sex"",""value"":""1""},{""name"":""friend_name"",""value"":""li""},{""name"":""ParticipantID"",""value"":""604""}]","survey-html-form","2","172760","0.0-1.0-1.0","4","4","4","3","3","4","3","3","4","4","5","0","0","0","1","-1","1","1","1","4","4","5","5","4","4","4","4","5","4","6","7","6","7","6","6","7","8","8","5","4","3","5","5","3","5","5","5","4","7","4","3","5","2","4","4","4","4","2","4","3","5","5","7","4","7","4","5","5","6","5","5","5","7","4","5","4","6","4","6","718763547043037184","li","604","Female","[""好我"",""坏她"",""坏我"",""好她""]","[""强我"",""弱她"",""弱我"",""强她""]","","","","","","","","","","","","","","","","","","","","","","","","","","","","","","","","","","","","","","",""
"","","","preload","3","174582","0.0-2.0","4","4","4","3","3","4","3","3","4","4","5","0","0","0","1","-1","1","1","1","4","4","5","5","4","4","4","4","5","4","6","7","6","7","6","6","7","8","8","5","4","3","5","5","3","5","5","5","4","7","4","3","5","2","4","4","4","4","2","4","3","5","5","7","4","7","4","5","5","6","5","5","5","7","4","5","4","6","4","6","718763547043037184","li","604","Female","[""好我"",""坏她"",""坏我"",""好她""]","[""强我"",""弱她"",""弱我"",""强她""]","","true","false","[]","[]","[]","","","","","","","","","","","","","","","","","","","","","","","","","","","","","","","","",""
"","","","fullscreen","4","175789","0.0-3.0","4","4","4","3","3","4","3","3","4","4","5","0","0","0","1","-1","1","1","1","4","4","5","5","4","4","4","4","5","4","6","7","6","7","6","6","7","8","8","5","4","3","5","5","3","5","5","5","4","7","4","3","5","2","4","4","4","4","2","4","3","5","5","7","4","7","4","5","5","6","5","5","5","7","4","5","4","6","4","6","718763547043037184","li","604","Female","[""好我"",""坏她"",""坏我"",""好她""]","[""强我"",""弱她"",""弱我"",""强她""]","","true","","","","","{}","","","","","","","","","","","","","","","","","","","","","","","","","","","","","","","",""
"22322.099999999627","","{""Q01"":""4"",""Q02"":""4"",""Q03"":""4"",""Q04"":""3"",""Q05"":""3""}","survey-template","5","198112","0.0-4.0","4","4","4","3","3","4","3","3","4","4","5","0","0","0","1","-1","1","1","1","4","4","5","5","4","4","4","4","5","4","6","7","6","7","6","6","7","8","8","5","4","3","5","5","3","5","5","5","4","7","4","3","5","2","4","4","4","4","2","4","3","5","5","7","4","7","4","5","5","6","5","5","5","7","4","5","4","6","4","6","718763547043037184","li","604","Female","[""好我"",""坏她"",""坏我"",""好她""]","[""强我"",""弱她"",""弱我"",""强她""]","","","","","","","","{""Q01"":""4"",""Q02"":""4"",""Q03"":""4"",""Q04"":""3"",""Q05"":""3""}","[0,1,2,3,4]","[""Q01"",""Q02"",""Q04"",""Q03"",""Q05""]","[3737.5,5921.5,9441.299999998882,14105.400000000373,14953.699999999255]","[]","[3737.5,5921.5,9441.299999998882,14105.400000000373,14953.699999999255,22321.400000000373]","0.6","0.25","0","","","","","","","","","","","","","","","","","","","","","","",""
"21989.10000000149","","{""Q01"":""4"",""Q02"":""3"",""Q03"":""3"",""Q04"":""4"",""Q05"":""4"",""Q06"":""5""}","survey-template","6","220099","0.0-5.0","4","4","4","3","3","4","3","3","4","4","5","0","0","0","1","-1","1","1","1","4","4","5","5","4","4","4","4","5","4","6","7","6","7","6","6","7","8","8","5","4","3","5","5","3","5","5","5","4","7","4","3","5","2","4","4","4","4","2","4","3","5","5","7","4","7","4","5","5","6","5","5","5","7","4","5","4","6","4","6","718763547043037184","li","604","Female","[""好我"",""坏她"",""坏我"",""好她""]","[""强我"",""弱她"",""弱我"",""强她""]","","","","","","","","{""Q01"":""4"",""Q02"":""3"",""Q03"":""3"",""Q04"":""4"",""Q05"":""4"",""Q06"":""5""}","[0,1,2,3,4,5]","[""Q01"",""Q02"",""Q03"",""Q04"",""Q05"",""Q06""]","[3628,10828.10000000149,13476,16788,19124.10000000149,21381.200000001118]","[]","[2316.10000000149,3628,10828.10000000149,13476,16788,19124.10000000149,21381.200000001118,21988.60000000149]","0.3333333333333333","0.4","0","","","","","","","","","","","","","","","","","","","","","","",""
"20324.900000000373","","{""Q01"":""0"",""Q02"":""0"",""Q03"":""0"",""Q04"":""1"",""Q05"":""-1"",""Q06"":""1"",""Q07"":""1"",""Q08"":""1""}","survey-template","7","240427","0.0-6.0","4","4","4","3","3","4","3","3","4","4","5","0","0","0","1","-1","1","1","1","4","4","5","5","4","4","4","4","5","4","6","7","6","7","6","6","7","8","8","5","4","3","5","5","3","5","5","5","4","7","4","3","5","2","4","4","4","4","2","4","3","5","5","7","4","7","4","5","5","6","5","5","5","7","4","5","4","6","4","6","718763547043037184","li","604","Female","[""好我"",""坏她"",""坏我"",""好她""]","[""强我"",""弱她"",""弱我"",""强她""]","","","","","","","","{""Q01"":""0"",""Q02"":""0"",""Q03"":""0"",""Q04"":""1"",""Q05"":""-1"",""Q06"":""1"",""Q07"":""1"",""Q08"":""1""}","[0,1,2,3,4,5,6,7]","[""Q01"",""Q02"",""Q03"",""Q04"",""Q05"",""Q06"",""Q07"",""Q08""]","[4324.300000000745,5364.4000000003725,10732.199999999255,12220.5,14244.5,15669.099999999627,18764.199999999255,19692.300000000745]","[]","[4324.300000000745,5364.4000000003725,10732.199999999255,12220.5,14244.5,15669.099999999627,18764.199999999255,19692.300000000745,20324.300000000745]","0.5","0.14285714285714285","0","","","","","","","","","","","","","","","","","","","","","","",""
"20766","","","instructions","8","261194","0.0-7.0","4","4","4","3","3","4","3","3","4","4","5","0","0","0","1","-1","1","1","1","4","4","5","5","4","4","4","4","5","4","6","7","6","7","6","6","7","8","8","5","4","3","5","5","3","5","5","5","4","7","4","3","5","2","4","4","4","4","2","4","3","5","5","7","4","7","4","5","5","6","5","5","5","7","4","5","4","6","4","6","718763547043037184","li","604","Female","[""好我"",""坏她"",""坏我"",""好她""]","[""强我"",""弱她"",""弱我"",""强她""]","","","","","","","","","","","","","","","","","[{""page_index"":0,""viewing_time"":20765}]","","","","","","","","","","","","","","","","","","","","","",""
"55726","","","instructions","9","316916","0.0-8.0-1.0-0.0","4","4","4","3","3","4","3","3","4","4","5","0","0","0","1","-1","1","1","1","4","4","5","5","4","4","4","4","5","4","6","7","6","7","6","6","7","8","8","5","4","3","5","5","3","5","5","5","4","7","4","3","5","2","4","4","4","4","2","4","3","5","5","7","4","7","4","5","5","6","5","5","5","7","4","5","4","6","4","6","718763547043037184","li","604","Female","[""好我"",""坏她"",""坏我"",""好她""]","[""强我"",""弱她"",""弱我"",""强她""]","","","","","","","","","","","","","","","","","[{""page_index"":0,""viewing_time"":6790},{""page_index"":1,""viewing_time"":40448},{""page_index"":2,""viewing_time"":6984},{""page_index"":3,""viewing_time"":1504}]","","","","","","","","","","","","","","","","","","","","","",""
"null","","null","psychophysics","10","319120","0.0-8.0-1.0-1.0-0.0-0.0","4","4","4","3","3","4","3","3","4","4","5","0","0","0","1","-1","1","1","1","4","4","5","5","4","4","4","4","5","4","6","7","6","7","6","6","7","8","8","5","4","3","5","5","3","5","5","5","4","7","4","3","5","2","4","4","4","4","2","4","3","5","5","7","4","7","4","5","5","6","5","5","5","7","4","5","4","6","4","6","718763547043037184","li","604","Female","[""好我"",""坏她"",""坏我"",""好她""]","[""强我"",""弱她"",""弱我"",""强她""]","","","","","","","","null","","","","","","","","","","key","null","16.68380916030555","960","536","j","false","nonmatch","img/circle.png","弱她","弱我","prac_ALT2_ability","practice_ability","","","","","","","","",""
"null","<span class='add_' style='color:yellow; font-size: 70px;'> 太慢! </span>","null","html-keyboard-response","11","319622","0.0-8.0-1.0-1.0-0.0-1.0","4","4","4","3","3","4","3","3","4","4","5","0","0","0","1","-1","1","1","1","4","4","5","5","4","4","4","4","5","4","6","7","6","7","6","6","7","8","8","5","4","3","5","5","3","5","5","5","4","7","4","3","5","2","4","4","4","4","2","4","3","5","5","7","4","7","4","5","5","6","5","5","5","7","4","5","4","6","4","6","718763547043037184","li","604","Female","[""好我"",""坏她"",""坏我"",""好她""]","[""强我"",""弱她"",""弱我"",""强她""]","","","","","","","","","","","","","","","","","","","","","","","","","","","","","","feedback_test","","","","","","","","",""
"973","","j","psychophysics","12","321596","0.0-8.0-1.0-1.0-0.0-0.1","4","4","4","3","3","4","3","3","4","4","5","0","0","0","1","-1","1","1","1","4","4","5","5","4","4","4","4","5","4","6","7","6","7","6","6","7","8","8","5","4","3","5","5","3","5","5","5","4","7","4","3","5","2","4","4","4","4","2","4","3","5","5","7","4","7","4","5","5","6","5","5","5","7","4","5","4","6","4","6","718763547043037184","li","604","Female","[""好我"",""坏她"",""坏我"",""好她""]","[""强我"",""弱她"",""弱我"",""强她""]","","","","","","","","nonmatch","","","","","","","","","","key","j","16.683415254237627","960","536","j","true","nonmatch","img/triangle.png","弱我","弱她","prac_ALT2_ability","practice_ability","","","","","","","","",""
"null","<span style='color:GreenYellow; font-size: 70px;'>正确! </span>","null","html-keyboard-response","13","322098","0.0-8.0-1.0-1.0-0.0-1.1","4","4","4","3","3","4","3","3","4","4","5","0","0","0","1","-1","1","1","1","4","4","5","5","4","4","4","4","5","4","6","7","6","7","6","6","7","8","8","5","4","3","5","5","3","5","5","5","4","7","4","3","5","2","4","4","4","4","2","4","3","5","5","7","4","7","4","5","5","6","5","5","5","7","4","5","4","6","4","6","718763547043037184","li","604","Female","[""好我"",""坏她"",""坏我"",""好她""]","[""强我"",""弱她"",""弱我"",""强她""]","","","","","","","","","","","","","","","","","","","","","","","","","","","","","","feedback_test","","","","","","","","",""
"1025","","j","psychophysics","14","324124","0.0-8.0-1.0-1.0-0.0-0.2","4","4","4","3","3","4","3","3","4","4","5","0","0","0","1","-1","1","1","1","4","4","5","5","4","4","4","4","5","4","6","7","6","7","6","6","7","8","8","5","4","3","5","5","3","5","5","5","4","7","4","3","5","2","4","4","4","4","2","4","3","5","5","7","4","7","4","5","5","6","5","5","5","7","4","5","4","6","4","6","718763547043037184","li","604","Female","[""好我"",""坏她"",""坏我"",""好她""]","[""强我"",""弱她"",""弱我"",""强她""]","","","","","","","","nonmatch","","","","","","","","","","key","j","16.682825000000108","960","536","f","false","match","img/triangle.png","弱她","弱她","prac_ALT2_ability","practice_ability","","","","","","","","",""
"null","<span style='color:red; font-size: 70px;'>错误! </span>","null","html-keyboard-response","15","324626","0.0-8.0-1.0-1.0-0.0-1.2","4","4","4","3","3","4","3","3","4","4","5","0","0","0","1","-1","1","1","1","4","4","5","5","4","4","4","4","5","4","6","7","6","7","6","6","7","8","8","5","4","3","5","5","3","5","5","5","4","7","4","3","5","2","4","4","4","4","2","4","3","5","5","7","4","7","4","5","5","6","5","5","5","7","4","5","4","6","4","6","718763547043037184","li","604","Female","[""好我"",""坏她"",""坏我"",""好她""]","[""强我"",""弱她"",""弱我"",""强她""]","","","","","","","","","","","","","","","","","","","","","","","","","","","","","","feedback_test","","","","","","","","",""
"665","","f","psychophysics","16","326292","0.0-8.0-1.0-1.0-0.0-0.3","4","4","4","3","3","4","3","3","4","4","5","0","0","0","1","-1","1","1","1","4","4","5","5","4","4","4","4","5","4","6","7","6","7","6","6","7","8","8","5","4","3","5","5","3","5","5","5","4","7","4","3","5","2","4","4","4","4","2","4","3","5","5","7","4","7","4","5","5","6","5","5","5","7","4","5","4","6","4","6","718763547043037184","li","604","Female","[""好我"",""坏她"",""坏我"",""好她""]","[""强我"",""弱她"",""弱我"",""强她""]","","","","","","","","match","","","","","","","","","","key","f","16.682929292929153","960","536","f","true","match","img/triangle.png","弱她","弱她","prac_ALT2_ability","practice_ability","","","","","","","","",""
"null","<span style='color:GreenYellow; font-size: 70px;'>正确! </span>","null","html-keyboard-response","17","326793","0.0-8.0-1.0-1.0-0.0-1.3","4","4","4","3","3","4","3","3","4","4","5","0","0","0","1","-1","1","1","1","4","4","5","5","4","4","4","4","5","4","6","7","6","7","6","6","7","8","8","5","4","3","5","5","3","5","5","5","4","7","4","3","5","2","4","4","4","4","2","4","3","5","5","7","4","7","4","5","5","6","5","5","5","7","4","5","4","6","4","6","718763547043037184","li","604","Female","[""好我"",""坏她"",""坏我"",""好她""]","[""强我"",""弱她"",""弱我"",""强她""]","","","","","","","","","","","","","","","","","","","","","","","","","","","","","","feedback_test","","","","","","","","",""
"938","","f","psychophysics","18","328733","0.0-8.0-1.0-1.0-0.0-0.4","4","4","4","3","3","4","3","3","4","4","5","0","0","0","1","-1","1","1","1","4","4","5","5","4","4","4","4","5","4","6","7","6","7","6","6","7","8","8","5","4","3","5","5","3","5","5","5","4","7","4","3","5","2","4","4","4","4","2","4","3","5","5","7","4","7","4","5","5","6","5","5","5","7","4","5","4","6","4","6","718763547043037184","li","604","Female","[""好我"",""坏她"",""坏我"",""好她""]","[""强我"",""弱她"",""弱我"",""强她""]","","","","","","","","match","","","","","","","","","","key","f","16.683939130434705","960","536","j","false","nonmatch","img/circle.png","强我","弱我","prac_ALT2_ability","practice_ability","","","","","","","","",""
"null","<span style='color:red; font-size: 70px;'>错误! </span>","null","html-keyboard-response","19","329234","0.0-8.0-1.0-1.0-0.0-1.4","4","4","4","3","3","4","3","3","4","4","5","0","0","0","1","-1","1","1","1","4","4","5","5","4","4","4","4","5","4","6","7","6","7","6","6","7","8","8","5","4","3","5","5","3","5","5","5","4","7","4","3","5","2","4","4","4","4","2","4","3","5","5","7","4","7","4","5","5","6","5","5","5","7","4","5","4","6","4","6","718763547043037184","li","604","Female","[""好我"",""坏她"",""坏我"",""好她""]","[""强我"",""弱她"",""弱我"",""强她""]","","","","","","","","","","","","","","","","","","","","","","","","","","","","","","feedback_test","","","","","","","","",""
"891","","j","psychophysics","20","331121","0.0-8.0-1.0-1.0-0.0-0.5","4","4","4","3","3","4","3","3","4","4","5","0","0","0","1","-1","1","1","1","4","4","5","5","4","4","4","4","5","4","6","7","6","7","6","6","7","8","8","5","4","3","5","5","3","5","5","5","4","7","4","3","5","2","4","4","4","4","2","4","3","5","5","7","4","7","4","5","5","6","5","5","5","7","4","5","4","6","4","6","718763547043037184","li","604","Female","[""好我"",""坏她"",""坏我"",""好她""]","[""强我"",""弱她"",""弱我"",""强她""]","","","","","","","","nonmatch","","","","","","","","","","key","j","16.68351327433597","960","536","j","true","nonmatch","img/trapezoid.png","弱她","强我","prac_ALT2_ability","practice_ability","","","","","","","","",""
"null","<span style='color:GreenYellow; font-size: 70px;'>正确! </span>","null","html-keyboard-response","21","331622","0.0-8.0-1.0-1.0-0.0-1.5","4","4","4","3","3","4","3","3","4","4","5","0","0","0","1","-1","1","1","1","4","4","5","5","4","4","4","4","5","4","6","7","6","7","6","6","7","8","8","5","4","3","5","5","3","5","5","5","4","7","4","3","5","2","4","4","4","4","2","4","3","5","5","7","4","7","4","5","5","6","5","5","5","7","4","5","4","6","4","6","718763547043037184","li","604","Female","[""好我"",""坏她"",""坏我"",""好她""]","[""强我"",""弱她"",""弱我"",""强她""]","","","","","","","","","","","","","","","","","","","","","","","","","","","","","","feedback_test","","","","","","","","",""
"1000","","f","psychophysics","22","333624","0.0-8.0-1.0-1.0-0.0-0.6","4","4","4","3","3","4","3","3","4","4","5","0","0","0","1","-1","1","1","1","4","4","5","5","4","4","4","4","5","4","6","7","6","7","6","6","7","8","8","5","4","3","5","5","3","5","5","5","4","7","4","3","5","2","4","4","4","4","2","4","3","5","5","7","4","7","4","5","5","6","5","5","5","7","4","5","4","6","4","6","718763547043037184","li","604","Female","[""好我"",""坏她"",""坏我"",""好她""]","[""强我"",""弱她"",""弱我"",""强她""]","","","","","","","","match","","","","","","","","","","key","f","16.683596638655448","960","536","j","false","nonmatch","img/pentagon.png","强我","强她","prac_ALT2_ability","practice_ability","","","","","","","","",""
"null","<span style='color:red; font-size: 70px;'>错误! </span>","null","html-keyboard-response","23","334125","0.0-8.0-1.0-1.0-0.0-1.6","4","4","4","3","3","4","3","3","4","4","5","0","0","0","1","-1","1","1","1","4","4","5","5","4","4","4","4","5","4","6","7","6","7","6","6","7","8","8","5","4","3","5","5","3","5","5","5","4","7","4","3","5","2","4","4","4","4","2","4","3","5","5","7","4","7","4","5","5","6","5","5","5","7","4","5","4","6","4","6","718763547043037184","li","604","Female","[""好我"",""坏她"",""坏我"",""好她""]","[""强我"",""弱她"",""弱我"",""强她""]","","","","","","","","","","","","","","","","","","","","","","","","","","","","","","feedback_test","","","","","","","","",""
"731","","f","psychophysics","24","335856","0.0-8.0-1.0-1.0-0.0-0.7","4","4","4","3","3","4","3","3","4","4","5","0","0","0","1","-1","1","1","1","4","4","5","5","4","4","4","4","5","4","6","7","6","7","6","6","7","8","8","5","4","3","5","5","3","5","5","5","4","7","4","3","5","2","4","4","4","4","2","4","3","5","5","7","4","7","4","5","5","6","5","5","5","7","4","5","4","6","4","6","718763547043037184","li","604","Female","[""好我"",""坏她"",""坏我"",""好她""]","[""强我"",""弱她"",""弱我"",""强她""]","","","","","","","","match","","","","","","","","","","key","f","16.68273786407753","960","536","f","true","match","img/trapezoid.png","强我","强我","prac_ALT2_ability","practice_ability","","","","","","","","",""
"null","<span style='color:GreenYellow; font-size: 70px;'>正确! </span>","null","html-keyboard-response","25","336365","0.0-8.0-1.0-1.0-0.0-1.7","4","4","4","3","3","4","3","3","4","4","5","0","0","0","1","-1","1","1","1","4","4","5","5","4","4","4","4","5","4","6","7","6","7","6","6","7","8","8","5","4","3","5","5","3","5","5","5","4","7","4","3","5","2","4","4","4","4","2","4","3","5","5","7","4","7","4","5","5","6","5","5","5","7","4","5","4","6","4","6","718763547043037184","li","604","Female","[""好我"",""坏她"",""坏我"",""好她""]","[""强我"",""弱她"",""弱我"",""强她""]","","","","","","","","","","","","","","","","","","","","","","","","","","","","","","feedback_test","","","","","","","","",""
"865","","j","psychophysics","26","338232","0.0-8.0-1.0-1.0-0.0-0.8","4","4","4","3","3","4","3","3","4","4","5","0","0","0","1","-1","1","1","1","4","4","5","5","4","4","4","4","5","4","6","7","6","7","6","6","7","8","8","5","4","3","5","5","3","5","5","5","4","7","4","3","5","2","4","4","4","4","2","4","3","5","5","7","4","7","4","5","5","6","5","5","5","7","4","5","4","6","4","6","718763547043037184","li","604","Female","[""好我"",""坏她"",""坏我"",""好她""]","[""强我"",""弱她"",""弱我"",""强她""]","","","","","","","","nonmatch","","","","","","","","","","key","j","16.6833693693693","960","536","j","true","nonmatch","img/triangle.png","强我","弱她","prac_ALT2_ability","practice_ability","","","","","","","","",""
"null","<span style='color:GreenYellow; font-size: 70px;'>正确! </span>","null","html-keyboard-response","27","338733","0.0-8.0-1.0-1.0-0.0-1.8","4","4","4","3","3","4","3","3","4","4","5","0","0","0","1","-1","1","1","1","4","4","5","5","4","4","4","4","5","4","6","7","6","7","6","6","7","8","8","5","4","3","5","5","3","5","5","5","4","7","4","3","5","2","4","4","4","4","2","4","3","5","5","7","4","7","4","5","5","6","5","5","5","7","4","5","4","6","4","6","718763547043037184","li","604","Female","[""好我"",""坏她"",""坏我"",""好她""]","[""强我"",""弱她"",""弱我"",""强她""]","","","","","","","","","","","","","","","","","","","","","","","","","","","","","","feedback_test","","","","","","","","",""
"953","","j","psychophysics","28","340688","0.0-8.0-1.0-1.0-0.0-0.9","4","4","4","3","3","4","3","3","4","4","5","0","0","0","1","-1","1","1","1","4","4","5","5","4","4","4","4","5","4","6","7","6","7","6","6","7","8","8","5","4","3","5","5","3","5","5","5","4","7","4","3","5","2","4","4","4","4","2","4","3","5","5","7","4","7","4","5","5","6","5","5","5","7","4","5","4","6","4","6","718763547043037184","li","604","Female","[""好我"",""坏她"",""坏我"",""好她""]","[""强我"",""弱她"",""弱我"",""强她""]","","","","","","","","nonmatch","","","","","","","","","","key","j","16.683620689655072","960","536","f","false","match","img/pentagon.png","强她","强她","prac_ALT2_ability","practice_ability","","","","","","","","",""
"null","<span style='color:red; font-size: 70px;'>错误! </span>","null","html-keyboard-response","29","341188","0.0-8.0-1.0-1.0-0.0-1.9","4","4","4","3","3","4","3","3","4","4","5","0","0","0","1","-1","1","1","1","4","4","5","5","4","4","4","4","5","4","6","7","6","7","6","6","7","8","8","5","4","3","5","5","3","5","5","5","4","7","4","3","5","2","4","4","4","4","2","4","3","5","5","7","4","7","4","5","5","6","5","5","5","7","4","5","4","6","4","6","718763547043037184","li","604","Female","[""好我"",""坏她"",""坏我"",""好她""]","[""强我"",""弱她"",""弱我"",""强她""]","","","","","","","","","","","","","","","","","","","","","","","","","","","","","","feedback_test","","","","","","","","",""
"842","","j","psychophysics","30","343032","0.0-8.0-1.0-1.0-0.0-0.10","4","4","4","3","3","4","3","3","4","4","5","0","0","0","1","-1","1","1","1","4","4","5","5","4","4","4","4","5","4","6","7","6","7","6","6","7","8","8","5","4","3","5","5","3","5","5","5","4","7","4","3","5","2","4","4","4","4","2","4","3","5","5","7","4","7","4","5","5","6","5","5","5","7","4","5","4","6","4","6","718763547043037184","li","604","Female","[""好我"",""坏她"",""坏我"",""好她""]","[""强我"",""弱她"",""弱我"",""强她""]","","","","","","","","nonmatch","","","","","","","","","","key","j","16.68369090909096","960","536","j","true","nonmatch","img/circle.png","强她","弱我","prac_ALT2_ability","practice_ability","","","","","","","","",""
"null","<span style='color:GreenYellow; font-size: 70px;'>正确! </span>","null","html-keyboard-response","31","343533","0.0-8.0-1.0-1.0-0.0-1.10","4","4","4","3","3","4","3","3","4","4","5","0","0","0","1","-1","1","1","1","4","4","5","5","4","4","4","4","5","4","6","7","6","7","6","6","7","8","8","5","4","3","5","5","3","5","5","5","4","7","4","3","5","2","4","4","4","4","2","4","3","5","5","7","4","7","4","5","5","6","5","5","5","7","4","5","4","6","4","6","718763547043037184","li","604","Female","[""好我"",""坏她"",""坏我"",""好她""]","[""强我"",""弱她"",""弱我"",""强她""]","","","","","","","","","","","","","","","","","","","","","","","","","","","","","","feedback_test","","","","","","","","",""
"817","","f","psychophysics","32","345352","0.0-8.0-1.0-1.0-0.0-0.11","4","4","4","3","3","4","3","3","4","4","5","0","0","0","1","-1","1","1","1","4","4","5","5","4","4","4","4","5","4","6","7","6","7","6","6","7","8","8","5","4","3","5","5","3","5","5","5","4","7","4","3","5","2","4","4","4","4","2","4","3","5","5","7","4","7","4","5","5","6","5","5","5","7","4","5","4","6","4","6","718763547043037184","li","604","Female","[""好我"",""坏她"",""坏我"",""好她""]","[""强我"",""弱她"",""弱我"",""强她""]","","","","","","","","match","","","","","","","","","","key","f","16.6835462962966","960","536","f","true","match","img/circle.png","弱我","弱我","prac_ALT2_ability","practice_ability","","","","","","","","",""
"null","<span style='color:GreenYellow; font-size: 70px;'>正确! </span>","null","html-keyboard-response","33","345853","0.0-8.0-1.0-1.0-0.0-1.11","4","4","4","3","3","4","3","3","4","4","5","0","0","0","1","-1","1","1","1","4","4","5","5","4","4","4","4","5","4","6","7","6","7","6","6","7","8","8","5","4","3","5","5","3","5","5","5","4","7","4","3","5","2","4","4","4","4","2","4","3","5","5","7","4","7","4","5","5","6","5","5","5","7","4","5","4","6","4","6","718763547043037184","li","604","Female","[""好我"",""坏她"",""坏我"",""好她""]","[""强我"",""弱她"",""弱我"",""强她""]","","","","","","","","","","","","","","","","","","","","","","","","","","","","","","feedback_test","","","","","","","","",""
"914","","j","psychophysics","34","347769","0.0-8.0-1.0-1.0-0.0-0.12","4","4","4","3","3","4","3","3","4","4","5","0","0","0","1","-1","1","1","1","4","4","5","5","4","4","4","4","5","4","6","7","6","7","6","6","7","8","8","5","4","3","5","5","3","5","5","5","4","7","4","3","5","2","4","4","4","4","2","4","3","5","5","7","4","7","4","5","5","6","5","5","5","7","4","5","4","6","4","6","718763547043037184","li","604","Female","[""好我"",""坏她"",""坏我"",""好她""]","[""强我"",""弱她"",""弱我"",""强她""]","","","","","","","","nonmatch","","","","","","","","","","key","j","16.68299122807047","960","536","j","true","nonmatch","img/trapezoid.png","弱我","强我","prac_ALT2_ability","practice_ability","","","","","","","","",""
"null","<span style='color:GreenYellow; font-size: 70px;'>正确! </span>","null","html-keyboard-response","35","348270","0.0-8.0-1.0-1.0-0.0-1.12","4","4","4","3","3","4","3","3","4","4","5","0","0","0","1","-1","1","1","1","4","4","5","5","4","4","4","4","5","4","6","7","6","7","6","6","7","8","8","5","4","3","5","5","3","5","5","5","4","7","4","3","5","2","4","4","4","4","2","4","3","5","5","7","4","7","4","5","5","6","5","5","5","7","4","5","4","6","4","6","718763547043037184","li","604","Female","[""好我"",""坏她"",""坏我"",""好她""]","[""强我"",""弱她"",""弱我"",""强她""]","","","","","","","","","","","","","","","","","","","","","","","","","","","","","","feedback_test","","","","","","","","",""
"873","","f","psychophysics","36","350144","0.0-8.0-1.0-1.0-0.0-0.13","4","4","4","3","3","4","3","3","4","4","5","0","0","0","1","-1","1","1","1","4","4","5","5","4","4","4","4","5","4","6","7","6","7","6","6","7","8","8","5","4","3","5","5","3","5","5","5","4","7","4","3","5","2","4","4","4","4","2","4","3","5","5","7","4","7","4","5","5","6","5","5","5","7","4","5","4","6","4","6","718763547043037184","li","604","Female","[""好我"",""坏她"",""坏我"",""好她""]","[""强我"",""弱她"",""弱我"",""强她""]","","","","","","","","match","","","","","","","","","","key","f","16.683684684684906","960","536","j","false","nonmatch","img/pentagon.png","弱她","强她","prac_ALT2_ability","practice_ability","","","","","","","","",""
"null","<span style='color:red; font-size: 70px;'>错误! </span>","null","html-keyboard-response","37","350644","0.0-8.0-1.0-1.0-0.0-1.13","4","4","4","3","3","4","3","3","4","4","5","0","0","0","1","-1","1","1","1","4","4","5","5","4","4","4","4","5","4","6","7","6","7","6","6","7","8","8","5","4","3","5","5","3","5","5","5","4","7","4","3","5","2","4","4","4","4","2","4","3","5","5","7","4","7","4","5","5","6","5","5","5","7","4","5","4","6","4","6","718763547043037184","li","604","Female","[""好我"",""坏她"",""坏我"",""好她""]","[""强我"",""弱她"",""弱我"",""强她""]","","","","","","","","","","","","","","","","","","","","","","","","","","","","","","feedback_test","","","","","","","","",""
"786","","f","psychophysics","38","352432","0.0-8.0-1.0-1.0-0.0-0.14","4","4","4","3","3","4","3","3","4","4","5","0","0","0","1","-1","1","1","1","4","4","5","5","4","4","4","4","5","4","6","7","6","7","6","6","7","8","8","5","4","3","5","5","3","5","5","5","4","7","4","3","5","2","4","4","4","4","2","4","3","5","5","7","4","7","4","5","5","6","5","5","5","7","4","5","4","6","4","6","718763547043037184","li","604","Female","[""好我"",""坏她"",""坏我"",""好她""]","[""强我"",""弱她"",""弱我"",""强她""]","","","","","","","","match","","","","","","","","","","key","f","16.68302830188691","960","536","f","true","match","img/circle.png","弱我","弱我","prac_ALT2_ability","practice_ability","","","","","","","","",""
"null","<span style='color:GreenYellow; font-size: 70px;'>正确! </span>","null","html-keyboard-response","39","352937","0.0-8.0-1.0-1.0-0.0-1.14","4","4","4","3","3","4","3","3","4","4","5","0","0","0","1","-1","1","1","1","4","4","5","5","4","4","4","4","5","4","6","7","6","7","6","6","7","8","8","5","4","3","5","5","3","5","5","5","4","7","4","3","5","2","4","4","4","4","2","4","3","5","5","7","4","7","4","5","5","6","5","5","5","7","4","5","4","6","4","6","718763547043037184","li","604","Female","[""好我"",""坏她"",""坏我"",""好她""]","[""强我"",""弱她"",""弱我"",""强她""]","","","","","","","","","","","","","","","","","","","","","","","","","","","","","","feedback_test","","","","","","","","",""
"990","","f","psychophysics","40","354928","0.0-8.0-1.0-1.0-0.0-0.15","4","4","4","3","3","4","3","3","4","4","5","0","0","0","1","-1","1","1","1","4","4","5","5","4","4","4","4","5","4","6","7","6","7","6","6","7","8","8","5","4","3","5","5","3","5","5","5","4","7","4","3","5","2","4","4","4","4","2","4","3","5","5","7","4","7","4","5","5","6","5","5","5","7","4","5","4","6","4","6","718763547043037184","li","604","Female","[""好我"",""坏她"",""坏我"",""好她""]","[""强我"",""弱她"",""弱我"",""强她""]","","","","","","","","match","","","","","","","","","","key","f","16.561313559321917","960","536","f","true","match","img/pentagon.png","强她","强她","prac_ALT2_ability","practice_ability","","","","","","","","",""
"null","<span style='color:GreenYellow; font-size: 70px;'>正确! </span>","null","html-keyboard-response","41","355429","0.0-8.0-1.0-1.0-0.0-1.15","4","4","4","3","3","4","3","3","4","4","5","0","0","0","1","-1","1","1","1","4","4","5","5","4","4","4","4","5","4","6","7","6","7","6","6","7","8","8","5","4","3","5","5","3","5","5","5","4","7","4","3","5","2","4","4","4","4","2","4","3","5","5","7","4","7","4","5","5","6","5","5","5","7","4","5","4","6","4","6","718763547043037184","li","604","Female","[""好我"",""坏她"",""坏我"",""好她""]","[""强我"",""弱她"",""弱我"",""强她""]","","","","","","","","","","","","","","","","","","","","","","","","","","","","","","feedback_test","","","","","","","","",""
"969","","f","psychophysics","42","357400","0.0-8.0-1.0-1.0-0.0-0.16","4","4","4","3","3","4","3","3","4","4","5","0","0","0","1","-1","1","1","1","4","4","5","5","4","4","4","4","5","4","6","7","6","7","6","6","7","8","8","5","4","3","5","5","3","5","5","5","4","7","4","3","5","2","4","4","4","4","2","4","3","5","5","7","4","7","4","5","5","6","5","5","5","7","4","5","4","6","4","6","718763547043037184","li","604","Female","[""好我"",""坏她"",""坏我"",""好她""]","[""强我"",""弱她"",""弱我"",""强她""]","","","","","","","","match","","","","","","","","","","key","f","16.68317094017079","960","536","f","true","match","img/trapezoid.png","强我","强我","prac_ALT2_ability","practice_ability","","","","","","","","",""
"null","<span style='color:GreenYellow; font-size: 70px;'>正确! </span>","null","html-keyboard-response","43","357901","0.0-8.0-1.0-1.0-0.0-1.16","4","4","4","3","3","4","3","3","4","4","5","0","0","0","1","-1","1","1","1","4","4","5","5","4","4","4","4","5","4","6","7","6","7","6","6","7","8","8","5","4","3","5","5","3","5","5","5","4","7","4","3","5","2","4","4","4","4","2","4","3","5","5","7","4","7","4","5","5","6","5","5","5","7","4","5","4","6","4","6","718763547043037184","li","604","Female","[""好我"",""坏她"",""坏我"",""好她""]","[""强我"",""弱她"",""弱我"",""强她""]","","","","","","","","","","","","","","","","","","","","","","","","","","","","","","feedback_test","","","","","","","","",""
"898","","j","psychophysics","44","359800","0.0-8.0-1.0-1.0-0.0-0.17","4","4","4","3","3","4","3","3","4","4","5","0","0","0","1","-1","1","1","1","4","4","5","5","4","4","4","4","5","4","6","7","6","7","6","6","7","8","8","5","4","3","5","5","3","5","5","5","4","7","4","3","5","2","4","4","4","4","2","4","3","5","5","7","4","7","4","5","5","6","5","5","5","7","4","5","4","6","4","6","718763547043037184","li","604","Female","[""好我"",""坏她"",""坏我"",""好她""]","[""强我"",""弱她"",""弱我"",""强她""]","","","","","","","","nonmatch","","","","","","","","","","key","j","16.68368141592915","960","536","j","true","nonmatch","img/trapezoid.png","强她","强我","prac_ALT2_ability","practice_ability","","","","","","","","",""
"null","<span style='color:GreenYellow; font-size: 70px;'>正确! </span>","null","html-keyboard-response","45","360300","0.0-8.0-1.0-1.0-0.0-1.17","4","4","4","3","3","4","3","3","4","4","5","0","0","0","1","-1","1","1","1","4","4","5","5","4","4","4","4","5","4","6","7","6","7","6","6","7","8","8","5","4","3","5","5","3","5","5","5","4","7","4","3","5","2","4","4","4","4","2","4","3","5","5","7","4","7","4","5","5","6","5","5","5","7","4","5","4","6","4","6","718763547043037184","li","604","Female","[""好我"",""坏她"",""坏我"",""好她""]","[""强我"",""弱她"",""弱我"",""强她""]","","","","","","","","","","","","","","","","","","","","","","","","","","","","","","feedback_test","","","","","","","","",""
"818","","j","psychophysics","46","362120","0.0-8.0-1.0-1.0-0.0-0.18","4","4","4","3","3","4","3","3","4","4","5","0","0","0","1","-1","1","1","1","4","4","5","5","4","4","4","4","5","4","6","7","6","7","6","6","7","8","8","5","4","3","5","5","3","5","5","5","4","7","4","3","5","2","4","4","4","4","2","4","3","5","5","7","4","7","4","5","5","6","5","5","5","7","4","5","4","6","4","6","718763547043037184","li","604","Female","[""好我"",""坏她"",""坏我"",""好她""]","[""强我"",""弱她"",""弱我"",""强她""]","","","","","","","","nonmatch","","","","","","","","","","key","j","16.683370370370405","960","536","f","false","match","img/triangle.png","弱她","弱她","prac_ALT2_ability","practice_ability","","","","","","","","",""
"null","<span style='color:red; font-size: 70px;'>错误! </span>","null","html-keyboard-response","47","362621","0.0-8.0-1.0-1.0-0.0-1.18","4","4","4","3","3","4","3","3","4","4","5","0","0","0","1","-1","1","1","1","4","4","5","5","4","4","4","4","5","4","6","7","6","7","6","6","7","8","8","5","4","3","5","5","3","5","5","5","4","7","4","3","5","2","4","4","4","4","2","4","3","5","5","7","4","7","4","5","5","6","5","5","5","7","4","5","4","6","4","6","718763547043037184","li","604","Female","[""好我"",""坏她"",""坏我"",""好她""]","[""强我"",""弱她"",""弱我"",""强她""]","","","","","","","","","","","","","","","","","","","","","","","","","","","","","","feedback_test","","","","","","","","",""
"1058","","j","psychophysics","48","364680","0.0-8.0-1.0-1.0-0.0-0.19","4","4","4","3","3","4","3","3","4","4","5","0","0","0","1","-1","1","1","1","4","4","5","5","4","4","4","4","5","4","6","7","6","7","6","6","7","8","8","5","4","3","5","5","3","5","5","5","4","7","4","3","5","2","4","4","4","4","2","4","3","5","5","7","4","7","4","5","5","6","5","5","5","7","4","5","4","6","4","6","718763547043037184","li","604","Female","[""好我"",""坏她"",""坏我"",""好她""]","[""强我"",""弱她"",""弱我"",""强她""]","","","","","","","","nonmatch","","","","","","","","","","key","j","16.684311475410112","960","536","f","false","match","img/pentagon.png","强她","强她","prac_ALT2_ability","practice_ability","","","","","","","","",""
"null","<span style='color:red; font-size: 70px;'>错误! </span>","null","html-keyboard-response","49","365180","0.0-8.0-1.0-1.0-0.0-1.19","4","4","4","3","3","4","3","3","4","4","5","0","0","0","1","-1","1","1","1","4","4","5","5","4","4","4","4","5","4","6","7","6","7","6","6","7","8","8","5","4","3","5","5","3","5","5","5","4","7","4","3","5","2","4","4","4","4","2","4","3","5","5","7","4","7","4","5","5","6","5","5","5","7","4","5","4","6","4","6","718763547043037184","li","604","Female","[""好我"",""坏她"",""坏我"",""好她""]","[""强我"",""弱她"",""弱我"",""强她""]","","","","","","","","","","","","","","","","","","","","","","","","","","","","","","feedback_test","","","","","","","","",""
"906","","f","psychophysics","50","367088","0.0-8.0-1.0-1.0-0.0-0.20","4","4","4","3","3","4","3","3","4","4","5","0","0","0","1","-1","1","1","1","4","4","5","5","4","4","4","4","5","4","6","7","6","7","6","6","7","8","8","5","4","3","5","5","3","5","5","5","4","7","4","3","5","2","4","4","4","4","2","4","3","5","5","7","4","7","4","5","5","6","5","5","5","7","4","5","4","6","4","6","718763547043037184","li","604","Female","[""好我"",""坏她"",""坏我"",""好她""]","[""强我"",""弱她"",""弱我"",""强她""]","","","","","","","","match","","","","","","","","","","key","f","16.683438596491325","960","536","f","true","match","img/trapezoid.png","强我","强我","prac_ALT2_ability","practice_ability","","","","","","","","",""
"null","<span style='color:GreenYellow; font-size: 70px;'>正确! </span>","null","html-keyboard-response","51","367589","0.0-8.0-1.0-1.0-0.0-1.20","4","4","4","3","3","4","3","3","4","4","5","0","0","0","1","-1","1","1","1","4","4","5","5","4","4","4","4","5","4","6","7","6","7","6","6","7","8","8","5","4","3","5","5","3","5","5","5","4","7","4","3","5","2","4","4","4","4","2","4","3","5","5","7","4","7","4","5","5","6","5","5","5","7","4","5","4","6","4","6","718763547043037184","li","604","Female","[""好我"",""坏她"",""坏我"",""好她""]","[""强我"",""弱她"",""弱我"",""强她""]","","","","","","","","","","","","","","","","","","","","","","","","","","","","","","feedback_test","","","","","","","","",""
"954","","j","psychophysics","52","369544","0.0-8.0-1.0-1.0-0.0-0.21","4","4","4","3","3","4","3","3","4","4","5","0","0","0","1","-1","1","1","1","4","4","5","5","4","4","4","4","5","4","6","7","6","7","6","6","7","8","8","5","4","3","5","5","3","5","5","5","4","7","4","3","5","2","4","4","4","4","2","4","3","5","5","7","4","7","4","5","5","6","5","5","5","7","4","5","4","6","4","6","718763547043037184","li","604","Female","[""好我"",""坏她"",""坏我"",""好她""]","[""强我"",""弱她"",""弱我"",""强她""]","","","","","","","","nonmatch","","","","","","","","","","key","j","16.683215517241603","960","536","j","true","nonmatch","img/pentagon.png","弱我","强她","prac_ALT2_ability","practice_ability","","","","","","","","",""
"null","<span style='color:GreenYellow; font-size: 70px;'>正确! </span>","null","html-keyboard-response","53","370045","0.0-8.0-1.0-1.0-0.0-1.21","4","4","4","3","3","4","3","3","4","4","5","0","0","0","1","-1","1","1","1","4","4","5","5","4","4","4","4","5","4","6","7","6","7","6","6","7","8","8","5","4","3","5","5","3","5","5","5","4","7","4","3","5","2","4","4","4","4","2","4","3","5","5","7","4","7","4","5","5","6","5","5","5","7","4","5","4","6","4","6","718763547043037184","li","604","Female","[""好我"",""坏她"",""坏我"",""好她""]","[""强我"",""弱她"",""弱我"",""强她""]","","","","","","","","","","","","","","","","","","","","","","","","","","","","","","feedback_test","","","","","","","","",""
"778","","f","psychophysics","54","371825","0.0-8.0-1.0-1.0-0.0-0.22","4","4","4","3","3","4","3","3","4","4","5","0","0","0","1","-1","1","1","1","4","4","5","5","4","4","4","4","5","4","6","7","6","7","6","6","7","8","8","5","4","3","5","5","3","5","5","5","4","7","4","3","5","2","4","4","4","4","2","4","3","5","5","7","4","7","4","5","5","6","5","5","5","7","4","5","4","6","4","6","718763547043037184","li","604","Female","[""好我"",""坏她"",""坏我"",""好她""]","[""强我"",""弱她"",""弱我"",""强她""]","","","","","","","","match","","","","","","","","","","key","f","16.683433962264317","960","536","f","true","match","img/circle.png","弱我","弱我","prac_ALT2_ability","practice_ability","","","","","","","","",""
"null","<span style='color:GreenYellow; font-size: 70px;'>正确! </span>","null","html-keyboard-response","55","372327","0.0-8.0-1.0-1.0-0.0-1.22","4","4","4","3","3","4","3","3","4","4","5","0","0","0","1","-1","1","1","1","4","4","5","5","4","4","4","4","5","4","6","7","6","7","6","6","7","8","8","5","4","3","5","5","3","5","5","5","4","7","4","3","5","2","4","4","4","4","2","4","3","5","5","7","4","7","4","5","5","6","5","5","5","7","4","5","4","6","4","6","718763547043037184","li","604","Female","[""好我"",""坏她"",""坏我"",""好她""]","[""强我"",""弱她"",""弱我"",""强她""]","","","","","","","","","","","","","","","","","","","","","","","","","","","","","","feedback_test","","","","","","","","",""
"927","","f","psychophysics","56","374256","0.0-8.0-1.0-1.0-0.0-0.23","4","4","4","3","3","4","3","3","4","4","5","0","0","0","1","-1","1","1","1","4","4","5","5","4","4","4","4","5","4","6","7","6","7","6","6","7","8","8","5","4","3","5","5","3","5","5","5","4","7","4","3","5","2","4","4","4","4","2","4","3","5","5","7","4","7","4","5","5","6","5","5","5","7","4","5","4","6","4","6","718763547043037184","li","604","Female","[""好我"",""坏她"",""坏我"",""好她""]","[""强我"",""弱她"",""弱我"",""强她""]","","","","","","","","match","","","","","","","","","","key","f","16.683517543859924","960","536","j","false","nonmatch","img/triangle.png","强她","弱她","prac_ALT2_ability","practice_ability","","","","","","","","",""
"null","<span style='color:red; font-size: 70px;'>错误! </span>","null","html-keyboard-response","57","374757","0.0-8.0-1.0-1.0-0.0-1.23","4","4","4","3","3","4","3","3","4","4","5","0","0","0","1","-1","1","1","1","4","4","5","5","4","4","4","4","5","4","6","7","6","7","6","6","7","8","8","5","4","3","5","5","3","5","5","5","4","7","4","3","5","2","4","4","4","4","2","4","3","5","5","7","4","7","4","5","5","6","5","5","5","7","4","5","4","6","4","6","718763547043037184","li","604","Female","[""好我"",""坏她"",""坏我"",""好她""]","[""强我"",""弱她"",""弱我"",""强她""]","","","","","","","","","","","","","","","","","","","","","","","","","","","","","","feedback_test","","","","","","","","",""
"1065","","f","psychophysics","58","376824","0.0-8.0-1.0-1.0-0.0-0.24","4","4","4","3","3","4","3","3","4","4","5","0","0","0","1","-1","1","1","1","4","4","5","5","4","4","4","4","5","4","6","7","6","7","6","6","7","8","8","5","4","3","5","5","3","5","5","5","4","7","4","3","5","2","4","4","4","4","2","4","3","5","5","7","4","7","4","5","5","6","5","5","5","7","4","5","4","6","4","6","718763547043037184","li","604","Female","[""好我"",""坏她"",""坏我"",""好她""]","[""强我"",""弱她"",""弱我"",""强她""]","","","","","","","","match","","","","","","","","","","key","f","16.683642276423146","960","536","j","false","nonmatch","img/triangle.png","强她","弱她","prac_ALT2_ability","practice_ability","","","","","","","","",""
"null","<span style='color:red; font-size: 70px;'>错误! </span>","null","html-keyboard-response","59","377324","0.0-8.0-1.0-1.0-0.0-1.24","4","4","4","3","3","4","3","3","4","4","5","0","0","0","1","-1","1","1","1","4","4","5","5","4","4","4","4","5","4","6","7","6","7","6","6","7","8","8","5","4","3","5","5","3","5","5","5","4","7","4","3","5","2","4","4","4","4","2","4","3","5","5","7","4","7","4","5","5","6","5","5","5","7","4","5","4","6","4","6","718763547043037184","li","604","Female","[""好我"",""坏她"",""坏我"",""好她""]","[""强我"",""弱她"",""弱我"",""强她""]","","","","","","","","","","","","","","","","","","","","","","","","","","","","","","feedback_test","","","","","","","","",""
"1074","","f","psychophysics","60","379400","0.0-8.0-1.0-1.0-0.0-0.25","4","4","4","3","3","4","3","3","4","4","5","0","0","0","1","-1","1","1","1","4","4","5","5","4","4","4","4","5","4","6","7","6","7","6","6","7","8","8","5","4","3","5","5","3","5","5","5","4","7","4","3","5","2","4","4","4","4","2","4","3","5","5","7","4","7","4","5","5","6","5","5","5","7","4","5","4","6","4","6","718763547043037184","li","604","Female","[""好我"",""坏她"",""坏我"",""好她""]","[""强我"",""弱她"",""弱我"",""强她""]","","","","","","","","match","","","","","","","","","","key","f","16.68376612903235","960","536","f","true","match","img/trapezoid.png","强我","强我","prac_ALT2_ability","practice_ability","","","","","","","","",""
"null","<span style='color:GreenYellow; font-size: 70px;'>正确! </span>","null","html-keyboard-response","61","379901","0.0-8.0-1.0-1.0-0.0-1.25","4","4","4","3","3","4","3","3","4","4","5","0","0","0","1","-1","1","1","1","4","4","5","5","4","4","4","4","5","4","6","7","6","7","6","6","7","8","8","5","4","3","5","5","3","5","5","5","4","7","4","3","5","2","4","4","4","4","2","4","3","5","5","7","4","7","4","5","5","6","5","5","5","7","4","5","4","6","4","6","718763547043037184","li","604","Female","[""好我"",""坏她"",""坏我"",""好她""]","[""强我"",""弱她"",""弱我"",""强她""]","","","","","","","","","","","","","","","","","","","","","","","","","","","","","","feedback_test","","","","","","","","",""
"801","","f","psychophysics","62","381704","0.0-8.0-1.0-1.0-0.0-0.26","4","4","4","3","3","4","3","3","4","4","5","0","0","0","1","-1","1","1","1","4","4","5","5","4","4","4","4","5","4","6","7","6","7","6","6","7","8","8","5","4","3","5","5","3","5","5","5","4","7","4","3","5","2","4","4","4","4","2","4","3","5","5","7","4","7","4","5","5","6","5","5","5","7","4","5","4","6","4","6","718763547043037184","li","604","Female","[""好我"",""坏她"",""坏我"",""好她""]","[""强我"",""弱她"",""弱我"",""强她""]","","","","","","","","match","","","","","","","","","","key","f","16.682915887850875","960","536","f","true","match","img/pentagon.png","强她","强她","prac_ALT2_ability","practice_ability","","","","","","","","",""
"null","<span style='color:GreenYellow; font-size: 70px;'>正确! </span>","null","html-keyboard-response","63","382205","0.0-8.0-1.0-1.0-0.0-1.26","4","4","4","3","3","4","3","3","4","4","5","0","0","0","1","-1","1","1","1","4","4","5","5","4","4","4","4","5","4","6","7","6","7","6","6","7","8","8","5","4","3","5","5","3","5","5","5","4","7","4","3","5","2","4","4","4","4","2","4","3","5","5","7","4","7","4","5","5","6","5","5","5","7","4","5","4","6","4","6","718763547043037184","li","604","Female","[""好我"",""坏她"",""坏我"",""好她""]","[""强我"",""弱她"",""弱我"",""强她""]","","","","","","","","","","","","","","","","","","","","","","","","","","","","","","feedback_test","","","","","","","","",""
"905","","j","psychophysics","64","384112","0.0-8.0-1.0-1.0-0.0-0.27","4","4","4","3","3","4","3","3","4","4","5","0","0","0","1","-1","1","1","1","4","4","5","5","4","4","4","4","5","4","6","7","6","7","6","6","7","8","8","5","4","3","5","5","3","5","5","5","4","7","4","3","5","2","4","4","4","4","2","4","3","5","5","7","4","7","4","5","5","6","5","5","5","7","4","5","4","6","4","6","718763547043037184","li","604","Female","[""好我"",""坏她"",""坏我"",""好她""]","[""强我"",""弱她"",""弱我"",""强她""]","","","","","","","","nonmatch","","","","","","","","","","key","j","16.68439823008849","960","536","f","false","match","img/trapezoid.png","强我","强我","prac_ALT2_ability","practice_ability","","","","","","","","",""
"null","<span style='color:red; font-size: 70px;'>错误! </span>","null","html-keyboard-response","65","384612","0.0-8.0-1.0-1.0-0.0-1.27","4","4","4","3","3","4","3","3","4","4","5","0","0","0","1","-1","1","1","1","4","4","5","5","4","4","4","4","5","4","6","7","6","7","6","6","7","8","8","5","4","3","5","5","3","5","5","5","4","7","4","3","5","2","4","4","4","4","2","4","3","5","5","7","4","7","4","5","5","6","5","5","5","7","4","5","4","6","4","6","718763547043037184","li","604","Female","[""好我"",""坏她"",""坏我"",""好她""]","[""强我"",""弱她"",""弱我"",""强她""]","","","","","","","","","","","","","","","","","","","","","","","","","","","","","","feedback_test","","","","","","","","",""
"874","","j","psychophysics","66","386488","0.0-8.0-1.0-1.0-0.0-0.28","4","4","4","3","3","4","3","3","4","4","5","0","0","0","1","-1","1","1","1","4","4","5","5","4","4","4","4","5","4","6","7","6","7","6","6","7","8","8","5","4","3","5","5","3","5","5","5","4","7","4","3","5","2","4","4","4","4","2","4","3","5","5","7","4","7","4","5","5","6","5","5","5","7","4","5","4","6","4","6","718763547043037184","li","604","Female","[""好我"",""坏她"",""坏我"",""好她""]","[""强我"",""弱她"",""弱我"",""强她""]","","","","","","","","nonmatch","","","","","","","","","","key","j","16.682954954955125","960","536","j","true","nonmatch","img/pentagon.png","弱她","强她","prac_ALT2_ability","practice_ability","","","","","","","","",""
"null","<span style='color:GreenYellow; font-size: 70px;'>正确! </span>","null","html-keyboard-response","67","386988","0.0-8.0-1.0-1.0-0.0-1.28","4","4","4","3","3","4","3","3","4","4","5","0","0","0","1","-1","1","1","1","4","4","5","5","4","4","4","4","5","4","6","7","6","7","6","6","7","8","8","5","4","3","5","5","3","5","5","5","4","7","4","3","5","2","4","4","4","4","2","4","3","5","5","7","4","7","4","5","5","6","5","5","5","7","4","5","4","6","4","6","718763547043037184","li","604","Female","[""好我"",""坏她"",""坏我"",""好她""]","[""强我"",""弱她"",""弱我"",""强她""]","","","","","","","","","","","","","","","","","","","","","","","","","","","","","","feedback_test","","","","","","","","",""
"746","","f","psychophysics","68","388736","0.0-8.0-1.0-1.0-0.0-0.29","4","4","4","3","3","4","3","3","4","4","5","0","0","0","1","-1","1","1","1","4","4","5","5","4","4","4","4","5","4","6","7","6","7","6","6","7","8","8","5","4","3","5","5","3","5","5","5","4","7","4","3","5","2","4","4","4","4","2","4","3","5","5","7","4","7","4","5","5","6","5","5","5","7","4","5","4","6","4","6","718763547043037184","li","604","Female","[""好我"",""坏她"",""坏我"",""好她""]","[""强我"",""弱她"",""弱我"",""强她""]","","","","","","","","match","","","","","","","","","","key","f","16.683223300971186","960","536","f","true","match","img/circle.png","弱我","弱我","prac_ALT2_ability","practice_ability","","","","","","","","",""
"null","<span style='color:GreenYellow; font-size: 70px;'>正确! </span>","null","html-keyboard-response","69","389238","0.0-8.0-1.0-1.0-0.0-1.29","4","4","4","3","3","4","3","3","4","4","5","0","0","0","1","-1","1","1","1","4","4","5","5","4","4","4","4","5","4","6","7","6","7","6","6","7","8","8","5","4","3","5","5","3","5","5","5","4","7","4","3","5","2","4","4","4","4","2","4","3","5","5","7","4","7","4","5","5","6","5","5","5","7","4","5","4","6","4","6","718763547043037184","li","604","Female","[""好我"",""坏她"",""坏我"",""好她""]","[""强我"",""弱她"",""弱我"",""强她""]","","","","","","","","","","","","","","","","","","","","","","","","","","","","","","feedback_test","","","","","","","","",""
"971","","j","psychophysics","70","391205","0.0-8.0-1.0-1.0-0.0-0.30","4","4","4","3","3","4","3","3","4","4","5","0","0","0","1","-1","1","1","1","4","4","5","5","4","4","4","4","5","4","6","7","6","7","6","6","7","8","8","5","4","3","5","5","3","5","5","5","4","7","4","3","5","2","4","4","4","4","2","4","3","5","5","7","4","7","4","5","5","6","5","5","5","7","4","5","4","6","4","6","718763547043037184","li","604","Female","[""好我"",""坏她"",""坏我"",""好她""]","[""强我"",""弱她"",""弱我"",""强她""]","","","","","","","","nonmatch","","","","","","","","","","key","j","16.682652542373003","960","536","j","true","nonmatch","img/pentagon.png","弱我","强她","prac_ALT2_ability","practice_ability","","","","","","","","",""
"null","<span style='color:GreenYellow; font-size: 70px;'>正确! </span>","null","html-keyboard-response","71","391706","0.0-8.0-1.0-1.0-0.0-1.30","4","4","4","3","3","4","3","3","4","4","5","0","0","0","1","-1","1","1","1","4","4","5","5","4","4","4","4","5","4","6","7","6","7","6","6","7","8","8","5","4","3","5","5","3","5","5","5","4","7","4","3","5","2","4","4","4","4","2","4","3","5","5","7","4","7","4","5","5","6","5","5","5","7","4","5","4","6","4","6","718763547043037184","li","604","Female","[""好我"",""坏她"",""坏我"",""好她""]","[""强我"",""弱她"",""弱我"",""强她""]","","","","","","","","","","","","","","","","","","","","","","","","","","","","","","feedback_test","","","","","","","","",""
"null","","null","psychophysics","72","393907","0.0-8.0-1.0-1.0-0.0-0.31","4","4","4","3","3","4","3","3","4","4","5","0","0","0","1","-1","1","1","1","4","4","5","5","4","4","4","4","5","4","6","7","6","7","6","6","7","8","8","5","4","3","5","5","3","5","5","5","4","7","4","3","5","2","4","4","4","4","2","4","3","5","5","7","4","7","4","5","5","6","5","5","5","7","4","5","4","6","4","6","718763547043037184","li","604","Female","[""好我"",""坏她"",""坏我"",""好她""]","[""强我"",""弱她"",""弱我"",""强她""]","","","","","","","","null","","","","","","","","","","key","null","16.68359541984716","960","536","f","false","match","img/triangle.png","弱她","弱她","prac_ALT2_ability","practice_ability","","","","","","","","",""
"null","<span class='add_' style='color:yellow; font-size: 70px;'> 太慢! </span>","null","html-keyboard-response","73","394408","0.0-8.0-1.0-1.0-0.0-1.31","4","4","4","3","3","4","3","3","4","4","5","0","0","0","1","-1","1","1","1","4","4","5","5","4","4","4","4","5","4","6","7","6","7","6","6","7","8","8","5","4","3","5","5","3","5","5","5","4","7","4","3","5","2","4","4","4","4","2","4","3","5","5","7","4","7","4","5","5","6","5","5","5","7","4","5","4","6","4","6","718763547043037184","li","604","Female","[""好我"",""坏她"",""坏我"",""好她""]","[""强我"",""弱她"",""弱我"",""强她""]","","","","","","","","","","","","","","","","","","","","","","","","","","","","","","feedback_test","","","","","","","","",""
"816","","j","psychophysics","74","396226","0.0-8.0-1.0-1.0-0.0-0.32","4","4","4","3","3","4","3","3","4","4","5","0","0","0","1","-1","1","1","1","4","4","5","5","4","4","4","4","5","4","6","7","6","7","6","6","7","8","8","5","4","3","5","5","3","5","5","5","4","7","4","3","5","2","4","4","4","4","2","4","3","5","5","7","4","7","4","5","5","6","5","5","5","7","4","5","4","6","4","6","718763547043037184","li","604","Female","[""好我"",""坏她"",""坏我"",""好她""]","[""强我"",""弱她"",""弱我"",""强她""]","","","","","","","","nonmatch","","","","","","","","","","key","j","16.68377777777776","960","536","f","false","match","img/triangle.png","弱她","弱她","prac_ALT2_ability","practice_ability","","","","","","","","",""
"null","<span style='color:red; font-size: 70px;'>错误! </span>","null","html-keyboard-response","75","396727","0.0-8.0-1.0-1.0-0.0-1.32","4","4","4","3","3","4","3","3","4","4","5","0","0","0","1","-1","1","1","1","4","4","5","5","4","4","4","4","5","4","6","7","6","7","6","6","7","8","8","5","4","3","5","5","3","5","5","5","4","7","4","3","5","2","4","4","4","4","2","4","3","5","5","7","4","7","4","5","5","6","5","5","5","7","4","5","4","6","4","6","718763547043037184","li","604","Female","[""好我"",""坏她"",""坏我"",""好她""]","[""强我"",""弱她"",""弱我"",""强她""]","","","","","","","","","","","","","","","","","","","","","","","","","","","","","","feedback_test","","","","","","","","",""
"691","","f","psychophysics","76","398418","0.0-8.0-1.0-1.0-0.0-0.33","4","4","4","3","3","4","3","3","4","4","5","0","0","0","1","-1","1","1","1","4","4","5","5","4","4","4","4","5","4","6","7","6","7","6","6","7","8","8","5","4","3","5","5","3","5","5","5","4","7","4","3","5","2","4","4","4","4","2","4","3","5","5","7","4","7","4","5","5","6","5","5","5","7","4","5","4","6","4","6","718763547043037184","li","604","Female","[""好我"",""坏她"",""坏我"",""好她""]","[""强我"",""弱她"",""弱我"",""强她""]","","","","","","","","match","","","","","","","","","","key","f","16.6832699999999","960","536","f","true","match","img/circle.png","弱我","弱我","prac_ALT2_ability","practice_ability","","","","","","","","",""
"null","<span style='color:GreenYellow; font-size: 70px;'>正确! </span>","null","html-keyboard-response","77","398919","0.0-8.0-1.0-1.0-0.0-1.33","4","4","4","3","3","4","3","3","4","4","5","0","0","0","1","-1","1","1","1","4","4","5","5","4","4","4","4","5","4","6","7","6","7","6","6","7","8","8","5","4","3","5","5","3","5","5","5","4","7","4","3","5","2","4","4","4","4","2","4","3","5","5","7","4","7","4","5","5","6","5","5","5","7","4","5","4","6","4","6","718763547043037184","li","604","Female","[""好我"",""坏她"",""坏我"",""好她""]","[""强我"",""弱她"",""弱我"",""强她""]","","","","","","","","","","","","","","","","","","","","","","","","","","","","","","feedback_test","","","","","","","","",""
"986","","j","psychophysics","78","400906","0.0-8.0-1.0-1.0-0.0-0.34","4","4","4","3","3","4","3","3","4","4","5","0","0","0","1","-1","1","1","1","4","4","5","5","4","4","4","4","5","4","6","7","6","7","6","6","7","8","8","5","4","3","5","5","3","5","5","5","4","7","4","3","5","2","4","4","4","4","2","4","3","5","5","7","4","7","4","5","5","6","5","5","5","7","4","5","4","6","4","6","718763547043037184","li","604","Female","[""好我"",""坏她"",""坏我"",""好她""]","[""强我"",""弱她"",""弱我"",""强她""]","","","","","","","","nonmatch","","","","","","","","","","key","j","16.683906779661026","960","536","j","true","nonmatch","img/trapezoid.png","弱她","强我","prac_ALT2_ability","practice_ability","","","","","","","","",""
"null","<span style='color:GreenYellow; font-size: 70px;'>正确! </span>","null","html-keyboard-response","79","401407","0.0-8.0-1.0-1.0-0.0-1.34","4","4","4","3","3","4","3","3","4","4","5","0","0","0","1","-1","1","1","1","4","4","5","5","4","4","4","4","5","4","6","7","6","7","6","6","7","8","8","5","4","3","5","5","3","5","5","5","4","7","4","3","5","2","4","4","4","4","2","4","3","5","5","7","4","7","4","5","5","6","5","5","5","7","4","5","4","6","4","6","718763547043037184","li","604","Female","[""好我"",""坏她"",""坏我"",""好她""]","[""强我"",""弱她"",""弱我"",""强她""]","","","","","","","","","","","","","","","","","","","","","","","","","","","","","","feedback_test","","","","","","","","",""
"763","","f","psychophysics","80","403170","0.0-8.0-1.0-1.0-0.0-0.35","4","4","4","3","3","4","3","3","4","4","5","0","0","0","1","-1","1","1","1","4","4","5","5","4","4","4","4","5","4","6","7","6","7","6","6","7","8","8","5","4","3","5","5","3","5","5","5","4","7","4","3","5","2","4","4","4","4","2","4","3","5","5","7","4","7","4","5","5","6","5","5","5","7","4","5","4","6","4","6","718763547043037184","li","604","Female","[""好我"",""坏她"",""坏我"",""好她""]","[""强我"",""弱她"",""弱我"",""强她""]","","","","","","","","match","","","","","","","","","","key","f","16.68424761904725","960","536","f","true","match","img/circle.png","弱我","弱我","prac_ALT2_ability","practice_ability","","","","","","","","",""
"null","<span style='color:GreenYellow; font-size: 70px;'>正确! </span>","null","html-keyboard-response","81","403671","0.0-8.0-1.0-1.0-0.0-1.35","4","4","4","3","3","4","3","3","4","4","5","0","0","0","1","-1","1","1","1","4","4","5","5","4","4","4","4","5","4","6","7","6","7","6","6","7","8","8","5","4","3","5","5","3","5","5","5","4","7","4","3","5","2","4","4","4","4","2","4","3","5","5","7","4","7","4","5","5","6","5","5","5","7","4","5","4","6","4","6","718763547043037184","li","604","Female","[""好我"",""坏她"",""坏我"",""好她""]","[""强我"",""弱她"",""弱我"",""强她""]","","","","","","","","","","","","","","","","","","","","","","","","","","","","","","feedback_test","","","","","","","","",""
"826","","j","psychophysics","82","405498","0.0-8.0-1.0-1.0-0.0-0.36","4","4","4","3","3","4","3","3","4","4","5","0","0","0","1","-1","1","1","1","4","4","5","5","4","4","4","4","5","4","6","7","6","7","6","6","7","8","8","5","4","3","5","5","3","5","5","5","4","7","4","3","5","2","4","4","4","4","2","4","3","5","5","7","4","7","4","5","5","6","5","5","5","7","4","5","4","6","4","6","718763547043037184","li","604","Female","[""好我"",""坏她"",""坏我"",""好她""]","[""强我"",""弱她"",""弱我"",""强她""]","","","","","","","","nonmatch","","","","","","","","","","key","j","16.68316666666619","960","536","j","true","nonmatch","img/trapezoid.png","弱我","强我","prac_ALT2_ability","practice_ability","","","","","","","","",""
"null","<span style='color:GreenYellow; font-size: 70px;'>正确! </span>","null","html-keyboard-response","83","405999","0.0-8.0-1.0-1.0-0.0-1.36","4","4","4","3","3","4","3","3","4","4","5","0","0","0","1","-1","1","1","1","4","4","5","5","4","4","4","4","5","4","6","7","6","7","6","6","7","8","8","5","4","3","5","5","3","5","5","5","4","7","4","3","5","2","4","4","4","4","2","4","3","5","5","7","4","7","4","5","5","6","5","5","5","7","4","5","4","6","4","6","718763547043037184","li","604","Female","[""好我"",""坏她"",""坏我"",""好她""]","[""强我"",""弱她"",""弱我"",""强她""]","","","","","","","","","","","","","","","","","","","","","","","","","","","","","","feedback_test","","","","","","","","",""
"874","","j","psychophysics","84","407874","0.0-8.0-1.0-1.0-0.0-0.37","4","4","4","3","3","4","3","3","4","4","5","0","0","0","1","-1","1","1","1","4","4","5","5","4","4","4","4","5","4","6","7","6","7","6","6","7","8","8","5","4","3","5","5","3","5","5","5","4","7","4","3","5","2","4","4","4","4","2","4","3","5","5","7","4","7","4","5","5","6","5","5","5","7","4","5","4","6","4","6","718763547043037184","li","604","Female","[""好我"",""坏她"",""坏我"",""好她""]","[""强我"",""弱她"",""弱我"",""强她""]","","","","","","","","nonmatch","","","","","","","","","","key","j","16.68299107142853","960","536","j","true","nonmatch","img/circle.png","强她","弱我","prac_ALT2_ability","practice_ability","","","","","","","","",""
"null","<span style='color:GreenYellow; font-size: 70px;'>正确! </span>","null","html-keyboard-response","85","408375","0.0-8.0-1.0-1.0-0.0-1.37","4","4","4","3","3","4","3","3","4","4","5","0","0","0","1","-1","1","1","1","4","4","5","5","4","4","4","4","5","4","6","7","6","7","6","6","7","8","8","5","4","3","5","5","3","5","5","5","4","7","4","3","5","2","4","4","4","4","2","4","3","5","5","7","4","7","4","5","5","6","5","5","5","7","4","5","4","6","4","6","718763547043037184","li","604","Female","[""好我"",""坏她"",""坏我"",""好她""]","[""强我"",""弱她"",""弱我"",""强她""]","","","","","","","","","","","","","","","","","","","","","","","","","","","","","","feedback_test","","","","","","","","",""
"994","","j","psychophysics","86","410370","0.0-8.0-1.0-1.0-0.0-0.38","4","4","4","3","3","4","3","3","4","4","5","0","0","0","1","-1","1","1","1","4","4","5","5","4","4","4","4","5","4","6","7","6","7","6","6","7","8","8","5","4","3","5","5","3","5","5","5","4","7","4","3","5","2","4","4","4","4","2","4","3","5","5","7","4","7","4","5","5","6","5","5","5","7","4","5","4","6","4","6","718763547043037184","li","604","Female","[""好我"",""坏她"",""坏我"",""好她""]","[""强我"",""弱她"",""弱我"",""强她""]","","","","","","","","nonmatch","","","","","","","","","","key","j","16.6835508474575","960","536","f","false","match","img/trapezoid.png","强我","强我","prac_ALT2_ability","practice_ability","","","","","","","","",""
"null","<span style='color:red; font-size: 70px;'>错误! </span>","null","html-keyboard-response","87","410871","0.0-8.0-1.0-1.0-0.0-1.38","4","4","4","3","3","4","3","3","4","4","5","0","0","0","1","-1","1","1","1","4","4","5","5","4","4","4","4","5","4","6","7","6","7","6","6","7","8","8","5","4","3","5","5","3","5","5","5","4","7","4","3","5","2","4","4","4","4","2","4","3","5","5","7","4","7","4","5","5","6","5","5","5","7","4","5","4","6","4","6","718763547043037184","li","604","Female","[""好我"",""坏她"",""坏我"",""好她""]","[""强我"",""弱她"",""弱我"",""强她""]","","","","","","","","","","","","","","","","","","","","","","","","","","","","","","feedback_test","","","","","","","","",""
"858","","j","psychophysics","88","412730","0.0-8.0-1.0-1.0-0.0-0.39","4","4","4","3","3","4","3","3","4","4","5","0","0","0","1","-1","1","1","1","4","4","5","5","4","4","4","4","5","4","6","7","6","7","6","6","7","8","8","5","4","3","5","5","3","5","5","5","4","7","4","3","5","2","4","4","4","4","2","4","3","5","5","7","4","7","4","5","5","6","5","5","5","7","4","5","4","6","4","6","718763547043037184","li","604","Female","[""好我"",""坏她"",""坏我"",""好她""]","[""强我"",""弱她"",""弱我"",""强她""]","","","","","","","","nonmatch","","","","","","","","","","key","j","16.68421621621599","960","536","j","true","nonmatch","img/circle.png","强我","弱我","prac_ALT2_ability","practice_ability","","","","","","","","",""
"null","<span style='color:GreenYellow; font-size: 70px;'>正确! </span>","null","html-keyboard-response","89","413231","0.0-8.0-1.0-1.0-0.0-1.39","4","4","4","3","3","4","3","3","4","4","5","0","0","0","1","-1","1","1","1","4","4","5","5","4","4","4","4","5","4","6","7","6","7","6","6","7","8","8","5","4","3","5","5","3","5","5","5","4","7","4","3","5","2","4","4","4","4","2","4","3","5","5","7","4","7","4","5","5","6","5","5","5","7","4","5","4","6","4","6","718763547043037184","li","604","Female","[""好我"",""坏她"",""坏我"",""好她""]","[""强我"",""弱她"",""弱我"",""强她""]","","","","","","","","","","","","","","","","","","","","","","","","","","","","","","feedback_test","","","","","","","","",""
"882","","f","psychophysics","90","415114","0.0-8.0-1.0-1.0-0.0-0.40","4","4","4","3","3","4","3","3","4","4","5","0","0","0","1","-1","1","1","1","4","4","5","5","4","4","4","4","5","4","6","7","6","7","6","6","7","8","8","5","4","3","5","5","3","5","5","5","4","7","4","3","5","2","4","4","4","4","2","4","3","5","5","7","4","7","4","5","5","6","5","5","5","7","4","5","4","6","4","6","718763547043037184","li","604","Female","[""好我"",""坏她"",""坏我"",""好她""]","[""强我"",""弱她"",""弱我"",""强她""]","","","","","","","","match","","","","","","","","","","key","f","16.683285714285635","960","536","j","false","nonmatch","img/trapezoid.png","强她","强我","prac_ALT2_ability","practice_ability","","","","","","","","",""
"null","<span style='color:red; font-size: 70px;'>错误! </span>","null","html-keyboard-response","91","415615","0.0-8.0-1.0-1.0-0.0-1.40","4","4","4","3","3","4","3","3","4","4","5","0","0","0","1","-1","1","1","1","4","4","5","5","4","4","4","4","5","4","6","7","6","7","6","6","7","8","8","5","4","3","5","5","3","5","5","5","4","7","4","3","5","2","4","4","4","4","2","4","3","5","5","7","4","7","4","5","5","6","5","5","5","7","4","5","4","6","4","6","718763547043037184","li","604","Female","[""好我"",""坏她"",""坏我"",""好她""]","[""强我"",""弱她"",""弱我"",""强她""]","","","","","","","","","","","","","","","","","","","","","","","","","","","","","","feedback_test","","","","","","","","",""
"906","","j","psychophysics","92","417522","0.0-8.0-1.0-1.0-0.0-0.41","4","4","4","3","3","4","3","3","4","4","5","0","0","0","1","-1","1","1","1","4","4","5","5","4","4","4","4","5","4","6","7","6","7","6","6","7","8","8","5","4","3","5","5","3","5","5","5","4","7","4","3","5","2","4","4","4","4","2","4","3","5","5","7","4","7","4","5","5","6","5","5","5","7","4","5","4","6","4","6","718763547043037184","li","604","Female","[""好我"",""坏她"",""坏我"",""好她""]","[""强我"",""弱她"",""弱我"",""强她""]","","","","","","","","nonmatch","","","","","","","","","","key","j","16.68306194690254","960","536","j","true","nonmatch","img/pentagon.png","强我","强她","prac_ALT2_ability","practice_ability","","","","","","","","",""
"null","<span style='color:GreenYellow; font-size: 70px;'>正确! </span>","null","html-keyboard-response","93","418024","0.0-8.0-1.0-1.0-0.0-1.41","4","4","4","3","3","4","3","3","4","4","5","0","0","0","1","-1","1","1","1","4","4","5","5","4","4","4","4","5","4","6","7","6","7","6","6","7","8","8","5","4","3","5","5","3","5","5","5","4","7","4","3","5","2","4","4","4","4","2","4","3","5","5","7","4","7","4","5","5","6","5","5","5","7","4","5","4","6","4","6","718763547043037184","li","604","Female","[""好我"",""坏她"",""坏我"",""好她""]","[""强我"",""弱她"",""弱我"",""强她""]","","","","","","","","","","","","","","","","","","","","","","","","","","","","","","feedback_test","","","","","","","","",""
"794","","f","psychophysics","94","419819","0.0-8.0-1.0-1.0-0.0-0.42","4","4","4","3","3","4","3","3","4","4","5","0","0","0","1","-1","1","1","1","4","4","5","5","4","4","4","4","5","4","6","7","6","7","6","6","7","8","8","5","4","3","5","5","3","5","5","5","4","7","4","3","5","2","4","4","4","4","2","4","3","5","5","7","4","7","4","5","5","6","5","5","5","7","4","5","4","6","4","6","718763547043037184","li","604","Female","[""好我"",""坏她"",""坏我"",""好她""]","[""强我"",""弱她"",""弱我"",""强她""]","","","","","","","","match","","","","","","","","","","key","f","16.684252336448292","960","536","f","true","match","img/pentagon.png","强她","强她","prac_ALT2_ability","practice_ability","","","","","","","","",""
"null","<span style='color:GreenYellow; font-size: 70px;'>正确! </span>","null","html-keyboard-response","95","420320","0.0-8.0-1.0-1.0-0.0-1.42","4","4","4","3","3","4","3","3","4","4","5","0","0","0","1","-1","1","1","1","4","4","5","5","4","4","4","4","5","4","6","7","6","7","6","6","7","8","8","5","4","3","5","5","3","5","5","5","4","7","4","3","5","2","4","4","4","4","2","4","3","5","5","7","4","7","4","5","5","6","5","5","5","7","4","5","4","6","4","6","718763547043037184","li","604","Female","[""好我"",""坏她"",""坏我"",""好她""]","[""强我"",""弱她"",""弱我"",""强她""]","","","","","","","","","","","","","","","","","","","","","","","","","","","","","","feedback_test","","","","","","","","",""
"913","","j","psychophysics","96","422234","0.0-8.0-1.0-1.0-0.0-0.43","4","4","4","3","3","4","3","3","4","4","5","0","0","0","1","-1","1","1","1","4","4","5","5","4","4","4","4","5","4","6","7","6","7","6","6","7","8","8","5","4","3","5","5","3","5","5","5","4","7","4","3","5","2","4","4","4","4","2","4","3","5","5","7","4","7","4","5","5","6","5","5","5","7","4","5","4","6","4","6","718763547043037184","li","604","Female","[""好我"",""坏她"",""坏我"",""好她""]","[""强我"",""弱她"",""弱我"",""强她""]","","","","","","","","nonmatch","","","","","","","","","","key","j","16.68332743362845","960","536","j","true","nonmatch","img/circle.png","弱她","弱我","prac_ALT2_ability","practice_ability","","","","","","","","",""
"null","<span style='color:GreenYellow; font-size: 70px;'>正确! </span>","null","html-keyboard-response","97","422735","0.0-8.0-1.0-1.0-0.0-1.43","4","4","4","3","3","4","3","3","4","4","5","0","0","0","1","-1","1","1","1","4","4","5","5","4","4","4","4","5","4","6","7","6","7","6","6","7","8","8","5","4","3","5","5","3","5","5","5","4","7","4","3","5","2","4","4","4","4","2","4","3","5","5","7","4","7","4","5","5","6","5","5","5","7","4","5","4","6","4","6","718763547043037184","li","604","Female","[""好我"",""坏她"",""坏我"",""好她""]","[""强我"",""弱她"",""弱我"",""强她""]","","","","","","","","","","","","","","","","","","","","","","","","","","","","","","feedback_test","","","","","","","","",""
"882","","j","psychophysics","98","424618","0.0-8.0-1.0-1.0-0.0-0.44","4","4","4","3","3","4","3","3","4","4","5","0","0","0","1","-1","1","1","1","4","4","5","5","4","4","4","4","5","4","6","7","6","7","6","6","7","8","8","5","4","3","5","5","3","5","5","5","4","7","4","3","5","2","4","4","4","4","2","4","3","5","5","7","4","7","4","5","5","6","5","5","5","7","4","5","4","6","4","6","718763547043037184","li","604","Female","[""好我"",""坏她"",""坏我"",""好她""]","[""强我"",""弱她"",""弱我"",""强她""]","","","","","","","","nonmatch","","","","","","","","","","key","j","16.683324324324737","960","536","j","true","nonmatch","img/triangle.png","弱我","弱她","prac_ALT2_ability","practice_ability","","","","","","","","",""
"null","<span style='color:GreenYellow; font-size: 70px;'>正确! </span>","null","html-keyboard-response","99","425119","0.0-8.0-1.0-1.0-0.0-1.44","4","4","4","3","3","4","3","3","4","4","5","0","0","0","1","-1","1","1","1","4","4","5","5","4","4","4","4","5","4","6","7","6","7","6","6","7","8","8","5","4","3","5","5","3","5","5","5","4","7","4","3","5","2","4","4","4","4","2","4","3","5","5","7","4","7","4","5","5","6","5","5","5","7","4","5","4","6","4","6","718763547043037184","li","604","Female","[""好我"",""坏她"",""坏我"",""好她""]","[""强我"",""弱她"",""弱我"",""强她""]","","","","","","","","","","","","","","","","","","","","","","","","","","","","","","feedback_test","","","","","","","","",""
"945","","j","psychophysics","100","427066","0.0-8.0-1.0-1.0-0.0-0.45","4","4","4","3","3","4","3","3","4","4","5","0","0","0","1","-1","1","1","1","4","4","5","5","4","4","4","4","5","4","6","7","6","7","6","6","7","8","8","5","4","3","5","5","3","5","5","5","4","7","4","3","5","2","4","4","4","4","2","4","3","5","5","7","4","7","4","5","5","6","5","5","5","7","4","5","4","6","4","6","718763547043037184","li","604","Female","[""好我"",""坏她"",""坏我"",""好她""]","[""强我"",""弱她"",""弱我"",""强她""]","","","","","","","","nonmatch","","","","","","","","","","key","j","16.683594827585882","960","536","f","false","match","img/triangle.png","弱她","弱她","prac_ALT2_ability","practice_ability","","","","","","","","",""
"null","<span style='color:red; font-size: 70px;'>错误! </span>","null","html-keyboard-response","101","427568","0.0-8.0-1.0-1.0-0.0-1.45","4","4","4","3","3","4","3","3","4","4","5","0","0","0","1","-1","1","1","1","4","4","5","5","4","4","4","4","5","4","6","7","6","7","6","6","7","8","8","5","4","3","5","5","3","5","5","5","4","7","4","3","5","2","4","4","4","4","2","4","3","5","5","7","4","7","4","5","5","6","5","5","5","7","4","5","4","6","4","6","718763547043037184","li","604","Female","[""好我"",""坏她"",""坏我"",""好她""]","[""强我"",""弱她"",""弱我"",""强她""]","","","","","","","","","","","","","","","","","","","","","","","","","","","","","","feedback_test","","","","","","","","",""
"906","","j","psychophysics","102","429474","0.0-8.0-1.0-1.0-0.0-0.46","4","4","4","3","3","4","3","3","4","4","5","0","0","0","1","-1","1","1","1","4","4","5","5","4","4","4","4","5","4","6","7","6","7","6","6","7","8","8","5","4","3","5","5","3","5","5","5","4","7","4","3","5","2","4","4","4","4","2","4","3","5","5","7","4","7","4","5","5","6","5","5","5","7","4","5","4","6","4","6","718763547043037184","li","604","Female","[""好我"",""坏她"",""坏我"",""好她""]","[""强我"",""弱她"",""弱我"",""强她""]","","","","","","","","nonmatch","","","","","","","","","","key","j","16.683513274336484","960","536","j","true","nonmatch","img/triangle.png","强我","弱她","prac_ALT2_ability","practice_ability","","","","","","","","",""
"null","<span style='color:GreenYellow; font-size: 70px;'>正确! </span>","null","html-keyboard-response","103","429975","0.0-8.0-1.0-1.0-0.0-1.46","4","4","4","3","3","4","3","3","4","4","5","0","0","0","1","-1","1","1","1","4","4","5","5","4","4","4","4","5","4","6","7","6","7","6","6","7","8","8","5","4","3","5","5","3","5","5","5","4","7","4","3","5","2","4","4","4","4","2","4","3","5","5","7","4","7","4","5","5","6","5","5","5","7","4","5","4","6","4","6","718763547043037184","li","604","Female","[""好我"",""坏她"",""坏我"",""好她""]","[""强我"",""弱她"",""弱我"",""强她""]","","","","","","","","","","","","","","","","","","","","","","","","","","","","","","feedback_test","","","","","","","","",""
"937","","j","psychophysics","104","431914","0.0-8.0-1.0-1.0-0.0-0.47","4","4","4","3","3","4","3","3","4","4","5","0","0","0","1","-1","1","1","1","4","4","5","5","4","4","4","4","5","4","6","7","6","7","6","6","7","8","8","5","4","3","5","5","3","5","5","5","4","7","4","3","5","2","4","4","4","4","2","4","3","5","5","7","4","7","4","5","5","6","5","5","5","7","4","5","4","6","4","6","718763547043037184","li","604","Female","[""好我"",""坏她"",""坏我"",""好她""]","[""强我"",""弱她"",""弱我"",""强她""]","","","","","","","","nonmatch","","","","","","","","","","key","j","16.683139130434668","960","536","f","false","match","img/pentagon.png","强她","强她","prac_ALT2_ability","practice_ability","","","","","","","","",""
"null","<span style='color:red; font-size: 70px;'>错误! </span>","null","html-keyboard-response","105","432415","0.0-8.0-1.0-1.0-0.0-1.47","4","4","4","3","3","4","3","3","4","4","5","0","0","0","1","-1","1","1","1","4","4","5","5","4","4","4","4","5","4","6","7","6","7","6","6","7","8","8","5","4","3","5","5","3","5","5","5","4","7","4","3","5","2","4","4","4","4","2","4","3","5","5","7","4","7","4","5","5","6","5","5","5","7","4","5","4","6","4","6","718763547043037184","li","604","Female","[""好我"",""坏她"",""坏我"",""好她""]","[""强我"",""弱她"",""弱我"",""强她""]","","","","","","","","","","","","","","","","","","","","","","","","","","","","","","feedback_test","","","","","","","","",""
"1738","<style>.context{color:white; font-size: 35px; line-height:40px}</style>                          <div><p class='context'>您正确回答了65% 的试次。</p><p class='context'>您的平均反应时为866毫秒。</p><p class='context'>恭喜您完成练习。按空格键进入正式实验。</p><p class='footer' style='color:white;font-size: 35px; line-height:40px;'>请在进入正式实验实验之前将您的<span style='color: lightgreen;'>食指</span>放在电脑键盘的相应键位上进行按键。</p>"," ","html-keyboard-response","106","434154","0.0-8.0-1.0-2.0","4","4","4","3","3","4","3","3","4","4","5","0","0","0","1","-1","1","1","1","4","4","5","5","4","4","4","4","5","4","6","7","6","7","6","6","7","8","8","5","4","3","5","5","3","5","5","5","4","7","4","3","5","2","4","4","4","4","2","4","3","5","5","7","4","7","4","5","5","6","5","5","5","7","4","5","4","6","4","6","718763547043037184","li","604","Female","[""好我"",""坏她"",""坏我"",""好她""]","[""强我"",""弱她"",""弱我"",""强她""]","","","","","","","","","","","","","","","","","","","","","","","","","","","","","","","","","","","","","","",""
"1029","
  <p style='color: white; font-size: 22px'>请您将手指放在按键上，准备进入正式的匹配任务。</p>
  <p> <div style = ""color: green""><按空格键进入下一阶段的匹配任务></div></p>
  "," ","html-keyboard-response","107","435186","0.0-8.0-1.0-3.0","4","4","4","3","3","4","3","3","4","4","5","0","0","0","1","-1","1","1","1","4","4","5","5","4","4","4","4","5","4","6","7","6","7","6","6","7","8","8","5","4","3","5","5","3","5","5","5","4","7","4","3","5","2","4","4","4","4","2","4","3","5","5","7","4","7","4","5","5","6","5","5","5","7","4","5","4","6","4","6","718763547043037184","li","604","Female","[""好我"",""坏她"",""坏我"",""好她""]","[""强我"",""弱她"",""弱我"",""强她""]","","","","","","","","","","","","","","","","","","","","","","","","","","","","","","","","","","","","","","",""
"959","","f","psychophysics","108","437146","0.0-8.0-1.0-4.0-0.0-0.0","4","4","4","3","3","4","3","3","4","4","5","0","0","0","1","-1","1","1","1","4","4","5","5","4","4","4","4","5","4","6","7","6","7","6","6","7","8","8","5","4","3","5","5","3","5","5","5","4","7","4","3","5","2","4","4","4","4","2","4","3","5","5","7","4","7","4","5","5","6","5","5","5","7","4","5","4","6","4","6","718763547043037184","li","604","Female","[""好我"",""坏她"",""坏我"",""好她""]","[""强我"",""弱她"",""弱我"",""强她""]","","","","","","","","match","","","","","","","","","","key","f","16.683465517240933","960","536","f","true","match","img/triangle.png","弱她","弱她","ALT2","ability","","","","","","","","",""
"null","<span style='color:GreenYellow; font-size: 70px;'>正确! </span>","null","html-keyboard-response","109","437647","0.0-8.0-1.0-4.0-0.0-1.0","4","4","4","3","3","4","3","3","4","4","5","0","0","0","1","-1","1","1","1","4","4","5","5","4","4","4","4","5","4","6","7","6","7","6","6","7","8","8","5","4","3","5","5","3","5","5","5","4","7","4","3","5","2","4","4","4","4","2","4","3","5","5","7","4","7","4","5","5","6","5","5","5","7","4","5","4","6","4","6","718763547043037184","li","604","Female","[""好我"",""坏她"",""坏我"",""好她""]","[""强我"",""弱她"",""弱我"",""强她""]","","","","","","","","","","","","","","","","","","","","","","","","","","","","","","feedback_test","","","","","","","","",""
"962","","f","psychophysics","110","439610","0.0-8.0-1.0-4.0-0.0-0.1","4","4","4","3","3","4","3","3","4","4","5","0","0","0","1","-1","1","1","1","4","4","5","5","4","4","4","4","5","4","6","7","6","7","6","6","7","8","8","5","4","3","5","5","3","5","5","5","4","7","4","3","5","2","4","4","4","4","2","4","3","5","5","7","4","7","4","5","5","6","5","5","5","7","4","5","4","6","4","6","718763547043037184","li","604","Female","[""好我"",""坏她"",""坏我"",""好她""]","[""强我"",""弱她"",""弱我"",""强她""]","","","","","","","","match","","","","","","","","","","key","f","16.683974358974062","960","536","j","false","nonmatch","img/trapezoid.png","强她","强我","ALT2","ability","","","","","","","","",""
"null","<span style='color:red; font-size: 70px;'>错误! </span>","null","html-keyboard-response","111","440111","0.0-8.0-1.0-4.0-0.0-1.1","4","4","4","3","3","4","3","3","4","4","5","0","0","0","1","-1","1","1","1","4","4","5","5","4","4","4","4","5","4","6","7","6","7","6","6","7","8","8","5","4","3","5","5","3","5","5","5","4","7","4","3","5","2","4","4","4","4","2","4","3","5","5","7","4","7","4","5","5","6","5","5","5","7","4","5","4","6","4","6","718763547043037184","li","604","Female","[""好我"",""坏她"",""坏我"",""好她""]","[""强我"",""弱她"",""弱我"",""强她""]","","","","","","","","","","","","","","","","","","","","","","","","","","","","","","feedback_test","","","","","","","","",""
"842","","j","psychophysics","112","441954","0.0-8.0-1.0-4.0-0.0-0.2","4","4","4","3","3","4","3","3","4","4","5","0","0","0","1","-1","1","1","1","4","4","5","5","4","4","4","4","5","4","6","7","6","7","6","6","7","8","8","5","4","3","5","5","3","5","5","5","4","7","4","3","5","2","4","4","4","4","2","4","3","5","5","7","4","7","4","5","5","6","5","5","5","7","4","5","4","6","4","6","718763547043037184","li","604","Female","[""好我"",""坏她"",""坏我"",""好她""]","[""强我"",""弱她"",""弱我"",""强她""]","","","","","","","","nonmatch","","","","","","","","","","key","j","16.683100917431048","960","536","j","true","nonmatch","img/pentagon.png","弱我","强她","ALT2","ability","","","","","","","","",""
"null","<span style='color:GreenYellow; font-size: 70px;'>正确! </span>","null","html-keyboard-response","113","442455","0.0-8.0-1.0-4.0-0.0-1.2","4","4","4","3","3","4","3","3","4","4","5","0","0","0","1","-1","1","1","1","4","4","5","5","4","4","4","4","5","4","6","7","6","7","6","6","7","8","8","5","4","3","5","5","3","5","5","5","4","7","4","3","5","2","4","4","4","4","2","4","3","5","5","7","4","7","4","5","5","6","5","5","5","7","4","5","4","6","4","6","718763547043037184","li","604","Female","[""好我"",""坏她"",""坏我"",""好她""]","[""强我"",""弱她"",""弱我"",""强她""]","","","","","","","","","","","","","","","","","","","","","","","","","","","","","","feedback_test","","","","","","","","",""
"882","","f","psychophysics","114","444338","0.0-8.0-1.0-4.0-0.0-0.3","4","4","4","3","3","4","3","3","4","4","5","0","0","0","1","-1","1","1","1","4","4","5","5","4","4","4","4","5","4","6","7","6","7","6","6","7","8","8","5","4","3","5","5","3","5","5","5","4","7","4","3","5","2","4","4","4","4","2","4","3","5","5","7","4","7","4","5","5","6","5","5","5","7","4","5","4","6","4","6","718763547043037184","li","604","Female","[""好我"",""坏她"",""坏我"",""好她""]","[""强我"",""弱她"",""弱我"",""强她""]","","","","","","","","match","","","","","","","","","","key","f","16.683387387387647","960","536","f","true","match","img/pentagon.png","强她","强她","ALT2","ability","","","","","","","","",""
"null","<span style='color:GreenYellow; font-size: 70px;'>正确! </span>","null","html-keyboard-response","115","444838","0.0-8.0-1.0-4.0-0.0-1.3","4","4","4","3","3","4","3","3","4","4","5","0","0","0","1","-1","1","1","1","4","4","5","5","4","4","4","4","5","4","6","7","6","7","6","6","7","8","8","5","4","3","5","5","3","5","5","5","4","7","4","3","5","2","4","4","4","4","2","4","3","5","5","7","4","7","4","5","5","6","5","5","5","7","4","5","4","6","4","6","718763547043037184","li","604","Female","[""好我"",""坏她"",""坏我"",""好她""]","[""强我"",""弱她"",""弱我"",""强她""]","","","","","","","","","","","","","","","","","","","","","","","","","","","","","","feedback_test","","","","","","","","",""
"634","","f","psychophysics","116","446474","0.0-8.0-1.0-4.0-0.0-0.4","4","4","4","3","3","4","3","3","4","4","5","0","0","0","1","-1","1","1","1","4","4","5","5","4","4","4","4","5","4","6","7","6","7","6","6","7","8","8","5","4","3","5","5","3","5","5","5","4","7","4","3","5","2","4","4","4","4","2","4","3","5","5","7","4","7","4","5","5","6","5","5","5","7","4","5","4","6","4","6","718763547043037184","li","604","Female","[""好我"",""坏她"",""坏我"",""好她""]","[""强我"",""弱她"",""弱我"",""强她""]","","","","","","","","match","","","","","","","","","","key","f","16.68371134020626","960","536","f","true","match","img/pentagon.png","强她","强她","ALT2","ability","","","","","","","","",""
"null","<span style='color:GreenYellow; font-size: 70px;'>正确! </span>","null","html-keyboard-response","117","446975","0.0-8.0-1.0-4.0-0.0-1.4","4","4","4","3","3","4","3","3","4","4","5","0","0","0","1","-1","1","1","1","4","4","5","5","4","4","4","4","5","4","6","7","6","7","6","6","7","8","8","5","4","3","5","5","3","5","5","5","4","7","4","3","5","2","4","4","4","4","2","4","3","5","5","7","4","7","4","5","5","6","5","5","5","7","4","5","4","6","4","6","718763547043037184","li","604","Female","[""好我"",""坏她"",""坏我"",""好她""]","[""强我"",""弱她"",""弱我"",""强她""]","","","","","","","","","","","","","","","","","","","","","","","","","","","","","","feedback_test","","","","","","","","",""
"930","","f","psychophysics","118","448906","0.0-8.0-1.0-4.0-0.0-0.5","4","4","4","3","3","4","3","3","4","4","5","0","0","0","1","-1","1","1","1","4","4","5","5","4","4","4","4","5","4","6","7","6","7","6","6","7","8","8","5","4","3","5","5","3","5","5","5","4","7","4","3","5","2","4","4","4","4","2","4","3","5","5","7","4","7","4","5","5","6","5","5","5","7","4","5","4","6","4","6","718763547043037184","li","604","Female","[""好我"",""坏她"",""坏我"",""好她""]","[""强我"",""弱她"",""弱我"",""强她""]","","","","","","","","match","","","","","","","","","","key","f","16.56555263157893","960","536","f","true","match","img/trapezoid.png","强我","强我","ALT2","ability","","","","","","","","",""
"null","<span style='color:GreenYellow; font-size: 70px;'>正确! </span>","null","html-keyboard-response","119","449408","0.0-8.0-1.0-4.0-0.0-1.5","4","4","4","3","3","4","3","3","4","4","5","0","0","0","1","-1","1","1","1","4","4","5","5","4","4","4","4","5","4","6","7","6","7","6","6","7","8","8","5","4","3","5","5","3","5","5","5","4","7","4","3","5","2","4","4","4","4","2","4","3","5","5","7","4","7","4","5","5","6","5","5","5","7","4","5","4","6","4","6","718763547043037184","li","604","Female","[""好我"",""坏她"",""坏我"",""好她""]","[""强我"",""弱她"",""弱我"",""强她""]","","","","","","","","","","","","","","","","","","","","","","","","","","","","","","feedback_test","","","","","","","","",""
"1199","","f","psychophysics","120","451605","0.0-8.0-1.0-4.0-0.0-0.6","4","4","4","3","3","4","3","3","4","4","5","0","0","0","1","-1","1","1","1","4","4","5","5","4","4","4","4","5","4","6","7","6","7","6","6","7","8","8","5","4","3","5","5","3","5","5","5","4","7","4","3","5","2","4","4","4","4","2","4","3","5","5","7","4","7","4","5","5","6","5","5","5","7","4","5","4","6","4","6","718763547043037184","li","604","Female","[""好我"",""坏她"",""坏我"",""好她""]","[""强我"",""弱她"",""弱我"",""强她""]","","","","","","","","match","","","","","","","","","","key","f","16.68389312977119","960","536","f","true","match","img/triangle.png","弱她","弱她","ALT2","ability","","","","","","","","",""
"null","<span style='color:GreenYellow; font-size: 70px;'>正确! </span>","null","html-keyboard-response","121","452106","0.0-8.0-1.0-4.0-0.0-1.6","4","4","4","3","3","4","3","3","4","4","5","0","0","0","1","-1","1","1","1","4","4","5","5","4","4","4","4","5","4","6","7","6","7","6","6","7","8","8","5","4","3","5","5","3","5","5","5","4","7","4","3","5","2","4","4","4","4","2","4","3","5","5","7","4","7","4","5","5","6","5","5","5","7","4","5","4","6","4","6","718763547043037184","li","604","Female","[""好我"",""坏她"",""坏我"",""好她""]","[""强我"",""弱她"",""弱我"",""强她""]","","","","","","","","","","","","","","","","","","","","","","","","","","","","","","feedback_test","","","","","","","","",""
"963","","j","psychophysics","122","454070","0.0-8.0-1.0-4.0-0.0-0.7","4","4","4","3","3","4","3","3","4","4","5","0","0","0","1","-1","1","1","1","4","4","5","5","4","4","4","4","5","4","6","7","6","7","6","6","7","8","8","5","4","3","5","5","3","5","5","5","4","7","4","3","5","2","4","4","4","4","2","4","3","5","5","7","4","7","4","5","5","6","5","5","5","7","4","5","4","6","4","6","718763547043037184","li","604","Female","[""好我"",""坏她"",""坏我"",""好她""]","[""强我"",""弱她"",""弱我"",""强她""]","","","","","","","","nonmatch","","","","","","","","","","key","j","16.683675213675134","960","536","f","false","match","img/triangle.png","弱她","弱她","ALT2","ability","","","","","","","","",""
"null","<span style='color:red; font-size: 70px;'>错误! </span>","null","html-keyboard-response","123","454571","0.0-8.0-1.0-4.0-0.0-1.7","4","4","4","3","3","4","3","3","4","4","5","0","0","0","1","-1","1","1","1","4","4","5","5","4","4","4","4","5","4","6","7","6","7","6","6","7","8","8","5","4","3","5","5","3","5","5","5","4","7","4","3","5","2","4","4","4","4","2","4","3","5","5","7","4","7","4","5","5","6","5","5","5","7","4","5","4","6","4","6","718763547043037184","li","604","Female","[""好我"",""坏她"",""坏我"",""好她""]","[""强我"",""弱她"",""弱我"",""强她""]","","","","","","","","","","","","","","","","","","","","","","","","","","","","","","feedback_test","","","","","","","","",""
"873","","j","psychophysics","124","456446","0.0-8.0-1.0-4.0-0.0-0.8","4","4","4","3","3","4","3","3","4","4","5","0","0","0","1","-1","1","1","1","4","4","5","5","4","4","4","4","5","4","6","7","6","7","6","6","7","8","8","5","4","3","5","5","3","5","5","5","4","7","4","3","5","2","4","4","4","4","2","4","3","5","5","7","4","7","4","5","5","6","5","5","5","7","4","5","4","6","4","6","718763547043037184","li","604","Female","[""好我"",""坏她"",""坏我"",""好她""]","[""强我"",""弱她"",""弱我"",""强她""]","","","","","","","","nonmatch","","","","","","","","","","key","j","16.683000000000213","960","536","j","true","nonmatch","img/triangle.png","强我","弱她","ALT2","ability","","","","","","","","",""
"null","<span style='color:GreenYellow; font-size: 70px;'>正确! </span>","null","html-keyboard-response","125","456947","0.0-8.0-1.0-4.0-0.0-1.8","4","4","4","3","3","4","3","3","4","4","5","0","0","0","1","-1","1","1","1","4","4","5","5","4","4","4","4","5","4","6","7","6","7","6","6","7","8","8","5","4","3","5","5","3","5","5","5","4","7","4","3","5","2","4","4","4","4","2","4","3","5","5","7","4","7","4","5","5","6","5","5","5","7","4","5","4","6","4","6","718763547043037184","li","604","Female","[""好我"",""坏她"",""坏我"",""好她""]","[""强我"",""弱她"",""弱我"",""强她""]","","","","","","","","","","","","","","","","","","","","","","","","","","","","","","feedback_test","","","","","","","","",""
"1057","","f","psychophysics","126","459005","0.0-8.0-1.0-4.0-0.0-0.9","4","4","4","3","3","4","3","3","4","4","5","0","0","0","1","-1","1","1","1","4","4","5","5","4","4","4","4","5","4","6","7","6","7","6","6","7","8","8","5","4","3","5","5","3","5","5","5","4","7","4","3","5","2","4","4","4","4","2","4","3","5","5","7","4","7","4","5","5","6","5","5","5","7","4","5","4","6","4","6","718763547043037184","li","604","Female","[""好我"",""坏她"",""坏我"",""好她""]","[""强我"",""弱她"",""弱我"",""强她""]","","","","","","","","match","","","","","","","","","","key","f","16.683483606557452","960","536","j","false","nonmatch","img/triangle.png","强她","弱她","ALT2","ability","","","","","","","","",""
"null","<span style='color:red; font-size: 70px;'>错误! </span>","null","html-keyboard-response","127","459519","0.0-8.0-1.0-4.0-0.0-1.9","4","4","4","3","3","4","3","3","4","4","5","0","0","0","1","-1","1","1","1","4","4","5","5","4","4","4","4","5","4","6","7","6","7","6","6","7","8","8","5","4","3","5","5","3","5","5","5","4","7","4","3","5","2","4","4","4","4","2","4","3","5","5","7","4","7","4","5","5","6","5","5","5","7","4","5","4","6","4","6","718763547043037184","li","604","Female","[""好我"",""坏她"",""坏我"",""好她""]","[""强我"",""弱她"",""弱我"",""强她""]","","","","","","","","","","","","","","","","","","","","","","","","","","","","","","feedback_test","","","","","","","","",""
"1028","","f","psychophysics","128","461549","0.0-8.0-1.0-4.0-0.0-0.10","4","4","4","3","3","4","3","3","4","4","5","0","0","0","1","-1","1","1","1","4","4","5","5","4","4","4","4","5","4","6","7","6","7","6","6","7","8","8","5","4","3","5","5","3","5","5","5","4","7","4","3","5","2","4","4","4","4","2","4","3","5","5","7","4","7","4","5","5","6","5","5","5","7","4","5","4","6","4","6","718763547043037184","li","604","Female","[""好我"",""坏她"",""坏我"",""好她""]","[""强我"",""弱她"",""弱我"",""强她""]","","","","","","","","match","","","","","","","","","","key","f","16.682733333333452","960","536","f","true","match","img/trapezoid.png","强我","强我","ALT2","ability","","","","","","","","",""
"null","<span style='color:GreenYellow; font-size: 70px;'>正确! </span>","null","html-keyboard-response","129","462050","0.0-8.0-1.0-4.0-0.0-1.10","4","4","4","3","3","4","3","3","4","4","5","0","0","0","1","-1","1","1","1","4","4","5","5","4","4","4","4","5","4","6","7","6","7","6","6","7","8","8","5","4","3","5","5","3","5","5","5","4","7","4","3","5","2","4","4","4","4","2","4","3","5","5","7","4","7","4","5","5","6","5","5","5","7","4","5","4","6","4","6","718763547043037184","li","604","Female","[""好我"",""坏她"",""坏我"",""好她""]","[""强我"",""弱她"",""弱我"",""强她""]","","","","","","","","","","","","","","","","","","","","","","","","","","","","","","feedback_test","","","","","","","","",""
"858","","j","psychophysics","130","463909","0.0-8.0-1.0-4.0-0.0-0.11","4","4","4","3","3","4","3","3","4","4","5","0","0","0","1","-1","1","1","1","4","4","5","5","4","4","4","4","5","4","6","7","6","7","6","6","7","8","8","5","4","3","5","5","3","5","5","5","4","7","4","3","5","2","4","4","4","4","2","4","3","5","5","7","4","7","4","5","5","6","5","5","5","7","4","5","4","6","4","6","718763547043037184","li","604","Female","[""好我"",""坏她"",""坏我"",""好她""]","[""强我"",""弱她"",""弱我"",""强她""]","","","","","","","","nonmatch","","","","","","","","","","key","j","16.684072072071817","960","536","j","true","nonmatch","img/pentagon.png","强我","强她","ALT2","ability","","","","","","","","",""
"null","<span style='color:GreenYellow; font-size: 70px;'>正确! </span>","null","html-keyboard-response","131","464411","0.0-8.0-1.0-4.0-0.0-1.11","4","4","4","3","3","4","3","3","4","4","5","0","0","0","1","-1","1","1","1","4","4","5","5","4","4","4","4","5","4","6","7","6","7","6","6","7","8","8","5","4","3","5","5","3","5","5","5","4","7","4","3","5","2","4","4","4","4","2","4","3","5","5","7","4","7","4","5","5","6","5","5","5","7","4","5","4","6","4","6","718763547043037184","li","604","Female","[""好我"",""坏她"",""坏我"",""好她""]","[""强我"",""弱她"",""弱我"",""强她""]","","","","","","","","","","","","","","","","","","","","","","","","","","","","","","feedback_test","","","","","","","","",""
"1049","","j","psychophysics","132","466461","0.0-8.0-1.0-4.0-0.0-0.12","4","4","4","3","3","4","3","3","4","4","5","0","0","0","1","-1","1","1","1","4","4","5","5","4","4","4","4","5","4","6","7","6","7","6","6","7","8","8","5","4","3","5","5","3","5","5","5","4","7","4","3","5","2","4","4","4","4","2","4","3","5","5","7","4","7","4","5","5","6","5","5","5","7","4","5","4","6","4","6","718763547043037184","li","604","Female","[""好我"",""坏她"",""坏我"",""好她""]","[""强我"",""弱她"",""弱我"",""强她""]","","","","","","","","nonmatch","","","","","","","","","","key","j","16.684196721311547","960","536","j","true","nonmatch","img/trapezoid.png","弱我","强我","ALT2","ability","","","","","","","","",""
"null","<span style='color:GreenYellow; font-size: 70px;'>正确! </span>","null","html-keyboard-response","133","466962","0.0-8.0-1.0-4.0-0.0-1.12","4","4","4","3","3","4","3","3","4","4","5","0","0","0","1","-1","1","1","1","4","4","5","5","4","4","4","4","5","4","6","7","6","7","6","6","7","8","8","5","4","3","5","5","3","5","5","5","4","7","4","3","5","2","4","4","4","4","2","4","3","5","5","7","4","7","4","5","5","6","5","5","5","7","4","5","4","6","4","6","718763547043037184","li","604","Female","[""好我"",""坏她"",""坏我"",""好她""]","[""强我"",""弱她"",""弱我"",""强她""]","","","","","","","","","","","","","","","","","","","","","","","","","","","","","","feedback_test","","","","","","","","",""
"1075","","j","psychophysics","134","469038","0.0-8.0-1.0-4.0-0.0-0.13","4","4","4","3","3","4","3","3","4","4","5","0","0","0","1","-1","1","1","1","4","4","5","5","4","4","4","4","5","4","6","7","6","7","6","6","7","8","8","5","4","3","5","5","3","5","5","5","4","7","4","3","5","2","4","4","4","4","2","4","3","5","5","7","4","7","4","5","5","6","5","5","5","7","4","5","4","6","4","6","718763547043037184","li","604","Female","[""好我"",""坏她"",""坏我"",""好她""]","[""强我"",""弱她"",""弱我"",""强她""]","","","","","","","","nonmatch","","","","","","","","","","key","j","16.683674796748","960","536","f","false","match","img/trapezoid.png","强我","强我","ALT2","ability","","","","","","","","",""
"null","<span style='color:red; font-size: 70px;'>错误! </span>","null","html-keyboard-response","135","469538","0.0-8.0-1.0-4.0-0.0-1.13","4","4","4","3","3","4","3","3","4","4","5","0","0","0","1","-1","1","1","1","4","4","5","5","4","4","4","4","5","4","6","7","6","7","6","6","7","8","8","5","4","3","5","5","3","5","5","5","4","7","4","3","5","2","4","4","4","4","2","4","3","5","5","7","4","7","4","5","5","6","5","5","5","7","4","5","4","6","4","6","718763547043037184","li","604","Female","[""好我"",""坏她"",""坏我"",""好她""]","[""强我"",""弱她"",""弱我"",""强她""]","","","","","","","","","","","","","","","","","","","","","","","","","","","","","","feedback_test","","","","","","","","",""
"978","","j","psychophysics","136","471517","0.0-8.0-1.0-4.0-0.0-0.14","4","4","4","3","3","4","3","3","4","4","5","0","0","0","1","-1","1","1","1","4","4","5","5","4","4","4","4","5","4","6","7","6","7","6","6","7","8","8","5","4","3","5","5","3","5","5","5","4","7","4","3","5","2","4","4","4","4","2","4","3","5","5","7","4","7","4","5","5","6","5","5","5","7","4","5","4","6","4","6","718763547043037184","li","604","Female","[""好我"",""坏她"",""坏我"",""好她""]","[""强我"",""弱她"",""弱我"",""强她""]","","","","","","","","nonmatch","","","","","","","","","","key","j","16.683966101695276","960","536","j","true","nonmatch","img/triangle.png","弱我","弱她","ALT2","ability","","","","","","","","",""
"null","<span style='color:GreenYellow; font-size: 70px;'>正确! </span>","null","html-keyboard-response","137","472018","0.0-8.0-1.0-4.0-0.0-1.14","4","4","4","3","3","4","3","3","4","4","5","0","0","0","1","-1","1","1","1","4","4","5","5","4","4","4","4","5","4","6","7","6","7","6","6","7","8","8","5","4","3","5","5","3","5","5","5","4","7","4","3","5","2","4","4","4","4","2","4","3","5","5","7","4","7","4","5","5","6","5","5","5","7","4","5","4","6","4","6","718763547043037184","li","604","Female","[""好我"",""坏她"",""坏我"",""好她""]","[""强我"",""弱她"",""弱我"",""强她""]","","","","","","","","","","","","","","","","","","","","","","","","","","","","","","feedback_test","","","","","","","","",""
