"rt","stimulus","response","trial_type","trial_index","time_elapsed","internal_node_id","swb_1","swb_2","swb_3","swb_4","swb_5","LOT_1","LOT_2","LOT_3","LOT_4","LOT_5","LOT_6","IPC_1","IPC_2","IPC_3","IPC_4","IPC_5","IPC_6","IPC_7","IPC_8","MorIden_1","MorIden_2","MorIden_3","MorIden_4","MorIden_5","MorIden_6","MorIden_7","MorIden_8","MorIden_9","MorIden_10","moralSeImag_1","moralSeImag_2","moralSeImag_3","moralSeImag_4","moralSeImag_5","moralSeImag_6","moralSeImag_7","moralSeImag_8","moralSeImag_9","sde_1","sde_2","sde_3","sde_4","sde_5","sde_6","sde_7","sde_8","sde_9","sde_10","trap2","sde_11","sde_12","sde_13","sde_14","sde_15","sde_16","sde_17","sde_18","sde_19","sde_20","IM_1","IM_2","IM_3","IM_4","IM_5","IM_6","IM_7","IM_8","IM_9","IM_10","IM_11","IM_12","IM_13","IM_14","IM_15","IM_16","IM_17","IM_18","IM_19","IM_20","subj_idx","friend_name","ParticipantID","Sex","Word","Word2","value","success","timeout","failed_images","failed_audio","failed_video","user_agent","responses","item_order","radio_event_ids","radio_event_times","key_event_times","mouse_event_times","straightlining","zigzagging","honeypot","view_history","response_type","key_press","avg_frame_time","center_x","center_y","correct_response","correct","identity","Image","word","condition","task_id","screen_id","time_stamp","person","valence","domain","math","status","duration","question_order","trap2_item"
"1561","
   <p><div style='color:white; font-size: 25px'>您好，欢迎参加本次实验。</div></p>
   <p><div style='color:white; font-size: 25px'>为充分保障您的权利，请确保您已经知晓并同意《参与实验同意书》以及《数据公开知情同意书》。</div></p>
   <p><div style='color:white; font-size: 25px'>如果您未见过上述内容，请咨询实验员。</div></p>
   <p style='color:white; font-size: 25px'>如果您选择继续实验，则表示您已经清楚两份知情同意书的内容并同意。</p>
   <p><div style = ""color: pink;font-size:30px;"">请确保您记得day0的实验编号，您将在本次实验输入该编号，若您忘记，请咨询实验员后作答。</div></p>
   <p><div style = ""color:lightblue;font-size:25px;"">请您尽可能认真地作答，我们将依据您在各问卷和按键任务中的作答质量发放报酬。</div></p>
   <p> <div style = ""color: green""><按空格键至下页></div> </p>
   "," ","html-keyboard-response","0","1563","0.0-0.0","6","6","7","5","6","5","4","4","5","5","5","-1","-3","2","0","-1","2","1","1","5","5","5","5","4","5","5","4","4","5","8","7","9","8","8","7","7","6","8","6","3","2","6","6","5","7","2","7","5","1","7","6","7","2","6","4","7","3","3","7","2","6","5","2","2","7","6","6","7","7","7","3","3","2","1","6","7","6","3","7","759096644204761089","张","364","Male","[""好我"",""坏他"",""坏我"",""好他""]","[""强我"",""弱他"",""弱我"",""强他""]","","","","","","","","","","","","","","","","","","","","","","","","","","","","","","","","","","","","","","",""
"","","","call-function","1","1563","0.0-1.0-0.0","6","6","7","5","6","5","4","4","5","5","5","-1","-3","2","0","-1","2","1","1","5","5","5","5","4","5","5","4","4","5","8","7","9","8","8","7","7","6","8","6","3","2","6","6","5","7","2","7","5","1","7","6","7","2","6","4","7","3","3","7","2","6","5","2","2","7","6","6","7","7","7","3","3","2","1","6","7","6","3","7","759096644204761089","张","364","Male","[""好我"",""坏他"",""坏我"",""好他""]","[""强我"",""弱他"",""弱我"",""强他""]","","","","","","","","","","","","","","","","","","","","","","","","","","","","","","","","","","","","","","",""
"58975","","[{""name"":""Sex"",""value"":""0""},{""name"":""friend_name"",""value"":""张""},{""name"":""ParticipantID"",""value"":""364""}]","survey-html-form","2","60539","0.0-1.0-1.0","6","6","7","5","6","5","4","4","5","5","5","-1","-3","2","0","-1","2","1","1","5","5","5","5","4","5","5","4","4","5","8","7","9","8","8","7","7","6","8","6","3","2","6","6","5","7","2","7","5","1","7","6","7","2","6","4","7","3","3","7","2","6","5","2","2","7","6","6","7","7","7","3","3","2","1","6","7","6","3","7","759096644204761089","张","364","Male","[""好我"",""坏他"",""坏我"",""好他""]","[""强我"",""弱他"",""弱我"",""强他""]","","","","","","","","","","","","","","","","","","","","","","","","","","","","","","","","","","","","","","",""
"","","","preload","3","61683","0.0-2.0","6","6","7","5","6","5","4","4","5","5","5","-1","-3","2","0","-1","2","1","1","5","5","5","5","4","5","5","4","4","5","8","7","9","8","8","7","7","6","8","6","3","2","6","6","5","7","2","7","5","1","7","6","7","2","6","4","7","3","3","7","2","6","5","2","2","7","6","6","7","7","7","3","3","2","1","6","7","6","3","7","759096644204761089","张","364","Male","[""好我"",""坏他"",""坏我"",""好他""]","[""强我"",""弱他"",""弱我"",""强他""]","","true","false","[]","[]","[]","","","","","","","","","","","","","","","","","","","","","","","","","","","","","","","","",""
"","","","fullscreen","4","62921","0.0-3.0","6","6","7","5","6","5","4","4","5","5","5","-1","-3","2","0","-1","2","1","1","5","5","5","5","4","5","5","4","4","5","8","7","9","8","8","7","7","6","8","6","3","2","6","6","5","7","2","7","5","1","7","6","7","2","6","4","7","3","3","7","2","6","5","2","2","7","6","6","7","7","7","3","3","2","1","6","7","6","3","7","759096644204761089","张","364","Male","[""好我"",""坏他"",""坏我"",""好他""]","[""强我"",""弱他"",""弱我"",""强他""]","","true","","","","","{}","","","","","","","","","","","","","","","","","","","","","","","","","","","","","","","",""
"10601.30000000447","","{""Q01"":""6"",""Q02"":""6"",""Q03"":""7"",""Q04"":""5"",""Q05"":""6""}","survey-template","5","73524","0.0-4.0","6","6","7","5","6","5","4","4","5","5","5","-1","-3","2","0","-1","2","1","1","5","5","5","5","4","5","5","4","4","5","8","7","9","8","8","7","7","6","8","6","3","2","6","6","5","7","2","7","5","1","7","6","7","2","6","4","7","3","3","7","2","6","5","2","2","7","6","6","7","7","7","3","3","2","1","6","7","6","3","7","759096644204761089","张","364","Male","[""好我"",""坏他"",""坏我"",""好他""]","[""强我"",""弱他"",""弱我"",""强他""]","","","","","","","","{""Q01"":""6"",""Q02"":""6"",""Q03"":""7"",""Q04"":""5"",""Q05"":""6""}","[0,1,2,3,4]","[""Q01"",""Q02"",""Q03"",""Q04"",""Q05""]","[2296.2000000029802,6464.4000000059605,6960.10000000149,9034.30000000447,10048.40000000596]","[]","[624.3000000044703,2296.2000000029802,6464.4000000059605,6960.10000000149,9034.30000000447,9640.40000000596,10048.40000000596,10600.40000000596]","0.6","0.5","0","","","","","","","","","","","","","","","","","","","","","","",""
"18732.10000000149","","{""Q01"":""5"",""Q02"":""4"",""Q03"":""4"",""Q04"":""5"",""Q05"":""5"",""Q06"":""5""}","survey-template","6","92260","0.0-5.0","6","6","7","5","6","5","4","4","5","5","5","-1","-3","2","0","-1","2","1","1","5","5","5","5","4","5","5","4","4","5","8","7","9","8","8","7","7","6","8","6","3","2","6","6","5","7","2","7","5","1","7","6","7","2","6","4","7","3","3","7","2","6","5","2","2","7","6","6","7","7","7","3","3","2","1","6","7","6","3","7","759096644204761089","张","364","Male","[""好我"",""坏他"",""坏我"",""好他""]","[""强我"",""弱他"",""弱我"",""强他""]","","","","","","","","{""Q01"":""5"",""Q02"":""4"",""Q03"":""4"",""Q04"":""5"",""Q05"":""5"",""Q06"":""5""}","[0,1,2,3,4,5]","[""Q01"",""Q02"",""Q03"",""Q04"",""Q05"",""Q06""]","[2996.60000000149,8931.19999999553,10243.5,14724,16091.5,18219.29999999702]","[]","[748,2996.60000000149,8931.19999999553,10243.5,14724,16091.5,18219.29999999702,18731.5]","0.3333333333333333","0.2","0","","","","","","","","","","","","","","","","","","","","","","",""
"38013.40000000596","","{""Q01"":""-1"",""Q02"":""-3"",""Q03"":""2"",""Q04"":""0"",""Q05"":""-1"",""Q06"":""2"",""Q07"":""1"",""Q08"":""1""}","survey-template","7","130276","0.0-6.0","6","6","7","5","6","5","4","4","5","5","5","-1","-3","2","0","-1","2","1","1","5","5","5","5","4","5","5","4","4","5","8","7","9","8","8","7","7","6","8","6","3","2","6","6","5","7","2","7","5","1","7","6","7","2","6","4","7","3","3","7","2","6","5","2","2","7","6","6","7","7","7","3","3","2","1","6","7","6","3","7","759096644204761089","张","364","Male","[""好我"",""坏他"",""坏我"",""好他""]","[""强我"",""弱他"",""弱我"",""强他""]","","","","","","","","{""Q01"":""-1"",""Q02"":""-3"",""Q03"":""2"",""Q04"":""0"",""Q05"":""-1"",""Q06"":""2"",""Q07"":""1"",""Q08"":""1""}","[0,1,2,3,4,5,6,7]","[""Q01"",""Q02"",""Q03"",""Q04"",""Q05"",""Q06"",""Q05"",""Q05"",""Q06"",""Q05"",""Q07"",""Q08""]","[2180.9000000059605,5236.4000000059605,7244.80000000447,9293.30000000447,12308.5,13364.5,19284.80000000447,23260.90000000596,25988.80000000447,29772.70000000298,33020.70000000298,35732.80000000447]","[]","[652.9000000059605,2180.9000000059605,5236.4000000059605,5780.60000000149,7244.80000000447,9293.30000000447,9813.10000000149,11484.70000000298,12308.5,13364.5,19284.80000000447,23260.90000000596,24844.90000000596,25988.80000000447,29772.70000000298,30532.60000000149,33020.70000000298,33524.80000000447,34676.90000000596,35156.80000000447,35732.80000000447,36460.80000000447,38012.5]","0.25","0.42857142857142855","0","","","","","","","","","","","","","","","","","","","","","","",""
"11245","","","instructions","8","141523","0.0-7.0","6","6","7","5","6","5","4","4","5","5","5","-1","-3","2","0","-1","2","1","1","5","5","5","5","4","5","5","4","4","5","8","7","9","8","8","7","7","6","8","6","3","2","6","6","5","7","2","7","5","1","7","6","7","2","6","4","7","3","3","7","2","6","5","2","2","7","6","6","7","7","7","3","3","2","1","6","7","6","3","7","759096644204761089","张","364","Male","[""好我"",""坏他"",""坏我"",""好他""]","[""强我"",""弱他"",""弱我"",""强他""]","","","","","","","","","","","","","","","","","[{""page_index"":0,""viewing_time"":11245}]","","","","","","","","","","","","","","","","","","","","","",""
"40719","","","instructions","9","182243","0.0-8.0-0.0-0.0","6","6","7","5","6","5","4","4","5","5","5","-1","-3","2","0","-1","2","1","1","5","5","5","5","4","5","5","4","4","5","8","7","9","8","8","7","7","6","8","6","3","2","6","6","5","7","2","7","5","1","7","6","7","2","6","4","7","3","3","7","2","6","5","2","2","7","6","6","7","7","7","3","3","2","1","6","7","6","3","7","759096644204761089","张","364","Male","[""好我"",""坏他"",""坏我"",""好他""]","[""强我"",""弱他"",""弱我"",""强他""]","","","","","","","","","","","","","","","","","[{""page_index"":0,""viewing_time"":1335},{""page_index"":1,""viewing_time"":37688},{""page_index"":2,""viewing_time"":1008},{""page_index"":3,""viewing_time"":688}]","","","","","","","","","","","","","","","","","","","","","",""
"725","","j","psychophysics","10","183971","0.0-8.0-0.0-1.0-0.0-0.0","6","6","7","5","6","5","4","4","5","5","5","-1","-3","2","0","-1","2","1","1","5","5","5","5","4","5","5","4","4","5","8","7","9","8","8","7","7","6","8","6","3","2","6","6","5","7","2","7","5","1","7","6","7","2","6","4","7","3","3","7","2","6","5","2","2","7","6","6","7","7","7","3","3","2","1","6","7","6","3","7","759096644204761089","张","364","Male","[""好我"",""坏他"",""坏我"",""好他""]","[""强我"",""弱他"",""弱我"",""强他""]","","","","","","","","nonmatch","","","","","","","","","","key","j","16.661058252427253","768","428","j","true","nonmatch","img/circle.png","坏我","好他","prac_ALT2_moral","practice_moral","","","","","","","","",""
"null","<span style='color:GreenYellow; font-size: 70px;'>正确! </span>","null","html-keyboard-response","11","184473","0.0-8.0-0.0-1.0-0.0-1.0","6","6","7","5","6","5","4","4","5","5","5","-1","-3","2","0","-1","2","1","1","5","5","5","5","4","5","5","4","4","5","8","7","9","8","8","7","7","6","8","6","3","2","6","6","5","7","2","7","5","1","7","6","7","2","6","4","7","3","3","7","2","6","5","2","2","7","6","6","7","7","7","3","3","2","1","6","7","6","3","7","759096644204761089","张","364","Male","[""好我"",""坏他"",""坏我"",""好他""]","[""强我"",""弱他"",""弱我"",""强他""]","","","","","","","","","","","","","","","","","","","","","","","","","","","","","","feedback_test","","","","","","","","",""
"969","","f","psychophysics","12","186443","0.0-8.0-0.0-1.0-0.0-0.1","6","6","7","5","6","5","4","4","5","5","5","-1","-3","2","0","-1","2","1","1","5","5","5","5","4","5","5","4","4","5","8","7","9","8","8","7","7","6","8","6","3","2","6","6","5","7","2","7","5","1","7","6","7","2","6","4","7","3","3","7","2","6","5","2","2","7","6","6","7","7","7","3","3","2","1","6","7","6","3","7","759096644204761089","张","364","Male","[""好我"",""坏他"",""坏我"",""好他""]","[""强我"",""弱他"",""弱我"",""强他""]","","","","","","","","match","","","","","","","","","","key","f","16.66047863247874","768","428","j","false","nonmatch","img/diamond.png","坏他","好我","prac_ALT2_moral","practice_moral","","","","","","","","",""
"null","<span style='color:red; font-size: 70px;'>错误! </span>","null","html-keyboard-response","13","186943","0.0-8.0-0.0-1.0-0.0-1.1","6","6","7","5","6","5","4","4","5","5","5","-1","-3","2","0","-1","2","1","1","5","5","5","5","4","5","5","4","4","5","8","7","9","8","8","7","7","6","8","6","3","2","6","6","5","7","2","7","5","1","7","6","7","2","6","4","7","3","3","7","2","6","5","2","2","7","6","6","7","7","7","3","3","2","1","6","7","6","3","7","759096644204761089","张","364","Male","[""好我"",""坏他"",""坏我"",""好他""]","[""强我"",""弱他"",""弱我"",""强他""]","","","","","","","","","","","","","","","","","","","","","","","","","","","","","","feedback_test","","","","","","","","",""
"794","","f","psychophysics","14","188739","0.0-8.0-0.0-1.0-0.0-0.2","6","6","7","5","6","5","4","4","5","5","5","-1","-3","2","0","-1","2","1","1","5","5","5","5","4","5","5","4","4","5","8","7","9","8","8","7","7","6","8","6","3","2","6","6","5","7","2","7","5","1","7","6","7","2","6","4","7","3","3","7","2","6","5","2","2","7","6","6","7","7","7","3","3","2","1","6","7","6","3","7","759096644204761089","张","364","Male","[""好我"",""坏他"",""坏我"",""好他""]","[""强我"",""弱他"",""弱我"",""强他""]","","","","","","","","match","","","","","","","","","","key","f","16.66234579439238","768","428","f","true","match","img/diamond.png","好我","好我","prac_ALT2_moral","practice_moral","","","","","","","","",""
"null","<span style='color:GreenYellow; font-size: 70px;'>正确! </span>","null","html-keyboard-response","15","189240","0.0-8.0-0.0-1.0-0.0-1.2","6","6","7","5","6","5","4","4","5","5","5","-1","-3","2","0","-1","2","1","1","5","5","5","5","4","5","5","4","4","5","8","7","9","8","8","7","7","6","8","6","3","2","6","6","5","7","2","7","5","1","7","6","7","2","6","4","7","3","3","7","2","6","5","2","2","7","6","6","7","7","7","3","3","2","1","6","7","6","3","7","759096644204761089","张","364","Male","[""好我"",""坏他"",""坏我"",""好他""]","[""强我"",""弱他"",""弱我"",""强他""]","","","","","","","","","","","","","","","","","","","","","","","","","","","","","","feedback_test","","","","","","","","",""
"634","","f","psychophysics","16","190875","0.0-8.0-0.0-1.0-0.0-0.3","6","6","7","5","6","5","4","4","5","5","5","-1","-3","2","0","-1","2","1","1","5","5","5","5","4","5","5","4","4","5","8","7","9","8","8","7","7","6","8","6","3","2","6","6","5","7","2","7","5","1","7","6","7","2","6","4","7","3","3","7","2","6","5","2","2","7","6","6","7","7","7","3","3","2","1","6","7","6","3","7","759096644204761089","张","364","Male","[""好我"",""坏他"",""坏我"",""好他""]","[""强我"",""弱他"",""弱我"",""强他""]","","","","","","","","match","","","","","","","","","","key","f","16.660907216494923","768","428","f","true","match","img/circle.png","好他","好他","prac_ALT2_moral","practice_moral","","","","","","","","",""
"null","<span style='color:GreenYellow; font-size: 70px;'>正确! </span>","null","html-keyboard-response","17","191376","0.0-8.0-0.0-1.0-0.0-1.3","6","6","7","5","6","5","4","4","5","5","5","-1","-3","2","0","-1","2","1","1","5","5","5","5","4","5","5","4","4","5","8","7","9","8","8","7","7","6","8","6","3","2","6","6","5","7","2","7","5","1","7","6","7","2","6","4","7","3","3","7","2","6","5","2","2","7","6","6","7","7","7","3","3","2","1","6","7","6","3","7","759096644204761089","张","364","Male","[""好我"",""坏他"",""坏我"",""好他""]","[""强我"",""弱他"",""弱我"",""强他""]","","","","","","","","","","","","","","","","","","","","","","","","","","","","","","feedback_test","","","","","","","","",""
"641","","f","psychophysics","18","193018","0.0-8.0-0.0-1.0-0.0-0.4","6","6","7","5","6","5","4","4","5","5","5","-1","-3","2","0","-1","2","1","1","5","5","5","5","4","5","5","4","4","5","8","7","9","8","8","7","7","6","8","6","3","2","6","6","5","7","2","7","5","1","7","6","7","2","6","4","7","3","3","7","2","6","5","2","2","7","6","6","7","7","7","3","3","2","1","6","7","6","3","7","759096644204761089","张","364","Male","[""好我"",""坏他"",""坏我"",""好他""]","[""强我"",""弱他"",""弱我"",""强他""]","","","","","","","","match","","","","","","","","","","key","f","16.660928571428652","768","428","f","true","match","img/trapezoid.png","坏他","坏他","prac_ALT2_moral","practice_moral","","","","","","","","",""
"null","<span style='color:GreenYellow; font-size: 70px;'>正确! </span>","null","html-keyboard-response","19","193519","0.0-8.0-0.0-1.0-0.0-1.4","6","6","7","5","6","5","4","4","5","5","5","-1","-3","2","0","-1","2","1","1","5","5","5","5","4","5","5","4","4","5","8","7","9","8","8","7","7","6","8","6","3","2","6","6","5","7","2","7","5","1","7","6","7","2","6","4","7","3","3","7","2","6","5","2","2","7","6","6","7","7","7","3","3","2","1","6","7","6","3","7","759096644204761089","张","364","Male","[""好我"",""坏他"",""坏我"",""好他""]","[""强我"",""弱他"",""弱我"",""强他""]","","","","","","","","","","","","","","","","","","","","","","","","","","","","","","feedback_test","","","","","","","","",""
"923","","f","psychophysics","20","195442","0.0-8.0-0.0-1.0-0.0-0.5","6","6","7","5","6","5","4","4","5","5","5","-1","-3","2","0","-1","2","1","1","5","5","5","5","4","5","5","4","4","5","8","7","9","8","8","7","7","6","8","6","3","2","6","6","5","7","2","7","5","1","7","6","7","2","6","4","7","3","3","7","2","6","5","2","2","7","6","6","7","7","7","3","3","2","1","6","7","6","3","7","759096644204761089","张","364","Male","[""好我"",""坏他"",""坏我"",""好他""]","[""强我"",""弱他"",""弱我"",""强他""]","","","","","","","","match","","","","","","","","","","key","f","16.661447368421044","768","428","f","true","match","img/trapezoid.png","坏他","坏他","prac_ALT2_moral","practice_moral","","","","","","","","",""
"null","<span style='color:GreenYellow; font-size: 70px;'>正确! </span>","null","html-keyboard-response","21","195945","0.0-8.0-0.0-1.0-0.0-1.5","6","6","7","5","6","5","4","4","5","5","5","-1","-3","2","0","-1","2","1","1","5","5","5","5","4","5","5","4","4","5","8","7","9","8","8","7","7","6","8","6","3","2","6","6","5","7","2","7","5","1","7","6","7","2","6","4","7","3","3","7","2","6","5","2","2","7","6","6","7","7","7","3","3","2","1","6","7","6","3","7","759096644204761089","张","364","Male","[""好我"",""坏他"",""坏我"",""好他""]","[""强我"",""弱他"",""弱我"",""强他""]","","","","","","","","","","","","","","","","","","","","","","","","","","","","","","feedback_test","","","","","","","","",""
"913","","f","psychophysics","22","197859","0.0-8.0-0.0-1.0-0.0-0.6","6","6","7","5","6","5","4","4","5","5","5","-1","-3","2","0","-1","2","1","1","5","5","5","5","4","5","5","4","4","5","8","7","9","8","8","7","7","6","8","6","3","2","6","6","5","7","2","7","5","1","7","6","7","2","6","4","7","3","3","7","2","6","5","2","2","7","6","6","7","7","7","3","3","2","1","6","7","6","3","7","759096644204761089","张","364","Male","[""好我"",""坏他"",""坏我"",""好他""]","[""强我"",""弱他"",""弱我"",""强他""]","","","","","","","","match","","","","","","","","","","key","f","16.662289473684115","768","428","f","true","match","img/hexagon.png","坏我","坏我","prac_ALT2_moral","practice_moral","","","","","","","","",""
"null","<span style='color:GreenYellow; font-size: 70px;'>正确! </span>","null","html-keyboard-response","23","198360","0.0-8.0-0.0-1.0-0.0-1.6","6","6","7","5","6","5","4","4","5","5","5","-1","-3","2","0","-1","2","1","1","5","5","5","5","4","5","5","4","4","5","8","7","9","8","8","7","7","6","8","6","3","2","6","6","5","7","2","7","5","1","7","6","7","2","6","4","7","3","3","7","2","6","5","2","2","7","6","6","7","7","7","3","3","2","1","6","7","6","3","7","759096644204761089","张","364","Male","[""好我"",""坏他"",""坏我"",""好他""]","[""强我"",""弱他"",""弱我"",""强他""]","","","","","","","","","","","","","","","","","","","","","","","","","","","","","","feedback_test","","","","","","","","",""
"946","","j","psychophysics","24","200306","0.0-8.0-0.0-1.0-0.0-0.7","6","6","7","5","6","5","4","4","5","5","5","-1","-3","2","0","-1","2","1","1","5","5","5","5","4","5","5","4","4","5","8","7","9","8","8","7","7","6","8","6","3","2","6","6","5","7","2","7","5","1","7","6","7","2","6","4","7","3","3","7","2","6","5","2","2","7","6","6","7","7","7","3","3","2","1","6","7","6","3","7","759096644204761089","张","364","Male","[""好我"",""坏他"",""坏我"",""好他""]","[""强我"",""弱他"",""弱我"",""强他""]","","","","","","","","nonmatch","","","","","","","","","","key","j","16.66087068965511","768","428","j","true","nonmatch","img/trapezoid.png","好他","坏他","prac_ALT2_moral","practice_moral","","","","","","","","",""
"null","<span style='color:GreenYellow; font-size: 70px;'>正确! </span>","null","html-keyboard-response","25","200808","0.0-8.0-0.0-1.0-0.0-1.7","6","6","7","5","6","5","4","4","5","5","5","-1","-3","2","0","-1","2","1","1","5","5","5","5","4","5","5","4","4","5","8","7","9","8","8","7","7","6","8","6","3","2","6","6","5","7","2","7","5","1","7","6","7","2","6","4","7","3","3","7","2","6","5","2","2","7","6","6","7","7","7","3","3","2","1","6","7","6","3","7","759096644204761089","张","364","Male","[""好我"",""坏他"",""坏我"",""好他""]","[""强我"",""弱他"",""弱我"",""强他""]","","","","","","","","","","","","","","","","","","","","","","","","","","","","","","feedback_test","","","","","","","","",""
"779","","j","psychophysics","26","202587","0.0-8.0-0.0-1.0-0.0-0.8","6","6","7","5","6","5","4","4","5","5","5","-1","-3","2","0","-1","2","1","1","5","5","5","5","4","5","5","4","4","5","8","7","9","8","8","7","7","6","8","6","3","2","6","6","5","7","2","7","5","1","7","6","7","2","6","4","7","3","3","7","2","6","5","2","2","7","6","6","7","7","7","3","3","2","1","6","7","6","3","7","759096644204761089","张","364","Male","[""好我"",""坏他"",""坏我"",""好他""]","[""强我"",""弱他"",""弱我"",""强他""]","","","","","","","","nonmatch","","","","","","","","","","key","j","16.661990566037755","768","428","j","true","nonmatch","img/hexagon.png","好我","坏我","prac_ALT2_moral","practice_moral","","","","","","","","",""
"null","<span style='color:GreenYellow; font-size: 70px;'>正确! </span>","null","html-keyboard-response","27","203089","0.0-8.0-0.0-1.0-0.0-1.8","6","6","7","5","6","5","4","4","5","5","5","-1","-3","2","0","-1","2","1","1","5","5","5","5","4","5","5","4","4","5","8","7","9","8","8","7","7","6","8","6","3","2","6","6","5","7","2","7","5","1","7","6","7","2","6","4","7","3","3","7","2","6","5","2","2","7","6","6","7","7","7","3","3","2","1","6","7","6","3","7","759096644204761089","张","364","Male","[""好我"",""坏他"",""坏我"",""好他""]","[""强我"",""弱他"",""弱我"",""强他""]","","","","","","","","","","","","","","","","","","","","","","","","","","","","","","feedback_test","","","","","","","","",""
"825","","j","psychophysics","28","204915","0.0-8.0-0.0-1.0-0.0-0.9","6","6","7","5","6","5","4","4","5","5","5","-1","-3","2","0","-1","2","1","1","5","5","5","5","4","5","5","4","4","5","8","7","9","8","8","7","7","6","8","6","3","2","6","6","5","7","2","7","5","1","7","6","7","2","6","4","7","3","3","7","2","6","5","2","2","7","6","6","7","7","7","3","3","2","1","6","7","6","3","7","759096644204761089","张","364","Male","[""好我"",""坏他"",""坏我"",""好他""]","[""强我"",""弱他"",""弱我"",""强他""]","","","","","","","","nonmatch","","","","","","","","","","key","j","16.661990825688132","768","428","j","true","nonmatch","img/diamond.png","好他","好我","prac_ALT2_moral","practice_moral","","","","","","","","",""
"null","<span style='color:GreenYellow; font-size: 70px;'>正确! </span>","null","html-keyboard-response","29","205417","0.0-8.0-0.0-1.0-0.0-1.9","6","6","7","5","6","5","4","4","5","5","5","-1","-3","2","0","-1","2","1","1","5","5","5","5","4","5","5","4","4","5","8","7","9","8","8","7","7","6","8","6","3","2","6","6","5","7","2","7","5","1","7","6","7","2","6","4","7","3","3","7","2","6","5","2","2","7","6","6","7","7","7","3","3","2","1","6","7","6","3","7","759096644204761089","张","364","Male","[""好我"",""坏他"",""坏我"",""好他""]","[""强我"",""弱他"",""弱我"",""强他""]","","","","","","","","","","","","","","","","","","","","","","","","","","","","","","feedback_test","","","","","","","","",""
"761","","f","psychophysics","30","207179","0.0-8.0-0.0-1.0-0.0-0.10","6","6","7","5","6","5","4","4","5","5","5","-1","-3","2","0","-1","2","1","1","5","5","5","5","4","5","5","4","4","5","8","7","9","8","8","7","7","6","8","6","3","2","6","6","5","7","2","7","5","1","7","6","7","2","6","4","7","3","3","7","2","6","5","2","2","7","6","6","7","7","7","3","3","2","1","6","7","6","3","7","759096644204761089","张","364","Male","[""好我"",""坏他"",""坏我"",""好他""]","[""强我"",""弱他"",""弱我"",""强他""]","","","","","","","","match","","","","","","","","","","key","f","16.661504761904887","768","428","f","true","match","img/hexagon.png","坏我","坏我","prac_ALT2_moral","practice_moral","","","","","","","","",""
"null","<span style='color:GreenYellow; font-size: 70px;'>正确! </span>","null","html-keyboard-response","31","207680","0.0-8.0-0.0-1.0-0.0-1.10","6","6","7","5","6","5","4","4","5","5","5","-1","-3","2","0","-1","2","1","1","5","5","5","5","4","5","5","4","4","5","8","7","9","8","8","7","7","6","8","6","3","2","6","6","5","7","2","7","5","1","7","6","7","2","6","4","7","3","3","7","2","6","5","2","2","7","6","6","7","7","7","3","3","2","1","6","7","6","3","7","759096644204761089","张","364","Male","[""好我"",""坏他"",""坏我"",""好他""]","[""强我"",""弱他"",""弱我"",""强他""]","","","","","","","","","","","","","","","","","","","","","","","","","","","","","","feedback_test","","","","","","","","",""
"650","","f","psychophysics","32","209331","0.0-8.0-0.0-1.0-0.0-0.11","6","6","7","5","6","5","4","4","5","5","5","-1","-3","2","0","-1","2","1","1","5","5","5","5","4","5","5","4","4","5","8","7","9","8","8","7","7","6","8","6","3","2","6","6","5","7","2","7","5","1","7","6","7","2","6","4","7","3","3","7","2","6","5","2","2","7","6","6","7","7","7","3","3","2","1","6","7","6","3","7","759096644204761089","张","364","Male","[""好我"",""坏他"",""坏我"",""好他""]","[""强我"",""弱他"",""弱我"",""强他""]","","","","","","","","match","","","","","","","","","","key","f","16.661755102040953","768","428","f","true","match","img/hexagon.png","坏我","坏我","prac_ALT2_moral","practice_moral","","","","","","","","",""
"null","<span style='color:GreenYellow; font-size: 70px;'>正确! </span>","null","html-keyboard-response","33","209832","0.0-8.0-0.0-1.0-0.0-1.11","6","6","7","5","6","5","4","4","5","5","5","-1","-3","2","0","-1","2","1","1","5","5","5","5","4","5","5","4","4","5","8","7","9","8","8","7","7","6","8","6","3","2","6","6","5","7","2","7","5","1","7","6","7","2","6","4","7","3","3","7","2","6","5","2","2","7","6","6","7","7","7","3","3","2","1","6","7","6","3","7","759096644204761089","张","364","Male","[""好我"",""坏他"",""坏我"",""好他""]","[""强我"",""弱他"",""弱我"",""强他""]","","","","","","","","","","","","","","","","","","","","","","","","","","","","","","feedback_test","","","","","","","","",""
"834","","j","psychophysics","34","211666","0.0-8.0-0.0-1.0-0.0-0.12","6","6","7","5","6","5","4","4","5","5","5","-1","-3","2","0","-1","2","1","1","5","5","5","5","4","5","5","4","4","5","8","7","9","8","8","7","7","6","8","6","3","2","6","6","5","7","2","7","5","1","7","6","7","2","6","4","7","3","3","7","2","6","5","2","2","7","6","6","7","7","7","3","3","2","1","6","7","6","3","7","759096644204761089","张","364","Male","[""好我"",""坏他"",""坏我"",""好他""]","[""强我"",""弱他"",""弱我"",""强他""]","","","","","","","","nonmatch","","","","","","","","","","key","j","16.66187155963303","768","428","j","true","nonmatch","img/hexagon.png","好他","坏我","prac_ALT2_moral","practice_moral","","","","","","","","",""
"null","<span style='color:GreenYellow; font-size: 70px;'>正确! </span>","null","html-keyboard-response","35","212167","0.0-8.0-0.0-1.0-0.0-1.12","6","6","7","5","6","5","4","4","5","5","5","-1","-3","2","0","-1","2","1","1","5","5","5","5","4","5","5","4","4","5","8","7","9","8","8","7","7","6","8","6","3","2","6","6","5","7","2","7","5","1","7","6","7","2","6","4","7","3","3","7","2","6","5","2","2","7","6","6","7","7","7","3","3","2","1","6","7","6","3","7","759096644204761089","张","364","Male","[""好我"",""坏他"",""坏我"",""好他""]","[""强我"",""弱他"",""弱我"",""强他""]","","","","","","","","","","","","","","","","","","","","","","","","","","","","","","feedback_test","","","","","","","","",""
"955","","f","psychophysics","36","214123","0.0-8.0-0.0-1.0-0.0-0.13","6","6","7","5","6","5","4","4","5","5","5","-1","-3","2","0","-1","2","1","1","5","5","5","5","4","5","5","4","4","5","8","7","9","8","8","7","7","6","8","6","3","2","6","6","5","7","2","7","5","1","7","6","7","2","6","4","7","3","3","7","2","6","5","2","2","7","6","6","7","7","7","3","3","2","1","6","7","6","3","7","759096644204761089","张","364","Male","[""好我"",""坏他"",""坏我"",""好他""]","[""强我"",""弱他"",""弱我"",""强他""]","","","","","","","","match","","","","","","","","","","key","f","16.660344827586258","768","428","f","true","match","img/circle.png","好他","好他","prac_ALT2_moral","practice_moral","","","","","","","","",""
"null","<span style='color:GreenYellow; font-size: 70px;'>正确! </span>","null","html-keyboard-response","37","214624","0.0-8.0-0.0-1.0-0.0-1.13","6","6","7","5","6","5","4","4","5","5","5","-1","-3","2","0","-1","2","1","1","5","5","5","5","4","5","5","4","4","5","8","7","9","8","8","7","7","6","8","6","3","2","6","6","5","7","2","7","5","1","7","6","7","2","6","4","7","3","3","7","2","6","5","2","2","7","6","6","7","7","7","3","3","2","1","6","7","6","3","7","759096644204761089","张","364","Male","[""好我"",""坏他"",""坏我"",""好他""]","[""强我"",""弱他"",""弱我"",""强他""]","","","","","","","","","","","","","","","","","","","","","","","","","","","","","","feedback_test","","","","","","","","",""
"753","","f","psychophysics","38","216378","0.0-8.0-0.0-1.0-0.0-0.14","6","6","7","5","6","5","4","4","5","5","5","-1","-3","2","0","-1","2","1","1","5","5","5","5","4","5","5","4","4","5","8","7","9","8","8","7","7","6","8","6","3","2","6","6","5","7","2","7","5","1","7","6","7","2","6","4","7","3","3","7","2","6","5","2","2","7","6","6","7","7","7","3","3","2","1","6","7","6","3","7","759096644204761089","张","364","Male","[""好我"",""坏他"",""坏我"",""好他""]","[""强我"",""弱他"",""弱我"",""强他""]","","","","","","","","match","","","","","","","","","","key","f","16.660826923076876","768","428","f","true","match","img/diamond.png","好我","好我","prac_ALT2_moral","practice_moral","","","","","","","","",""
"null","<span style='color:GreenYellow; font-size: 70px;'>正确! </span>","null","html-keyboard-response","39","216879","0.0-8.0-0.0-1.0-0.0-1.14","6","6","7","5","6","5","4","4","5","5","5","-1","-3","2","0","-1","2","1","1","5","5","5","5","4","5","5","4","4","5","8","7","9","8","8","7","7","6","8","6","3","2","6","6","5","7","2","7","5","1","7","6","7","2","6","4","7","3","3","7","2","6","5","2","2","7","6","6","7","7","7","3","3","2","1","6","7","6","3","7","759096644204761089","张","364","Male","[""好我"",""坏他"",""坏我"",""好他""]","[""强我"",""弱他"",""弱我"",""强他""]","","","","","","","","","","","","","","","","","","","","","","","","","","","","","","feedback_test","","","","","","","","",""
"691","","j","psychophysics","40","218571","0.0-8.0-0.0-1.0-0.0-0.15","6","6","7","5","6","5","4","4","5","5","5","-1","-3","2","0","-1","2","1","1","5","5","5","5","4","5","5","4","4","5","8","7","9","8","8","7","7","6","8","6","3","2","6","6","5","7","2","7","5","1","7","6","7","2","6","4","7","3","3","7","2","6","5","2","2","7","6","6","7","7","7","3","3","2","1","6","7","6","3","7","759096644204761089","张","364","Male","[""好我"",""坏他"",""坏我"",""好他""]","[""强我"",""弱他"",""弱我"",""强他""]","","","","","","","","nonmatch","","","","","","","","","","key","j","16.661810000000113","768","428","j","true","nonmatch","img/diamond.png","坏我","好我","prac_ALT2_moral","practice_moral","","","","","","","","",""
"null","<span style='color:GreenYellow; font-size: 70px;'>正确! </span>","null","html-keyboard-response","41","219071","0.0-8.0-0.0-1.0-0.0-1.15","6","6","7","5","6","5","4","4","5","5","5","-1","-3","2","0","-1","2","1","1","5","5","5","5","4","5","5","4","4","5","8","7","9","8","8","7","7","6","8","6","3","2","6","6","5","7","2","7","5","1","7","6","7","2","6","4","7","3","3","7","2","6","5","2","2","7","6","6","7","7","7","3","3","2","1","6","7","6","3","7","759096644204761089","张","364","Male","[""好我"",""坏他"",""坏我"",""好他""]","[""强我"",""弱他"",""弱我"",""强他""]","","","","","","","","","","","","","","","","","","","","","","","","","","","","","","feedback_test","","","","","","","","",""
"739","","f","psychophysics","42","220811","0.0-8.0-0.0-1.0-0.0-0.16","6","6","7","5","6","5","4","4","5","5","5","-1","-3","2","0","-1","2","1","1","5","5","5","5","4","5","5","4","4","5","8","7","9","8","8","7","7","6","8","6","3","2","6","6","5","7","2","7","5","1","7","6","7","2","6","4","7","3","3","7","2","6","5","2","2","7","6","6","7","7","7","3","3","2","1","6","7","6","3","7","759096644204761089","张","364","Male","[""好我"",""坏他"",""坏我"",""好他""]","[""强我"",""弱他"",""弱我"",""强他""]","","","","","","","","match","","","","","","","","","","key","f","16.662145631067972","768","428","j","false","nonmatch","img/hexagon.png","坏他","坏我","prac_ALT2_moral","practice_moral","","","","","","","","",""
"null","<span style='color:red; font-size: 70px;'>错误! </span>","null","html-keyboard-response","43","221312","0.0-8.0-0.0-1.0-0.0-1.16","6","6","7","5","6","5","4","4","5","5","5","-1","-3","2","0","-1","2","1","1","5","5","5","5","4","5","5","4","4","5","8","7","9","8","8","7","7","6","8","6","3","2","6","6","5","7","2","7","5","1","7","6","7","2","6","4","7","3","3","7","2","6","5","2","2","7","6","6","7","7","7","3","3","2","1","6","7","6","3","7","759096644204761089","张","364","Male","[""好我"",""坏他"",""坏我"",""好他""]","[""强我"",""弱他"",""弱我"",""强他""]","","","","","","","","","","","","","","","","","","","","","","","","","","","","","","feedback_test","","","","","","","","",""
"921","","f","psychophysics","44","223235","0.0-8.0-0.0-1.0-0.0-0.17","6","6","7","5","6","5","4","4","5","5","5","-1","-3","2","0","-1","2","1","1","5","5","5","5","4","5","5","4","4","5","8","7","9","8","8","7","7","6","8","6","3","2","6","6","5","7","2","7","5","1","7","6","7","2","6","4","7","3","3","7","2","6","5","2","2","7","6","6","7","7","7","3","3","2","1","6","7","6","3","7","759096644204761089","张","364","Male","[""好我"",""坏他"",""坏我"",""好他""]","[""强我"",""弱他"",""弱我"",""强他""]","","","","","","","","match","","","","","","","","","","key","f","16.661219298245747","768","428","f","true","match","img/circle.png","好他","好他","prac_ALT2_moral","practice_moral","","","","","","","","",""
"null","<span style='color:GreenYellow; font-size: 70px;'>正确! </span>","null","html-keyboard-response","45","223736","0.0-8.0-0.0-1.0-0.0-1.17","6","6","7","5","6","5","4","4","5","5","5","-1","-3","2","0","-1","2","1","1","5","5","5","5","4","5","5","4","4","5","8","7","9","8","8","7","7","6","8","6","3","2","6","6","5","7","2","7","5","1","7","6","7","2","6","4","7","3","3","7","2","6","5","2","2","7","6","6","7","7","7","3","3","2","1","6","7","6","3","7","759096644204761089","张","364","Male","[""好我"",""坏他"",""坏我"",""好他""]","[""强我"",""弱他"",""弱我"",""强他""]","","","","","","","","","","","","","","","","","","","","","","","","","","","","","","feedback_test","","","","","","","","",""
"834","","j","psychophysics","46","225572","0.0-8.0-0.0-1.0-0.0-0.18","6","6","7","5","6","5","4","4","5","5","5","-1","-3","2","0","-1","2","1","1","5","5","5","5","4","5","5","4","4","5","8","7","9","8","8","7","7","6","8","6","3","2","6","6","5","7","2","7","5","1","7","6","7","2","6","4","7","3","3","7","2","6","5","2","2","7","6","6","7","7","7","3","3","2","1","6","7","6","3","7","759096644204761089","张","364","Male","[""好我"",""坏他"",""坏我"",""好他""]","[""强我"",""弱他"",""弱我"",""强他""]","","","","","","","","nonmatch","","","","","","","","","","key","j","16.662018348623885","768","428","f","false","match","img/diamond.png","好我","好我","prac_ALT2_moral","practice_moral","","","","","","","","",""
"null","<span style='color:red; font-size: 70px;'>错误! </span>","null","html-keyboard-response","47","226074","0.0-8.0-0.0-1.0-0.0-1.18","6","6","7","5","6","5","4","4","5","5","5","-1","-3","2","0","-1","2","1","1","5","5","5","5","4","5","5","4","4","5","8","7","9","8","8","7","7","6","8","6","3","2","6","6","5","7","2","7","5","1","7","6","7","2","6","4","7","3","3","7","2","6","5","2","2","7","6","6","7","7","7","3","3","2","1","6","7","6","3","7","759096644204761089","张","364","Male","[""好我"",""坏他"",""坏我"",""好他""]","[""强我"",""弱他"",""弱我"",""强他""]","","","","","","","","","","","","","","","","","","","","","","","","","","","","","","feedback_test","","","","","","","","",""
"1023","","j","psychophysics","48","228099","0.0-8.0-0.0-1.0-0.0-0.19","6","6","7","5","6","5","4","4","5","5","5","-1","-3","2","0","-1","2","1","1","5","5","5","5","4","5","5","4","4","5","8","7","9","8","8","7","7","6","8","6","3","2","6","6","5","7","2","7","5","1","7","6","7","2","6","4","7","3","3","7","2","6","5","2","2","7","6","6","7","7","7","3","3","2","1","6","7","6","3","7","759096644204761089","张","364","Male","[""好我"",""坏他"",""坏我"",""好他""]","[""强我"",""弱他"",""弱我"",""强他""]","","","","","","","","nonmatch","","","","","","","","","","key","j","16.66201666666675","768","428","j","true","nonmatch","img/circle.png","坏他","好他","prac_ALT2_moral","practice_moral","","","","","","","","",""
"null","<span style='color:GreenYellow; font-size: 70px;'>正确! </span>","null","html-keyboard-response","49","228600","0.0-8.0-0.0-1.0-0.0-1.19","6","6","7","5","6","5","4","4","5","5","5","-1","-3","2","0","-1","2","1","1","5","5","5","5","4","5","5","4","4","5","8","7","9","8","8","7","7","6","8","6","3","2","6","6","5","7","2","7","5","1","7","6","7","2","6","4","7","3","3","7","2","6","5","2","2","7","6","6","7","7","7","3","3","2","1","6","7","6","3","7","759096644204761089","张","364","Male","[""好我"",""坏他"",""坏我"",""好他""]","[""强我"",""弱他"",""弱我"",""强他""]","","","","","","","","","","","","","","","","","","","","","","","","","","","","","","feedback_test","","","","","","","","",""
"819","","f","psychophysics","50","230419","0.0-8.0-0.0-1.0-0.0-0.20","6","6","7","5","6","5","4","4","5","5","5","-1","-3","2","0","-1","2","1","1","5","5","5","5","4","5","5","4","4","5","8","7","9","8","8","7","7","6","8","6","3","2","6","6","5","7","2","7","5","1","7","6","7","2","6","4","7","3","3","7","2","6","5","2","2","7","6","6","7","7","7","3","3","2","1","6","7","6","3","7","759096644204761089","张","364","Male","[""好我"",""坏他"",""坏我"",""好他""]","[""强我"",""弱他"",""弱我"",""强他""]","","","","","","","","match","","","","","","","","","","key","f","16.662889908256922","768","428","f","true","match","img/trapezoid.png","坏他","坏他","prac_ALT2_moral","practice_moral","","","","","","","","",""
"null","<span style='color:GreenYellow; font-size: 70px;'>正确! </span>","null","html-keyboard-response","51","230921","0.0-8.0-0.0-1.0-0.0-1.20","6","6","7","5","6","5","4","4","5","5","5","-1","-3","2","0","-1","2","1","1","5","5","5","5","4","5","5","4","4","5","8","7","9","8","8","7","7","6","8","6","3","2","6","6","5","7","2","7","5","1","7","6","7","2","6","4","7","3","3","7","2","6","5","2","2","7","6","6","7","7","7","3","3","2","1","6","7","6","3","7","759096644204761089","张","364","Male","[""好我"",""坏他"",""坏我"",""好他""]","[""强我"",""弱他"",""弱我"",""强他""]","","","","","","","","","","","","","","","","","","","","","","","","","","","","","","feedback_test","","","","","","","","",""
"744","","j","psychophysics","52","232667","0.0-8.0-0.0-1.0-0.0-0.21","6","6","7","5","6","5","4","4","5","5","5","-1","-3","2","0","-1","2","1","1","5","5","5","5","4","5","5","4","4","5","8","7","9","8","8","7","7","6","8","6","3","2","6","6","5","7","2","7","5","1","7","6","7","2","6","4","7","3","3","7","2","6","5","2","2","7","6","6","7","7","7","3","3","2","1","6","7","6","3","7","759096644204761089","张","364","Male","[""好我"",""坏他"",""坏我"",""好他""]","[""强我"",""弱他"",""弱我"",""强他""]","","","","","","","","nonmatch","","","","","","","","","","key","j","16.66259223300974","768","428","j","true","nonmatch","img/trapezoid.png","坏我","坏他","prac_ALT2_moral","practice_moral","","","","","","","","",""
"null","<span style='color:GreenYellow; font-size: 70px;'>正确! </span>","null","html-keyboard-response","53","233167","0.0-8.0-0.0-1.0-0.0-1.21","6","6","7","5","6","5","4","4","5","5","5","-1","-3","2","0","-1","2","1","1","5","5","5","5","4","5","5","4","4","5","8","7","9","8","8","7","7","6","8","6","3","2","6","6","5","7","2","7","5","1","7","6","7","2","6","4","7","3","3","7","2","6","5","2","2","7","6","6","7","7","7","3","3","2","1","6","7","6","3","7","759096644204761089","张","364","Male","[""好我"",""坏他"",""坏我"",""好他""]","[""强我"",""弱他"",""弱我"",""强他""]","","","","","","","","","","","","","","","","","","","","","","","","","","","","","","feedback_test","","","","","","","","",""
"779","","j","psychophysics","54","234947","0.0-8.0-0.0-1.0-0.0-0.22","6","6","7","5","6","5","4","4","5","5","5","-1","-3","2","0","-1","2","1","1","5","5","5","5","4","5","5","4","4","5","8","7","9","8","8","7","7","6","8","6","3","2","6","6","5","7","2","7","5","1","7","6","7","2","6","4","7","3","3","7","2","6","5","2","2","7","6","6","7","7","7","3","3","2","1","6","7","6","3","7","759096644204761089","张","364","Male","[""好我"",""坏他"",""坏我"",""好他""]","[""强我"",""弱他"",""弱我"",""强他""]","","","","","","","","nonmatch","","","","","","","","","","key","j","16.66029523809529","768","428","j","true","nonmatch","img/trapezoid.png","好我","坏他","prac_ALT2_moral","practice_moral","","","","","","","","",""
"null","<span style='color:GreenYellow; font-size: 70px;'>正确! </span>","null","html-keyboard-response","55","235449","0.0-8.0-0.0-1.0-0.0-1.22","6","6","7","5","6","5","4","4","5","5","5","-1","-3","2","0","-1","2","1","1","5","5","5","5","4","5","5","4","4","5","8","7","9","8","8","7","7","6","8","6","3","2","6","6","5","7","2","7","5","1","7","6","7","2","6","4","7","3","3","7","2","6","5","2","2","7","6","6","7","7","7","3","3","2","1","6","7","6","3","7","759096644204761089","张","364","Male","[""好我"",""坏他"",""坏我"",""好他""]","[""强我"",""弱他"",""弱我"",""强他""]","","","","","","","","","","","","","","","","","","","","","","","","","","","","","","feedback_test","","","","","","","","",""
"801","","j","psychophysics","56","237251","0.0-8.0-0.0-1.0-0.0-0.23","6","6","7","5","6","5","4","4","5","5","5","-1","-3","2","0","-1","2","1","1","5","5","5","5","4","5","5","4","4","5","8","7","9","8","8","7","7","6","8","6","3","2","6","6","5","7","2","7","5","1","7","6","7","2","6","4","7","3","3","7","2","6","5","2","2","7","6","6","7","7","7","3","3","2","1","6","7","6","3","7","759096644204761089","张","364","Male","[""好我"",""坏他"",""坏我"",""好他""]","[""强我"",""弱他"",""弱我"",""强他""]","","","","","","","","nonmatch","","","","","","","","","","key","j","16.662485981308397","768","428","j","true","nonmatch","img/circle.png","好我","好他","prac_ALT2_moral","practice_moral","","","","","","","","",""
"null","<span style='color:GreenYellow; font-size: 70px;'>正确! </span>","null","html-keyboard-response","57","237752","0.0-8.0-0.0-1.0-0.0-1.23","6","6","7","5","6","5","4","4","5","5","5","-1","-3","2","0","-1","2","1","1","5","5","5","5","4","5","5","4","4","5","8","7","9","8","8","7","7","6","8","6","3","2","6","6","5","7","2","7","5","1","7","6","7","2","6","4","7","3","3","7","2","6","5","2","2","7","6","6","7","7","7","3","3","2","1","6","7","6","3","7","759096644204761089","张","364","Male","[""好我"",""坏他"",""坏我"",""好他""]","[""强我"",""弱他"",""弱我"",""强他""]","","","","","","","","","","","","","","","","","","","","","","","","","","","","","","feedback_test","","","","","","","","",""
"754","","f","psychophysics","58","239508","0.0-8.0-0.0-1.0-0.0-0.24","6","6","7","5","6","5","4","4","5","5","5","-1","-3","2","0","-1","2","1","1","5","5","5","5","4","5","5","4","4","5","8","7","9","8","8","7","7","6","8","6","3","2","6","6","5","7","2","7","5","1","7","6","7","2","6","4","7","3","3","7","2","6","5","2","2","7","6","6","7","7","7","3","3","2","1","6","7","6","3","7","759096644204761089","张","364","Male","[""好我"",""坏他"",""坏我"",""好他""]","[""强我"",""弱他"",""弱我"",""强他""]","","","","","","","","match","","","","","","","","","","key","f","16.66092307692312","768","428","f","true","match","img/diamond.png","好我","好我","prac_ALT2_moral","practice_moral","","","","","","","","",""
"null","<span style='color:GreenYellow; font-size: 70px;'>正确! </span>","null","html-keyboard-response","59","240009","0.0-8.0-0.0-1.0-0.0-1.24","6","6","7","5","6","5","4","4","5","5","5","-1","-3","2","0","-1","2","1","1","5","5","5","5","4","5","5","4","4","5","8","7","9","8","8","7","7","6","8","6","3","2","6","6","5","7","2","7","5","1","7","6","7","2","6","4","7","3","3","7","2","6","5","2","2","7","6","6","7","7","7","3","3","2","1","6","7","6","3","7","759096644204761089","张","364","Male","[""好我"",""坏他"",""坏我"",""好他""]","[""强我"",""弱他"",""弱我"",""强他""]","","","","","","","","","","","","","","","","","","","","","","","","","","","","","","feedback_test","","","","","","","","",""
"736","","f","psychophysics","60","241746","0.0-8.0-0.0-1.0-0.0-0.25","6","6","7","5","6","5","4","4","5","5","5","-1","-3","2","0","-1","2","1","1","5","5","5","5","4","5","5","4","4","5","8","7","9","8","8","7","7","6","8","6","3","2","6","6","5","7","2","7","5","1","7","6","7","2","6","4","7","3","3","7","2","6","5","2","2","7","6","6","7","7","7","3","3","2","1","6","7","6","3","7","759096644204761089","张","364","Male","[""好我"",""坏他"",""坏我"",""好他""]","[""强我"",""弱他"",""弱我"",""强他""]","","","","","","","","match","","","","","","","","","","key","f","16.6609029126214","768","428","f","true","match","img/trapezoid.png","坏他","坏他","prac_ALT2_moral","practice_moral","","","","","","","","",""
"null","<span style='color:GreenYellow; font-size: 70px;'>正确! </span>","null","html-keyboard-response","61","242247","0.0-8.0-0.0-1.0-0.0-1.25","6","6","7","5","6","5","4","4","5","5","5","-1","-3","2","0","-1","2","1","1","5","5","5","5","4","5","5","4","4","5","8","7","9","8","8","7","7","6","8","6","3","2","6","6","5","7","2","7","5","1","7","6","7","2","6","4","7","3","3","7","2","6","5","2","2","7","6","6","7","7","7","3","3","2","1","6","7","6","3","7","759096644204761089","张","364","Male","[""好我"",""坏他"",""坏我"",""好他""]","[""强我"",""弱他"",""弱我"",""强他""]","","","","","","","","","","","","","","","","","","","","","","","","","","","","","","feedback_test","","","","","","","","",""
"683","","j","psychophysics","62","243931","0.0-8.0-0.0-1.0-0.0-0.26","6","6","7","5","6","5","4","4","5","5","5","-1","-3","2","0","-1","2","1","1","5","5","5","5","4","5","5","4","4","5","8","7","9","8","8","7","7","6","8","6","3","2","6","6","5","7","2","7","5","1","7","6","7","2","6","4","7","3","3","7","2","6","5","2","2","7","6","6","7","7","7","3","3","2","1","6","7","6","3","7","759096644204761089","张","364","Male","[""好我"",""坏他"",""坏我"",""好他""]","[""强我"",""弱他"",""弱我"",""强他""]","","","","","","","","nonmatch","","","","","","","","","","key","j","16.662479999999924","768","428","j","true","nonmatch","img/diamond.png","坏他","好我","prac_ALT2_moral","practice_moral","","","","","","","","",""
"null","<span style='color:GreenYellow; font-size: 70px;'>正确! </span>","null","html-keyboard-response","63","244432","0.0-8.0-0.0-1.0-0.0-1.26","6","6","7","5","6","5","4","4","5","5","5","-1","-3","2","0","-1","2","1","1","5","5","5","5","4","5","5","4","4","5","8","7","9","8","8","7","7","6","8","6","3","2","6","6","5","7","2","7","5","1","7","6","7","2","6","4","7","3","3","7","2","6","5","2","2","7","6","6","7","7","7","3","3","2","1","6","7","6","3","7","759096644204761089","张","364","Male","[""好我"",""坏他"",""坏我"",""好他""]","[""强我"",""弱他"",""弱我"",""强他""]","","","","","","","","","","","","","","","","","","","","","","","","","","","","","","feedback_test","","","","","","","","",""
"722","","f","psychophysics","64","246155","0.0-8.0-0.0-1.0-0.0-0.27","6","6","7","5","6","5","4","4","5","5","5","-1","-3","2","0","-1","2","1","1","5","5","5","5","4","5","5","4","4","5","8","7","9","8","8","7","7","6","8","6","3","2","6","6","5","7","2","7","5","1","7","6","7","2","6","4","7","3","3","7","2","6","5","2","2","7","6","6","7","7","7","3","3","2","1","6","7","6","3","7","759096644204761089","张","364","Male","[""好我"",""坏他"",""坏我"",""好他""]","[""强我"",""弱他"",""弱我"",""强他""]","","","","","","","","match","","","","","","","","","","key","f","16.661352941176602","768","428","f","true","match","img/circle.png","好他","好他","prac_ALT2_moral","practice_moral","","","","","","","","",""
"null","<span style='color:GreenYellow; font-size: 70px;'>正确! </span>","null","html-keyboard-response","65","246655","0.0-8.0-0.0-1.0-0.0-1.27","6","6","7","5","6","5","4","4","5","5","5","-1","-3","2","0","-1","2","1","1","5","5","5","5","4","5","5","4","4","5","8","7","9","8","8","7","7","6","8","6","3","2","6","6","5","7","2","7","5","1","7","6","7","2","6","4","7","3","3","7","2","6","5","2","2","7","6","6","7","7","7","3","3","2","1","6","7","6","3","7","759096644204761089","张","364","Male","[""好我"",""坏他"",""坏我"",""好他""]","[""强我"",""弱他"",""弱我"",""强他""]","","","","","","","","","","","","","","","","","","","","","","","","","","","","","","feedback_test","","","","","","","","",""
"794","","j","psychophysics","66","248451","0.0-8.0-0.0-1.0-0.0-0.28","6","6","7","5","6","5","4","4","5","5","5","-1","-3","2","0","-1","2","1","1","5","5","5","5","4","5","5","4","4","5","8","7","9","8","8","7","7","6","8","6","3","2","6","6","5","7","2","7","5","1","7","6","7","2","6","4","7","3","3","7","2","6","5","2","2","7","6","6","7","7","7","3","3","2","1","6","7","6","3","7","759096644204761089","张","364","Male","[""好我"",""坏他"",""坏我"",""好他""]","[""强我"",""弱他"",""弱我"",""强他""]","","","","","","","","nonmatch","","","","","","","","","","key","j","16.661728971962553","768","428","f","false","match","img/diamond.png","好我","好我","prac_ALT2_moral","practice_moral","","","","","","","","",""
"null","<span style='color:red; font-size: 70px;'>错误! </span>","null","html-keyboard-response","67","248951","0.0-8.0-0.0-1.0-0.0-1.28","6","6","7","5","6","5","4","4","5","5","5","-1","-3","2","0","-1","2","1","1","5","5","5","5","4","5","5","4","4","5","8","7","9","8","8","7","7","6","8","6","3","2","6","6","5","7","2","7","5","1","7","6","7","2","6","4","7","3","3","7","2","6","5","2","2","7","6","6","7","7","7","3","3","2","1","6","7","6","3","7","759096644204761089","张","364","Male","[""好我"",""坏他"",""坏我"",""好他""]","[""强我"",""弱他"",""弱我"",""强他""]","","","","","","","","","","","","","","","","","","","","","","","","","","","","","","feedback_test","","","","","","","","",""
"778","","f","psychophysics","68","250731","0.0-8.0-0.0-1.0-0.0-0.29","6","6","7","5","6","5","4","4","5","5","5","-1","-3","2","0","-1","2","1","1","5","5","5","5","4","5","5","4","4","5","8","7","9","8","8","7","7","6","8","6","3","2","6","6","5","7","2","7","5","1","7","6","7","2","6","4","7","3","3","7","2","6","5","2","2","7","6","6","7","7","7","3","3","2","1","6","7","6","3","7","759096644204761089","张","364","Male","[""好我"",""坏他"",""坏我"",""好他""]","[""强我"",""弱他"",""弱我"",""强他""]","","","","","","","","match","","","","","","","","","","key","f","16.660490566037897","768","428","f","true","match","img/hexagon.png","坏我","坏我","prac_ALT2_moral","practice_moral","","","","","","","","",""
"null","<span style='color:GreenYellow; font-size: 70px;'>正确! </span>","null","html-keyboard-response","69","251232","0.0-8.0-0.0-1.0-0.0-1.29","6","6","7","5","6","5","4","4","5","5","5","-1","-3","2","0","-1","2","1","1","5","5","5","5","4","5","5","4","4","5","8","7","9","8","8","7","7","6","8","6","3","2","6","6","5","7","2","7","5","1","7","6","7","2","6","4","7","3","3","7","2","6","5","2","2","7","6","6","7","7","7","3","3","2","1","6","7","6","3","7","759096644204761089","张","364","Male","[""好我"",""坏他"",""坏我"",""好他""]","[""强我"",""弱他"",""弱我"",""强他""]","","","","","","","","","","","","","","","","","","","","","","","","","","","","","","feedback_test","","","","","","","","",""
"1130","","f","psychophysics","70","253362","0.0-8.0-0.0-1.0-0.0-0.30","6","6","7","5","6","5","4","4","5","5","5","-1","-3","2","0","-1","2","1","1","5","5","5","5","4","5","5","4","4","5","8","7","9","8","8","7","7","6","8","6","3","2","6","6","5","7","2","7","5","1","7","6","7","2","6","4","7","3","3","7","2","6","5","2","2","7","6","6","7","7","7","3","3","2","1","6","7","6","3","7","759096644204761089","张","364","Male","[""好我"",""坏他"",""坏我"",""好他""]","[""强我"",""弱他"",""弱我"",""强他""]","","","","","","","","match","","","","","","","","","","key","f","16.661023622047335","768","428","f","true","match","img/circle.png","好他","好他","prac_ALT2_moral","practice_moral","","","","","","","","",""
"null","<span style='color:GreenYellow; font-size: 70px;'>正确! </span>","null","html-keyboard-response","71","253863","0.0-8.0-0.0-1.0-0.0-1.30","6","6","7","5","6","5","4","4","5","5","5","-1","-3","2","0","-1","2","1","1","5","5","5","5","4","5","5","4","4","5","8","7","9","8","8","7","7","6","8","6","3","2","6","6","5","7","2","7","5","1","7","6","7","2","6","4","7","3","3","7","2","6","5","2","2","7","6","6","7","7","7","3","3","2","1","6","7","6","3","7","759096644204761089","张","364","Male","[""好我"",""坏他"",""坏我"",""好他""]","[""强我"",""弱他"",""弱我"",""强他""]","","","","","","","","","","","","","","","","","","","","","","","","","","","","","","feedback_test","","","","","","","","",""
"834","","f","psychophysics","72","255698","0.0-8.0-0.0-1.0-0.0-0.31","6","6","7","5","6","5","4","4","5","5","5","-1","-3","2","0","-1","2","1","1","5","5","5","5","4","5","5","4","4","5","8","7","9","8","8","7","7","6","8","6","3","2","6","6","5","7","2","7","5","1","7","6","7","2","6","4","7","3","3","7","2","6","5","2","2","7","6","6","7","7","7","3","3","2","1","6","7","6","3","7","759096644204761089","张","364","Male","[""好我"",""坏他"",""坏我"",""好他""]","[""强我"",""弱他"",""弱我"",""强他""]","","","","","","","","match","","","","","","","","","","key","f","16.661431192660462","768","428","j","false","nonmatch","img/trapezoid.png","坏我","坏他","prac_ALT2_moral","practice_moral","","","","","","","","",""
"null","<span style='color:red; font-size: 70px;'>错误! </span>","null","html-keyboard-response","73","256200","0.0-8.0-0.0-1.0-0.0-1.31","6","6","7","5","6","5","4","4","5","5","5","-1","-3","2","0","-1","2","1","1","5","5","5","5","4","5","5","4","4","5","8","7","9","8","8","7","7","6","8","6","3","2","6","6","5","7","2","7","5","1","7","6","7","2","6","4","7","3","3","7","2","6","5","2","2","7","6","6","7","7","7","3","3","2","1","6","7","6","3","7","759096644204761089","张","364","Male","[""好我"",""坏他"",""坏我"",""好他""]","[""强我"",""弱他"",""弱我"",""强他""]","","","","","","","","","","","","","","","","","","","","","","","","","","","","","","feedback_test","","","","","","","","",""
"985","","f","psychophysics","74","258187","0.0-8.0-0.0-1.0-0.0-0.32","6","6","7","5","6","5","4","4","5","5","5","-1","-3","2","0","-1","2","1","1","5","5","5","5","4","5","5","4","4","5","8","7","9","8","8","7","7","6","8","6","3","2","6","6","5","7","2","7","5","1","7","6","7","2","6","4","7","3","3","7","2","6","5","2","2","7","6","6","7","7","7","3","3","2","1","6","7","6","3","7","759096644204761089","张","364","Male","[""好我"",""坏他"",""坏我"",""好他""]","[""强我"",""弱他"",""弱我"",""强他""]","","","","","","","","match","","","","","","","","","","key","f","16.660542372881505","768","428","f","true","match","img/trapezoid.png","坏他","坏他","prac_ALT2_moral","practice_moral","","","","","","","","",""
"null","<span style='color:GreenYellow; font-size: 70px;'>正确! </span>","null","html-keyboard-response","75","258688","0.0-8.0-0.0-1.0-0.0-1.32","6","6","7","5","6","5","4","4","5","5","5","-1","-3","2","0","-1","2","1","1","5","5","5","5","4","5","5","4","4","5","8","7","9","8","8","7","7","6","8","6","3","2","6","6","5","7","2","7","5","1","7","6","7","2","6","4","7","3","3","7","2","6","5","2","2","7","6","6","7","7","7","3","3","2","1","6","7","6","3","7","759096644204761089","张","364","Male","[""好我"",""坏他"",""坏我"",""好他""]","[""强我"",""弱他"",""弱我"",""强他""]","","","","","","","","","","","","","","","","","","","","","","","","","","","","","","feedback_test","","","","","","","","",""
"738","","j","psychophysics","76","260427","0.0-8.0-0.0-1.0-0.0-0.33","6","6","7","5","6","5","4","4","5","5","5","-1","-3","2","0","-1","2","1","1","5","5","5","5","4","5","5","4","4","5","8","7","9","8","8","7","7","6","8","6","3","2","6","6","5","7","2","7","5","1","7","6","7","2","6","4","7","3","3","7","2","6","5","2","2","7","6","6","7","7","7","3","3","2","1","6","7","6","3","7","759096644204761089","张","364","Male","[""好我"",""坏他"",""坏我"",""好他""]","[""强我"",""弱他"",""弱我"",""强他""]","","","","","","","","nonmatch","","","","","","","","","","key","j","16.661000000000058","768","428","j","true","nonmatch","img/trapezoid.png","好我","坏他","prac_ALT2_moral","practice_moral","","","","","","","","",""
"null","<span style='color:GreenYellow; font-size: 70px;'>正确! </span>","null","html-keyboard-response","77","260928","0.0-8.0-0.0-1.0-0.0-1.33","6","6","7","5","6","5","4","4","5","5","5","-1","-3","2","0","-1","2","1","1","5","5","5","5","4","5","5","4","4","5","8","7","9","8","8","7","7","6","8","6","3","2","6","6","5","7","2","7","5","1","7","6","7","2","6","4","7","3","3","7","2","6","5","2","2","7","6","6","7","7","7","3","3","2","1","6","7","6","3","7","759096644204761089","张","364","Male","[""好我"",""坏他"",""坏我"",""好他""]","[""强我"",""弱他"",""弱我"",""强他""]","","","","","","","","","","","","","","","","","","","","","","","","","","","","","","feedback_test","","","","","","","","",""
"746","","f","psychophysics","78","262675","0.0-8.0-0.0-1.0-0.0-0.34","6","6","7","5","6","5","4","4","5","5","5","-1","-3","2","0","-1","2","1","1","5","5","5","5","4","5","5","4","4","5","8","7","9","8","8","7","7","6","8","6","3","2","6","6","5","7","2","7","5","1","7","6","7","2","6","4","7","3","3","7","2","6","5","2","2","7","6","6","7","7","7","3","3","2","1","6","7","6","3","7","759096644204761089","张","364","Male","[""好我"",""坏他"",""坏我"",""好他""]","[""强我"",""弱他"",""弱我"",""强他""]","","","","","","","","match","","","","","","","","","","key","f","16.653807692308103","768","428","f","true","match","img/circle.png","好他","好他","prac_ALT2_moral","practice_moral","","","","","","","","",""
"null","<span style='color:GreenYellow; font-size: 70px;'>正确! </span>","null","html-keyboard-response","79","263176","0.0-8.0-0.0-1.0-0.0-1.34","6","6","7","5","6","5","4","4","5","5","5","-1","-3","2","0","-1","2","1","1","5","5","5","5","4","5","5","4","4","5","8","7","9","8","8","7","7","6","8","6","3","2","6","6","5","7","2","7","5","1","7","6","7","2","6","4","7","3","3","7","2","6","5","2","2","7","6","6","7","7","7","3","3","2","1","6","7","6","3","7","759096644204761089","张","364","Male","[""好我"",""坏他"",""坏我"",""好他""]","[""强我"",""弱他"",""弱我"",""强他""]","","","","","","","","","","","","","","","","","","","","","","","","","","","","","","feedback_test","","","","","","","","",""
"914","","f","psychophysics","80","265091","0.0-8.0-0.0-1.0-0.0-0.35","6","6","7","5","6","5","4","4","5","5","5","-1","-3","2","0","-1","2","1","1","5","5","5","5","4","5","5","4","4","5","8","7","9","8","8","7","7","6","8","6","3","2","6","6","5","7","2","7","5","1","7","6","7","2","6","4","7","3","3","7","2","6","5","2","2","7","6","6","7","7","7","3","3","2","1","6","7","6","3","7","759096644204761089","张","364","Male","[""好我"",""坏他"",""坏我"",""好他""]","[""强我"",""弱他"",""弱我"",""强他""]","","","","","","","","match","","","","","","","","","","key","f","16.66196491228051","768","428","f","true","match","img/diamond.png","好我","好我","prac_ALT2_moral","practice_moral","","","","","","","","",""
"null","<span style='color:GreenYellow; font-size: 70px;'>正确! </span>","null","html-keyboard-response","81","265592","0.0-8.0-0.0-1.0-0.0-1.35","6","6","7","5","6","5","4","4","5","5","5","-1","-3","2","0","-1","2","1","1","5","5","5","5","4","5","5","4","4","5","8","7","9","8","8","7","7","6","8","6","3","2","6","6","5","7","2","7","5","1","7","6","7","2","6","4","7","3","3","7","2","6","5","2","2","7","6","6","7","7","7","3","3","2","1","6","7","6","3","7","759096644204761089","张","364","Male","[""好我"",""坏他"",""坏我"",""好他""]","[""强我"",""弱他"",""弱我"",""强他""]","","","","","","","","","","","","","","","","","","","","","","","","","","","","","","feedback_test","","","","","","","","",""
"730","","j","psychophysics","82","267323","0.0-8.0-0.0-1.0-0.0-0.36","6","6","7","5","6","5","4","4","5","5","5","-1","-3","2","0","-1","2","1","1","5","5","5","5","4","5","5","4","4","5","8","7","9","8","8","7","7","6","8","6","3","2","6","6","5","7","2","7","5","1","7","6","7","2","6","4","7","3","3","7","2","6","5","2","2","7","6","6","7","7","7","3","3","2","1","6","7","6","3","7","759096644204761089","张","364","Male","[""好我"",""坏他"",""坏我"",""好他""]","[""强我"",""弱他"",""弱我"",""强他""]","","","","","","","","nonmatch","","","","","","","","","","key","j","16.66008737864079","768","428","j","true","nonmatch","img/diamond.png","好他","好我","prac_ALT2_moral","practice_moral","","","","","","","","",""
"null","<span style='color:GreenYellow; font-size: 70px;'>正确! </span>","null","html-keyboard-response","83","267826","0.0-8.0-0.0-1.0-0.0-1.36","6","6","7","5","6","5","4","4","5","5","5","-1","-3","2","0","-1","2","1","1","5","5","5","5","4","5","5","4","4","5","8","7","9","8","8","7","7","6","8","6","3","2","6","6","5","7","2","7","5","1","7","6","7","2","6","4","7","3","3","7","2","6","5","2","2","7","6","6","7","7","7","3","3","2","1","6","7","6","3","7","759096644204761089","张","364","Male","[""好我"",""坏他"",""坏我"",""好他""]","[""强我"",""弱他"",""弱我"",""强他""]","","","","","","","","","","","","","","","","","","","","","","","","","","","","","","feedback_test","","","","","","","","",""
"679","","j","psychophysics","84","269507","0.0-8.0-0.0-1.0-0.0-0.37","6","6","7","5","6","5","4","4","5","5","5","-1","-3","2","0","-1","2","1","1","5","5","5","5","4","5","5","4","4","5","8","7","9","8","8","7","7","6","8","6","3","2","6","6","5","7","2","7","5","1","7","6","7","2","6","4","7","3","3","7","2","6","5","2","2","7","6","6","7","7","7","3","3","2","1","6","7","6","3","7","759096644204761089","张","364","Male","[""好我"",""坏他"",""坏我"",""好他""]","[""强我"",""弱他"",""弱我"",""强他""]","","","","","","","","nonmatch","","","","","","","","","","key","j","16.66087999999989","768","428","j","true","nonmatch","img/diamond.png","坏我","好我","prac_ALT2_moral","practice_moral","","","","","","","","",""
"null","<span style='color:GreenYellow; font-size: 70px;'>正确! </span>","null","html-keyboard-response","85","270008","0.0-8.0-0.0-1.0-0.0-1.37","6","6","7","5","6","5","4","4","5","5","5","-1","-3","2","0","-1","2","1","1","5","5","5","5","4","5","5","4","4","5","8","7","9","8","8","7","7","6","8","6","3","2","6","6","5","7","2","7","5","1","7","6","7","2","6","4","7","3","3","7","2","6","5","2","2","7","6","6","7","7","7","3","3","2","1","6","7","6","3","7","759096644204761089","张","364","Male","[""好我"",""坏他"",""坏我"",""好他""]","[""强我"",""弱他"",""弱我"",""强他""]","","","","","","","","","","","","","","","","","","","","","","","","","","","","","","feedback_test","","","","","","","","",""
"753","","f","psychophysics","86","271763","0.0-8.0-0.0-1.0-0.0-0.38","6","6","7","5","6","5","4","4","5","5","5","-1","-3","2","0","-1","2","1","1","5","5","5","5","4","5","5","4","4","5","8","7","9","8","8","7","7","6","8","6","3","2","6","6","5","7","2","7","5","1","7","6","7","2","6","4","7","3","3","7","2","6","5","2","2","7","6","6","7","7","7","3","3","2","1","6","7","6","3","7","759096644204761089","张","364","Male","[""好我"",""坏他"",""坏我"",""好他""]","[""强我"",""弱他"",""弱我"",""强他""]","","","","","","","","match","","","","","","","","","","key","f","16.661846153846106","768","428","f","true","match","img/hexagon.png","坏我","坏我","prac_ALT2_moral","practice_moral","","","","","","","","",""
"null","<span style='color:GreenYellow; font-size: 70px;'>正确! </span>","null","html-keyboard-response","87","272264","0.0-8.0-0.0-1.0-0.0-1.38","6","6","7","5","6","5","4","4","5","5","5","-1","-3","2","0","-1","2","1","1","5","5","5","5","4","5","5","4","4","5","8","7","9","8","8","7","7","6","8","6","3","2","6","6","5","7","2","7","5","1","7","6","7","2","6","4","7","3","3","7","2","6","5","2","2","7","6","6","7","7","7","3","3","2","1","6","7","6","3","7","759096644204761089","张","364","Male","[""好我"",""坏他"",""坏我"",""好他""]","[""强我"",""弱他"",""弱我"",""强他""]","","","","","","","","","","","","","","","","","","","","","","","","","","","","","","feedback_test","","","","","","","","",""
"825","","f","psychophysics","88","274090","0.0-8.0-0.0-1.0-0.0-0.39","6","6","7","5","6","5","4","4","5","5","5","-1","-3","2","0","-1","2","1","1","5","5","5","5","4","5","5","4","4","5","8","7","9","8","8","7","7","6","8","6","3","2","6","6","5","7","2","7","5","1","7","6","7","2","6","4","7","3","3","7","2","6","5","2","2","7","6","6","7","7","7","3","3","2","1","6","7","6","3","7","759096644204761089","张","364","Male","[""好我"",""坏他"",""坏我"",""好他""]","[""强我"",""弱他"",""弱我"",""强他""]","","","","","","","","match","","","","","","","","","","key","f","16.660853211009137","768","428","f","true","match","img/hexagon.png","坏我","坏我","prac_ALT2_moral","practice_moral","","","","","","","","",""
"null","<span style='color:GreenYellow; font-size: 70px;'>正确! </span>","null","html-keyboard-response","89","274592","0.0-8.0-0.0-1.0-0.0-1.39","6","6","7","5","6","5","4","4","5","5","5","-1","-3","2","0","-1","2","1","1","5","5","5","5","4","5","5","4","4","5","8","7","9","8","8","7","7","6","8","6","3","2","6","6","5","7","2","7","5","1","7","6","7","2","6","4","7","3","3","7","2","6","5","2","2","7","6","6","7","7","7","3","3","2","1","6","7","6","3","7","759096644204761089","张","364","Male","[""好我"",""坏他"",""坏我"",""好他""]","[""强我"",""弱他"",""弱我"",""强他""]","","","","","","","","","","","","","","","","","","","","","","","","","","","","","","feedback_test","","","","","","","","",""
"794","","j","psychophysics","90","276387","0.0-8.0-0.0-1.0-0.0-0.40","6","6","7","5","6","5","4","4","5","5","5","-1","-3","2","0","-1","2","1","1","5","5","5","5","4","5","5","4","4","5","8","7","9","8","8","7","7","6","8","6","3","2","6","6","5","7","2","7","5","1","7","6","7","2","6","4","7","3","3","7","2","6","5","2","2","7","6","6","7","7","7","3","3","2","1","6","7","6","3","7","759096644204761089","张","364","Male","[""好我"",""坏他"",""坏我"",""好他""]","[""强我"",""弱他"",""弱我"",""强他""]","","","","","","","","nonmatch","","","","","","","","","","key","j","16.660700934579506","768","428","j","true","nonmatch","img/circle.png","坏我","好他","prac_ALT2_moral","practice_moral","","","","","","","","",""
"null","<span style='color:GreenYellow; font-size: 70px;'>正确! </span>","null","html-keyboard-response","91","276888","0.0-8.0-0.0-1.0-0.0-1.40","6","6","7","5","6","5","4","4","5","5","5","-1","-3","2","0","-1","2","1","1","5","5","5","5","4","5","5","4","4","5","8","7","9","8","8","7","7","6","8","6","3","2","6","6","5","7","2","7","5","1","7","6","7","2","6","4","7","3","3","7","2","6","5","2","2","7","6","6","7","7","7","3","3","2","1","6","7","6","3","7","759096644204761089","张","364","Male","[""好我"",""坏他"",""坏我"",""好他""]","[""强我"",""弱他"",""弱我"",""强他""]","","","","","","","","","","","","","","","","","","","","","","","","","","","","","","feedback_test","","","","","","","","",""
"832","","j","psychophysics","92","278722","0.0-8.0-0.0-1.0-0.0-0.41","6","6","7","5","6","5","4","4","5","5","5","-1","-3","2","0","-1","2","1","1","5","5","5","5","4","5","5","4","4","5","8","7","9","8","8","7","7","6","8","6","3","2","6","6","5","7","2","7","5","1","7","6","7","2","6","4","7","3","3","7","2","6","5","2","2","7","6","6","7","7","7","3","3","2","1","6","7","6","3","7","759096644204761089","张","364","Male","[""好我"",""坏他"",""坏我"",""好他""]","[""强我"",""弱他"",""弱我"",""强他""]","","","","","","","","nonmatch","","","","","","","","","","key","j","16.66191743119244","768","428","j","true","nonmatch","img/trapezoid.png","好他","坏他","prac_ALT2_moral","practice_moral","","","","","","","","",""
"null","<span style='color:GreenYellow; font-size: 70px;'>正确! </span>","null","html-keyboard-response","93","279224","0.0-8.0-0.0-1.0-0.0-1.41","6","6","7","5","6","5","4","4","5","5","5","-1","-3","2","0","-1","2","1","1","5","5","5","5","4","5","5","4","4","5","8","7","9","8","8","7","7","6","8","6","3","2","6","6","5","7","2","7","5","1","7","6","7","2","6","4","7","3","3","7","2","6","5","2","2","7","6","6","7","7","7","3","3","2","1","6","7","6","3","7","759096644204761089","张","364","Male","[""好我"",""坏他"",""坏我"",""好他""]","[""强我"",""弱他"",""弱我"",""强他""]","","","","","","","","","","","","","","","","","","","","","","","","","","","","","","feedback_test","","","","","","","","",""
"898","","f","psychophysics","94","281122","0.0-8.0-0.0-1.0-0.0-0.42","6","6","7","5","6","5","4","4","5","5","5","-1","-3","2","0","-1","2","1","1","5","5","5","5","4","5","5","4","4","5","8","7","9","8","8","7","7","6","8","6","3","2","6","6","5","7","2","7","5","1","7","6","7","2","6","4","7","3","3","7","2","6","5","2","2","7","6","6","7","7","7","3","3","2","1","6","7","6","3","7","759096644204761089","张","364","Male","[""好我"",""坏他"",""坏我"",""好他""]","[""强我"",""弱他"",""弱我"",""强他""]","","","","","","","","match","","","","","","","","","","key","f","16.65978761061931","768","428","j","false","nonmatch","img/circle.png","好我","好他","prac_ALT2_moral","practice_moral","","","","","","","","",""
"null","<span style='color:red; font-size: 70px;'>错误! </span>","null","html-keyboard-response","95","281624","0.0-8.0-0.0-1.0-0.0-1.42","6","6","7","5","6","5","4","4","5","5","5","-1","-3","2","0","-1","2","1","1","5","5","5","5","4","5","5","4","4","5","8","7","9","8","8","7","7","6","8","6","3","2","6","6","5","7","2","7","5","1","7","6","7","2","6","4","7","3","3","7","2","6","5","2","2","7","6","6","7","7","7","3","3","2","1","6","7","6","3","7","759096644204761089","张","364","Male","[""好我"",""坏他"",""坏我"",""好他""]","[""强我"",""弱他"",""弱我"",""强他""]","","","","","","","","","","","","","","","","","","","","","","","","","","","","","","feedback_test","","","","","","","","",""
"699","","j","psychophysics","96","283323","0.0-8.0-0.0-1.0-0.0-0.43","6","6","7","5","6","5","4","4","5","5","5","-1","-3","2","0","-1","2","1","1","5","5","5","5","4","5","5","4","4","5","8","7","9","8","8","7","7","6","8","6","3","2","6","6","5","7","2","7","5","1","7","6","7","2","6","4","7","3","3","7","2","6","5","2","2","7","6","6","7","7","7","3","3","2","1","6","7","6","3","7","759096644204761089","张","364","Male","[""好我"",""坏他"",""坏我"",""好他""]","[""强我"",""弱他"",""弱我"",""强他""]","","","","","","","","nonmatch","","","","","","","","","","key","j","16.66053465346513","768","428","j","true","nonmatch","img/hexagon.png","坏他","坏我","prac_ALT2_moral","practice_moral","","","","","","","","",""
"null","<span style='color:GreenYellow; font-size: 70px;'>正确! </span>","null","html-keyboard-response","97","283824","0.0-8.0-0.0-1.0-0.0-1.43","6","6","7","5","6","5","4","4","5","5","5","-1","-3","2","0","-1","2","1","1","5","5","5","5","4","5","5","4","4","5","8","7","9","8","8","7","7","6","8","6","3","2","6","6","5","7","2","7","5","1","7","6","7","2","6","4","7","3","3","7","2","6","5","2","2","7","6","6","7","7","7","3","3","2","1","6","7","6","3","7","759096644204761089","张","364","Male","[""好我"",""坏他"",""坏我"",""好他""]","[""强我"",""弱他"",""弱我"",""强他""]","","","","","","","","","","","","","","","","","","","","","","","","","","","","","","feedback_test","","","","","","","","",""
"745","","f","psychophysics","98","285571","0.0-8.0-0.0-1.0-0.0-0.44","6","6","7","5","6","5","4","4","5","5","5","-1","-3","2","0","-1","2","1","1","5","5","5","5","4","5","5","4","4","5","8","7","9","8","8","7","7","6","8","6","3","2","6","6","5","7","2","7","5","1","7","6","7","2","6","4","7","3","3","7","2","6","5","2","2","7","6","6","7","7","7","3","3","2","1","6","7","6","3","7","759096644204761089","张","364","Male","[""好我"",""坏他"",""坏我"",""好他""]","[""强我"",""弱他"",""弱我"",""强他""]","","","","","","","","match","","","","","","","","","","key","f","16.66101923076908","768","428","j","false","nonmatch","img/circle.png","坏他","好他","prac_ALT2_moral","practice_moral","","","","","","","","",""
"null","<span style='color:red; font-size: 70px;'>错误! </span>","null","html-keyboard-response","99","286071","0.0-8.0-0.0-1.0-0.0-1.44","6","6","7","5","6","5","4","4","5","5","5","-1","-3","2","0","-1","2","1","1","5","5","5","5","4","5","5","4","4","5","8","7","9","8","8","7","7","6","8","6","3","2","6","6","5","7","2","7","5","1","7","6","7","2","6","4","7","3","3","7","2","6","5","2","2","7","6","6","7","7","7","3","3","2","1","6","7","6","3","7","759096644204761089","张","364","Male","[""好我"",""坏他"",""坏我"",""好他""]","[""强我"",""弱他"",""弱我"",""强他""]","","","","","","","","","","","","","","","","","","","","","","","","","","","","","","feedback_test","","","","","","","","",""
"874","","j","psychophysics","100","287947","0.0-8.0-0.0-1.0-0.0-0.45","6","6","7","5","6","5","4","4","5","5","5","-1","-3","2","0","-1","2","1","1","5","5","5","5","4","5","5","4","4","5","8","7","9","8","8","7","7","6","8","6","3","2","6","6","5","7","2","7","5","1","7","6","7","2","6","4","7","3","3","7","2","6","5","2","2","7","6","6","7","7","7","3","3","2","1","6","7","6","3","7","759096644204761089","张","364","Male","[""好我"",""坏他"",""坏我"",""好他""]","[""强我"",""弱他"",""弱我"",""强他""]","","","","","","","","nonmatch","","","","","","","","","","key","j","16.660810810810602","768","428","j","true","nonmatch","img/hexagon.png","好他","坏我","prac_ALT2_moral","practice_moral","","","","","","","","",""
"null","<span style='color:GreenYellow; font-size: 70px;'>正确! </span>","null","html-keyboard-response","101","288448","0.0-8.0-0.0-1.0-0.0-1.45","6","6","7","5","6","5","4","4","5","5","5","-1","-3","2","0","-1","2","1","1","5","5","5","5","4","5","5","4","4","5","8","7","9","8","8","7","7","6","8","6","3","2","6","6","5","7","2","7","5","1","7","6","7","2","6","4","7","3","3","7","2","6","5","2","2","7","6","6","7","7","7","3","3","2","1","6","7","6","3","7","759096644204761089","张","364","Male","[""好我"",""坏他"",""坏我"",""好他""]","[""强我"",""弱他"",""弱我"",""强他""]","","","","","","","","","","","","","","","","","","","","","","","","","","","","","","feedback_test","","","","","","","","",""
"818","","j","psychophysics","102","290266","0.0-8.0-0.0-1.0-0.0-0.46","6","6","7","5","6","5","4","4","5","5","5","-1","-3","2","0","-1","2","1","1","5","5","5","5","4","5","5","4","4","5","8","7","9","8","8","7","7","6","8","6","3","2","6","6","5","7","2","7","5","1","7","6","7","2","6","4","7","3","3","7","2","6","5","2","2","7","6","6","7","7","7","3","3","2","1","6","7","6","3","7","759096644204761089","张","364","Male","[""好我"",""坏他"",""坏我"",""好他""]","[""强我"",""弱他"",""弱我"",""强他""]","","","","","","","","nonmatch","","","","","","","","","","key","j","16.661240740740645","768","428","j","true","nonmatch","img/hexagon.png","好我","坏我","prac_ALT2_moral","practice_moral","","","","","","","","",""
"null","<span style='color:GreenYellow; font-size: 70px;'>正确! </span>","null","html-keyboard-response","103","290767","0.0-8.0-0.0-1.0-0.0-1.46","6","6","7","5","6","5","4","4","5","5","5","-1","-3","2","0","-1","2","1","1","5","5","5","5","4","5","5","4","4","5","8","7","9","8","8","7","7","6","8","6","3","2","6","6","5","7","2","7","5","1","7","6","7","2","6","4","7","3","3","7","2","6","5","2","2","7","6","6","7","7","7","3","3","2","1","6","7","6","3","7","759096644204761089","张","364","Male","[""好我"",""坏他"",""坏我"",""好他""]","[""强我"",""弱他"",""弱我"",""强他""]","","","","","","","","","","","","","","","","","","","","","","","","","","","","","","feedback_test","","","","","","","","",""
"746","","f","psychophysics","104","292515","0.0-8.0-0.0-1.0-0.0-0.47","6","6","7","5","6","5","4","4","5","5","5","-1","-3","2","0","-1","2","1","1","5","5","5","5","4","5","5","4","4","5","8","7","9","8","8","7","7","6","8","6","3","2","6","6","5","7","2","7","5","1","7","6","7","2","6","4","7","3","3","7","2","6","5","2","2","7","6","6","7","7","7","3","3","2","1","6","7","6","3","7","759096644204761089","张","364","Male","[""好我"",""坏他"",""坏我"",""好他""]","[""强我"",""弱他"",""弱我"",""强他""]","","","","","","","","match","","","","","","","","","","key","f","16.660855769230693","768","428","f","true","match","img/trapezoid.png","坏他","坏他","prac_ALT2_moral","practice_moral","","","","","","","","",""
"null","<span style='color:GreenYellow; font-size: 70px;'>正确! </span>","null","html-keyboard-response","105","293015","0.0-8.0-0.0-1.0-0.0-1.47","6","6","7","5","6","5","4","4","5","5","5","-1","-3","2","0","-1","2","1","1","5","5","5","5","4","5","5","4","4","5","8","7","9","8","8","7","7","6","8","6","3","2","6","6","5","7","2","7","5","1","7","6","7","2","6","4","7","3","3","7","2","6","5","2","2","7","6","6","7","7","7","3","3","2","1","6","7","6","3","7","759096644204761089","张","364","Male","[""好我"",""坏他"",""坏我"",""好他""]","[""强我"",""弱他"",""弱我"",""强他""]","","","","","","","","","","","","","","","","","","","","","","","","","","","","","","feedback_test","","","","","","","","",""
"1572","<style>.context{color:white; font-size: 35px; line-height:40px}</style>                            <div><p class='context'>您正确回答了85% 的试次。</p><p class='context'>您的平均反应时为801毫秒。</p><p class='context'>恭喜您完成练习。按空格键进入正式实验。</p><p class='footer' style='font-size: 35px; line-height:40px;'>请在进入正式实验实验之前将您的<span style='color: lightgreen;'>食指</span>放在电脑键盘的相应键位上进行按键。</p>"," ","html-keyboard-response","106","294589","0.0-8.0-0.0-2.0","6","6","7","5","6","5","4","4","5","5","5","-1","-3","2","0","-1","2","1","1","5","5","5","5","4","5","5","4","4","5","8","7","9","8","8","7","7","6","8","6","3","2","6","6","5","7","2","7","5","1","7","6","7","2","6","4","7","3","3","7","2","6","5","2","2","7","6","6","7","7","7","3","3","2","1","6","7","6","3","7","759096644204761089","张","364","Male","[""好我"",""坏他"",""坏我"",""好他""]","[""强我"",""弱他"",""弱我"",""强他""]","","","","","","","","","","","","","","","","","","","","","","","","","","","","","","","","","","","","","","",""
"1716","
    <p style='color: white; font-size: 22px'>请您将手指放在按键上，准备进入正式的匹配任务。</p>
    <p> <div style = ""color: green""><按空格键进入下一阶段的匹配任务></div></p>
    "," ","html-keyboard-response","107","296306","0.0-8.0-0.0-3.0","6","6","7","5","6","5","4","4","5","5","5","-1","-3","2","0","-1","2","1","1","5","5","5","5","4","5","5","4","4","5","8","7","9","8","8","7","7","6","8","6","3","2","6","6","5","7","2","7","5","1","7","6","7","2","6","4","7","3","3","7","2","6","5","2","2","7","6","6","7","7","7","3","3","2","1","6","7","6","3","7","759096644204761089","张","364","Male","[""好我"",""坏他"",""坏我"",""好他""]","[""强我"",""弱他"",""弱我"",""强他""]","","","","","","","","","","","","","","","","","","","","","","","","","","","","","","","","","","","","","","",""
"743","","j","psychophysics","108","298050","0.0-8.0-0.0-4.0-0.0-0.0","6","6","7","5","6","5","4","4","5","5","5","-1","-3","2","0","-1","2","1","1","5","5","5","5","4","5","5","4","4","5","8","7","9","8","8","7","7","6","8","6","3","2","6","6","5","7","2","7","5","1","7","6","7","2","6","4","7","3","3","7","2","6","5","2","2","7","6","6","7","7","7","3","3","2","1","6","7","6","3","7","759096644204761089","张","364","Male","[""好我"",""坏他"",""坏我"",""好他""]","[""强我"",""弱他"",""弱我"",""强他""]","","","","","","","","nonmatch","","","","","","","","","","key","j","16.66228846153871","768","428","j","true","nonmatch","img/diamond.png","坏他","好我","ALT2","moral","","","","","","","","",""
"null","<span style='color:GreenYellow; font-size: 70px;'>正确! </span>","null","html-keyboard-response","109","298551","0.0-8.0-0.0-4.0-0.0-1.0","6","6","7","5","6","5","4","4","5","5","5","-1","-3","2","0","-1","2","1","1","5","5","5","5","4","5","5","4","4","5","8","7","9","8","8","7","7","6","8","6","3","2","6","6","5","7","2","7","5","1","7","6","7","2","6","4","7","3","3","7","2","6","5","2","2","7","6","6","7","7","7","3","3","2","1","6","7","6","3","7","759096644204761089","张","364","Male","[""好我"",""坏他"",""坏我"",""好他""]","[""强我"",""弱他"",""弱我"",""强他""]","","","","","","","","","","","","","","","","","","","","","","","","","","","","","","feedback_test","","","","","","","","",""
"713","","f","psychophysics","110","300267","0.0-8.0-0.0-4.0-0.0-0.1","6","6","7","5","6","5","4","4","5","5","5","-1","-3","2","0","-1","2","1","1","5","5","5","5","4","5","5","4","4","5","8","7","9","8","8","7","7","6","8","6","3","2","6","6","5","7","2","7","5","1","7","6","7","2","6","4","7","3","3","7","2","6","5","2","2","7","6","6","7","7","7","3","3","2","1","6","7","6","3","7","759096644204761089","张","364","Male","[""好我"",""坏他"",""坏我"",""好他""]","[""强我"",""弱他"",""弱我"",""强他""]","","","","","","","","match","","","","","","","","","","key","f","16.66233333333352","768","428","f","true","match","img/trapezoid.png","坏他","坏他","ALT2","moral","","","","","","","","",""
"null","<span style='color:GreenYellow; font-size: 70px;'>正确! </span>","null","html-keyboard-response","111","300768","0.0-8.0-0.0-4.0-0.0-1.1","6","6","7","5","6","5","4","4","5","5","5","-1","-3","2","0","-1","2","1","1","5","5","5","5","4","5","5","4","4","5","8","7","9","8","8","7","7","6","8","6","3","2","6","6","5","7","2","7","5","1","7","6","7","2","6","4","7","3","3","7","2","6","5","2","2","7","6","6","7","7","7","3","3","2","1","6","7","6","3","7","759096644204761089","张","364","Male","[""好我"",""坏他"",""坏我"",""好他""]","[""强我"",""弱他"",""弱我"",""强他""]","","","","","","","","","","","","","","","","","","","","","","","","","","","","","","feedback_test","","","","","","","","",""
"1059","","j","psychophysics","112","302828","0.0-8.0-0.0-4.0-0.0-0.2","6","6","7","5","6","5","4","4","5","5","5","-1","-3","2","0","-1","2","1","1","5","5","5","5","4","5","5","4","4","5","8","7","9","8","8","7","7","6","8","6","3","2","6","6","5","7","2","7","5","1","7","6","7","2","6","4","7","3","3","7","2","6","5","2","2","7","6","6","7","7","7","3","3","2","1","6","7","6","3","7","759096644204761089","张","364","Male","[""好我"",""坏他"",""坏我"",""好他""]","[""强我"",""弱他"",""弱我"",""强他""]","","","","","","","","nonmatch","","","","","","","","","","key","j","16.661235772358154","768","428","j","true","nonmatch","img/trapezoid.png","坏我","坏他","ALT2","moral","","","","","","","","",""
"null","<span style='color:GreenYellow; font-size: 70px;'>正确! </span>","null","html-keyboard-response","113","303329","0.0-8.0-0.0-4.0-0.0-1.2","6","6","7","5","6","5","4","4","5","5","5","-1","-3","2","0","-1","2","1","1","5","5","5","5","4","5","5","4","4","5","8","7","9","8","8","7","7","6","8","6","3","2","6","6","5","7","2","7","5","1","7","6","7","2","6","4","7","3","3","7","2","6","5","2","2","7","6","6","7","7","7","3","3","2","1","6","7","6","3","7","759096644204761089","张","364","Male","[""好我"",""坏他"",""坏我"",""好他""]","[""强我"",""弱他"",""弱我"",""强他""]","","","","","","","","","","","","","","","","","","","","","","","","","","","","","","feedback_test","","","","","","","","",""
"657","","j","psychophysics","114","304987","0.0-8.0-0.0-4.0-0.0-0.3","6","6","7","5","6","5","4","4","5","5","5","-1","-3","2","0","-1","2","1","1","5","5","5","5","4","5","5","4","4","5","8","7","9","8","8","7","7","6","8","6","3","2","6","6","5","7","2","7","5","1","7","6","7","2","6","4","7","3","3","7","2","6","5","2","2","7","6","6","7","7","7","3","3","2","1","6","7","6","3","7","759096644204761089","张","364","Male","[""好我"",""坏他"",""坏我"",""好他""]","[""强我"",""弱他"",""弱我"",""强他""]","","","","","","","","nonmatch","","","","","","","","","","key","j","16.66236734693889","768","428","j","true","nonmatch","img/trapezoid.png","好我","坏他","ALT2","moral","","","","","","","","",""
"null","<span style='color:GreenYellow; font-size: 70px;'>正确! </span>","null","html-keyboard-response","115","305489","0.0-8.0-0.0-4.0-0.0-1.3","6","6","7","5","6","5","4","4","5","5","5","-1","-3","2","0","-1","2","1","1","5","5","5","5","4","5","5","4","4","5","8","7","9","8","8","7","7","6","8","6","3","2","6","6","5","7","2","7","5","1","7","6","7","2","6","4","7","3","3","7","2","6","5","2","2","7","6","6","7","7","7","3","3","2","1","6","7","6","3","7","759096644204761089","张","364","Male","[""好我"",""坏他"",""坏我"",""好他""]","[""强我"",""弱他"",""弱我"",""强他""]","","","","","","","","","","","","","","","","","","","","","","","","","","","","","","feedback_test","","","","","","","","",""
"873","","f","psychophysics","116","307362","0.0-8.0-0.0-4.0-0.0-0.4","6","6","7","5","6","5","4","4","5","5","5","-1","-3","2","0","-1","2","1","1","5","5","5","5","4","5","5","4","4","5","8","7","9","8","8","7","7","6","8","6","3","2","6","6","5","7","2","7","5","1","7","6","7","2","6","4","7","3","3","7","2","6","5","2","2","7","6","6","7","7","7","3","3","2","1","6","7","6","3","7","759096644204761089","张","364","Male","[""好我"",""坏他"",""坏我"",""好他""]","[""强我"",""弱他"",""弱我"",""强他""]","","","","","","","","match","","","","","","","","","","key","f","16.662339285714552","768","428","j","false","nonmatch","img/hexagon.png","坏他","坏我","ALT2","moral","","","","","","","","",""
"null","<span style='color:red; font-size: 70px;'>错误! </span>","null","html-keyboard-response","117","307863","0.0-8.0-0.0-4.0-0.0-1.4","6","6","7","5","6","5","4","4","5","5","5","-1","-3","2","0","-1","2","1","1","5","5","5","5","4","5","5","4","4","5","8","7","9","8","8","7","7","6","8","6","3","2","6","6","5","7","2","7","5","1","7","6","7","2","6","4","7","3","3","7","2","6","5","2","2","7","6","6","7","7","7","3","3","2","1","6","7","6","3","7","759096644204761089","张","364","Male","[""好我"",""坏他"",""坏我"",""好他""]","[""强我"",""弱他"",""弱我"",""强他""]","","","","","","","","","","","","","","","","","","","","","","","","","","","","","","feedback_test","","","","","","","","",""
"811","","j","psychophysics","118","309675","0.0-8.0-0.0-4.0-0.0-0.5","6","6","7","5","6","5","4","4","5","5","5","-1","-3","2","0","-1","2","1","1","5","5","5","5","4","5","5","4","4","5","8","7","9","8","8","7","7","6","8","6","3","2","6","6","5","7","2","7","5","1","7","6","7","2","6","4","7","3","3","7","2","6","5","2","2","7","6","6","7","7","7","3","3","2","1","6","7","6","3","7","759096644204761089","张","364","Male","[""好我"",""坏他"",""坏我"",""好他""]","[""强我"",""弱他"",""弱我"",""强他""]","","","","","","","","nonmatch","","","","","","","","","","key","j","16.662583333333412","768","428","j","true","nonmatch","img/hexagon.png","好我","坏我","ALT2","moral","","","","","","","","",""
"null","<span style='color:GreenYellow; font-size: 70px;'>正确! </span>","null","html-keyboard-response","119","310176","0.0-8.0-0.0-4.0-0.0-1.5","6","6","7","5","6","5","4","4","5","5","5","-1","-3","2","0","-1","2","1","1","5","5","5","5","4","5","5","4","4","5","8","7","9","8","8","7","7","6","8","6","3","2","6","6","5","7","2","7","5","1","7","6","7","2","6","4","7","3","3","7","2","6","5","2","2","7","6","6","7","7","7","3","3","2","1","6","7","6","3","7","759096644204761089","张","364","Male","[""好我"",""坏他"",""坏我"",""好他""]","[""强我"",""弱他"",""弱我"",""强他""]","","","","","","","","","","","","","","","","","","","","","","","","","","","","","","feedback_test","","","","","","","","",""
"841","","f","psychophysics","120","312018","0.0-8.0-0.0-4.0-0.0-0.6","6","6","7","5","6","5","4","4","5","5","5","-1","-3","2","0","-1","2","1","1","5","5","5","5","4","5","5","4","4","5","8","7","9","8","8","7","7","6","8","6","3","2","6","6","5","7","2","7","5","1","7","6","7","2","6","4","7","3","3","7","2","6","5","2","2","7","6","6","7","7","7","3","3","2","1","6","7","6","3","7","759096644204761089","张","364","Male","[""好我"",""坏他"",""坏我"",""好他""]","[""强我"",""弱他"",""弱我"",""强他""]","","","","","","","","match","","","","","","","","","","key","f","16.661788990825773","768","428","f","true","match","img/hexagon.png","坏我","坏我","ALT2","moral","","","","","","","","",""
"null","<span style='color:GreenYellow; font-size: 70px;'>正确! </span>","null","html-keyboard-response","121","312519","0.0-8.0-0.0-4.0-0.0-1.6","6","6","7","5","6","5","4","4","5","5","5","-1","-3","2","0","-1","2","1","1","5","5","5","5","4","5","5","4","4","5","8","7","9","8","8","7","7","6","8","6","3","2","6","6","5","7","2","7","5","1","7","6","7","2","6","4","7","3","3","7","2","6","5","2","2","7","6","6","7","7","7","3","3","2","1","6","7","6","3","7","759096644204761089","张","364","Male","[""好我"",""坏他"",""坏我"",""好他""]","[""强我"",""弱他"",""弱我"",""强他""]","","","","","","","","","","","","","","","","","","","","","","","","","","","","","","feedback_test","","","","","","","","",""
"778","","f","psychophysics","122","314299","0.0-8.0-0.0-4.0-0.0-0.7","6","6","7","5","6","5","4","4","5","5","5","-1","-3","2","0","-1","2","1","1","5","5","5","5","4","5","5","4","4","5","8","7","9","8","8","7","7","6","8","6","3","2","6","6","5","7","2","7","5","1","7","6","7","2","6","4","7","3","3","7","2","6","5","2","2","7","6","6","7","7","7","3","3","2","1","6","7","6","3","7","759096644204761089","张","364","Male","[""好我"",""坏他"",""坏我"",""好他""]","[""强我"",""弱他"",""弱我"",""强他""]","","","","","","","","match","","","","","","","","","","key","f","16.662377358490563","768","428","f","true","match","img/hexagon.png","坏我","坏我","ALT2","moral","","","","","","","","",""
"null","<span style='color:GreenYellow; font-size: 70px;'>正确! </span>","null","html-keyboard-response","123","314799","0.0-8.0-0.0-4.0-0.0-1.7","6","6","7","5","6","5","4","4","5","5","5","-1","-3","2","0","-1","2","1","1","5","5","5","5","4","5","5","4","4","5","8","7","9","8","8","7","7","6","8","6","3","2","6","6","5","7","2","7","5","1","7","6","7","2","6","4","7","3","3","7","2","6","5","2","2","7","6","6","7","7","7","3","3","2","1","6","7","6","3","7","759096644204761089","张","364","Male","[""好我"",""坏他"",""坏我"",""好他""]","[""强我"",""弱他"",""弱我"",""强他""]","","","","","","","","","","","","","","","","","","","","","","","","","","","","","","feedback_test","","","","","","","","",""
"741","","f","psychophysics","124","316542","0.0-8.0-0.0-4.0-0.0-0.8","6","6","7","5","6","5","4","4","5","5","5","-1","-3","2","0","-1","2","1","1","5","5","5","5","4","5","5","4","4","5","8","7","9","8","8","7","7","6","8","6","3","2","6","6","5","7","2","7","5","1","7","6","7","2","6","4","7","3","3","7","2","6","5","2","2","7","6","6","7","7","7","3","3","2","1","6","7","6","3","7","759096644204761089","张","364","Male","[""好我"",""坏他"",""坏我"",""好他""]","[""强我"",""弱他"",""弱我"",""强他""]","","","","","","","","match","","","","","","","","","","key","f","16.660211538461645","768","428","f","true","match","img/diamond.png","好我","好我","ALT2","moral","","","","","","","","",""
"null","<span style='color:GreenYellow; font-size: 70px;'>正确! </span>","null","html-keyboard-response","125","317043","0.0-8.0-0.0-4.0-0.0-1.8","6","6","7","5","6","5","4","4","5","5","5","-1","-3","2","0","-1","2","1","1","5","5","5","5","4","5","5","4","4","5","8","7","9","8","8","7","7","6","8","6","3","2","6","6","5","7","2","7","5","1","7","6","7","2","6","4","7","3","3","7","2","6","5","2","2","7","6","6","7","7","7","3","3","2","1","6","7","6","3","7","759096644204761089","张","364","Male","[""好我"",""坏他"",""坏我"",""好他""]","[""强我"",""弱他"",""弱我"",""强他""]","","","","","","","","","","","","","","","","","","","","","","","","","","","","","","feedback_test","","","","","","","","",""
"926","","f","psychophysics","126","318971","0.0-8.0-0.0-4.0-0.0-0.9","6","6","7","5","6","5","4","4","5","5","5","-1","-3","2","0","-1","2","1","1","5","5","5","5","4","5","5","4","4","5","8","7","9","8","8","7","7","6","8","6","3","2","6","6","5","7","2","7","5","1","7","6","7","2","6","4","7","3","3","7","2","6","5","2","2","7","6","6","7","7","7","3","3","2","1","6","7","6","3","7","759096644204761089","张","364","Male","[""好我"",""坏他"",""坏我"",""好他""]","[""强我"",""弱他"",""弱我"",""强他""]","","","","","","","","match","","","","","","","","","","key","f","16.661157894736615","768","428","f","true","match","img/circle.png","好他","好他","ALT2","moral","","","","","","","","",""
"null","<span style='color:GreenYellow; font-size: 70px;'>正确! </span>","null","html-keyboard-response","127","319472","0.0-8.0-0.0-4.0-0.0-1.9","6","6","7","5","6","5","4","4","5","5","5","-1","-3","2","0","-1","2","1","1","5","5","5","5","4","5","5","4","4","5","8","7","9","8","8","7","7","6","8","6","3","2","6","6","5","7","2","7","5","1","7","6","7","2","6","4","7","3","3","7","2","6","5","2","2","7","6","6","7","7","7","3","3","2","1","6","7","6","3","7","759096644204761089","张","364","Male","[""好我"",""坏他"",""坏我"",""好他""]","[""强我"",""弱他"",""弱我"",""强他""]","","","","","","","","","","","","","","","","","","","","","","","","","","","","","","feedback_test","","","","","","","","",""
"722","","f","psychophysics","128","321196","0.0-8.0-0.0-4.0-0.0-0.10","6","6","7","5","6","5","4","4","5","5","5","-1","-3","2","0","-1","2","1","1","5","5","5","5","4","5","5","4","4","5","8","7","9","8","8","7","7","6","8","6","3","2","6","6","5","7","2","7","5","1","7","6","7","2","6","4","7","3","3","7","2","6","5","2","2","7","6","6","7","7","7","3","3","2","1","6","7","6","3","7","759096644204761089","张","364","Male","[""好我"",""坏他"",""坏我"",""好他""]","[""强我"",""弱他"",""弱我"",""强他""]","","","","","","","","match","","","","","","","","","","key","f","16.661372549019813","768","428","f","true","match","img/trapezoid.png","坏他","坏他","ALT2","moral","","","","","","","","",""
"null","<span style='color:GreenYellow; font-size: 70px;'>正确! </span>","null","html-keyboard-response","129","321696","0.0-8.0-0.0-4.0-0.0-1.10","6","6","7","5","6","5","4","4","5","5","5","-1","-3","2","0","-1","2","1","1","5","5","5","5","4","5","5","4","4","5","8","7","9","8","8","7","7","6","8","6","3","2","6","6","5","7","2","7","5","1","7","6","7","2","6","4","7","3","3","7","2","6","5","2","2","7","6","6","7","7","7","3","3","2","1","6","7","6","3","7","759096644204761089","张","364","Male","[""好我"",""坏他"",""坏我"",""好他""]","[""强我"",""弱他"",""弱我"",""强他""]","","","","","","","","","","","","","","","","","","","","","","","","","","","","","","feedback_test","","","","","","","","",""
"729","","f","psychophysics","130","323426","0.0-8.0-0.0-4.0-0.0-0.11","6","6","7","5","6","5","4","4","5","5","5","-1","-3","2","0","-1","2","1","1","5","5","5","5","4","5","5","4","4","5","8","7","9","8","8","7","7","6","8","6","3","2","6","6","5","7","2","7","5","1","7","6","7","2","6","4","7","3","3","7","2","6","5","2","2","7","6","6","7","7","7","3","3","2","1","6","7","6","3","7","759096644204761089","张","364","Male","[""好我"",""坏他"",""坏我"",""好他""]","[""强我"",""弱他"",""弱我"",""强他""]","","","","","","","","match","","","","","","","","","","key","f","16.662077669903084","768","428","f","true","match","img/diamond.png","好我","好我","ALT2","moral","","","","","","","","",""
"null","<span style='color:GreenYellow; font-size: 70px;'>正确! </span>","null","html-keyboard-response","131","323927","0.0-8.0-0.0-4.0-0.0-1.11","6","6","7","5","6","5","4","4","5","5","5","-1","-3","2","0","-1","2","1","1","5","5","5","5","4","5","5","4","4","5","8","7","9","8","8","7","7","6","8","6","3","2","6","6","5","7","2","7","5","1","7","6","7","2","6","4","7","3","3","7","2","6","5","2","2","7","6","6","7","7","7","3","3","2","1","6","7","6","3","7","759096644204761089","张","364","Male","[""好我"",""坏他"",""坏我"",""好他""]","[""强我"",""弱他"",""弱我"",""强他""]","","","","","","","","","","","","","","","","","","","","","","","","","","","","","","feedback_test","","","","","","","","",""
"746","","j","psychophysics","132","325674","0.0-8.0-0.0-4.0-0.0-0.12","6","6","7","5","6","5","4","4","5","5","5","-1","-3","2","0","-1","2","1","1","5","5","5","5","4","5","5","4","4","5","8","7","9","8","8","7","7","6","8","6","3","2","6","6","5","7","2","7","5","1","7","6","7","2","6","4","7","3","3","7","2","6","5","2","2","7","6","6","7","7","7","3","3","2","1","6","7","6","3","7","759096644204761089","张","364","Male","[""好我"",""坏他"",""坏我"",""好他""]","[""强我"",""弱他"",""弱我"",""强他""]","","","","","","","","nonmatch","","","","","","","","","","key","j","16.660951923076937","768","428","j","true","nonmatch","img/circle.png","坏我","好他","ALT2","moral","","","","","","","","",""
"null","<span style='color:GreenYellow; font-size: 70px;'>正确! </span>","null","html-keyboard-response","133","326176","0.0-8.0-0.0-4.0-0.0-1.12","6","6","7","5","6","5","4","4","5","5","5","-1","-3","2","0","-1","2","1","1","5","5","5","5","4","5","5","4","4","5","8","7","9","8","8","7","7","6","8","6","3","2","6","6","5","7","2","7","5","1","7","6","7","2","6","4","7","3","3","7","2","6","5","2","2","7","6","6","7","7","7","3","3","2","1","6","7","6","3","7","759096644204761089","张","364","Male","[""好我"",""坏他"",""坏我"",""好他""]","[""强我"",""弱他"",""弱我"",""强他""]","","","","","","","","","","","","","","","","","","","","","","","","","","","","","","feedback_test","","","","","","","","",""
"906","","j","psychophysics","134","328083","0.0-8.0-0.0-4.0-0.0-0.13","6","6","7","5","6","5","4","4","5","5","5","-1","-3","2","0","-1","2","1","1","5","5","5","5","4","5","5","4","4","5","8","7","9","8","8","7","7","6","8","6","3","2","6","6","5","7","2","7","5","1","7","6","7","2","6","4","7","3","3","7","2","6","5","2","2","7","6","6","7","7","7","3","3","2","1","6","7","6","3","7","759096644204761089","张","364","Male","[""好我"",""坏他"",""坏我"",""好他""]","[""强我"",""弱他"",""弱我"",""强他""]","","","","","","","","nonmatch","","","","","","","","","","key","j","16.660973451327454","768","428","j","true","nonmatch","img/trapezoid.png","好他","坏他","ALT2","moral","","","","","","","","",""
"null","<span style='color:GreenYellow; font-size: 70px;'>正确! </span>","null","html-keyboard-response","135","328584","0.0-8.0-0.0-4.0-0.0-1.13","6","6","7","5","6","5","4","4","5","5","5","-1","-3","2","0","-1","2","1","1","5","5","5","5","4","5","5","4","4","5","8","7","9","8","8","7","7","6","8","6","3","2","6","6","5","7","2","7","5","1","7","6","7","2","6","4","7","3","3","7","2","6","5","2","2","7","6","6","7","7","7","3","3","2","1","6","7","6","3","7","759096644204761089","张","364","Male","[""好我"",""坏他"",""坏我"",""好他""]","[""强我"",""弱他"",""弱我"",""强他""]","","","","","","","","","","","","","","","","","","","","","","","","","","","","","","feedback_test","","","","","","","","",""
"746","","j","psychophysics","136","330330","0.0-8.0-0.0-4.0-0.0-0.14","6","6","7","5","6","5","4","4","5","5","5","-1","-3","2","0","-1","2","1","1","5","5","5","5","4","5","5","4","4","5","8","7","9","8","8","7","7","6","8","6","3","2","6","6","5","7","2","7","5","1","7","6","7","2","6","4","7","3","3","7","2","6","5","2","2","7","6","6","7","7","7","3","3","2","1","6","7","6","3","7","759096644204761089","张","364","Male","[""好我"",""坏他"",""坏我"",""好他""]","[""强我"",""弱他"",""弱我"",""强他""]","","","","","","","","nonmatch","","","","","","","","","","key","j","16.659563106796092","768","428","j","true","nonmatch","img/hexagon.png","好他","坏我","ALT2","moral","","","","","","","","",""
"null","<span style='color:GreenYellow; font-size: 70px;'>正确! </span>","null","html-keyboard-response","137","330831","0.0-8.0-0.0-4.0-0.0-1.14","6","6","7","5","6","5","4","4","5","5","5","-1","-3","2","0","-1","2","1","1","5","5","5","5","4","5","5","4","4","5","8","7","9","8","8","7","7","6","8","6","3","2","6","6","5","7","2","7","5","1","7","6","7","2","6","4","7","3","3","7","2","6","5","2","2","7","6","6","7","7","7","3","3","2","1","6","7","6","3","7","759096644204761089","张","364","Male","[""好我"",""坏他"",""坏我"",""好他""]","[""强我"",""弱他"",""弱我"",""强他""]","","","","","","","","","","","","","","","","","","","","","","","","","","","","","","feedback_test","","","","","","","","",""
