"rt","stimulus","response","trial_type","trial_index","time_elapsed","internal_node_id","swb_1","swb_2","swb_3","swb_4","swb_5","LOT_1","LOT_2","LOT_3","LOT_4","LOT_5","LOT_6","IPC_1","IPC_2","IPC_3","IPC_4","IPC_5","IPC_6","IPC_7","IPC_8","MorIden_1","MorIden_2","MorIden_3","MorIden_4","MorIden_5","MorIden_6","MorIden_7","MorIden_8","MorIden_9","MorIden_10","moralSeImag_1","moralSeImag_2","moralSeImag_3","moralSeImag_4","moralSeImag_5","moralSeImag_6","moralSeImag_7","moralSeImag_8","moralSeImag_9","sde_1","sde_2","sde_3","sde_4","sde_5","sde_6","sde_7","sde_8","sde_9","sde_10","trap2","sde_11","sde_12","sde_13","sde_14","sde_15","sde_16","sde_17","sde_18","sde_19","sde_20","IM_1","IM_2","IM_3","IM_4","IM_5","IM_6","IM_7","IM_8","IM_9","IM_10","IM_11","IM_12","IM_13","IM_14","IM_15","IM_16","IM_17","IM_18","IM_19","IM_20","subj_idx","friend_name","ParticipantID","Sex","Word","Word2","value","success","timeout","failed_images","failed_audio","failed_video","user_agent","responses","item_order","radio_event_ids","radio_event_times","key_event_times","mouse_event_times","straightlining","zigzagging","honeypot","view_history","response_type","key_press","avg_frame_time","center_x","center_y","correct_response","correct","identity","Image","word","condition","task_id","screen_id","time_stamp","person","valence","domain","math","status","duration","question_order","trap2_item"
"15176","
   <p><div style='color:white; font-size: 25px'>您好，欢迎参加本次实验。</div></p>
   <p><div style='color:white; font-size: 25px'>为充分保障您的权利，请确保您已经知晓并同意《参与实验同意书》以及《数据公开知情同意书》。</div></p>
   <p><div style='color:white; font-size: 25px'>如果您未见过上述内容，请咨询实验员。</div></p>
   <p style='color:white; font-size: 25px'>如果您选择继续实验，则表示您已经清楚两份知情同意书的内容并同意。</p>
   <p><div style = ""color: pink;font-size:30px;"">请确保您记得day0的实验编号，您将在本次实验输入该编号，若您忘记，请咨询实验员后作答。</div></p>
   <p><div style = ""color:lightblue;font-size:25px;"">请您尽可能认真地作答，我们将依据您在各问卷和按键任务中的作答质量发放报酬。</div></p>
   <p> <div style = ""color: green""><按空格键至下页></div> </p>
   "," ","html-keyboard-response","0","15183","0.0-0.0","4","3","2","3","3","4","2","3","2","2","5","0","-1","0","1","0","1","1","1","5","5","5","5","4","3","4","3","4","3","4","6","6","7","3","4","6","5","7","5","7","5","3","4","5","5","4","5","2","1","5","3","5","4","3","3","3","4","6","3","3","5","4","3","3","7","3","5","3","6","6","6","7","5","3","6","6","6","3","6","758376715339960322","赵","448","Female","[""好她"",""坏她"",""好我"",""坏我""]","[""强她"",""弱她"",""强我"",""弱我""]","","","","","","","","","","","","","","","","","","","","","","","","","","","","","","","","","","","","","","",""
"","","","call-function","1","15195","0.0-1.0-0.0","4","3","2","3","3","4","2","3","2","2","5","0","-1","0","1","0","1","1","1","5","5","5","5","4","3","4","3","4","3","4","6","6","7","3","4","6","5","7","5","7","5","3","4","5","5","4","5","2","1","5","3","5","4","3","3","3","4","6","3","3","5","4","3","3","7","3","5","3","6","6","6","7","5","3","6","6","6","3","6","758376715339960322","赵","448","Female","[""好她"",""坏她"",""好我"",""坏我""]","[""强她"",""弱她"",""强我"",""弱我""]","","","","","","","","","","","","","","","","","","","","","","","","","","","","","","","","","","","","","","",""
"39347","","[{""name"":""Sex"",""value"":""1""},{""name"":""friend_name"",""value"":""赵""},{""name"":""ParticipantID"",""value"":""448""}]","survey-html-form","2","54546","0.0-1.0-1.0","4","3","2","3","3","4","2","3","2","2","5","0","-1","0","1","0","1","1","1","5","5","5","5","4","3","4","3","4","3","4","6","6","7","3","4","6","5","7","5","7","5","3","4","5","5","4","5","2","1","5","3","5","4","3","3","3","4","6","3","3","5","4","3","3","7","3","5","3","6","6","6","7","5","3","6","6","6","3","6","758376715339960322","赵","448","Female","[""好她"",""坏她"",""好我"",""坏我""]","[""强她"",""弱她"",""强我"",""弱我""]","","","","","","","","","","","","","","","","","","","","","","","","","","","","","","","","","","","","","","",""
"","","","preload","3","54952","0.0-2.0","4","3","2","3","3","4","2","3","2","2","5","0","-1","0","1","0","1","1","1","5","5","5","5","4","3","4","3","4","3","4","6","6","7","3","4","6","5","7","5","7","5","3","4","5","5","4","5","2","1","5","3","5","4","3","3","3","4","6","3","3","5","4","3","3","7","3","5","3","6","6","6","7","5","3","6","6","6","3","6","758376715339960322","赵","448","Female","[""好她"",""坏她"",""好我"",""坏我""]","[""强她"",""弱她"",""强我"",""弱我""]","","true","false","[]","[]","[]","","","","","","","","","","","","","","","","","","","","","","","","","","","","","","","","",""
"","","","fullscreen","4","67172","0.0-3.0","4","3","2","3","3","4","2","3","2","2","5","0","-1","0","1","0","1","1","1","5","5","5","5","4","3","4","3","4","3","4","6","6","7","3","4","6","5","7","5","7","5","3","4","5","5","4","5","2","1","5","3","5","4","3","3","3","4","6","3","3","5","4","3","3","7","3","5","3","6","6","6","7","5","3","6","6","6","3","6","758376715339960322","赵","448","Female","[""好她"",""坏她"",""好我"",""坏我""]","[""强她"",""弱她"",""强我"",""弱我""]","","true","","","","","{}","","","","","","","","","","","","","","","","","","","","","","","","","","","","","","","",""
"18304","","{""Q01"":""4"",""Q02"":""3"",""Q03"":""2"",""Q04"":""3"",""Q05"":""3""}","survey-template","5","85480","0.0-4.0","4","3","2","3","3","4","2","3","2","2","5","0","-1","0","1","0","1","1","1","5","5","5","5","4","3","4","3","4","3","4","6","6","7","3","4","6","5","7","5","7","5","3","4","5","5","4","5","2","1","5","3","5","4","3","3","3","4","6","3","3","5","4","3","3","7","3","5","3","6","6","6","7","5","3","6","6","6","3","6","758376715339960322","赵","448","Female","[""好她"",""坏她"",""好我"",""坏我""]","[""强她"",""弱她"",""强我"",""弱我""]","","","","","","","","{""Q01"":""4"",""Q02"":""3"",""Q03"":""2"",""Q04"":""3"",""Q05"":""3""}","[0,1,2,3,4]","[""Q01"",""Q02"",""Q03"",""Q04"",""Q04"",""Q05""]","[4242.400000095367,6474.700000047684,8646.600000143051,10174.299999952316,11771.400000095367,16697.10000014305]","[]","[4242.400000095367,6474.700000047684,8646.600000143051,10174.299999952316,11771.400000095367,16697.10000014305,18300.799999952316]","0.6","0.75","0","","","","","","","","","","","","","","","","","","","","","","",""
"23619","","{""Q01"":""4"",""Q02"":""2"",""Q03"":""3"",""Q04"":""2"",""Q05"":""2"",""Q06"":""5""}","survey-template","6","109110","0.0-5.0","4","3","2","3","3","4","2","3","2","2","5","0","-1","0","1","0","1","1","1","5","5","5","5","4","3","4","3","4","3","4","6","6","7","3","4","6","5","7","5","7","5","3","4","5","5","4","5","2","1","5","3","5","4","3","3","3","4","6","3","3","5","4","3","3","7","3","5","3","6","6","6","7","5","3","6","6","6","3","6","758376715339960322","赵","448","Female","[""好她"",""坏她"",""好我"",""坏我""]","[""强她"",""弱她"",""强我"",""弱我""]","","","","","","","","{""Q01"":""4"",""Q02"":""2"",""Q03"":""3"",""Q04"":""2"",""Q05"":""2"",""Q06"":""5""}","[0,1,2,3,4,5]","[""Q01"",""Q02"",""Q03"",""Q04"",""Q05"",""Q06""]","[4898.099999904633,8521.400000095367,11018.900000095367,16627,19386.400000095367,22893.400000095367]","[]","[3751.2999999523163,4898.099999904633,8521.400000095367,11018.900000095367,15744.5,16088,16627,17154.200000047684,17819.400000095367,19386.400000095367,22893.400000095367,23617.700000047684]","0.6666666666666666","0.6","0","","","","","","","","","","","","","","","","","","","","","","",""
"24322","","{""Q01"":""0"",""Q02"":""-1"",""Q03"":""0"",""Q04"":""1"",""Q05"":""0"",""Q06"":""1"",""Q07"":""1"",""Q08"":""1""}","survey-template","7","133439","0.0-6.0","4","3","2","3","3","4","2","3","2","2","5","0","-1","0","1","0","1","1","1","5","5","5","5","4","3","4","3","4","3","4","6","6","7","3","4","6","5","7","5","7","5","3","4","5","5","4","5","2","1","5","3","5","4","3","3","3","4","6","3","3","5","4","3","3","7","3","5","3","6","6","6","7","5","3","6","6","6","3","6","758376715339960322","赵","448","Female","[""好她"",""坏她"",""好我"",""坏我""]","[""强她"",""弱她"",""强我"",""弱我""]","","","","","","","","{""Q01"":""0"",""Q02"":""-1"",""Q03"":""0"",""Q04"":""1"",""Q05"":""0"",""Q06"":""1"",""Q07"":""1"",""Q08"":""1""}","[0,1,2,3,4,5,6,7]","[""Q01"",""Q02"",""Q02"",""Q03"",""Q04"",""Q05"",""Q06"",""Q07"",""Q07"",""Q08""]","[3751.100000143051,7026.400000095367,8522.5,11169,15539.900000095367,16284.299999952316,18764.10000014305,20210,21726,23589.900000095367]","[]","[3751.100000143051,7026.400000095367,8522.5,11169,14027.900000095367,15539.900000095367,16284.299999952316,18764.10000014305,20210,21368,21726,23589.900000095367,24318.900000095367]","0.5","0.7142857142857143","0","","","","","","","","","","","","","","","","","","","","","","",""
"29753","","","instructions","8","163199","0.0-7.0","4","3","2","3","3","4","2","3","2","2","5","0","-1","0","1","0","1","1","1","5","5","5","5","4","3","4","3","4","3","4","6","6","7","3","4","6","5","7","5","7","5","3","4","5","5","4","5","2","1","5","3","5","4","3","3","3","4","6","3","3","5","4","3","3","7","3","5","3","6","6","6","7","5","3","6","6","6","3","6","758376715339960322","赵","448","Female","[""好她"",""坏她"",""好我"",""坏我""]","[""强她"",""弱她"",""强我"",""弱我""]","","","","","","","","","","","","","","","","","[{""page_index"":0,""viewing_time"":29752}]","","","","","","","","","","","","","","","","","","","","","",""
"89201","","","instructions","9","252405","0.0-8.0-1.0-0.0","4","3","2","3","3","4","2","3","2","2","5","0","-1","0","1","0","1","1","1","5","5","5","5","4","3","4","3","4","3","4","6","6","7","3","4","6","5","7","5","7","5","3","4","5","5","4","5","2","1","5","3","5","4","3","3","3","4","6","3","3","5","4","3","3","7","3","5","3","6","6","6","7","5","3","6","6","6","3","6","758376715339960322","赵","448","Female","[""好她"",""坏她"",""好我"",""坏我""]","[""强她"",""弱她"",""强我"",""弱我""]","","","","","","","","","","","","","","","","","[{""page_index"":0,""viewing_time"":16666},{""page_index"":1,""viewing_time"":64524},{""page_index"":2,""viewing_time"":6488},{""page_index"":3,""viewing_time"":1522}]","","","","","","","","","","","","","","","","","","","","","",""
"null","","null","psychophysics","10","254662","0.0-8.0-1.0-1.0-0.0-0.0","4","3","2","3","3","4","2","3","2","2","5","0","-1","0","1","0","1","1","1","5","5","5","5","4","3","4","3","4","3","4","6","6","7","3","4","6","5","7","5","7","5","3","4","5","5","4","5","2","1","5","3","5","4","3","3","3","4","6","3","3","5","4","3","3","7","3","5","3","6","6","6","7","5","3","6","6","6","3","6","758376715339960322","赵","448","Female","[""好她"",""坏她"",""好我"",""坏我""]","[""强她"",""弱她"",""强我"",""弱我""]","","","","","","","","null","","","","","","","","","","key","null","17.893204918032946","768","428","j","false","nonmatch","img/pentagon.png","弱我","强我","prac_ALT2_ability","practice_ability","","","","","","","","",""
"null","<span class='add_' style='color:yellow; font-size: 70px;'> 太慢! </span>","null","html-keyboard-response","11","255169","0.0-8.0-1.0-1.0-0.0-1.0","4","3","2","3","3","4","2","3","2","2","5","0","-1","0","1","0","1","1","1","5","5","5","5","4","3","4","3","4","3","4","6","6","7","3","4","6","5","7","5","7","5","3","4","5","5","4","5","2","1","5","3","5","4","3","3","3","4","6","3","3","5","4","3","3","7","3","5","3","6","6","6","7","5","3","6","6","6","3","6","758376715339960322","赵","448","Female","[""好她"",""坏她"",""好我"",""坏我""]","[""强她"",""弱她"",""强我"",""弱我""]","","","","","","","","","","","","","","","","","","","","","","","","","","","","","","feedback_test","","","","","","","","",""
"949","","f","psychophysics","12","257124","0.0-8.0-1.0-1.0-0.0-0.1","4","3","2","3","3","4","2","3","2","2","5","0","-1","0","1","0","1","1","1","5","5","5","5","4","3","4","3","4","3","4","6","6","7","3","4","6","5","7","5","7","5","3","4","5","5","4","5","2","1","5","3","5","4","3","3","3","4","6","3","3","5","4","3","3","7","3","5","3","6","6","6","7","5","3","6","6","6","3","6","758376715339960322","赵","448","Female","[""好她"",""坏她"",""好我"",""坏我""]","[""强她"",""弱她"",""强我"",""弱我""]","","","","","","","","match","","","","","","","","","","key","f","16.663424778761097","768","428","f","true","match","img/trapezoid.png","弱她","弱她","prac_ALT2_ability","practice_ability","","","","","","","","",""
"null","<span style='color:GreenYellow; font-size: 70px;'>正确! </span>","null","html-keyboard-response","13","257628","0.0-8.0-1.0-1.0-0.0-1.1","4","3","2","3","3","4","2","3","2","2","5","0","-1","0","1","0","1","1","1","5","5","5","5","4","3","4","3","4","3","4","6","6","7","3","4","6","5","7","5","7","5","3","4","5","5","4","5","2","1","5","3","5","4","3","3","3","4","6","3","3","5","4","3","3","7","3","5","3","6","6","6","7","5","3","6","6","6","3","6","758376715339960322","赵","448","Female","[""好她"",""坏她"",""好我"",""坏我""]","[""强她"",""弱她"",""强我"",""弱我""]","","","","","","","","","","","","","","","","","","","","","","","","","","","","","","feedback_test","","","","","","","","",""
"758","","f","psychophysics","14","259393","0.0-8.0-1.0-1.0-0.0-0.2","4","3","2","3","3","4","2","3","2","2","5","0","-1","0","1","0","1","1","1","5","5","5","5","4","3","4","3","4","3","4","6","6","7","3","4","6","5","7","5","7","5","3","4","5","5","4","5","2","1","5","3","5","4","3","3","3","4","6","3","3","5","4","3","3","7","3","5","3","6","6","6","7","5","3","6","6","6","3","6","758376715339960322","赵","448","Female","[""好她"",""坏她"",""好我"",""坏我""]","[""强她"",""弱她"",""强我"",""弱我""]","","","","","","","","match","","","","","","","","","","key","f","16.665125000000096","768","428","f","true","match","img/trapezoid.png","弱她","弱她","prac_ALT2_ability","practice_ability","","","","","","","","",""
"null","<span style='color:GreenYellow; font-size: 70px;'>正确! </span>","null","html-keyboard-response","15","259898","0.0-8.0-1.0-1.0-0.0-1.2","4","3","2","3","3","4","2","3","2","2","5","0","-1","0","1","0","1","1","1","5","5","5","5","4","3","4","3","4","3","4","6","6","7","3","4","6","5","7","5","7","5","3","4","5","5","4","5","2","1","5","3","5","4","3","3","3","4","6","3","3","5","4","3","3","7","3","5","3","6","6","6","7","5","3","6","6","6","3","6","758376715339960322","赵","448","Female","[""好她"",""坏她"",""好我"",""坏我""]","[""强她"",""弱她"",""强我"",""弱我""]","","","","","","","","","","","","","","","","","","","","","","","","","","","","","","feedback_test","","","","","","","","",""
"577","","f","psychophysics","16","261481","0.0-8.0-1.0-1.0-0.0-0.3","4","3","2","3","3","4","2","3","2","2","5","0","-1","0","1","0","1","1","1","5","5","5","5","4","3","4","3","4","3","4","6","6","7","3","4","6","5","7","5","7","5","3","4","5","5","4","5","2","1","5","3","5","4","3","3","3","4","6","3","3","5","4","3","3","7","3","5","3","6","6","6","7","5","3","6","6","6","3","6","758376715339960322","赵","448","Female","[""好她"",""坏她"",""好我"",""坏我""]","[""强她"",""弱她"",""强我"",""弱我""]","","","","","","","","match","","","","","","","","","","key","f","16.664978723404584","768","428","f","true","match","img/circle.png","强她","强她","prac_ALT2_ability","practice_ability","","","","","","","","",""
"null","<span style='color:GreenYellow; font-size: 70px;'>正确! </span>","null","html-keyboard-response","17","261984","0.0-8.0-1.0-1.0-0.0-1.3","4","3","2","3","3","4","2","3","2","2","5","0","-1","0","1","0","1","1","1","5","5","5","5","4","3","4","3","4","3","4","6","6","7","3","4","6","5","7","5","7","5","3","4","5","5","4","5","2","1","5","3","5","4","3","3","3","4","6","3","3","5","4","3","3","7","3","5","3","6","6","6","7","5","3","6","6","6","3","6","758376715339960322","赵","448","Female","[""好她"",""坏她"",""好我"",""坏我""]","[""强她"",""弱她"",""强我"",""弱我""]","","","","","","","","","","","","","","","","","","","","","","","","","","","","","","feedback_test","","","","","","","","",""
"701","","f","psychophysics","18","263690","0.0-8.0-1.0-1.0-0.0-0.4","4","3","2","3","3","4","2","3","2","2","5","0","-1","0","1","0","1","1","1","5","5","5","5","4","3","4","3","4","3","4","6","6","7","3","4","6","5","7","5","7","5","3","4","5","5","4","5","2","1","5","3","5","4","3","3","3","4","6","3","3","5","4","3","3","7","3","5","3","6","6","6","7","5","3","6","6","6","3","6","758376715339960322","赵","448","Female","[""好她"",""坏她"",""好我"",""坏我""]","[""强她"",""弱她"",""强我"",""弱我""]","","","","","","","","match","","","","","","","","","","key","f","16.66717000000004","768","428","j","false","nonmatch","img/square.png","强我","弱我","prac_ALT2_ability","practice_ability","","","","","","","","",""
"null","<span style='color:red; font-size: 70px;'>错误! </span>","null","html-keyboard-response","19","264195","0.0-8.0-1.0-1.0-0.0-1.4","4","3","2","3","3","4","2","3","2","2","5","0","-1","0","1","0","1","1","1","5","5","5","5","4","3","4","3","4","3","4","6","6","7","3","4","6","5","7","5","7","5","3","4","5","5","4","5","2","1","5","3","5","4","3","3","3","4","6","3","3","5","4","3","3","7","3","5","3","6","6","6","7","5","3","6","6","6","3","6","758376715339960322","赵","448","Female","[""好她"",""坏她"",""好我"",""坏我""]","[""强她"",""弱她"",""强我"",""弱我""]","","","","","","","","","","","","","","","","","","","","","","","","","","","","","","feedback_test","","","","","","","","",""
"797","","f","psychophysics","20","265997","0.0-8.0-1.0-1.0-0.0-0.5","4","3","2","3","3","4","2","3","2","2","5","0","-1","0","1","0","1","1","1","5","5","5","5","4","3","4","3","4","3","4","6","6","7","3","4","6","5","7","5","7","5","3","4","5","5","4","5","2","1","5","3","5","4","3","3","3","4","6","3","3","5","4","3","3","7","3","5","3","6","6","6","7","5","3","6","6","6","3","6","758376715339960322","赵","448","Female","[""好她"",""坏她"",""好我"",""坏我""]","[""强她"",""弱她"",""强我"",""弱我""]","","","","","","","","match","","","","","","","","","","key","f","16.66566355140155","768","428","j","false","nonmatch","img/trapezoid.png","弱我","弱她","prac_ALT2_ability","practice_ability","","","","","","","","",""
"null","<span style='color:red; font-size: 70px;'>错误! </span>","null","html-keyboard-response","21","266499","0.0-8.0-1.0-1.0-0.0-1.5","4","3","2","3","3","4","2","3","2","2","5","0","-1","0","1","0","1","1","1","5","5","5","5","4","3","4","3","4","3","4","6","6","7","3","4","6","5","7","5","7","5","3","4","5","5","4","5","2","1","5","3","5","4","3","3","3","4","6","3","3","5","4","3","3","7","3","5","3","6","6","6","7","5","3","6","6","6","3","6","758376715339960322","赵","448","Female","[""好她"",""坏她"",""好我"",""坏我""]","[""强她"",""弱她"",""强我"",""弱我""]","","","","","","","","","","","","","","","","","","","","","","","","","","","","","","feedback_test","","","","","","","","",""
"905","","f","psychophysics","22","268410","0.0-8.0-1.0-1.0-0.0-0.6","4","3","2","3","3","4","2","3","2","2","5","0","-1","0","1","0","1","1","1","5","5","5","5","4","3","4","3","4","3","4","6","6","7","3","4","6","5","7","5","7","5","3","4","5","5","4","5","2","1","5","3","5","4","3","3","3","4","6","3","3","5","4","3","3","7","3","5","3","6","6","6","7","5","3","6","6","6","3","6","758376715339960322","赵","448","Female","[""好她"",""坏她"",""好我"",""坏我""]","[""强她"",""弱她"",""强我"",""弱我""]","","","","","","","","match","","","","","","","","","","key","f","16.664415929203265","768","428","f","true","match","img/pentagon.png","强我","强我","prac_ALT2_ability","practice_ability","","","","","","","","",""
"null","<span style='color:GreenYellow; font-size: 70px;'>正确! </span>","null","html-keyboard-response","23","268914","0.0-8.0-1.0-1.0-0.0-1.6","4","3","2","3","3","4","2","3","2","2","5","0","-1","0","1","0","1","1","1","5","5","5","5","4","3","4","3","4","3","4","6","6","7","3","4","6","5","7","5","7","5","3","4","5","5","4","5","2","1","5","3","5","4","3","3","3","4","6","3","3","5","4","3","3","7","3","5","3","6","6","6","7","5","3","6","6","6","3","6","758376715339960322","赵","448","Female","[""好她"",""坏她"",""好我"",""坏我""]","[""强她"",""弱她"",""强我"",""弱我""]","","","","","","","","","","","","","","","","","","","","","","","","","","","","","","feedback_test","","","","","","","","",""
"718","","f","psychophysics","24","270637","0.0-8.0-1.0-1.0-0.0-0.7","4","3","2","3","3","4","2","3","2","2","5","0","-1","0","1","0","1","1","1","5","5","5","5","4","3","4","3","4","3","4","6","6","7","3","4","6","5","7","5","7","5","3","4","5","5","4","5","2","1","5","3","5","4","3","3","3","4","6","3","3","5","4","3","3","7","3","5","3","6","6","6","7","5","3","6","6","6","3","6","758376715339960322","赵","448","Female","[""好她"",""坏她"",""好我"",""坏我""]","[""强她"",""弱她"",""强我"",""弱我""]","","","","","","","","match","","","","","","","","","","key","f","16.666529411764465","768","428","f","true","match","img/trapezoid.png","弱她","弱她","prac_ALT2_ability","practice_ability","","","","","","","","",""
"null","<span style='color:GreenYellow; font-size: 70px;'>正确! </span>","null","html-keyboard-response","25","271141","0.0-8.0-1.0-1.0-0.0-1.7","4","3","2","3","3","4","2","3","2","2","5","0","-1","0","1","0","1","1","1","5","5","5","5","4","3","4","3","4","3","4","6","6","7","3","4","6","5","7","5","7","5","3","4","5","5","4","5","2","1","5","3","5","4","3","3","3","4","6","3","3","5","4","3","3","7","3","5","3","6","6","6","7","5","3","6","6","6","3","6","758376715339960322","赵","448","Female","[""好她"",""坏她"",""好我"",""坏我""]","[""强她"",""弱她"",""强我"",""弱我""]","","","","","","","","","","","","","","","","","","","","","","","","","","","","","","feedback_test","","","","","","","","",""
"596","","f","psychophysics","26","272743","0.0-8.0-1.0-1.0-0.0-0.8","4","3","2","3","3","4","2","3","2","2","5","0","-1","0","1","0","1","1","1","5","5","5","5","4","3","4","3","4","3","4","6","6","7","3","4","6","5","7","5","7","5","3","4","5","5","4","5","2","1","5","3","5","4","3","3","3","4","6","3","3","5","4","3","3","7","3","5","3","6","6","6","7","5","3","6","6","6","3","6","758376715339960322","赵","448","Female","[""好她"",""坏她"",""好我"",""坏我""]","[""强她"",""弱她"",""强我"",""弱我""]","","","","","","","","match","","","","","","","","","","key","f","16.66837634408586","768","428","f","true","match","img/circle.png","强她","强她","prac_ALT2_ability","practice_ability","","","","","","","","",""
"null","<span style='color:GreenYellow; font-size: 70px;'>正确! </span>","null","html-keyboard-response","27","273248","0.0-8.0-1.0-1.0-0.0-1.8","4","3","2","3","3","4","2","3","2","2","5","0","-1","0","1","0","1","1","1","5","5","5","5","4","3","4","3","4","3","4","6","6","7","3","4","6","5","7","5","7","5","3","4","5","5","4","5","2","1","5","3","5","4","3","3","3","4","6","3","3","5","4","3","3","7","3","5","3","6","6","6","7","5","3","6","6","6","3","6","758376715339960322","赵","448","Female","[""好她"",""坏她"",""好我"",""坏我""]","[""强她"",""弱她"",""强我"",""弱我""]","","","","","","","","","","","","","","","","","","","","","","","","","","","","","","feedback_test","","","","","","","","",""
"695","","f","psychophysics","28","274947","0.0-8.0-1.0-1.0-0.0-0.9","4","3","2","3","3","4","2","3","2","2","5","0","-1","0","1","0","1","1","1","5","5","5","5","4","3","4","3","4","3","4","6","6","7","3","4","6","5","7","5","7","5","3","4","5","5","4","5","2","1","5","3","5","4","3","3","3","4","6","3","3","5","4","3","3","7","3","5","3","6","6","6","7","5","3","6","6","6","3","6","758376715339960322","赵","448","Female","[""好她"",""坏她"",""好我"",""坏我""]","[""强她"",""弱她"",""强我"",""弱我""]","","","","","","","","match","","","","","","","","","","key","f","16.664059405940662","768","428","f","true","match","img/square.png","弱我","弱我","prac_ALT2_ability","practice_ability","","","","","","","","",""
"null","<span style='color:GreenYellow; font-size: 70px;'>正确! </span>","null","html-keyboard-response","29","275451","0.0-8.0-1.0-1.0-0.0-1.9","4","3","2","3","3","4","2","3","2","2","5","0","-1","0","1","0","1","1","1","5","5","5","5","4","3","4","3","4","3","4","6","6","7","3","4","6","5","7","5","7","5","3","4","5","5","4","5","2","1","5","3","5","4","3","3","3","4","6","3","3","5","4","3","3","7","3","5","3","6","6","6","7","5","3","6","6","6","3","6","758376715339960322","赵","448","Female","[""好她"",""坏她"",""好我"",""坏我""]","[""强她"",""弱她"",""强我"",""弱我""]","","","","","","","","","","","","","","","","","","","","","","","","","","","","","","feedback_test","","","","","","","","",""
"788","","f","psychophysics","30","277245","0.0-8.0-1.0-1.0-0.0-0.10","4","3","2","3","3","4","2","3","2","2","5","0","-1","0","1","0","1","1","1","5","5","5","5","4","3","4","3","4","3","4","6","6","7","3","4","6","5","7","5","7","5","3","4","5","5","4","5","2","1","5","3","5","4","3","3","3","4","6","3","3","5","4","3","3","7","3","5","3","6","6","6","7","5","3","6","6","6","3","6","758376715339960322","赵","448","Female","[""好她"",""坏她"",""好我"",""坏我""]","[""强她"",""弱她"",""强我"",""弱我""]","","","","","","","","match","","","","","","","","","","key","f","16.664018691588677","768","428","f","true","match","img/square.png","弱我","弱我","prac_ALT2_ability","practice_ability","","","","","","","","",""
"null","<span style='color:GreenYellow; font-size: 70px;'>正确! </span>","null","html-keyboard-response","31","277750","0.0-8.0-1.0-1.0-0.0-1.10","4","3","2","3","3","4","2","3","2","2","5","0","-1","0","1","0","1","1","1","5","5","5","5","4","3","4","3","4","3","4","6","6","7","3","4","6","5","7","5","7","5","3","4","5","5","4","5","2","1","5","3","5","4","3","3","3","4","6","3","3","5","4","3","3","7","3","5","3","6","6","6","7","5","3","6","6","6","3","6","758376715339960322","赵","448","Female","[""好她"",""坏她"",""好我"",""坏我""]","[""强她"",""弱她"",""强我"",""弱我""]","","","","","","","","","","","","","","","","","","","","","","","","","","","","","","feedback_test","","","","","","","","",""
"933","","j","psychophysics","32","279689","0.0-8.0-1.0-1.0-0.0-0.11","4","3","2","3","3","4","2","3","2","2","5","0","-1","0","1","0","1","1","1","5","5","5","5","4","3","4","3","4","3","4","6","6","7","3","4","6","5","7","5","7","5","3","4","5","5","4","5","2","1","5","3","5","4","3","3","3","4","6","3","3","5","4","3","3","7","3","5","3","6","6","6","7","5","3","6","6","6","3","6","758376715339960322","赵","448","Female","[""好她"",""坏她"",""好我"",""坏我""]","[""强她"",""弱她"",""强我"",""弱我""]","","","","","","","","nonmatch","","","","","","","","","","key","j","16.664315789473843","768","428","j","true","nonmatch","img/trapezoid.png","强我","弱她","prac_ALT2_ability","practice_ability","","","","","","","","",""
"null","<span style='color:GreenYellow; font-size: 70px;'>正确! </span>","null","html-keyboard-response","33","280193","0.0-8.0-1.0-1.0-0.0-1.11","4","3","2","3","3","4","2","3","2","2","5","0","-1","0","1","0","1","1","1","5","5","5","5","4","3","4","3","4","3","4","6","6","7","3","4","6","5","7","5","7","5","3","4","5","5","4","5","2","1","5","3","5","4","3","3","3","4","6","3","3","5","4","3","3","7","3","5","3","6","6","6","7","5","3","6","6","6","3","6","758376715339960322","赵","448","Female","[""好她"",""坏她"",""好我"",""坏我""]","[""强她"",""弱她"",""强我"",""弱我""]","","","","","","","","","","","","","","","","","","","","","","","","","","","","","","feedback_test","","","","","","","","",""
"626","","f","psychophysics","34","281826","0.0-8.0-1.0-1.0-0.0-0.12","4","3","2","3","3","4","2","3","2","2","5","0","-1","0","1","0","1","1","1","5","5","5","5","4","3","4","3","4","3","4","6","6","7","3","4","6","5","7","5","7","5","3","4","5","5","4","5","2","1","5","3","5","4","3","3","3","4","6","3","3","5","4","3","3","7","3","5","3","6","6","6","7","5","3","6","6","6","3","6","758376715339960322","赵","448","Female","[""好她"",""坏她"",""好我"",""坏我""]","[""强她"",""弱她"",""强我"",""弱我""]","","","","","","","","match","","","","","","","","","","key","f","16.662768421053126","768","428","f","true","match","img/pentagon.png","强我","强我","prac_ALT2_ability","practice_ability","","","","","","","","",""
"null","<span style='color:GreenYellow; font-size: 70px;'>正确! </span>","null","html-keyboard-response","35","282329","0.0-8.0-1.0-1.0-0.0-1.12","4","3","2","3","3","4","2","3","2","2","5","0","-1","0","1","0","1","1","1","5","5","5","5","4","3","4","3","4","3","4","6","6","7","3","4","6","5","7","5","7","5","3","4","5","5","4","5","2","1","5","3","5","4","3","3","3","4","6","3","3","5","4","3","3","7","3","5","3","6","6","6","7","5","3","6","6","6","3","6","758376715339960322","赵","448","Female","[""好她"",""坏她"",""好我"",""坏我""]","[""强她"",""弱她"",""强我"",""弱我""]","","","","","","","","","","","","","","","","","","","","","","","","","","","","","","feedback_test","","","","","","","","",""
"658","","f","psychophysics","36","283993","0.0-8.0-1.0-1.0-0.0-0.13","4","3","2","3","3","4","2","3","2","2","5","0","-1","0","1","0","1","1","1","5","5","5","5","4","3","4","3","4","3","4","6","6","7","3","4","6","5","7","5","7","5","3","4","5","5","4","5","2","1","5","3","5","4","3","3","3","4","6","3","3","5","4","3","3","7","3","5","3","6","6","6","7","5","3","6","6","6","3","6","758376715339960322","赵","448","Female","[""好她"",""坏她"",""好我"",""坏我""]","[""强她"",""弱她"",""强我"",""弱我""]","","","","","","","","match","","","","","","","","","","key","f","16.664313131313055","768","428","f","true","match","img/pentagon.png","强我","强我","prac_ALT2_ability","practice_ability","","","","","","","","",""
"null","<span style='color:GreenYellow; font-size: 70px;'>正确! </span>","null","html-keyboard-response","37","284497","0.0-8.0-1.0-1.0-0.0-1.13","4","3","2","3","3","4","2","3","2","2","5","0","-1","0","1","0","1","1","1","5","5","5","5","4","3","4","3","4","3","4","6","6","7","3","4","6","5","7","5","7","5","3","4","5","5","4","5","2","1","5","3","5","4","3","3","3","4","6","3","3","5","4","3","3","7","3","5","3","6","6","6","7","5","3","6","6","6","3","6","758376715339960322","赵","448","Female","[""好她"",""坏她"",""好我"",""坏我""]","[""强她"",""弱她"",""强我"",""弱我""]","","","","","","","","","","","","","","","","","","","","","","","","","","","","","","feedback_test","","","","","","","","",""
"728","","j","psychophysics","38","286230","0.0-8.0-1.0-1.0-0.0-0.14","4","3","2","3","3","4","2","3","2","2","5","0","-1","0","1","0","1","1","1","5","5","5","5","4","3","4","3","4","3","4","6","6","7","3","4","6","5","7","5","7","5","3","4","5","5","4","5","2","1","5","3","5","4","3","3","3","4","6","3","3","5","4","3","3","7","3","5","3","6","6","6","7","5","3","6","6","6","3","6","758376715339960322","赵","448","Female","[""好她"",""坏她"",""好我"",""坏我""]","[""强她"",""弱她"",""强我"",""弱我""]","","","","","","","","nonmatch","","","","","","","","","","key","j","16.664097087378657","768","428","j","true","nonmatch","img/square.png","弱她","弱我","prac_ALT2_ability","practice_ability","","","","","","","","",""
"null","<span style='color:GreenYellow; font-size: 70px;'>正确! </span>","null","html-keyboard-response","39","286733","0.0-8.0-1.0-1.0-0.0-1.14","4","3","2","3","3","4","2","3","2","2","5","0","-1","0","1","0","1","1","1","5","5","5","5","4","3","4","3","4","3","4","6","6","7","3","4","6","5","7","5","7","5","3","4","5","5","4","5","2","1","5","3","5","4","3","3","3","4","6","3","3","5","4","3","3","7","3","5","3","6","6","6","7","5","3","6","6","6","3","6","758376715339960322","赵","448","Female","[""好她"",""坏她"",""好我"",""坏我""]","[""强她"",""弱她"",""强我"",""弱我""]","","","","","","","","","","","","","","","","","","","","","","","","","","","","","","feedback_test","","","","","","","","",""
"838","","j","psychophysics","40","288576","0.0-8.0-1.0-1.0-0.0-0.15","4","3","2","3","3","4","2","3","2","2","5","0","-1","0","1","0","1","1","1","5","5","5","5","4","3","4","3","4","3","4","6","6","7","3","4","6","5","7","5","7","5","3","4","5","5","4","5","2","1","5","3","5","4","3","3","3","4","6","3","3","5","4","3","3","7","3","5","3","6","6","6","7","5","3","6","6","6","3","6","758376715339960322","赵","448","Female","[""好她"",""坏她"",""好我"",""坏我""]","[""强她"",""弱她"",""强我"",""弱我""]","","","","","","","","nonmatch","","","","","","","","","","key","j","16.666037037037313","768","428","j","true","nonmatch","img/square.png","强她","弱我","prac_ALT2_ability","practice_ability","","","","","","","","",""
"null","<span style='color:GreenYellow; font-size: 70px;'>正确! </span>","null","html-keyboard-response","41","289080","0.0-8.0-1.0-1.0-0.0-1.15","4","3","2","3","3","4","2","3","2","2","5","0","-1","0","1","0","1","1","1","5","5","5","5","4","3","4","3","4","3","4","6","6","7","3","4","6","5","7","5","7","5","3","4","5","5","4","5","2","1","5","3","5","4","3","3","3","4","6","3","3","5","4","3","3","7","3","5","3","6","6","6","7","5","3","6","6","6","3","6","758376715339960322","赵","448","Female","[""好她"",""坏她"",""好我"",""坏我""]","[""强她"",""弱她"",""强我"",""弱我""]","","","","","","","","","","","","","","","","","","","","","","","","","","","","","","feedback_test","","","","","","","","",""
"764","","j","psychophysics","42","290848","0.0-8.0-1.0-1.0-0.0-0.16","4","3","2","3","3","4","2","3","2","2","5","0","-1","0","1","0","1","1","1","5","5","5","5","4","3","4","3","4","3","4","6","6","7","3","4","6","5","7","5","7","5","3","4","5","5","4","5","2","1","5","3","5","4","3","3","3","4","6","3","3","5","4","3","3","7","3","5","3","6","6","6","7","5","3","6","6","6","3","6","758376715339960322","赵","448","Female","[""好她"",""坏她"",""好我"",""坏我""]","[""强她"",""弱她"",""强我"",""弱我""]","","","","","","","","nonmatch","","","","","","","","","","key","j","16.826951456310464","768","428","j","true","nonmatch","img/circle.png","弱她","强她","prac_ALT2_ability","practice_ability","","","","","","","","",""
"null","<span style='color:GreenYellow; font-size: 70px;'>正确! </span>","null","html-keyboard-response","43","291352","0.0-8.0-1.0-1.0-0.0-1.16","4","3","2","3","3","4","2","3","2","2","5","0","-1","0","1","0","1","1","1","5","5","5","5","4","3","4","3","4","3","4","6","6","7","3","4","6","5","7","5","7","5","3","4","5","5","4","5","2","1","5","3","5","4","3","3","3","4","6","3","3","5","4","3","3","7","3","5","3","6","6","6","7","5","3","6","6","6","3","6","758376715339960322","赵","448","Female","[""好她"",""坏她"",""好我"",""坏我""]","[""强她"",""弱她"",""强我"",""弱我""]","","","","","","","","","","","","","","","","","","","","","","","","","","","","","","feedback_test","","","","","","","","",""
"578","","f","psychophysics","44","292936","0.0-8.0-1.0-1.0-0.0-0.17","4","3","2","3","3","4","2","3","2","2","5","0","-1","0","1","0","1","1","1","5","5","5","5","4","3","4","3","4","3","4","6","6","7","3","4","6","5","7","5","7","5","3","4","5","5","4","5","2","1","5","3","5","4","3","3","3","4","6","3","3","5","4","3","3","7","3","5","3","6","6","6","7","5","3","6","6","6","3","6","758376715339960322","赵","448","Female","[""好她"",""坏她"",""好我"",""坏我""]","[""强她"",""弱她"",""强我"",""弱我""]","","","","","","","","match","","","","","","","","","","key","f","16.66622826086962","768","428","f","true","match","img/circle.png","强她","强她","prac_ALT2_ability","practice_ability","","","","","","","","",""
"null","<span style='color:GreenYellow; font-size: 70px;'>正确! </span>","null","html-keyboard-response","45","293440","0.0-8.0-1.0-1.0-0.0-1.17","4","3","2","3","3","4","2","3","2","2","5","0","-1","0","1","0","1","1","1","5","5","5","5","4","3","4","3","4","3","4","6","6","7","3","4","6","5","7","5","7","5","3","4","5","5","4","5","2","1","5","3","5","4","3","3","3","4","6","3","3","5","4","3","3","7","3","5","3","6","6","6","7","5","3","6","6","6","3","6","758376715339960322","赵","448","Female","[""好她"",""坏她"",""好我"",""坏我""]","[""强她"",""弱她"",""强我"",""弱我""]","","","","","","","","","","","","","","","","","","","","","","","","","","","","","","feedback_test","","","","","","","","",""
"1203","","j","psychophysics","46","295646","0.0-8.0-1.0-1.0-0.0-0.18","4","3","2","3","3","4","2","3","2","2","5","0","-1","0","1","0","1","1","1","5","5","5","5","4","3","4","3","4","3","4","6","6","7","3","4","6","5","7","5","7","5","3","4","5","5","4","5","2","1","5","3","5","4","3","3","3","4","6","3","3","5","4","3","3","7","3","5","3","6","6","6","7","5","3","6","6","6","3","6","758376715339960322","赵","448","Female","[""好她"",""坏她"",""好我"",""坏我""]","[""强她"",""弱她"",""强我"",""弱我""]","","","","","","","","nonmatch","","","","","","","","","","key","j","16.663646153845967","768","428","j","true","nonmatch","img/trapezoid.png","强她","弱她","prac_ALT2_ability","practice_ability","","","","","","","","",""
"null","<span class='add_' style='color:yellow; font-size: 70px;'> 太慢! </span>","null","html-keyboard-response","47","296149","0.0-8.0-1.0-1.0-0.0-1.18","4","3","2","3","3","4","2","3","2","2","5","0","-1","0","1","0","1","1","1","5","5","5","5","4","3","4","3","4","3","4","6","6","7","3","4","6","5","7","5","7","5","3","4","5","5","4","5","2","1","5","3","5","4","3","3","3","4","6","3","3","5","4","3","3","7","3","5","3","6","6","6","7","5","3","6","6","6","3","6","758376715339960322","赵","448","Female","[""好她"",""坏她"",""好我"",""坏我""]","[""强她"",""弱她"",""强我"",""弱我""]","","","","","","","","","","","","","","","","","","","","","","","","","","","","","","feedback_test","","","","","","","","",""
"765","","j","psychophysics","48","297919","0.0-8.0-1.0-1.0-0.0-0.19","4","3","2","3","3","4","2","3","2","2","5","0","-1","0","1","0","1","1","1","5","5","5","5","4","3","4","3","4","3","4","6","6","7","3","4","6","5","7","5","7","5","3","4","5","5","4","5","2","1","5","3","5","4","3","3","3","4","6","3","3","5","4","3","3","7","3","5","3","6","6","6","7","5","3","6","6","6","3","6","758376715339960322","赵","448","Female","[""好她"",""坏她"",""好我"",""坏我""]","[""强她"",""弱她"",""强我"",""弱我""]","","","","","","","","nonmatch","","","","","","","","","","key","j","16.66171428571411","768","428","j","true","nonmatch","img/circle.png","弱我","强她","prac_ALT2_ability","practice_ability","","","","","","","","",""
"null","<span style='color:GreenYellow; font-size: 70px;'>正确! </span>","null","html-keyboard-response","49","298421","0.0-8.0-1.0-1.0-0.0-1.19","4","3","2","3","3","4","2","3","2","2","5","0","-1","0","1","0","1","1","1","5","5","5","5","4","3","4","3","4","3","4","6","6","7","3","4","6","5","7","5","7","5","3","4","5","5","4","5","2","1","5","3","5","4","3","3","3","4","6","3","3","5","4","3","3","7","3","5","3","6","6","6","7","5","3","6","6","6","3","6","758376715339960322","赵","448","Female","[""好她"",""坏她"",""好我"",""坏我""]","[""强她"",""弱她"",""强我"",""弱我""]","","","","","","","","","","","","","","","","","","","","","","","","","","","","","","feedback_test","","","","","","","","",""
"803","","j","psychophysics","50","300229","0.0-8.0-1.0-1.0-0.0-0.20","4","3","2","3","3","4","2","3","2","2","5","0","-1","0","1","0","1","1","1","5","5","5","5","4","3","4","3","4","3","4","6","6","7","3","4","6","5","7","5","7","5","3","4","5","5","4","5","2","1","5","3","5","4","3","3","3","4","6","3","3","5","4","3","3","7","3","5","3","6","6","6","7","5","3","6","6","6","3","6","758376715339960322","赵","448","Female","[""好她"",""坏她"",""好我"",""坏我""]","[""强她"",""弱她"",""强我"",""弱我""]","","","","","","","","nonmatch","","","","","","","","","","key","j","16.66739252336469","768","428","j","true","nonmatch","img/pentagon.png","弱她","强我","prac_ALT2_ability","practice_ability","","","","","","","","",""
"null","<span style='color:GreenYellow; font-size: 70px;'>正确! </span>","null","html-keyboard-response","51","300732","0.0-8.0-1.0-1.0-0.0-1.20","4","3","2","3","3","4","2","3","2","2","5","0","-1","0","1","0","1","1","1","5","5","5","5","4","3","4","3","4","3","4","6","6","7","3","4","6","5","7","5","7","5","3","4","5","5","4","5","2","1","5","3","5","4","3","3","3","4","6","3","3","5","4","3","3","7","3","5","3","6","6","6","7","5","3","6","6","6","3","6","758376715339960322","赵","448","Female","[""好她"",""坏她"",""好我"",""坏我""]","[""强她"",""弱她"",""强我"",""弱我""]","","","","","","","","","","","","","","","","","","","","","","","","","","","","","","feedback_test","","","","","","","","",""
"968","","j","psychophysics","52","302707","0.0-8.0-1.0-1.0-0.0-0.21","4","3","2","3","3","4","2","3","2","2","5","0","-1","0","1","0","1","1","1","5","5","5","5","4","3","4","3","4","3","4","6","6","7","3","4","6","5","7","5","7","5","3","4","5","5","4","5","2","1","5","3","5","4","3","3","3","4","6","3","3","5","4","3","3","7","3","5","3","6","6","6","7","5","3","6","6","6","3","6","758376715339960322","赵","448","Female","[""好她"",""坏她"",""好我"",""坏我""]","[""强她"",""弱她"",""强我"",""弱我""]","","","","","","","","nonmatch","","","","","","","","","","key","j","16.664025423728656","768","428","j","true","nonmatch","img/pentagon.png","强她","强我","prac_ALT2_ability","practice_ability","","","","","","","","",""
"null","<span style='color:GreenYellow; font-size: 70px;'>正确! </span>","null","html-keyboard-response","53","303210","0.0-8.0-1.0-1.0-0.0-1.21","4","3","2","3","3","4","2","3","2","2","5","0","-1","0","1","0","1","1","1","5","5","5","5","4","3","4","3","4","3","4","6","6","7","3","4","6","5","7","5","7","5","3","4","5","5","4","5","2","1","5","3","5","4","3","3","3","4","6","3","3","5","4","3","3","7","3","5","3","6","6","6","7","5","3","6","6","6","3","6","758376715339960322","赵","448","Female","[""好她"",""坏她"",""好我"",""坏我""]","[""强她"",""弱她"",""强我"",""弱我""]","","","","","","","","","","","","","","","","","","","","","","","","","","","","","","feedback_test","","","","","","","","",""
"1003","","f","psychophysics","54","305219","0.0-8.0-1.0-1.0-0.0-0.22","4","3","2","3","3","4","2","3","2","2","5","0","-1","0","1","0","1","1","1","5","5","5","5","4","3","4","3","4","3","4","6","6","7","3","4","6","5","7","5","7","5","3","4","5","5","4","5","2","1","5","3","5","4","3","3","3","4","6","3","3","5","4","3","3","7","3","5","3","6","6","6","7","5","3","6","6","6","3","6","758376715339960322","赵","448","Female","[""好她"",""坏她"",""好我"",""坏我""]","[""强她"",""弱她"",""强我"",""弱我""]","","","","","","","","match","","","","","","","","","","key","f","16.666126050420413","768","428","f","true","match","img/square.png","弱我","弱我","prac_ALT2_ability","practice_ability","","","","","","","","",""
"null","<span style='color:GreenYellow; font-size: 70px;'>正确! </span>","null","html-keyboard-response","55","305722","0.0-8.0-1.0-1.0-0.0-1.22","4","3","2","3","3","4","2","3","2","2","5","0","-1","0","1","0","1","1","1","5","5","5","5","4","3","4","3","4","3","4","6","6","7","3","4","6","5","7","5","7","5","3","4","5","5","4","5","2","1","5","3","5","4","3","3","3","4","6","3","3","5","4","3","3","7","3","5","3","6","6","6","7","5","3","6","6","6","3","6","758376715339960322","赵","448","Female","[""好她"",""坏她"",""好我"",""坏我""]","[""强她"",""弱她"",""强我"",""弱我""]","","","","","","","","","","","","","","","","","","","","","","","","","","","","","","feedback_test","","","","","","","","",""
"741","","j","psychophysics","56","307467","0.0-8.0-1.0-1.0-0.0-0.23","4","3","2","3","3","4","2","3","2","2","5","0","-1","0","1","0","1","1","1","5","5","5","5","4","3","4","3","4","3","4","6","6","7","3","4","6","5","7","5","7","5","3","4","5","5","4","5","2","1","5","3","5","4","3","3","3","4","6","3","3","5","4","3","3","7","3","5","3","6","6","6","7","5","3","6","6","6","3","6","758376715339960322","赵","448","Female","[""好她"",""坏她"",""好我"",""坏我""]","[""强她"",""弱她"",""强我"",""弱我""]","","","","","","","","nonmatch","","","","","","","","","","key","j","16.664825242718578","768","428","j","true","nonmatch","img/circle.png","强我","强她","prac_ALT2_ability","practice_ability","","","","","","","","",""
"null","<span style='color:GreenYellow; font-size: 70px;'>正确! </span>","null","html-keyboard-response","57","307972","0.0-8.0-1.0-1.0-0.0-1.23","4","3","2","3","3","4","2","3","2","2","5","0","-1","0","1","0","1","1","1","5","5","5","5","4","3","4","3","4","3","4","6","6","7","3","4","6","5","7","5","7","5","3","4","5","5","4","5","2","1","5","3","5","4","3","3","3","4","6","3","3","5","4","3","3","7","3","5","3","6","6","6","7","5","3","6","6","6","3","6","758376715339960322","赵","448","Female","[""好她"",""坏她"",""好我"",""坏我""]","[""强她"",""弱她"",""强我"",""弱我""]","","","","","","","","","","","","","","","","","","","","","","","","","","","","","","feedback_test","","","","","","","","",""
"950","","f","psychophysics","58","309931","0.0-8.0-1.0-1.0-0.0-0.24","4","3","2","3","3","4","2","3","2","2","5","0","-1","0","1","0","1","1","1","5","5","5","5","4","3","4","3","4","3","4","6","6","7","3","4","6","5","7","5","7","5","3","4","5","5","4","5","2","1","5","3","5","4","3","3","3","4","6","3","3","5","4","3","3","7","3","5","3","6","6","6","7","5","3","6","6","6","3","6","758376715339960322","赵","448","Female","[""好她"",""坏她"",""好我"",""坏我""]","[""强她"",""弱她"",""强我"",""弱我""]","","","","","","","","match","","","","","","","","","","key","f","16.663701754386064","768","428","j","false","nonmatch","img/trapezoid.png","强她","弱她","prac_ALT2_ability","practice_ability","","","","","","","","",""
"null","<span style='color:red; font-size: 70px;'>错误! </span>","null","html-keyboard-response","59","310435","0.0-8.0-1.0-1.0-0.0-1.24","4","3","2","3","3","4","2","3","2","2","5","0","-1","0","1","0","1","1","1","5","5","5","5","4","3","4","3","4","3","4","6","6","7","3","4","6","5","7","5","7","5","3","4","5","5","4","5","2","1","5","3","5","4","3","3","3","4","6","3","3","5","4","3","3","7","3","5","3","6","6","6","7","5","3","6","6","6","3","6","758376715339960322","赵","448","Female","[""好她"",""坏她"",""好我"",""坏我""]","[""强她"",""弱她"",""强我"",""弱我""]","","","","","","","","","","","","","","","","","","","","","","","","","","","","","","feedback_test","","","","","","","","",""
"1122","","f","psychophysics","60","312561","0.0-8.0-1.0-1.0-0.0-0.25","4","3","2","3","3","4","2","3","2","2","5","0","-1","0","1","0","1","1","1","5","5","5","5","4","3","4","3","4","3","4","6","6","7","3","4","6","5","7","5","7","5","3","4","5","5","4","5","2","1","5","3","5","4","3","3","3","4","6","3","3","5","4","3","3","7","3","5","3","6","6","6","7","5","3","6","6","6","3","6","758376715339960322","赵","448","Female","[""好她"",""坏她"",""好我"",""坏我""]","[""强她"",""弱她"",""强我"",""弱我""]","","","","","","","","match","","","","","","","","","","key","f","16.665206349206283","768","428","j","false","nonmatch","img/square.png","强我","弱我","prac_ALT2_ability","practice_ability","","","","","","","","",""
"null","<span style='color:red; font-size: 70px;'>错误! </span>","null","html-keyboard-response","61","313065","0.0-8.0-1.0-1.0-0.0-1.25","4","3","2","3","3","4","2","3","2","2","5","0","-1","0","1","0","1","1","1","5","5","5","5","4","3","4","3","4","3","4","6","6","7","3","4","6","5","7","5","7","5","3","4","5","5","4","5","2","1","5","3","5","4","3","3","3","4","6","3","3","5","4","3","3","7","3","5","3","6","6","6","7","5","3","6","6","6","3","6","758376715339960322","赵","448","Female","[""好她"",""坏她"",""好我"",""坏我""]","[""强她"",""弱她"",""强我"",""弱我""]","","","","","","","","","","","","","","","","","","","","","","","","","","","","","","feedback_test","","","","","","","","",""
"967","","j","psychophysics","62","315040","0.0-8.0-1.0-1.0-0.0-0.26","4","3","2","3","3","4","2","3","2","2","5","0","-1","0","1","0","1","1","1","5","5","5","5","4","3","4","3","4","3","4","6","6","7","3","4","6","5","7","5","7","5","3","4","5","5","4","5","2","1","5","3","5","4","3","3","3","4","6","3","3","5","4","3","3","7","3","5","3","6","6","6","7","5","3","6","6","6","3","6","758376715339960322","赵","448","Female","[""好她"",""坏她"",""好我"",""坏我""]","[""强她"",""弱她"",""强我"",""弱我""]","","","","","","","","nonmatch","","","","","","","","","","key","j","16.665060869565377","768","428","j","true","nonmatch","img/pentagon.png","强她","强我","prac_ALT2_ability","practice_ability","","","","","","","","",""
"null","<span style='color:GreenYellow; font-size: 70px;'>正确! </span>","null","html-keyboard-response","63","315543","0.0-8.0-1.0-1.0-0.0-1.26","4","3","2","3","3","4","2","3","2","2","5","0","-1","0","1","0","1","1","1","5","5","5","5","4","3","4","3","4","3","4","6","6","7","3","4","6","5","7","5","7","5","3","4","5","5","4","5","2","1","5","3","5","4","3","3","3","4","6","3","3","5","4","3","3","7","3","5","3","6","6","6","7","5","3","6","6","6","3","6","758376715339960322","赵","448","Female","[""好她"",""坏她"",""好我"",""坏我""]","[""强她"",""弱她"",""强我"",""弱我""]","","","","","","","","","","","","","","","","","","","","","","","","","","","","","","feedback_test","","","","","","","","",""
"864","","j","psychophysics","64","317415","0.0-8.0-1.0-1.0-0.0-0.27","4","3","2","3","3","4","2","3","2","2","5","0","-1","0","1","0","1","1","1","5","5","5","5","4","3","4","3","4","3","4","6","6","7","3","4","6","5","7","5","7","5","3","4","5","5","4","5","2","1","5","3","5","4","3","3","3","4","6","3","3","5","4","3","3","7","3","5","3","6","6","6","7","5","3","6","6","6","3","6","758376715339960322","赵","448","Female","[""好她"",""坏她"",""好我"",""坏我""]","[""强她"",""弱她"",""强我"",""弱我""]","","","","","","","","nonmatch","","","","","","","","","","key","j","16.81563636363611","768","428","j","true","nonmatch","img/pentagon.png","弱她","强我","prac_ALT2_ability","practice_ability","","","","","","","","",""
"null","<span style='color:GreenYellow; font-size: 70px;'>正确! </span>","null","html-keyboard-response","65","317919","0.0-8.0-1.0-1.0-0.0-1.27","4","3","2","3","3","4","2","3","2","2","5","0","-1","0","1","0","1","1","1","5","5","5","5","4","3","4","3","4","3","4","6","6","7","3","4","6","5","7","5","7","5","3","4","5","5","4","5","2","1","5","3","5","4","3","3","3","4","6","3","3","5","4","3","3","7","3","5","3","6","6","6","7","5","3","6","6","6","3","6","758376715339960322","赵","448","Female","[""好她"",""坏她"",""好我"",""坏我""]","[""强她"",""弱她"",""强我"",""弱我""]","","","","","","","","","","","","","","","","","","","","","","","","","","","","","","feedback_test","","","","","","","","",""
"837","","f","psychophysics","66","319760","0.0-8.0-1.0-1.0-0.0-0.28","4","3","2","3","3","4","2","3","2","2","5","0","-1","0","1","0","1","1","1","5","5","5","5","4","3","4","3","4","3","4","6","6","7","3","4","6","5","7","5","7","5","3","4","5","5","4","5","2","1","5","3","5","4","3","3","3","4","6","3","3","5","4","3","3","7","3","5","3","6","6","6","7","5","3","6","6","6","3","6","758376715339960322","赵","448","Female","[""好她"",""坏她"",""好我"",""坏我""]","[""强她"",""弱她"",""强我"",""弱我""]","","","","","","","","match","","","","","","","","","","key","f","16.66445871559666","768","428","f","true","match","img/square.png","弱我","弱我","prac_ALT2_ability","practice_ability","","","","","","","","",""
"null","<span style='color:GreenYellow; font-size: 70px;'>正确! </span>","null","html-keyboard-response","67","320264","0.0-8.0-1.0-1.0-0.0-1.28","4","3","2","3","3","4","2","3","2","2","5","0","-1","0","1","0","1","1","1","5","5","5","5","4","3","4","3","4","3","4","6","6","7","3","4","6","5","7","5","7","5","3","4","5","5","4","5","2","1","5","3","5","4","3","3","3","4","6","3","3","5","4","3","3","7","3","5","3","6","6","6","7","5","3","6","6","6","3","6","758376715339960322","赵","448","Female","[""好她"",""坏她"",""好我"",""坏我""]","[""强她"",""弱她"",""强我"",""弱我""]","","","","","","","","","","","","","","","","","","","","","","","","","","","","","","feedback_test","","","","","","","","",""
"787","","j","psychophysics","68","322057","0.0-8.0-1.0-1.0-0.0-0.29","4","3","2","3","3","4","2","3","2","2","5","0","-1","0","1","0","1","1","1","5","5","5","5","4","3","4","3","4","3","4","6","6","7","3","4","6","5","7","5","7","5","3","4","5","5","4","5","2","1","5","3","5","4","3","3","3","4","6","3","3","5","4","3","3","7","3","5","3","6","6","6","7","5","3","6","6","6","3","6","758376715339960322","赵","448","Female","[""好她"",""坏她"",""好我"",""坏我""]","[""强她"",""弱她"",""强我"",""弱我""]","","","","","","","","nonmatch","","","","","","","","","","key","j","16.663990566038027","768","428","j","true","nonmatch","img/circle.png","强我","强她","prac_ALT2_ability","practice_ability","","","","","","","","",""
"null","<span style='color:GreenYellow; font-size: 70px;'>正确! </span>","null","html-keyboard-response","69","322559","0.0-8.0-1.0-1.0-0.0-1.29","4","3","2","3","3","4","2","3","2","2","5","0","-1","0","1","0","1","1","1","5","5","5","5","4","3","4","3","4","3","4","6","6","7","3","4","6","5","7","5","7","5","3","4","5","5","4","5","2","1","5","3","5","4","3","3","3","4","6","3","3","5","4","3","3","7","3","5","3","6","6","6","7","5","3","6","6","6","3","6","758376715339960322","赵","448","Female","[""好她"",""坏她"",""好我"",""坏我""]","[""强她"",""弱她"",""强我"",""弱我""]","","","","","","","","","","","","","","","","","","","","","","","","","","","","","","feedback_test","","","","","","","","",""
"877","","f","psychophysics","70","324439","0.0-8.0-1.0-1.0-0.0-0.30","4","3","2","3","3","4","2","3","2","2","5","0","-1","0","1","0","1","1","1","5","5","5","5","4","3","4","3","4","3","4","6","6","7","3","4","6","5","7","5","7","5","3","4","5","5","4","5","2","1","5","3","5","4","3","3","3","4","6","3","3","5","4","3","3","7","3","5","3","6","6","6","7","5","3","6","6","6","3","6","758376715339960322","赵","448","Female","[""好她"",""坏她"",""好我"",""坏我""]","[""强她"",""弱她"",""强我"",""弱我""]","","","","","","","","match","","","","","","","","","","key","f","16.664044642857334","768","428","f","true","match","img/pentagon.png","强我","强我","prac_ALT2_ability","practice_ability","","","","","","","","",""
"null","<span style='color:GreenYellow; font-size: 70px;'>正确! </span>","null","html-keyboard-response","71","324943","0.0-8.0-1.0-1.0-0.0-1.30","4","3","2","3","3","4","2","3","2","2","5","0","-1","0","1","0","1","1","1","5","5","5","5","4","3","4","3","4","3","4","6","6","7","3","4","6","5","7","5","7","5","3","4","5","5","4","5","2","1","5","3","5","4","3","3","3","4","6","3","3","5","4","3","3","7","3","5","3","6","6","6","7","5","3","6","6","6","3","6","758376715339960322","赵","448","Female","[""好她"",""坏她"",""好我"",""坏我""]","[""强她"",""弱她"",""强我"",""弱我""]","","","","","","","","","","","","","","","","","","","","","","","","","","","","","","feedback_test","","","","","","","","",""
"721","","j","psychophysics","72","326668","0.0-8.0-1.0-1.0-0.0-0.31","4","3","2","3","3","4","2","3","2","2","5","0","-1","0","1","0","1","1","1","5","5","5","5","4","3","4","3","4","3","4","6","6","7","3","4","6","5","7","5","7","5","3","4","5","5","4","5","2","1","5","3","5","4","3","3","3","4","6","3","3","5","4","3","3","7","3","5","3","6","6","6","7","5","3","6","6","6","3","6","758376715339960322","赵","448","Female","[""好她"",""坏她"",""好我"",""坏我""]","[""强她"",""弱她"",""强我"",""弱我""]","","","","","","","","nonmatch","","","","","","","","","","key","j","16.826980392156994","768","428","j","true","nonmatch","img/pentagon.png","弱我","强我","prac_ALT2_ability","practice_ability","","","","","","","","",""
"null","<span style='color:GreenYellow; font-size: 70px;'>正确! </span>","null","html-keyboard-response","73","327171","0.0-8.0-1.0-1.0-0.0-1.31","4","3","2","3","3","4","2","3","2","2","5","0","-1","0","1","0","1","1","1","5","5","5","5","4","3","4","3","4","3","4","6","6","7","3","4","6","5","7","5","7","5","3","4","5","5","4","5","2","1","5","3","5","4","3","3","3","4","6","3","3","5","4","3","3","7","3","5","3","6","6","6","7","5","3","6","6","6","3","6","758376715339960322","赵","448","Female","[""好她"",""坏她"",""好我"",""坏我""]","[""强她"",""弱她"",""强我"",""弱我""]","","","","","","","","","","","","","","","","","","","","","","","","","","","","","","feedback_test","","","","","","","","",""
"1102","","f","psychophysics","74","329278","0.0-8.0-1.0-1.0-0.0-0.32","4","3","2","3","3","4","2","3","2","2","5","0","-1","0","1","0","1","1","1","5","5","5","5","4","3","4","3","4","3","4","6","6","7","3","4","6","5","7","5","7","5","3","4","5","5","4","5","2","1","5","3","5","4","3","3","3","4","6","3","3","5","4","3","3","7","3","5","3","6","6","6","7","5","3","6","6","6","3","6","758376715339960322","赵","448","Female","[""好她"",""坏她"",""好我"",""坏我""]","[""强她"",""弱她"",""强我"",""弱我""]","","","","","","","","match","","","","","","","","","","key","f","16.663422764227366","768","428","f","true","match","img/trapezoid.png","弱她","弱她","prac_ALT2_ability","practice_ability","","","","","","","","",""
"null","<span style='color:GreenYellow; font-size: 70px;'>正确! </span>","null","html-keyboard-response","75","329785","0.0-8.0-1.0-1.0-0.0-1.32","4","3","2","3","3","4","2","3","2","2","5","0","-1","0","1","0","1","1","1","5","5","5","5","4","3","4","3","4","3","4","6","6","7","3","4","6","5","7","5","7","5","3","4","5","5","4","5","2","1","5","3","5","4","3","3","3","4","6","3","3","5","4","3","3","7","3","5","3","6","6","6","7","5","3","6","6","6","3","6","758376715339960322","赵","448","Female","[""好她"",""坏她"",""好我"",""坏我""]","[""强她"",""弱她"",""强我"",""弱我""]","","","","","","","","","","","","","","","","","","","","","","","","","","","","","","feedback_test","","","","","","","","",""
"757","","j","psychophysics","76","331547","0.0-8.0-1.0-1.0-0.0-0.33","4","3","2","3","3","4","2","3","2","2","5","0","-1","0","1","0","1","1","1","5","5","5","5","4","3","4","3","4","3","4","6","6","7","3","4","6","5","7","5","7","5","3","4","5","5","4","5","2","1","5","3","5","4","3","3","3","4","6","3","3","5","4","3","3","7","3","5","3","6","6","6","7","5","3","6","6","6","3","6","758376715339960322","赵","448","Female","[""好她"",""坏她"",""好我"",""坏我""]","[""强她"",""弱她"",""强我"",""弱我""]","","","","","","","","nonmatch","","","","","","","","","","key","j","16.665201923077312","768","428","j","true","nonmatch","img/square.png","强她","弱我","prac_ALT2_ability","practice_ability","","","","","","","","",""
"null","<span style='color:GreenYellow; font-size: 70px;'>正确! </span>","null","html-keyboard-response","77","332050","0.0-8.0-1.0-1.0-0.0-1.33","4","3","2","3","3","4","2","3","2","2","5","0","-1","0","1","0","1","1","1","5","5","5","5","4","3","4","3","4","3","4","6","6","7","3","4","6","5","7","5","7","5","3","4","5","5","4","5","2","1","5","3","5","4","3","3","3","4","6","3","3","5","4","3","3","7","3","5","3","6","6","6","7","5","3","6","6","6","3","6","758376715339960322","赵","448","Female","[""好她"",""坏她"",""好我"",""坏我""]","[""强她"",""弱她"",""强我"",""弱我""]","","","","","","","","","","","","","","","","","","","","","","","","","","","","","","feedback_test","","","","","","","","",""
"850","","f","psychophysics","78","333905","0.0-8.0-1.0-1.0-0.0-0.34","4","3","2","3","3","4","2","3","2","2","5","0","-1","0","1","0","1","1","1","5","5","5","5","4","3","4","3","4","3","4","6","6","7","3","4","6","5","7","5","7","5","3","4","5","5","4","5","2","1","5","3","5","4","3","3","3","4","6","3","3","5","4","3","3","7","3","5","3","6","6","6","7","5","3","6","6","6","3","6","758376715339960322","赵","448","Female","[""好她"",""坏她"",""好我"",""坏我""]","[""强她"",""弱她"",""强我"",""弱我""]","","","","","","","","match","","","","","","","","","","key","f","16.66319090909092","768","428","f","true","match","img/pentagon.png","强我","强我","prac_ALT2_ability","practice_ability","","","","","","","","",""
"null","<span style='color:GreenYellow; font-size: 70px;'>正确! </span>","null","html-keyboard-response","79","334408","0.0-8.0-1.0-1.0-0.0-1.34","4","3","2","3","3","4","2","3","2","2","5","0","-1","0","1","0","1","1","1","5","5","5","5","4","3","4","3","4","3","4","6","6","7","3","4","6","5","7","5","7","5","3","4","5","5","4","5","2","1","5","3","5","4","3","3","3","4","6","3","3","5","4","3","3","7","3","5","3","6","6","6","7","5","3","6","6","6","3","6","758376715339960322","赵","448","Female","[""好她"",""坏她"",""好我"",""坏我""]","[""强她"",""弱她"",""强我"",""弱我""]","","","","","","","","","","","","","","","","","","","","","","","","","","","","","","feedback_test","","","","","","","","",""
"888","","f","psychophysics","80","336304","0.0-8.0-1.0-1.0-0.0-0.35","4","3","2","3","3","4","2","3","2","2","5","0","-1","0","1","0","1","1","1","5","5","5","5","4","3","4","3","4","3","4","6","6","7","3","4","6","5","7","5","7","5","3","4","5","5","4","5","2","1","5","3","5","4","3","3","3","4","6","3","3","5","4","3","3","7","3","5","3","6","6","6","7","5","3","6","6","6","3","6","758376715339960322","赵","448","Female","[""好她"",""坏她"",""好我"",""坏我""]","[""强她"",""弱她"",""强我"",""弱我""]","","","","","","","","match","","","","","","","","","","key","f","16.812241071428748","768","428","f","true","match","img/trapezoid.png","弱她","弱她","prac_ALT2_ability","practice_ability","","","","","","","","",""
"null","<span style='color:GreenYellow; font-size: 70px;'>正确! </span>","null","html-keyboard-response","81","336808","0.0-8.0-1.0-1.0-0.0-1.35","4","3","2","3","3","4","2","3","2","2","5","0","-1","0","1","0","1","1","1","5","5","5","5","4","3","4","3","4","3","4","6","6","7","3","4","6","5","7","5","7","5","3","4","5","5","4","5","2","1","5","3","5","4","3","3","3","4","6","3","3","5","4","3","3","7","3","5","3","6","6","6","7","5","3","6","6","6","3","6","758376715339960322","赵","448","Female","[""好她"",""坏她"",""好我"",""坏我""]","[""强她"",""弱她"",""强我"",""弱我""]","","","","","","","","","","","","","","","","","","","","","","","","","","","","","","feedback_test","","","","","","","","",""
"647","","j","psychophysics","82","338461","0.0-8.0-1.0-1.0-0.0-0.36","4","3","2","3","3","4","2","3","2","2","5","0","-1","0","1","0","1","1","1","5","5","5","5","4","3","4","3","4","3","4","6","6","7","3","4","6","5","7","5","7","5","3","4","5","5","4","5","2","1","5","3","5","4","3","3","3","4","6","3","3","5","4","3","3","7","3","5","3","6","6","6","7","5","3","6","6","6","3","6","758376715339960322","赵","448","Female","[""好她"",""坏她"",""好我"",""坏我""]","[""强她"",""弱她"",""强我"",""弱我""]","","","","","","","","nonmatch","","","","","","","","","","key","j","16.666793814433028","768","428","j","true","nonmatch","img/trapezoid.png","强我","弱她","prac_ALT2_ability","practice_ability","","","","","","","","",""
"null","<span style='color:GreenYellow; font-size: 70px;'>正确! </span>","null","html-keyboard-response","83","338965","0.0-8.0-1.0-1.0-0.0-1.36","4","3","2","3","3","4","2","3","2","2","5","0","-1","0","1","0","1","1","1","5","5","5","5","4","3","4","3","4","3","4","6","6","7","3","4","6","5","7","5","7","5","3","4","5","5","4","5","2","1","5","3","5","4","3","3","3","4","6","3","3","5","4","3","3","7","3","5","3","6","6","6","7","5","3","6","6","6","3","6","758376715339960322","赵","448","Female","[""好她"",""坏她"",""好我"",""坏我""]","[""强她"",""弱她"",""强我"",""弱我""]","","","","","","","","","","","","","","","","","","","","","","","","","","","","","","feedback_test","","","","","","","","",""
"725","","j","psychophysics","84","340695","0.0-8.0-1.0-1.0-0.0-0.37","4","3","2","3","3","4","2","3","2","2","5","0","-1","0","1","0","1","1","1","5","5","5","5","4","3","4","3","4","3","4","6","6","7","3","4","6","5","7","5","7","5","3","4","5","5","4","5","2","1","5","3","5","4","3","3","3","4","6","3","3","5","4","3","3","7","3","5","3","6","6","6","7","5","3","6","6","6","3","6","758376715339960322","赵","448","Female","[""好她"",""坏她"",""好我"",""坏我""]","[""强她"",""弱她"",""强我"",""弱我""]","","","","","","","","nonmatch","","","","","","","","","","key","j","16.66448514851497","768","428","j","true","nonmatch","img/trapezoid.png","弱我","弱她","prac_ALT2_ability","practice_ability","","","","","","","","",""
"null","<span style='color:GreenYellow; font-size: 70px;'>正确! </span>","null","html-keyboard-response","85","341199","0.0-8.0-1.0-1.0-0.0-1.37","4","3","2","3","3","4","2","3","2","2","5","0","-1","0","1","0","1","1","1","5","5","5","5","4","3","4","3","4","3","4","6","6","7","3","4","6","5","7","5","7","5","3","4","5","5","4","5","2","1","5","3","5","4","3","3","3","4","6","3","3","5","4","3","3","7","3","5","3","6","6","6","7","5","3","6","6","6","3","6","758376715339960322","赵","448","Female","[""好她"",""坏她"",""好我"",""坏我""]","[""强她"",""弱她"",""强我"",""弱我""]","","","","","","","","","","","","","","","","","","","","","","","","","","","","","","feedback_test","","","","","","","","",""
"715","","j","psychophysics","86","342917","0.0-8.0-1.0-1.0-0.0-0.38","4","3","2","3","3","4","2","3","2","2","5","0","-1","0","1","0","1","1","1","5","5","5","5","4","3","4","3","4","3","4","6","6","7","3","4","6","5","7","5","7","5","3","4","5","5","4","5","2","1","5","3","5","4","3","3","3","4","6","3","3","5","4","3","3","7","3","5","3","6","6","6","7","5","3","6","6","6","3","6","758376715339960322","赵","448","Female","[""好她"",""坏她"",""好我"",""坏我""]","[""强她"",""弱她"",""强我"",""弱我""]","","","","","","","","nonmatch","","","","","","","","","","key","j","16.664792079208212","768","428","j","true","nonmatch","img/circle.png","弱我","强她","prac_ALT2_ability","practice_ability","","","","","","","","",""
"null","<span style='color:GreenYellow; font-size: 70px;'>正确! </span>","null","html-keyboard-response","87","343421","0.0-8.0-1.0-1.0-0.0-1.38","4","3","2","3","3","4","2","3","2","2","5","0","-1","0","1","0","1","1","1","5","5","5","5","4","3","4","3","4","3","4","6","6","7","3","4","6","5","7","5","7","5","3","4","5","5","4","5","2","1","5","3","5","4","3","3","3","4","6","3","3","5","4","3","3","7","3","5","3","6","6","6","7","5","3","6","6","6","3","6","758376715339960322","赵","448","Female","[""好她"",""坏她"",""好我"",""坏我""]","[""强她"",""弱她"",""强我"",""弱我""]","","","","","","","","","","","","","","","","","","","","","","","","","","","","","","feedback_test","","","","","","","","",""
"675","","f","psychophysics","88","345100","0.0-8.0-1.0-1.0-0.0-0.39","4","3","2","3","3","4","2","3","2","2","5","0","-1","0","1","0","1","1","1","5","5","5","5","4","3","4","3","4","3","4","6","6","7","3","4","6","5","7","5","7","5","3","4","5","5","4","5","2","1","5","3","5","4","3","3","3","4","6","3","3","5","4","3","3","7","3","5","3","6","6","6","7","5","3","6","6","6","3","6","758376715339960322","赵","448","Female","[""好她"",""坏她"",""好我"",""坏我""]","[""强她"",""弱她"",""强我"",""弱我""]","","","","","","","","match","","","","","","","","","","key","f","16.664111111111435","768","428","f","true","match","img/square.png","弱我","弱我","prac_ALT2_ability","practice_ability","","","","","","","","",""
"null","<span style='color:GreenYellow; font-size: 70px;'>正确! </span>","null","html-keyboard-response","89","345605","0.0-8.0-1.0-1.0-0.0-1.39","4","3","2","3","3","4","2","3","2","2","5","0","-1","0","1","0","1","1","1","5","5","5","5","4","3","4","3","4","3","4","6","6","7","3","4","6","5","7","5","7","5","3","4","5","5","4","5","2","1","5","3","5","4","3","3","3","4","6","3","3","5","4","3","3","7","3","5","3","6","6","6","7","5","3","6","6","6","3","6","758376715339960322","赵","448","Female","[""好她"",""坏她"",""好我"",""坏我""]","[""强她"",""弱她"",""强我"",""弱我""]","","","","","","","","","","","","","","","","","","","","","","","","","","","","","","feedback_test","","","","","","","","",""
"754","","j","psychophysics","90","347367","0.0-8.0-1.0-1.0-0.0-0.40","4","3","2","3","3","4","2","3","2","2","5","0","-1","0","1","0","1","1","1","5","5","5","5","4","3","4","3","4","3","4","6","6","7","3","4","6","5","7","5","7","5","3","4","5","5","4","5","2","1","5","3","5","4","3","3","3","4","6","3","3","5","4","3","3","7","3","5","3","6","6","6","7","5","3","6","6","6","3","6","758376715339960322","赵","448","Female","[""好她"",""坏她"",""好我"",""坏我""]","[""强她"",""弱她"",""强我"",""弱我""]","","","","","","","","nonmatch","","","","","","","","","","key","j","16.665126213592533","768","428","f","false","match","img/circle.png","强她","强她","prac_ALT2_ability","practice_ability","","","","","","","","",""
"null","<span style='color:red; font-size: 70px;'>错误! </span>","null","html-keyboard-response","91","347872","0.0-8.0-1.0-1.0-0.0-1.40","4","3","2","3","3","4","2","3","2","2","5","0","-1","0","1","0","1","1","1","5","5","5","5","4","3","4","3","4","3","4","6","6","7","3","4","6","5","7","5","7","5","3","4","5","5","4","5","2","1","5","3","5","4","3","3","3","4","6","3","3","5","4","3","3","7","3","5","3","6","6","6","7","5","3","6","6","6","3","6","758376715339960322","赵","448","Female","[""好她"",""坏她"",""好我"",""坏我""]","[""强她"",""弱她"",""强我"",""弱我""]","","","","","","","","","","","","","","","","","","","","","","","","","","","","","","feedback_test","","","","","","","","",""
"936","","j","psychophysics","92","349811","0.0-8.0-1.0-1.0-0.0-0.41","4","3","2","3","3","4","2","3","2","2","5","0","-1","0","1","0","1","1","1","5","5","5","5","4","3","4","3","4","3","4","6","6","7","3","4","6","5","7","5","7","5","3","4","5","5","4","5","2","1","5","3","5","4","3","3","3","4","6","3","3","5","4","3","3","7","3","5","3","6","6","6","7","5","3","6","6","6","3","6","758376715339960322","赵","448","Female","[""好她"",""坏她"",""好我"",""坏我""]","[""强她"",""弱她"",""强我"",""弱我""]","","","","","","","","nonmatch","","","","","","","","","","key","j","16.663382608695564","768","428","j","true","nonmatch","img/circle.png","弱她","强她","prac_ALT2_ability","practice_ability","","","","","","","","",""
"null","<span style='color:GreenYellow; font-size: 70px;'>正确! </span>","null","html-keyboard-response","93","350315","0.0-8.0-1.0-1.0-0.0-1.41","4","3","2","3","3","4","2","3","2","2","5","0","-1","0","1","0","1","1","1","5","5","5","5","4","3","4","3","4","3","4","6","6","7","3","4","6","5","7","5","7","5","3","4","5","5","4","5","2","1","5","3","5","4","3","3","3","4","6","3","3","5","4","3","3","7","3","5","3","6","6","6","7","5","3","6","6","6","3","6","758376715339960322","赵","448","Female","[""好她"",""坏她"",""好我"",""坏我""]","[""强她"",""弱她"",""强我"",""弱我""]","","","","","","","","","","","","","","","","","","","","","","","","","","","","","","feedback_test","","","","","","","","",""
"677","","f","psychophysics","94","351996","0.0-8.0-1.0-1.0-0.0-0.42","4","3","2","3","3","4","2","3","2","2","5","0","-1","0","1","0","1","1","1","5","5","5","5","4","3","4","3","4","3","4","6","6","7","3","4","6","5","7","5","7","5","3","4","5","5","4","5","2","1","5","3","5","4","3","3","3","4","6","3","3","5","4","3","3","7","3","5","3","6","6","6","7","5","3","6","6","6","3","6","758376715339960322","赵","448","Female","[""好她"",""坏她"",""好我"",""坏我""]","[""强她"",""弱她"",""强我"",""弱我""]","","","","","","","","match","","","","","","","","","","key","f","16.66329999999958","768","428","f","true","match","img/circle.png","强她","强她","prac_ALT2_ability","practice_ability","","","","","","","","",""
"null","<span style='color:GreenYellow; font-size: 70px;'>正确! </span>","null","html-keyboard-response","95","352499","0.0-8.0-1.0-1.0-0.0-1.42","4","3","2","3","3","4","2","3","2","2","5","0","-1","0","1","0","1","1","1","5","5","5","5","4","3","4","3","4","3","4","6","6","7","3","4","6","5","7","5","7","5","3","4","5","5","4","5","2","1","5","3","5","4","3","3","3","4","6","3","3","5","4","3","3","7","3","5","3","6","6","6","7","5","3","6","6","6","3","6","758376715339960322","赵","448","Female","[""好她"",""坏她"",""好我"",""坏我""]","[""强她"",""弱她"",""强我"",""弱我""]","","","","","","","","","","","","","","","","","","","","","","","","","","","","","","feedback_test","","","","","","","","",""
"849","","f","psychophysics","96","354352","0.0-8.0-1.0-1.0-0.0-0.43","4","3","2","3","3","4","2","3","2","2","5","0","-1","0","1","0","1","1","1","5","5","5","5","4","3","4","3","4","3","4","6","6","7","3","4","6","5","7","5","7","5","3","4","5","5","4","5","2","1","5","3","5","4","3","3","3","4","6","3","3","5","4","3","3","7","3","5","3","6","6","6","7","5","3","6","6","6","3","6","758376715339960322","赵","448","Female","[""好她"",""坏她"",""好我"",""坏我""]","[""强她"",""弱她"",""强我"",""弱我""]","","","","","","","","match","","","","","","","","","","key","f","16.664889908256864","768","428","f","true","match","img/trapezoid.png","弱她","弱她","prac_ALT2_ability","practice_ability","","","","","","","","",""
"null","<span style='color:GreenYellow; font-size: 70px;'>正确! </span>","null","html-keyboard-response","97","354856","0.0-8.0-1.0-1.0-0.0-1.43","4","3","2","3","3","4","2","3","2","2","5","0","-1","0","1","0","1","1","1","5","5","5","5","4","3","4","3","4","3","4","6","6","7","3","4","6","5","7","5","7","5","3","4","5","5","4","5","2","1","5","3","5","4","3","3","3","4","6","3","3","5","4","3","3","7","3","5","3","6","6","6","7","5","3","6","6","6","3","6","758376715339960322","赵","448","Female","[""好她"",""坏她"",""好我"",""坏我""]","[""强她"",""弱她"",""强我"",""弱我""]","","","","","","","","","","","","","","","","","","","","","","","","","","","","","","feedback_test","","","","","","","","",""
"725","","j","psychophysics","98","356588","0.0-8.0-1.0-1.0-0.0-0.44","4","3","2","3","3","4","2","3","2","2","5","0","-1","0","1","0","1","1","1","5","5","5","5","4","3","4","3","4","3","4","6","6","7","3","4","6","5","7","5","7","5","3","4","5","5","4","5","2","1","5","3","5","4","3","3","3","4","6","3","3","5","4","3","3","7","3","5","3","6","6","6","7","5","3","6","6","6","3","6","758376715339960322","赵","448","Female","[""好她"",""坏她"",""好我"",""坏我""]","[""强她"",""弱她"",""强我"",""弱我""]","","","","","","","","nonmatch","","","","","","","","","","key","j","16.664225490195975","768","428","j","true","nonmatch","img/square.png","弱她","弱我","prac_ALT2_ability","practice_ability","","","","","","","","",""
"null","<span style='color:GreenYellow; font-size: 70px;'>正确! </span>","null","html-keyboard-response","99","357092","0.0-8.0-1.0-1.0-0.0-1.44","4","3","2","3","3","4","2","3","2","2","5","0","-1","0","1","0","1","1","1","5","5","5","5","4","3","4","3","4","3","4","6","6","7","3","4","6","5","7","5","7","5","3","4","5","5","4","5","2","1","5","3","5","4","3","3","3","4","6","3","3","5","4","3","3","7","3","5","3","6","6","6","7","5","3","6","6","6","3","6","758376715339960322","赵","448","Female","[""好她"",""坏她"",""好我"",""坏我""]","[""强她"",""弱她"",""强我"",""弱我""]","","","","","","","","","","","","","","","","","","","","","","","","","","","","","","feedback_test","","","","","","","","",""
"708","","f","psychophysics","100","358804","0.0-8.0-1.0-1.0-0.0-0.45","4","3","2","3","3","4","2","3","2","2","5","0","-1","0","1","0","1","1","1","5","5","5","5","4","3","4","3","4","3","4","6","6","7","3","4","6","5","7","5","7","5","3","4","5","5","4","5","2","1","5","3","5","4","3","3","3","4","6","3","3","5","4","3","3","7","3","5","3","6","6","6","7","5","3","6","6","6","3","6","758376715339960322","赵","448","Female","[""好她"",""坏她"",""好我"",""坏我""]","[""强她"",""弱她"",""强我"",""弱我""]","","","","","","","","match","","","","","","","","","","key","f","16.66462999999989","768","428","f","true","match","img/square.png","弱我","弱我","prac_ALT2_ability","practice_ability","","","","","","","","",""
"null","<span style='color:GreenYellow; font-size: 70px;'>正确! </span>","null","html-keyboard-response","101","359307","0.0-8.0-1.0-1.0-0.0-1.45","4","3","2","3","3","4","2","3","2","2","5","0","-1","0","1","0","1","1","1","5","5","5","5","4","3","4","3","4","3","4","6","6","7","3","4","6","5","7","5","7","5","3","4","5","5","4","5","2","1","5","3","5","4","3","3","3","4","6","3","3","5","4","3","3","7","3","5","3","6","6","6","7","5","3","6","6","6","3","6","758376715339960322","赵","448","Female","[""好她"",""坏她"",""好我"",""坏我""]","[""强她"",""弱她"",""强我"",""弱我""]","","","","","","","","","","","","","","","","","","","","","","","","","","","","","","feedback_test","","","","","","","","",""
"628","","j","psychophysics","102","360942","0.0-8.0-1.0-1.0-0.0-0.46","4","3","2","3","3","4","2","3","2","2","5","0","-1","0","1","0","1","1","1","5","5","5","5","4","3","4","3","4","3","4","6","6","7","3","4","6","5","7","5","7","5","3","4","5","5","4","5","2","1","5","3","5","4","3","3","3","4","6","3","3","5","4","3","3","7","3","5","3","6","6","6","7","5","3","6","6","6","3","6","758376715339960322","赵","448","Female","[""好她"",""坏她"",""好我"",""坏我""]","[""强她"",""弱她"",""强我"",""弱我""]","","","","","","","","nonmatch","","","","","","","","","","key","j","16.66387500000019","768","428","f","false","match","img/circle.png","强她","强她","prac_ALT2_ability","practice_ability","","","","","","","","",""
"null","<span style='color:red; font-size: 70px;'>错误! </span>","null","html-keyboard-response","103","361445","0.0-8.0-1.0-1.0-0.0-1.46","4","3","2","3","3","4","2","3","2","2","5","0","-1","0","1","0","1","1","1","5","5","5","5","4","3","4","3","4","3","4","6","6","7","3","4","6","5","7","5","7","5","3","4","5","5","4","5","2","1","5","3","5","4","3","3","3","4","6","3","3","5","4","3","3","7","3","5","3","6","6","6","7","5","3","6","6","6","3","6","758376715339960322","赵","448","Female","[""好她"",""坏她"",""好我"",""坏我""]","[""强她"",""弱她"",""强我"",""弱我""]","","","","","","","","","","","","","","","","","","","","","","","","","","","","","","feedback_test","","","","","","","","",""
"988","","f","psychophysics","104","363436","0.0-8.0-1.0-1.0-0.0-0.47","4","3","2","3","3","4","2","3","2","2","5","0","-1","0","1","0","1","1","1","5","5","5","5","4","3","4","3","4","3","4","6","6","7","3","4","6","5","7","5","7","5","3","4","5","5","4","5","2","1","5","3","5","4","3","3","3","4","6","3","3","5","4","3","3","7","3","5","3","6","6","6","7","5","3","6","6","6","3","6","758376715339960322","赵","448","Female","[""好她"",""坏她"",""好我"",""坏我""]","[""强她"",""弱她"",""强我"",""弱我""]","","","","","","","","match","","","","","","","","","","key","f","16.66505084745783","768","428","f","true","match","img/pentagon.png","强我","强我","prac_ALT2_ability","practice_ability","","","","","","","","",""
"null","<span style='color:GreenYellow; font-size: 70px;'>正确! </span>","null","html-keyboard-response","105","363941","0.0-8.0-1.0-1.0-0.0-1.47","4","3","2","3","3","4","2","3","2","2","5","0","-1","0","1","0","1","1","1","5","5","5","5","4","3","4","3","4","3","4","6","6","7","3","4","6","5","7","5","7","5","3","4","5","5","4","5","2","1","5","3","5","4","3","3","3","4","6","3","3","5","4","3","3","7","3","5","3","6","6","6","7","5","3","6","6","6","3","6","758376715339960322","赵","448","Female","[""好她"",""坏她"",""好我"",""坏我""]","[""强她"",""弱她"",""强我"",""弱我""]","","","","","","","","","","","","","","","","","","","","","","","","","","","","","","feedback_test","","","","","","","","",""
"4269","<style>.context{color:white; font-size: 35px; line-height:40px}</style>                          <div><p class='context'>您正确回答了85% 的试次。</p><p class='context'>您的平均反应时为802毫秒。</p><p class='context'>恭喜您完成练习。按空格键进入正式实验。</p><p class='footer' style='color:white;font-size: 35px; line-height:40px;'>请在进入正式实验实验之前将您的<span style='color: lightgreen;'>食指</span>放在电脑键盘的相应键位上进行按键。</p>"," ","html-keyboard-response","106","368221","0.0-8.0-1.0-2.0","4","3","2","3","3","4","2","3","2","2","5","0","-1","0","1","0","1","1","1","5","5","5","5","4","3","4","3","4","3","4","6","6","7","3","4","6","5","7","5","7","5","3","4","5","5","4","5","2","1","5","3","5","4","3","3","3","4","6","3","3","5","4","3","3","7","3","5","3","6","6","6","7","5","3","6","6","6","3","6","758376715339960322","赵","448","Female","[""好她"",""坏她"",""好我"",""坏我""]","[""强她"",""弱她"",""强我"",""弱我""]","","","","","","","","","","","","","","","","","","","","","","","","","","","","","","","","","","","","","","",""
"3337","
  <p style='color: white; font-size: 22px'>请您将手指放在按键上，准备进入正式的匹配任务。</p>
  <p> <div style = ""color: green""><按空格键进入下一阶段的匹配任务></div></p>
  "," ","html-keyboard-response","107","371586","0.0-8.0-1.0-3.0","4","3","2","3","3","4","2","3","2","2","5","0","-1","0","1","0","1","1","1","5","5","5","5","4","3","4","3","4","3","4","6","6","7","3","4","6","5","7","5","7","5","3","4","5","5","4","5","2","1","5","3","5","4","3","3","3","4","6","3","3","5","4","3","3","7","3","5","3","6","6","6","7","5","3","6","6","6","3","6","758376715339960322","赵","448","Female","[""好她"",""坏她"",""好我"",""坏我""]","[""强她"",""弱她"",""强我"",""弱我""]","","","","","","","","","","","","","","","","","","","","","","","","","","","","","","","","","","","","","","",""
"686","","f","psychophysics","108","373278","0.0-8.0-1.0-4.0-0.0-0.0","4","3","2","3","3","4","2","3","2","2","5","0","-1","0","1","0","1","1","1","5","5","5","5","4","3","4","3","4","3","4","6","6","7","3","4","6","5","7","5","7","5","3","4","5","5","4","5","2","1","5","3","5","4","3","3","3","4","6","3","3","5","4","3","3","7","3","5","3","6","6","6","7","5","3","6","6","6","3","6","758376715339960322","赵","448","Female","[""好她"",""坏她"",""好我"",""坏我""]","[""强她"",""弱她"",""强我"",""弱我""]","","","","","","","","match","","","","","","","","","","key","f","16.83024000000034","768","428","f","true","match","img/square.png","弱我","弱我","ALT2","ability","","","","","","","","",""
"null","<span style='color:GreenYellow; font-size: 70px;'>正确! </span>","null","html-keyboard-response","109","373783","0.0-8.0-1.0-4.0-0.0-1.0","4","3","2","3","3","4","2","3","2","2","5","0","-1","0","1","0","1","1","1","5","5","5","5","4","3","4","3","4","3","4","6","6","7","3","4","6","5","7","5","7","5","3","4","5","5","4","5","2","1","5","3","5","4","3","3","3","4","6","3","3","5","4","3","3","7","3","5","3","6","6","6","7","5","3","6","6","6","3","6","758376715339960322","赵","448","Female","[""好她"",""坏她"",""好我"",""坏我""]","[""强她"",""弱她"",""强我"",""弱我""]","","","","","","","","","","","","","","","","","","","","","","","","","","","","","","feedback_test","","","","","","","","",""
"697","","f","psychophysics","110","375485","0.0-8.0-1.0-4.0-0.0-0.1","4","3","2","3","3","4","2","3","2","2","5","0","-1","0","1","0","1","1","1","5","5","5","5","4","3","4","3","4","3","4","6","6","7","3","4","6","5","7","5","7","5","3","4","5","5","4","5","2","1","5","3","5","4","3","3","3","4","6","3","3","5","4","3","3","7","3","5","3","6","6","6","7","5","3","6","6","6","3","6","758376715339960322","赵","448","Female","[""好她"",""坏她"",""好我"",""坏我""]","[""强她"",""弱她"",""强我"",""弱我""]","","","","","","","","match","","","","","","","","","","key","f","16.66523232323181","768","428","f","true","match","img/circle.png","强她","强她","ALT2","ability","","","","","","","","",""
"null","<span style='color:GreenYellow; font-size: 70px;'>正确! </span>","null","html-keyboard-response","111","375990","0.0-8.0-1.0-4.0-0.0-1.1","4","3","2","3","3","4","2","3","2","2","5","0","-1","0","1","0","1","1","1","5","5","5","5","4","3","4","3","4","3","4","6","6","7","3","4","6","5","7","5","7","5","3","4","5","5","4","5","2","1","5","3","5","4","3","3","3","4","6","3","3","5","4","3","3","7","3","5","3","6","6","6","7","5","3","6","6","6","3","6","758376715339960322","赵","448","Female","[""好她"",""坏她"",""好我"",""坏我""]","[""强她"",""弱她"",""强我"",""弱我""]","","","","","","","","","","","","","","","","","","","","","","","","","","","","","","feedback_test","","","","","","","","",""
"923","","j","psychophysics","112","377919","0.0-8.0-1.0-4.0-0.0-0.2","4","3","2","3","3","4","2","3","2","2","5","0","-1","0","1","0","1","1","1","5","5","5","5","4","3","4","3","4","3","4","6","6","7","3","4","6","5","7","5","7","5","3","4","5","5","4","5","2","1","5","3","5","4","3","3","3","4","6","3","3","5","4","3","3","7","3","5","3","6","6","6","7","5","3","6","6","6","3","6","758376715339960322","赵","448","Female","[""好她"",""坏她"",""好我"",""坏我""]","[""强她"",""弱她"",""强我"",""弱我""]","","","","","","","","nonmatch","","","","","","","","","","key","j","16.665105263158278","768","428","f","false","match","img/pentagon.png","强我","强我","ALT2","ability","","","","","","","","",""
"null","<span style='color:red; font-size: 70px;'>错误! </span>","null","html-keyboard-response","113","378423","0.0-8.0-1.0-4.0-0.0-1.2","4","3","2","3","3","4","2","3","2","2","5","0","-1","0","1","0","1","1","1","5","5","5","5","4","3","4","3","4","3","4","6","6","7","3","4","6","5","7","5","7","5","3","4","5","5","4","5","2","1","5","3","5","4","3","3","3","4","6","3","3","5","4","3","3","7","3","5","3","6","6","6","7","5","3","6","6","6","3","6","758376715339960322","赵","448","Female","[""好她"",""坏她"",""好我"",""坏我""]","[""强她"",""弱她"",""强我"",""弱我""]","","","","","","","","","","","","","","","","","","","","","","","","","","","","","","feedback_test","","","","","","","","",""
"860","","f","psychophysics","114","380289","0.0-8.0-1.0-4.0-0.0-0.3","4","3","2","3","3","4","2","3","2","2","5","0","-1","0","1","0","1","1","1","5","5","5","5","4","3","4","3","4","3","4","6","6","7","3","4","6","5","7","5","7","5","3","4","5","5","4","5","2","1","5","3","5","4","3","3","3","4","6","3","3","5","4","3","3","7","3","5","3","6","6","6","7","5","3","6","6","6","3","6","758376715339960322","赵","448","Female","[""好她"",""坏她"",""好我"",""坏我""]","[""强她"",""弱她"",""强我"",""弱我""]","","","","","","","","match","","","","","","","","","","key","f","16.664636363636767","768","428","j","false","nonmatch","img/pentagon.png","强她","强我","ALT2","ability","","","","","","","","",""
"null","<span style='color:red; font-size: 70px;'>错误! </span>","null","html-keyboard-response","115","380793","0.0-8.0-1.0-4.0-0.0-1.3","4","3","2","3","3","4","2","3","2","2","5","0","-1","0","1","0","1","1","1","5","5","5","5","4","3","4","3","4","3","4","6","6","7","3","4","6","5","7","5","7","5","3","4","5","5","4","5","2","1","5","3","5","4","3","3","3","4","6","3","3","5","4","3","3","7","3","5","3","6","6","6","7","5","3","6","6","6","3","6","758376715339960322","赵","448","Female","[""好她"",""坏她"",""好我"",""坏我""]","[""强她"",""弱她"",""强我"",""弱我""]","","","","","","","","","","","","","","","","","","","","","","","","","","","","","","feedback_test","","","","","","","","",""
"825","","j","psychophysics","116","382623","0.0-8.0-1.0-4.0-0.0-0.4","4","3","2","3","3","4","2","3","2","2","5","0","-1","0","1","0","1","1","1","5","5","5","5","4","3","4","3","4","3","4","6","6","7","3","4","6","5","7","5","7","5","3","4","5","5","4","5","2","1","5","3","5","4","3","3","3","4","6","3","3","5","4","3","3","7","3","5","3","6","6","6","7","5","3","6","6","6","3","6","758376715339960322","赵","448","Female","[""好她"",""坏她"",""好我"",""坏我""]","[""强她"",""弱她"",""强我"",""弱我""]","","","","","","","","nonmatch","","","","","","","","","","key","j","16.66428703703719","768","428","j","true","nonmatch","img/square.png","强她","弱我","ALT2","ability","","","","","","","","",""
"null","<span style='color:GreenYellow; font-size: 70px;'>正确! </span>","null","html-keyboard-response","117","383128","0.0-8.0-1.0-4.0-0.0-1.4","4","3","2","3","3","4","2","3","2","2","5","0","-1","0","1","0","1","1","1","5","5","5","5","4","3","4","3","4","3","4","6","6","7","3","4","6","5","7","5","7","5","3","4","5","5","4","5","2","1","5","3","5","4","3","3","3","4","6","3","3","5","4","3","3","7","3","5","3","6","6","6","7","5","3","6","6","6","3","6","758376715339960322","赵","448","Female","[""好她"",""坏她"",""好我"",""坏我""]","[""强她"",""弱她"",""强我"",""弱我""]","","","","","","","","","","","","","","","","","","","","","","","","","","","","","","feedback_test","","","","","","","","",""
"802","","j","psychophysics","118","384934","0.0-8.0-1.0-4.0-0.0-0.5","4","3","2","3","3","4","2","3","2","2","5","0","-1","0","1","0","1","1","1","5","5","5","5","4","3","4","3","4","3","4","6","6","7","3","4","6","5","7","5","7","5","3","4","5","5","4","5","2","1","5","3","5","4","3","3","3","4","6","3","3","5","4","3","3","7","3","5","3","6","6","6","7","5","3","6","6","6","3","6","758376715339960322","赵","448","Female","[""好她"",""坏她"",""好我"",""坏我""]","[""强她"",""弱她"",""强我"",""弱我""]","","","","","","","","nonmatch","","","","","","","","","","key","j","16.66397169811315","768","428","j","true","nonmatch","img/pentagon.png","弱我","强我","ALT2","ability","","","","","","","","",""
"null","<span style='color:GreenYellow; font-size: 70px;'>正确! </span>","null","html-keyboard-response","119","385438","0.0-8.0-1.0-4.0-0.0-1.5","4","3","2","3","3","4","2","3","2","2","5","0","-1","0","1","0","1","1","1","5","5","5","5","4","3","4","3","4","3","4","6","6","7","3","4","6","5","7","5","7","5","3","4","5","5","4","5","2","1","5","3","5","4","3","3","3","4","6","3","3","5","4","3","3","7","3","5","3","6","6","6","7","5","3","6","6","6","3","6","758376715339960322","赵","448","Female","[""好她"",""坏她"",""好我"",""坏我""]","[""强她"",""弱她"",""强我"",""弱我""]","","","","","","","","","","","","","","","","","","","","","","","","","","","","","","feedback_test","","","","","","","","",""
"810","","j","psychophysics","120","387249","0.0-8.0-1.0-4.0-0.0-0.6","4","3","2","3","3","4","2","3","2","2","5","0","-1","0","1","0","1","1","1","5","5","5","5","4","3","4","3","4","3","4","6","6","7","3","4","6","5","7","5","7","5","3","4","5","5","4","5","2","1","5","3","5","4","3","3","3","4","6","3","3","5","4","3","3","7","3","5","3","6","6","6","7","5","3","6","6","6","3","6","758376715339960322","赵","448","Female","[""好她"",""坏她"",""好我"",""坏我""]","[""强她"",""弱她"",""强我"",""弱我""]","","","","","","","","nonmatch","","","","","","","","","","key","j","16.66471028037393","768","428","j","true","nonmatch","img/trapezoid.png","弱我","弱她","ALT2","ability","","","","","","","","",""
"null","<span style='color:GreenYellow; font-size: 70px;'>正确! </span>","null","html-keyboard-response","121","387751","0.0-8.0-1.0-4.0-0.0-1.6","4","3","2","3","3","4","2","3","2","2","5","0","-1","0","1","0","1","1","1","5","5","5","5","4","3","4","3","4","3","4","6","6","7","3","4","6","5","7","5","7","5","3","4","5","5","4","5","2","1","5","3","5","4","3","3","3","4","6","3","3","5","4","3","3","7","3","5","3","6","6","6","7","5","3","6","6","6","3","6","758376715339960322","赵","448","Female","[""好她"",""坏她"",""好我"",""坏我""]","[""强她"",""弱她"",""强我"",""弱我""]","","","","","","","","","","","","","","","","","","","","","","","","","","","","","","feedback_test","","","","","","","","",""
"693","","f","psychophysics","122","389448","0.0-8.0-1.0-4.0-0.0-0.7","4","3","2","3","3","4","2","3","2","2","5","0","-1","0","1","0","1","1","1","5","5","5","5","4","3","4","3","4","3","4","6","6","7","3","4","6","5","7","5","7","5","3","4","5","5","4","5","2","1","5","3","5","4","3","3","3","4","6","3","3","5","4","3","3","7","3","5","3","6","6","6","7","5","3","6","6","6","3","6","758376715339960322","赵","448","Female","[""好她"",""坏她"",""好我"",""坏我""]","[""强她"",""弱她"",""强我"",""弱我""]","","","","","","","","match","","","","","","","","","","key","f","16.664060000000173","768","428","j","false","nonmatch","img/square.png","强我","弱我","ALT2","ability","","","","","","","","",""
"null","<span style='color:red; font-size: 70px;'>错误! </span>","null","html-keyboard-response","123","389950","0.0-8.0-1.0-4.0-0.0-1.7","4","3","2","3","3","4","2","3","2","2","5","0","-1","0","1","0","1","1","1","5","5","5","5","4","3","4","3","4","3","4","6","6","7","3","4","6","5","7","5","7","5","3","4","5","5","4","5","2","1","5","3","5","4","3","3","3","4","6","3","3","5","4","3","3","7","3","5","3","6","6","6","7","5","3","6","6","6","3","6","758376715339960322","赵","448","Female","[""好她"",""坏她"",""好我"",""坏我""]","[""强她"",""弱她"",""强我"",""弱我""]","","","","","","","","","","","","","","","","","","","","","","","","","","","","","","feedback_test","","","","","","","","",""
"961","","f","psychophysics","124","391914","0.0-8.0-1.0-4.0-0.0-0.8","4","3","2","3","3","4","2","3","2","2","5","0","-1","0","1","0","1","1","1","5","5","5","5","4","3","4","3","4","3","4","6","6","7","3","4","6","5","7","5","7","5","3","4","5","5","4","5","2","1","5","3","5","4","3","3","3","4","6","3","3","5","4","3","3","7","3","5","3","6","6","6","7","5","3","6","6","6","3","6","758376715339960322","赵","448","Female","[""好她"",""坏她"",""好我"",""坏我""]","[""强她"",""弱她"",""强我"",""弱我""]","","","","","","","","match","","","","","","","","","","key","f","16.664603448275713","768","428","f","true","match","img/trapezoid.png","弱她","弱她","ALT2","ability","","","","","","","","",""
"null","<span style='color:GreenYellow; font-size: 70px;'>正确! </span>","null","html-keyboard-response","125","392418","0.0-8.0-1.0-4.0-0.0-1.8","4","3","2","3","3","4","2","3","2","2","5","0","-1","0","1","0","1","1","1","5","5","5","5","4","3","4","3","4","3","4","6","6","7","3","4","6","5","7","5","7","5","3","4","5","5","4","5","2","1","5","3","5","4","3","3","3","4","6","3","3","5","4","3","3","7","3","5","3","6","6","6","7","5","3","6","6","6","3","6","758376715339960322","赵","448","Female","[""好她"",""坏她"",""好我"",""坏我""]","[""强她"",""弱她"",""强我"",""弱我""]","","","","","","","","","","","","","","","","","","","","","","","","","","","","","","feedback_test","","","","","","","","",""
"700","","j","psychophysics","126","394122","0.0-8.0-1.0-4.0-0.0-0.9","4","3","2","3","3","4","2","3","2","2","5","0","-1","0","1","0","1","1","1","5","5","5","5","4","3","4","3","4","3","4","6","6","7","3","4","6","5","7","5","7","5","3","4","5","5","4","5","2","1","5","3","5","4","3","3","3","4","6","3","3","5","4","3","3","7","3","5","3","6","6","6","7","5","3","6","6","6","3","6","758376715339960322","赵","448","Female","[""好她"",""坏她"",""好我"",""坏我""]","[""强她"",""弱她"",""强我"",""弱我""]","","","","","","","","nonmatch","","","","","","","","","","key","j","16.663663366336333","768","428","f","false","match","img/pentagon.png","强我","强我","ALT2","ability","","","","","","","","",""
"null","<span style='color:red; font-size: 70px;'>错误! </span>","null","html-keyboard-response","127","394625","0.0-8.0-1.0-4.0-0.0-1.9","4","3","2","3","3","4","2","3","2","2","5","0","-1","0","1","0","1","1","1","5","5","5","5","4","3","4","3","4","3","4","6","6","7","3","4","6","5","7","5","7","5","3","4","5","5","4","5","2","1","5","3","5","4","3","3","3","4","6","3","3","5","4","3","3","7","3","5","3","6","6","6","7","5","3","6","6","6","3","6","758376715339960322","赵","448","Female","[""好她"",""坏她"",""好我"",""坏我""]","[""强她"",""弱她"",""强我"",""弱我""]","","","","","","","","","","","","","","","","","","","","","","","","","","","","","","feedback_test","","","","","","","","",""
"654","","f","psychophysics","128","396285","0.0-8.0-1.0-4.0-0.0-0.10","4","3","2","3","3","4","2","3","2","2","5","0","-1","0","1","0","1","1","1","5","5","5","5","4","3","4","3","4","3","4","6","6","7","3","4","6","5","7","5","7","5","3","4","5","5","4","5","2","1","5","3","5","4","3","3","3","4","6","3","3","5","4","3","3","7","3","5","3","6","6","6","7","5","3","6","6","6","3","6","758376715339960322","赵","448","Female","[""好她"",""坏她"",""好我"",""坏我""]","[""强她"",""弱她"",""强我"",""弱我""]","","","","","","","","match","","","","","","","","","","key","f","16.664418367346467","768","428","f","true","match","img/square.png","弱我","弱我","ALT2","ability","","","","","","","","",""
"null","<span style='color:GreenYellow; font-size: 70px;'>正确! </span>","null","html-keyboard-response","129","396790","0.0-8.0-1.0-4.0-0.0-1.10","4","3","2","3","3","4","2","3","2","2","5","0","-1","0","1","0","1","1","1","5","5","5","5","4","3","4","3","4","3","4","6","6","7","3","4","6","5","7","5","7","5","3","4","5","5","4","5","2","1","5","3","5","4","3","3","3","4","6","3","3","5","4","3","3","7","3","5","3","6","6","6","7","5","3","6","6","6","3","6","758376715339960322","赵","448","Female","[""好她"",""坏她"",""好我"",""坏我""]","[""强她"",""弱她"",""强我"",""弱我""]","","","","","","","","","","","","","","","","","","","","","","","","","","","","","","feedback_test","","","","","","","","",""
"876","","f","psychophysics","130","398670","0.0-8.0-1.0-4.0-0.0-0.11","4","3","2","3","3","4","2","3","2","2","5","0","-1","0","1","0","1","1","1","5","5","5","5","4","3","4","3","4","3","4","6","6","7","3","4","6","5","7","5","7","5","3","4","5","5","4","5","2","1","5","3","5","4","3","3","3","4","6","3","3","5","4","3","3","7","3","5","3","6","6","6","7","5","3","6","6","6","3","6","758376715339960322","赵","448","Female","[""好她"",""坏她"",""好我"",""坏我""]","[""强她"",""弱她"",""强我"",""弱我""]","","","","","","","","match","","","","","","","","","","key","f","16.66442727272727","768","428","f","true","match","img/trapezoid.png","弱她","弱她","ALT2","ability","","","","","","","","",""
"null","<span style='color:GreenYellow; font-size: 70px;'>正确! </span>","null","html-keyboard-response","131","399173","0.0-8.0-1.0-4.0-0.0-1.11","4","3","2","3","3","4","2","3","2","2","5","0","-1","0","1","0","1","1","1","5","5","5","5","4","3","4","3","4","3","4","6","6","7","3","4","6","5","7","5","7","5","3","4","5","5","4","5","2","1","5","3","5","4","3","3","3","4","6","3","3","5","4","3","3","7","3","5","3","6","6","6","7","5","3","6","6","6","3","6","758376715339960322","赵","448","Female","[""好她"",""坏她"",""好我"",""坏我""]","[""强她"",""弱她"",""强我"",""弱我""]","","","","","","","","","","","","","","","","","","","","","","","","","","","","","","feedback_test","","","","","","","","",""
"825","","j","psychophysics","132","401002","0.0-8.0-1.0-4.0-0.0-0.12","4","3","2","3","3","4","2","3","2","2","5","0","-1","0","1","0","1","1","1","5","5","5","5","4","3","4","3","4","3","4","6","6","7","3","4","6","5","7","5","7","5","3","4","5","5","4","5","2","1","5","3","5","4","3","3","3","4","6","3","3","5","4","3","3","7","3","5","3","6","6","6","7","5","3","6","6","6","3","6","758376715339960322","赵","448","Female","[""好她"",""坏她"",""好我"",""坏我""]","[""强她"",""弱她"",""强我"",""弱我""]","","","","","","","","nonmatch","","","","","","","","","","key","j","16.66482242990653","768","428","j","true","nonmatch","img/pentagon.png","弱她","强我","ALT2","ability","","","","","","","","",""
"null","<span style='color:GreenYellow; font-size: 70px;'>正确! </span>","null","html-keyboard-response","133","401506","0.0-8.0-1.0-4.0-0.0-1.12","4","3","2","3","3","4","2","3","2","2","5","0","-1","0","1","0","1","1","1","5","5","5","5","4","3","4","3","4","3","4","6","6","7","3","4","6","5","7","5","7","5","3","4","5","5","4","5","2","1","5","3","5","4","3","3","3","4","6","3","3","5","4","3","3","7","3","5","3","6","6","6","7","5","3","6","6","6","3","6","758376715339960322","赵","448","Female","[""好她"",""坏她"",""好我"",""坏我""]","[""强她"",""弱她"",""强我"",""弱我""]","","","","","","","","","","","","","","","","","","","","","","","","","","","","","","feedback_test","","","","","","","","",""
"877","","j","psychophysics","134","403388","0.0-8.0-1.0-4.0-0.0-0.13","4","3","2","3","3","4","2","3","2","2","5","0","-1","0","1","0","1","1","1","5","5","5","5","4","3","4","3","4","3","4","6","6","7","3","4","6","5","7","5","7","5","3","4","5","5","4","5","2","1","5","3","5","4","3","3","3","4","6","3","3","5","4","3","3","7","3","5","3","6","6","6","7","5","3","6","6","6","3","6","758376715339960322","赵","448","Female","[""好她"",""坏她"",""好我"",""坏我""]","[""强她"",""弱她"",""强我"",""弱我""]","","","","","","","","nonmatch","","","","","","","","","","key","j","16.664954954954933","768","428","f","false","match","img/pentagon.png","强我","强我","ALT2","ability","","","","","","","","",""
"null","<span style='color:red; font-size: 70px;'>错误! </span>","null","html-keyboard-response","135","403891","0.0-8.0-1.0-4.0-0.0-1.13","4","3","2","3","3","4","2","3","2","2","5","0","-1","0","1","0","1","1","1","5","5","5","5","4","3","4","3","4","3","4","6","6","7","3","4","6","5","7","5","7","5","3","4","5","5","4","5","2","1","5","3","5","4","3","3","3","4","6","3","3","5","4","3","3","7","3","5","3","6","6","6","7","5","3","6","6","6","3","6","758376715339960322","赵","448","Female","[""好她"",""坏她"",""好我"",""坏我""]","[""强她"",""弱她"",""强我"",""弱我""]","","","","","","","","","","","","","","","","","","","","","","","","","","","","","","feedback_test","","","","","","","","",""
"1024","","f","psychophysics","136","405920","0.0-8.0-1.0-4.0-0.0-0.14","4","3","2","3","3","4","2","3","2","2","5","0","-1","0","1","0","1","1","1","5","5","5","5","4","3","4","3","4","3","4","6","6","7","3","4","6","5","7","5","7","5","3","4","5","5","4","5","2","1","5","3","5","4","3","3","3","4","6","3","3","5","4","3","3","7","3","5","3","6","6","6","7","5","3","6","6","6","3","6","758376715339960322","赵","448","Female","[""好她"",""坏她"",""好我"",""坏我""]","[""强她"",""弱她"",""强我"",""弱我""]","","","","","","","","match","","","","","","","","","","key","f","16.66416666666628","768","428","j","false","nonmatch","img/circle.png","弱她","强她","ALT2","ability","","","","","","","","",""
"null","<span style='color:red; font-size: 70px;'>错误! </span>","null","html-keyboard-response","137","406423","0.0-8.0-1.0-4.0-0.0-1.14","4","3","2","3","3","4","2","3","2","2","5","0","-1","0","1","0","1","1","1","5","5","5","5","4","3","4","3","4","3","4","6","6","7","3","4","6","5","7","5","7","5","3","4","5","5","4","5","2","1","5","3","5","4","3","3","3","4","6","3","3","5","4","3","3","7","3","5","3","6","6","6","7","5","3","6","6","6","3","6","758376715339960322","赵","448","Female","[""好她"",""坏她"",""好我"",""坏我""]","[""强她"",""弱她"",""强我"",""弱我""]","","","","","","","","","","","","","","","","","","","","","","","","","","","","","","feedback_test","","","","","","","","",""
