"rt","stimulus","response","trial_type","trial_index","time_elapsed","internal_node_id","swb_1","swb_2","swb_3","swb_4","swb_5","LOT_1","LOT_2","LOT_3","LOT_4","LOT_5","LOT_6","IPC_1","IPC_2","IPC_3","IPC_4","IPC_5","IPC_6","IPC_7","IPC_8","MorIden_1","MorIden_2","MorIden_3","MorIden_4","MorIden_5","MorIden_6","MorIden_7","MorIden_8","MorIden_9","MorIden_10","moralSeImag_1","moralSeImag_2","moralSeImag_3","moralSeImag_4","moralSeImag_5","moralSeImag_6","moralSeImag_7","moralSeImag_8","moralSeImag_9","sde_1","sde_2","sde_3","sde_4","sde_5","sde_6","sde_7","sde_8","sde_9","sde_10","trap2","sde_11","sde_12","sde_13","sde_14","sde_15","sde_16","sde_17","sde_18","sde_19","sde_20","IM_1","IM_2","IM_3","IM_4","IM_5","IM_6","IM_7","IM_8","IM_9","IM_10","IM_11","IM_12","IM_13","IM_14","IM_15","IM_16","IM_17","IM_18","IM_19","IM_20","subj_idx","friend_name","ParticipantID","Sex","Word","Word2","value","success","timeout","failed_images","failed_audio","failed_video","user_agent","responses","item_order","radio_event_ids","radio_event_times","key_event_times","mouse_event_times","straightlining","zigzagging","honeypot","view_history","response_type","key_press","avg_frame_time","center_x","center_y","correct_response","correct","identity","Image","word","condition","task_id","screen_id","time_stamp","person","valence","domain","math","status","duration","question_order","trap2_item"
"21184","
   <p><div style='color:white; font-size: 25px'>您好，欢迎参加本次实验。</div></p>
   <p><div style='color:white; font-size: 25px'>为充分保障您的权利，请确保您已经知晓并同意《参与实验同意书》以及《数据公开知情同意书》。</div></p>
   <p><div style='color:white; font-size: 25px'>如果您未见过上述内容，请咨询实验员。</div></p>
   <p style='color:white; font-size: 25px'>如果您选择继续实验，则表示您已经清楚两份知情同意书的内容并同意。</p>
   <p><div style = ""color: pink;font-size:30px;"">请确保您记得day0的实验编号，您将在本次实验输入该编号，若您忘记，请咨询实验员后作答。</div></p>
   <p><div style = ""color:lightblue;font-size:25px;"">请您尽可能认真地作答，我们将依据您在各问卷和按键任务中的作答质量发放报酬。</div></p>
   <p> <div style = ""color: green""><按空格键至下页></div> </p>
   "," ","html-keyboard-response","0","21186","0.0-0.0","5","5","4","4","3","4","2","3","4","4","4","0","-1","-1","-2","0","1","1","1","5","4","4","3","4","4","3","3","4","3","6","7","5","7","4","6","6","7","6","5","4","3","4","5","2","3","6","5","4","1","4","3","6","4","2","4","3","5","4","3","3","3","3","6","3","6","5","4","5","6","6","6","7","7","2","5","3","6","3","6","766337469301133313","祁","272","Female","[""坏我"",""好她"",""好我"",""坏她""]","[""弱我"",""强她"",""强我"",""弱她""]","","","","","","","","","","","","","","","","","","","","","","","","","","","","","","","","","","","","","","",""
"","","","call-function","1","21189","0.0-1.0-0.0","5","5","4","4","3","4","2","3","4","4","4","0","-1","-1","-2","0","1","1","1","5","4","4","3","4","4","3","3","4","3","6","7","5","7","4","6","6","7","6","5","4","3","4","5","2","3","6","5","4","1","4","3","6","4","2","4","3","5","4","3","3","3","3","6","3","6","5","4","5","6","6","6","7","7","2","5","3","6","3","6","766337469301133313","祁","272","Female","[""坏我"",""好她"",""好我"",""坏她""]","[""弱我"",""强她"",""强我"",""弱她""]","","","","","","","","","","","","","","","","","","","","","","","","","","","","","","","","","","","","","","",""
"13175","","[{""name"":""Sex"",""value"":""1""},{""name"":""friend_name"",""value"":""祁""},{""name"":""ParticipantID"",""value"":""272""}]","survey-html-form","2","34364","0.0-1.0-1.0","5","5","4","4","3","4","2","3","4","4","4","0","-1","-1","-2","0","1","1","1","5","4","4","3","4","4","3","3","4","3","6","7","5","7","4","6","6","7","6","5","4","3","4","5","2","3","6","5","4","1","4","3","6","4","2","4","3","5","4","3","3","3","3","6","3","6","5","4","5","6","6","6","7","7","2","5","3","6","3","6","766337469301133313","祁","272","Female","[""坏我"",""好她"",""好我"",""坏她""]","[""弱我"",""强她"",""强我"",""弱她""]","","","","","","","","","","","","","","","","","","","","","","","","","","","","","","","","","","","","","","",""
"","","","preload","3","34604","0.0-2.0","5","5","4","4","3","4","2","3","4","4","4","0","-1","-1","-2","0","1","1","1","5","4","4","3","4","4","3","3","4","3","6","7","5","7","4","6","6","7","6","5","4","3","4","5","2","3","6","5","4","1","4","3","6","4","2","4","3","5","4","3","3","3","3","6","3","6","5","4","5","6","6","6","7","7","2","5","3","6","3","6","766337469301133313","祁","272","Female","[""坏我"",""好她"",""好我"",""坏她""]","[""弱我"",""强她"",""强我"",""弱她""]","","true","false","[]","[]","[]","","","","","","","","","","","","","","","","","","","","","","","","","","","","","","","","",""
"","","","fullscreen","4","41834","0.0-3.0","5","5","4","4","3","4","2","3","4","4","4","0","-1","-1","-2","0","1","1","1","5","4","4","3","4","4","3","3","4","3","6","7","5","7","4","6","6","7","6","5","4","3","4","5","2","3","6","5","4","1","4","3","6","4","2","4","3","5","4","3","3","3","3","6","3","6","5","4","5","6","6","6","7","7","2","5","3","6","3","6","766337469301133313","祁","272","Female","[""坏我"",""好她"",""好我"",""坏她""]","[""弱我"",""强她"",""强我"",""弱她""]","","true","","","","","{}","","","","","","","","","","","","","","","","","","","","","","","","","","","","","","","",""
"13251.800000000745","","{""Q01"":""5"",""Q02"":""5"",""Q03"":""4"",""Q04"":""4"",""Q05"":""3""}","survey-template","5","55089","0.0-4.0","5","5","4","4","3","4","2","3","4","4","4","0","-1","-1","-2","0","1","1","1","5","4","4","3","4","4","3","3","4","3","6","7","5","7","4","6","6","7","6","5","4","3","4","5","2","3","6","5","4","1","4","3","6","4","2","4","3","5","4","3","3","3","3","6","3","6","5","4","5","6","6","6","7","7","2","5","3","6","3","6","766337469301133313","祁","272","Female","[""坏我"",""好她"",""好我"",""坏她""]","[""弱我"",""强她"",""强我"",""弱她""]","","","","","","","","{""Q01"":""5"",""Q02"":""5"",""Q03"":""4"",""Q04"":""4"",""Q05"":""3""}","[0,1,2,3,4]","[""Q01"",""Q02"",""Q03"",""Q04"",""Q05""]","[2434.800000000745,4580.800000000745,8248.400000000373,9902.200000001118,11232.60000000149]","[]","[2434.800000000745,4580.800000000745,8248.400000000373,9902.200000001118,11232.60000000149,13250.60000000149]","0.4","0.5","0","","","","","","","","","","","","","","","","","","","","","","",""
"18686","","{""Q01"":""4"",""Q02"":""2"",""Q03"":""3"",""Q04"":""4"",""Q05"":""4"",""Q06"":""4""}","survey-template","6","73778","0.0-5.0","5","5","4","4","3","4","2","3","4","4","4","0","-1","-1","-2","0","1","1","1","5","4","4","3","4","4","3","3","4","3","6","7","5","7","4","6","6","7","6","5","4","3","4","5","2","3","6","5","4","1","4","3","6","4","2","4","3","5","4","3","3","3","3","6","3","6","5","4","5","6","6","6","7","7","2","5","3","6","3","6","766337469301133313","祁","272","Female","[""坏我"",""好她"",""好我"",""坏她""]","[""弱我"",""强她"",""强我"",""弱她""]","","","","","","","","{""Q01"":""4"",""Q02"":""2"",""Q03"":""3"",""Q04"":""4"",""Q05"":""4"",""Q06"":""4""}","[0,1,2,3,4,5]","[""Q02"",""Q01"",""Q03"",""Q04"",""Q05"",""Q06""]","[4742.9000000003725,5509,9839.400000000373,11310.800000000745,13486.800000000745,17389.199999999255]","[]","[2359,4742.9000000003725,5509,7468.9000000003725,9839.400000000373,11310.800000000745,13486.800000000745,17389.199999999255,18685.199999999255]","0.5","0.4","0","","","","","","","","","","","","","","","","","","","","","","",""
"20549.5","","{""Q01"":""0"",""Q02"":""-1"",""Q03"":""-1"",""Q04"":""-2"",""Q05"":""0"",""Q06"":""1"",""Q07"":""1"",""Q08"":""1""}","survey-template","7","94333","0.0-6.0","5","5","4","4","3","4","2","3","4","4","4","0","-1","-1","-2","0","1","1","1","5","4","4","3","4","4","3","3","4","3","6","7","5","7","4","6","6","7","6","5","4","3","4","5","2","3","6","5","4","1","4","3","6","4","2","4","3","5","4","3","3","3","3","6","3","6","5","4","5","6","6","6","7","7","2","5","3","6","3","6","766337469301133313","祁","272","Female","[""坏我"",""好她"",""好我"",""坏她""]","[""弱我"",""强她"",""强我"",""弱她""]","","","","","","","","{""Q01"":""0"",""Q02"":""-1"",""Q03"":""-1"",""Q04"":""-2"",""Q05"":""0"",""Q06"":""1"",""Q07"":""1"",""Q08"":""1""}","[0,1,2,3,4,5,6,7]","[""Q01"",""Q02"",""Q03"",""Q04"",""Q05"",""Q06"",""Q07"",""Q08""]","[2398.800000000745,6372.5,8765.300000000745,11584.800000000745,14611.099999999627,16054.700000001118,17926.800000000745,19424]","[]","[2398.800000000745,6372.5,8765.300000000745,11584.800000000745,14611.099999999627,16054.700000001118,17926.800000000745,19424,20548.599999999627]","0.375","0.42857142857142855","0","","","","","","","","","","","","","","","","","","","","","","",""
"37443","","","instructions","8","131778","0.0-7.0","5","5","4","4","3","4","2","3","4","4","4","0","-1","-1","-2","0","1","1","1","5","4","4","3","4","4","3","3","4","3","6","7","5","7","4","6","6","7","6","5","4","3","4","5","2","3","6","5","4","1","4","3","6","4","2","4","3","5","4","3","3","3","3","6","3","6","5","4","5","6","6","6","7","7","2","5","3","6","3","6","766337469301133313","祁","272","Female","[""坏我"",""好她"",""好我"",""坏她""]","[""弱我"",""强她"",""强我"",""弱她""]","","","","","","","","","","","","","","","","","[{""page_index"":0,""viewing_time"":37442}]","","","","","","","","","","","","","","","","","","","","","",""
"100070","","","instructions","9","231849","0.0-8.0-0.0-0.0","5","5","4","4","3","4","2","3","4","4","4","0","-1","-1","-2","0","1","1","1","5","4","4","3","4","4","3","3","4","3","6","7","5","7","4","6","6","7","6","5","4","3","4","5","2","3","6","5","4","1","4","3","6","4","2","4","3","5","4","3","3","3","3","6","3","6","5","4","5","6","6","6","7","7","2","5","3","6","3","6","766337469301133313","祁","272","Female","[""坏我"",""好她"",""好我"",""坏她""]","[""弱我"",""强她"",""强我"",""弱她""]","","","","","","","","","","","","","","","","","[{""page_index"":0,""viewing_time"":10546},{""page_index"":1,""viewing_time"":74125},{""page_index"":2,""viewing_time"":8281},{""page_index"":3,""viewing_time"":7117}]","","","","","","","","","","","","","","","","","","","","","",""
"null","","null","psychophysics","10","234059","0.0-8.0-0.0-1.0-0.0-0.0","5","5","4","4","3","4","2","3","4","4","4","0","-1","-1","-2","0","1","1","1","5","4","4","3","4","4","3","3","4","3","6","7","5","7","4","6","6","7","6","5","4","3","4","5","2","3","6","5","4","1","4","3","6","4","2","4","3","5","4","3","3","3","3","6","3","6","5","4","5","6","6","6","7","7","2","5","3","6","3","6","766337469301133313","祁","272","Female","[""坏我"",""好她"",""好我"",""坏她""]","[""弱我"",""强她"",""强我"",""弱她""]","","","","","","","","null","","","","","","","","","","key","null","16.66835877862612","640","356","f","false","match","img/pentagon.png","好我","好我","prac_ALT2_moral","practice_moral","","","","","","","","",""
"null","<span class='add_' style='color:yellow; font-size: 70px;'> 太慢! </span>","null","html-keyboard-response","11","234562","0.0-8.0-0.0-1.0-0.0-1.0","5","5","4","4","3","4","2","3","4","4","4","0","-1","-1","-2","0","1","1","1","5","4","4","3","4","4","3","3","4","3","6","7","5","7","4","6","6","7","6","5","4","3","4","5","2","3","6","5","4","1","4","3","6","4","2","4","3","5","4","3","3","3","3","6","3","6","5","4","5","6","6","6","7","7","2","5","3","6","3","6","766337469301133313","祁","272","Female","[""坏我"",""好她"",""好我"",""坏她""]","[""弱我"",""强她"",""强我"",""弱她""]","","","","","","","","","","","","","","","","","","","","","","","","","","","","","","feedback_test","","","","","","","","",""
"817","","f","psychophysics","12","236382","0.0-8.0-0.0-1.0-0.0-0.1","5","5","4","4","3","4","2","3","4","4","4","0","-1","-1","-2","0","1","1","1","5","4","4","3","4","4","3","3","4","3","6","7","5","7","4","6","6","7","6","5","4","3","4","5","2","3","6","5","4","1","4","3","6","4","2","4","3","5","4","3","3","3","3","6","3","6","5","4","5","6","6","6","7","7","2","5","3","6","3","6","766337469301133313","祁","272","Female","[""坏我"",""好她"",""好我"",""坏她""]","[""弱我"",""强她"",""强我"",""弱她""]","","","","","","","","match","","","","","","","","","","key","f","16.666972222222185","640","356","f","true","match","img/ellipse.png","好她","好她","prac_ALT2_moral","practice_moral","","","","","","","","",""
"null","<span style='color:GreenYellow; font-size: 70px;'>正确! </span>","null","html-keyboard-response","13","236884","0.0-8.0-0.0-1.0-0.0-1.1","5","5","4","4","3","4","2","3","4","4","4","0","-1","-1","-2","0","1","1","1","5","4","4","3","4","4","3","3","4","3","6","7","5","7","4","6","6","7","6","5","4","3","4","5","2","3","6","5","4","1","4","3","6","4","2","4","3","5","4","3","3","3","3","6","3","6","5","4","5","6","6","6","7","7","2","5","3","6","3","6","766337469301133313","祁","272","Female","[""坏我"",""好她"",""好我"",""坏她""]","[""弱我"",""强她"",""强我"",""弱她""]","","","","","","","","","","","","","","","","","","","","","","","","","","","","","","feedback_test","","","","","","","","",""
"875","","j","psychophysics","14","238762","0.0-8.0-0.0-1.0-0.0-0.2","5","5","4","4","3","4","2","3","4","4","4","0","-1","-1","-2","0","1","1","1","5","4","4","3","4","4","3","3","4","3","6","7","5","7","4","6","6","7","6","5","4","3","4","5","2","3","6","5","4","1","4","3","6","4","2","4","3","5","4","3","3","3","3","6","3","6","5","4","5","6","6","6","7","7","2","5","3","6","3","6","766337469301133313","祁","272","Female","[""坏我"",""好她"",""好我"",""坏她""]","[""弱我"",""强她"",""强我"",""弱她""]","","","","","","","","nonmatch","","","","","","","","","","key","j","16.667468468468535","640","356","j","true","nonmatch","img/pentagon.png","坏我","好我","prac_ALT2_moral","practice_moral","","","","","","","","",""
"null","<span style='color:GreenYellow; font-size: 70px;'>正确! </span>","null","html-keyboard-response","15","239263","0.0-8.0-0.0-1.0-0.0-1.2","5","5","4","4","3","4","2","3","4","4","4","0","-1","-1","-2","0","1","1","1","5","4","4","3","4","4","3","3","4","3","6","7","5","7","4","6","6","7","6","5","4","3","4","5","2","3","6","5","4","1","4","3","6","4","2","4","3","5","4","3","3","3","3","6","3","6","5","4","5","6","6","6","7","7","2","5","3","6","3","6","766337469301133313","祁","272","Female","[""坏我"",""好她"",""好我"",""坏她""]","[""弱我"",""强她"",""强我"",""弱她""]","","","","","","","","","","","","","","","","","","","","","","","","","","","","","","feedback_test","","","","","","","","",""
"669","","j","psychophysics","16","240934","0.0-8.0-0.0-1.0-0.0-0.3","5","5","4","4","3","4","2","3","4","4","4","0","-1","-1","-2","0","1","1","1","5","4","4","3","4","4","3","3","4","3","6","7","5","7","4","6","6","7","6","5","4","3","4","5","2","3","6","5","4","1","4","3","6","4","2","4","3","5","4","3","3","3","3","6","3","6","5","4","5","6","6","6","7","7","2","5","3","6","3","6","766337469301133313","祁","272","Female","[""坏我"",""好她"",""好我"",""坏她""]","[""弱我"",""强她"",""强我"",""弱她""]","","","","","","","","nonmatch","","","","","","","","","","key","j","16.666696969697234","640","356","j","true","nonmatch","img/ellipse.png","好我","好她","prac_ALT2_moral","practice_moral","","","","","","","","",""
"null","<span style='color:GreenYellow; font-size: 70px;'>正确! </span>","null","html-keyboard-response","17","241435","0.0-8.0-0.0-1.0-0.0-1.3","5","5","4","4","3","4","2","3","4","4","4","0","-1","-1","-2","0","1","1","1","5","4","4","3","4","4","3","3","4","3","6","7","5","7","4","6","6","7","6","5","4","3","4","5","2","3","6","5","4","1","4","3","6","4","2","4","3","5","4","3","3","3","3","6","3","6","5","4","5","6","6","6","7","7","2","5","3","6","3","6","766337469301133313","祁","272","Female","[""坏我"",""好她"",""好我"",""坏她""]","[""弱我"",""强她"",""强我"",""弱她""]","","","","","","","","","","","","","","","","","","","","","","","","","","","","","","feedback_test","","","","","","","","",""
"602","","j","psychophysics","18","243039","0.0-8.0-0.0-1.0-0.0-0.4","5","5","4","4","3","4","2","3","4","4","4","0","-1","-1","-2","0","1","1","1","5","4","4","3","4","4","3","3","4","3","6","7","5","7","4","6","6","7","6","5","4","3","4","5","2","3","6","5","4","1","4","3","6","4","2","4","3","5","4","3","3","3","3","6","3","6","5","4","5","6","6","6","7","7","2","5","3","6","3","6","766337469301133313","祁","272","Female","[""坏我"",""好她"",""好我"",""坏她""]","[""弱我"",""强她"",""强我"",""弱她""]","","","","","","","","nonmatch","","","","","","","","","","key","j","16.667168421052875","640","356","j","true","nonmatch","img/ellipse.png","坏我","好她","prac_ALT2_moral","practice_moral","","","","","","","","",""
"null","<span style='color:GreenYellow; font-size: 70px;'>正确! </span>","null","html-keyboard-response","19","243540","0.0-8.0-0.0-1.0-0.0-1.4","5","5","4","4","3","4","2","3","4","4","4","0","-1","-1","-2","0","1","1","1","5","4","4","3","4","4","3","3","4","3","6","7","5","7","4","6","6","7","6","5","4","3","4","5","2","3","6","5","4","1","4","3","6","4","2","4","3","5","4","3","3","3","3","6","3","6","5","4","5","6","6","6","7","7","2","5","3","6","3","6","766337469301133313","祁","272","Female","[""坏我"",""好她"",""好我"",""坏她""]","[""弱我"",""强她"",""强我"",""弱她""]","","","","","","","","","","","","","","","","","","","","","","","","","","","","","","feedback_test","","","","","","","","",""
"700","","j","psychophysics","20","245243","0.0-8.0-0.0-1.0-0.0-0.5","5","5","4","4","3","4","2","3","4","4","4","0","-1","-1","-2","0","1","1","1","5","4","4","3","4","4","3","3","4","3","6","7","5","7","4","6","6","7","6","5","4","3","4","5","2","3","6","5","4","1","4","3","6","4","2","4","3","5","4","3","3","3","3","6","3","6","5","4","5","6","6","6","7","7","2","5","3","6","3","6","766337469301133313","祁","272","Female","[""坏我"",""好她"",""好我"",""坏她""]","[""弱我"",""强她"",""强我"",""弱她""]","","","","","","","","nonmatch","","","","","","","","","","key","j","16.669821782178236","640","356","j","true","nonmatch","img/pentagon.png","坏她","好我","prac_ALT2_moral","practice_moral","","","","","","","","",""
"null","<span style='color:GreenYellow; font-size: 70px;'>正确! </span>","null","html-keyboard-response","21","245744","0.0-8.0-0.0-1.0-0.0-1.5","5","5","4","4","3","4","2","3","4","4","4","0","-1","-1","-2","0","1","1","1","5","4","4","3","4","4","3","3","4","3","6","7","5","7","4","6","6","7","6","5","4","3","4","5","2","3","6","5","4","1","4","3","6","4","2","4","3","5","4","3","3","3","3","6","3","6","5","4","5","6","6","6","7","7","2","5","3","6","3","6","766337469301133313","祁","272","Female","[""坏我"",""好她"",""好我"",""坏她""]","[""弱我"",""强她"",""强我"",""弱她""]","","","","","","","","","","","","","","","","","","","","","","","","","","","","","","feedback_test","","","","","","","","",""
"882","","f","psychophysics","22","247627","0.0-8.0-0.0-1.0-0.0-0.6","5","5","4","4","3","4","2","3","4","4","4","0","-1","-1","-2","0","1","1","1","5","4","4","3","4","4","3","3","4","3","6","7","5","7","4","6","6","7","6","5","4","3","4","5","2","3","6","5","4","1","4","3","6","4","2","4","3","5","4","3","3","3","3","6","3","6","5","4","5","6","6","6","7","7","2","5","3","6","3","6","766337469301133313","祁","272","Female","[""坏我"",""好她"",""好我"",""坏她""]","[""弱我"",""强她"",""强我"",""弱她""]","","","","","","","","match","","","","","","","","","","key","f","16.667410714285715","640","356","f","true","match","img/diamond.png","坏我","坏我","prac_ALT2_moral","practice_moral","","","","","","","","",""
"null","<span style='color:GreenYellow; font-size: 70px;'>正确! </span>","null","html-keyboard-response","23","248129","0.0-8.0-0.0-1.0-0.0-1.6","5","5","4","4","3","4","2","3","4","4","4","0","-1","-1","-2","0","1","1","1","5","4","4","3","4","4","3","3","4","3","6","7","5","7","4","6","6","7","6","5","4","3","4","5","2","3","6","5","4","1","4","3","6","4","2","4","3","5","4","3","3","3","3","6","3","6","5","4","5","6","6","6","7","7","2","5","3","6","3","6","766337469301133313","祁","272","Female","[""坏我"",""好她"",""好我"",""坏她""]","[""弱我"",""强她"",""强我"",""弱她""]","","","","","","","","","","","","","","","","","","","","","","","","","","","","","","feedback_test","","","","","","","","",""
"null","","null","psychophysics","24","250333","0.0-8.0-0.0-1.0-0.0-0.7","5","5","4","4","3","4","2","3","4","4","4","0","-1","-1","-2","0","1","1","1","5","4","4","3","4","4","3","3","4","3","6","7","5","7","4","6","6","7","6","5","4","3","4","5","2","3","6","5","4","1","4","3","6","4","2","4","3","5","4","3","3","3","3","6","3","6","5","4","5","6","6","6","7","7","2","5","3","6","3","6","766337469301133313","祁","272","Female","[""坏我"",""好她"",""好我"",""坏她""]","[""弱我"",""强她"",""强我"",""弱她""]","","","","","","","","null","","","","","","","","","","key","null","16.665206106870173","640","356","j","false","nonmatch","img/square.png","坏我","坏她","prac_ALT2_moral","practice_moral","","","","","","","","",""
"null","<span class='add_' style='color:yellow; font-size: 70px;'> 太慢! </span>","null","html-keyboard-response","25","250836","0.0-8.0-0.0-1.0-0.0-1.7","5","5","4","4","3","4","2","3","4","4","4","0","-1","-1","-2","0","1","1","1","5","4","4","3","4","4","3","3","4","3","6","7","5","7","4","6","6","7","6","5","4","3","4","5","2","3","6","5","4","1","4","3","6","4","2","4","3","5","4","3","3","3","3","6","3","6","5","4","5","6","6","6","7","7","2","5","3","6","3","6","766337469301133313","祁","272","Female","[""坏我"",""好她"",""好我"",""坏她""]","[""弱我"",""强她"",""强我"",""弱她""]","","","","","","","","","","","","","","","","","","","","","","","","","","","","","","feedback_test","","","","","","","","",""
"911","","j","psychophysics","26","252749","0.0-8.0-0.0-1.0-0.0-0.8","5","5","4","4","3","4","2","3","4","4","4","0","-1","-1","-2","0","1","1","1","5","4","4","3","4","4","3","3","4","3","6","7","5","7","4","6","6","7","6","5","4","3","4","5","2","3","6","5","4","1","4","3","6","4","2","4","3","5","4","3","3","3","3","6","3","6","5","4","5","6","6","6","7","7","2","5","3","6","3","6","766337469301133313","祁","272","Female","[""坏我"",""好她"",""好我"",""坏她""]","[""弱我"",""强她"",""强我"",""弱她""]","","","","","","","","nonmatch","","","","","","","","","","key","j","16.667210526315838","640","356","j","true","nonmatch","img/ellipse.png","坏她","好她","prac_ALT2_moral","practice_moral","","","","","","","","",""
"null","<span style='color:GreenYellow; font-size: 70px;'>正确! </span>","null","html-keyboard-response","27","253250","0.0-8.0-0.0-1.0-0.0-1.8","5","5","4","4","3","4","2","3","4","4","4","0","-1","-1","-2","0","1","1","1","5","4","4","3","4","4","3","3","4","3","6","7","5","7","4","6","6","7","6","5","4","3","4","5","2","3","6","5","4","1","4","3","6","4","2","4","3","5","4","3","3","3","3","6","3","6","5","4","5","6","6","6","7","7","2","5","3","6","3","6","766337469301133313","祁","272","Female","[""坏我"",""好她"",""好我"",""坏她""]","[""弱我"",""强她"",""强我"",""弱她""]","","","","","","","","","","","","","","","","","","","","","","","","","","","","","","feedback_test","","","","","","","","",""
"860","","f","psychophysics","28","255120","0.0-8.0-0.0-1.0-0.0-0.9","5","5","4","4","3","4","2","3","4","4","4","0","-1","-1","-2","0","1","1","1","5","4","4","3","4","4","3","3","4","3","6","7","5","7","4","6","6","7","6","5","4","3","4","5","2","3","6","5","4","1","4","3","6","4","2","4","3","5","4","3","3","3","3","6","3","6","5","4","5","6","6","6","7","7","2","5","3","6","3","6","766337469301133313","祁","272","Female","[""坏我"",""好她"",""好我"",""坏她""]","[""弱我"",""强她"",""强我"",""弱她""]","","","","","","","","match","","","","","","","","","","key","f","16.668504504504487","640","356","f","true","match","img/diamond.png","坏我","坏我","prac_ALT2_moral","practice_moral","","","","","","","","",""
"null","<span style='color:GreenYellow; font-size: 70px;'>正确! </span>","null","html-keyboard-response","29","255622","0.0-8.0-0.0-1.0-0.0-1.9","5","5","4","4","3","4","2","3","4","4","4","0","-1","-1","-2","0","1","1","1","5","4","4","3","4","4","3","3","4","3","6","7","5","7","4","6","6","7","6","5","4","3","4","5","2","3","6","5","4","1","4","3","6","4","2","4","3","5","4","3","3","3","3","6","3","6","5","4","5","6","6","6","7","7","2","5","3","6","3","6","766337469301133313","祁","272","Female","[""坏我"",""好她"",""好我"",""坏她""]","[""弱我"",""强她"",""强我"",""弱她""]","","","","","","","","","","","","","","","","","","","","","","","","","","","","","","feedback_test","","","","","","","","",""
"780","","f","psychophysics","30","257403","0.0-8.0-0.0-1.0-0.0-0.10","5","5","4","4","3","4","2","3","4","4","4","0","-1","-1","-2","0","1","1","1","5","4","4","3","4","4","3","3","4","3","6","7","5","7","4","6","6","7","6","5","4","3","4","5","2","3","6","5","4","1","4","3","6","4","2","4","3","5","4","3","3","3","3","6","3","6","5","4","5","6","6","6","7","7","2","5","3","6","3","6","766337469301133313","祁","272","Female","[""坏我"",""好她"",""好我"",""坏她""]","[""弱我"",""强她"",""强我"",""弱她""]","","","","","","","","match","","","","","","","","","","key","f","16.667915094339612","640","356","f","true","match","img/square.png","坏她","坏她","prac_ALT2_moral","practice_moral","","","","","","","","",""
"null","<span style='color:GreenYellow; font-size: 70px;'>正确! </span>","null","html-keyboard-response","31","257904","0.0-8.0-0.0-1.0-0.0-1.10","5","5","4","4","3","4","2","3","4","4","4","0","-1","-1","-2","0","1","1","1","5","4","4","3","4","4","3","3","4","3","6","7","5","7","4","6","6","7","6","5","4","3","4","5","2","3","6","5","4","1","4","3","6","4","2","4","3","5","4","3","3","3","3","6","3","6","5","4","5","6","6","6","7","7","2","5","3","6","3","6","766337469301133313","祁","272","Female","[""坏我"",""好她"",""好我"",""坏她""]","[""弱我"",""强她"",""强我"",""弱她""]","","","","","","","","","","","","","","","","","","","","","","","","","","","","","","feedback_test","","","","","","","","",""
"575","","f","psychophysics","32","259481","0.0-8.0-0.0-1.0-0.0-0.11","5","5","4","4","3","4","2","3","4","4","4","0","-1","-1","-2","0","1","1","1","5","4","4","3","4","4","3","3","4","3","6","7","5","7","4","6","6","7","6","5","4","3","4","5","2","3","6","5","4","1","4","3","6","4","2","4","3","5","4","3","3","3","3","6","3","6","5","4","5","6","6","6","7","7","2","5","3","6","3","6","766337469301133313","祁","272","Female","[""坏我"",""好她"",""好我"",""坏她""]","[""弱我"",""强她"",""强我"",""弱她""]","","","","","","","","match","","","","","","","","","","key","f","16.666319148936385","640","356","f","true","match","img/pentagon.png","好我","好我","prac_ALT2_moral","practice_moral","","","","","","","","",""
"null","<span style='color:GreenYellow; font-size: 70px;'>正确! </span>","null","html-keyboard-response","33","259982","0.0-8.0-0.0-1.0-0.0-1.11","5","5","4","4","3","4","2","3","4","4","4","0","-1","-1","-2","0","1","1","1","5","4","4","3","4","4","3","3","4","3","6","7","5","7","4","6","6","7","6","5","4","3","4","5","2","3","6","5","4","1","4","3","6","4","2","4","3","5","4","3","3","3","3","6","3","6","5","4","5","6","6","6","7","7","2","5","3","6","3","6","766337469301133313","祁","272","Female","[""坏我"",""好她"",""好我"",""坏她""]","[""弱我"",""强她"",""强我"",""弱她""]","","","","","","","","","","","","","","","","","","","","","","","","","","","","","","feedback_test","","","","","","","","",""
"788","","f","psychophysics","34","261772","0.0-8.0-0.0-1.0-0.0-0.12","5","5","4","4","3","4","2","3","4","4","4","0","-1","-1","-2","0","1","1","1","5","4","4","3","4","4","3","3","4","3","6","7","5","7","4","6","6","7","6","5","4","3","4","5","2","3","6","5","4","1","4","3","6","4","2","4","3","5","4","3","3","3","3","6","3","6","5","4","5","6","6","6","7","7","2","5","3","6","3","6","766337469301133313","祁","272","Female","[""坏我"",""好她"",""好我"",""坏她""]","[""弱我"",""强她"",""强我"",""弱她""]","","","","","","","","match","","","","","","","","","","key","f","16.666292452830263","640","356","f","true","match","img/diamond.png","坏我","坏我","prac_ALT2_moral","practice_moral","","","","","","","","",""
"null","<span style='color:GreenYellow; font-size: 70px;'>正确! </span>","null","html-keyboard-response","35","262287","0.0-8.0-0.0-1.0-0.0-1.12","5","5","4","4","3","4","2","3","4","4","4","0","-1","-1","-2","0","1","1","1","5","4","4","3","4","4","3","3","4","3","6","7","5","7","4","6","6","7","6","5","4","3","4","5","2","3","6","5","4","1","4","3","6","4","2","4","3","5","4","3","3","3","3","6","3","6","5","4","5","6","6","6","7","7","2","5","3","6","3","6","766337469301133313","祁","272","Female","[""坏我"",""好她"",""好我"",""坏她""]","[""弱我"",""强她"",""强我"",""弱她""]","","","","","","","","","","","","","","","","","","","","","","","","","","","","","","feedback_test","","","","","","","","",""
"671","","j","psychophysics","36","263960","0.0-8.0-0.0-1.0-0.0-0.13","5","5","4","4","3","4","2","3","4","4","4","0","-1","-1","-2","0","1","1","1","5","4","4","3","4","4","3","3","4","3","6","7","5","7","4","6","6","7","6","5","4","3","4","5","2","3","6","5","4","1","4","3","6","4","2","4","3","5","4","3","3","3","3","6","3","6","5","4","5","6","6","6","7","7","2","5","3","6","3","6","766337469301133313","祁","272","Female","[""坏我"",""好她"",""好我"",""坏她""]","[""弱我"",""强她"",""强我"",""弱她""]","","","","","","","","nonmatch","","","","","","","","","","key","j","16.669666666666874","640","356","j","true","nonmatch","img/diamond.png","好我","坏我","prac_ALT2_moral","practice_moral","","","","","","","","",""
"null","<span style='color:GreenYellow; font-size: 70px;'>正确! </span>","null","html-keyboard-response","37","264461","0.0-8.0-0.0-1.0-0.0-1.13","5","5","4","4","3","4","2","3","4","4","4","0","-1","-1","-2","0","1","1","1","5","4","4","3","4","4","3","3","4","3","6","7","5","7","4","6","6","7","6","5","4","3","4","5","2","3","6","5","4","1","4","3","6","4","2","4","3","5","4","3","3","3","3","6","3","6","5","4","5","6","6","6","7","7","2","5","3","6","3","6","766337469301133313","祁","272","Female","[""坏我"",""好她"",""好我"",""坏她""]","[""弱我"",""强她"",""强我"",""弱她""]","","","","","","","","","","","","","","","","","","","","","","","","","","","","","","feedback_test","","","","","","","","",""
"778","","j","psychophysics","38","266240","0.0-8.0-0.0-1.0-0.0-0.14","5","5","4","4","3","4","2","3","4","4","4","0","-1","-1","-2","0","1","1","1","5","4","4","3","4","4","3","3","4","3","6","7","5","7","4","6","6","7","6","5","4","3","4","5","2","3","6","5","4","1","4","3","6","4","2","4","3","5","4","3","3","3","3","6","3","6","5","4","5","6","6","6","7","7","2","5","3","6","3","6","766337469301133313","祁","272","Female","[""坏我"",""好她"",""好我"",""坏她""]","[""弱我"",""强她"",""强我"",""弱她""]","","","","","","","","nonmatch","","","","","","","","","","key","j","16.660371428571775","640","356","j","true","nonmatch","img/diamond.png","好她","坏我","prac_ALT2_moral","practice_moral","","","","","","","","",""
"null","<span style='color:GreenYellow; font-size: 70px;'>正确! </span>","null","html-keyboard-response","39","266741","0.0-8.0-0.0-1.0-0.0-1.14","5","5","4","4","3","4","2","3","4","4","4","0","-1","-1","-2","0","1","1","1","5","4","4","3","4","4","3","3","4","3","6","7","5","7","4","6","6","7","6","5","4","3","4","5","2","3","6","5","4","1","4","3","6","4","2","4","3","5","4","3","3","3","3","6","3","6","5","4","5","6","6","6","7","7","2","5","3","6","3","6","766337469301133313","祁","272","Female","[""坏我"",""好她"",""好我"",""坏她""]","[""弱我"",""强她"",""强我"",""弱她""]","","","","","","","","","","","","","","","","","","","","","","","","","","","","","","feedback_test","","","","","","","","",""
"665","","f","psychophysics","40","268408","0.0-8.0-0.0-1.0-0.0-0.15","5","5","4","4","3","4","2","3","4","4","4","0","-1","-1","-2","0","1","1","1","5","4","4","3","4","4","3","3","4","3","6","7","5","7","4","6","6","7","6","5","4","3","4","5","2","3","6","5","4","1","4","3","6","4","2","4","3","5","4","3","3","3","3","6","3","6","5","4","5","6","6","6","7","7","2","5","3","6","3","6","766337469301133313","祁","272","Female","[""坏我"",""好她"",""好我"",""坏她""]","[""弱我"",""强她"",""强我"",""弱她""]","","","","","","","","match","","","","","","","","","","key","f","16.669222222221897","640","356","j","false","nonmatch","img/square.png","好我","坏她","prac_ALT2_moral","practice_moral","","","","","","","","",""
"null","<span style='color:red; font-size: 70px;'>错误! </span>","null","html-keyboard-response","41","268909","0.0-8.0-0.0-1.0-0.0-1.15","5","5","4","4","3","4","2","3","4","4","4","0","-1","-1","-2","0","1","1","1","5","4","4","3","4","4","3","3","4","3","6","7","5","7","4","6","6","7","6","5","4","3","4","5","2","3","6","5","4","1","4","3","6","4","2","4","3","5","4","3","3","3","3","6","3","6","5","4","5","6","6","6","7","7","2","5","3","6","3","6","766337469301133313","祁","272","Female","[""坏我"",""好她"",""好我"",""坏她""]","[""弱我"",""强她"",""强我"",""弱她""]","","","","","","","","","","","","","","","","","","","","","","","","","","","","","","feedback_test","","","","","","","","",""
"639","","f","psychophysics","42","270549","0.0-8.0-0.0-1.0-0.0-0.16","5","5","4","4","3","4","2","3","4","4","4","0","-1","-1","-2","0","1","1","1","5","4","4","3","4","4","3","3","4","3","6","7","5","7","4","6","6","7","6","5","4","3","4","5","2","3","6","5","4","1","4","3","6","4","2","4","3","5","4","3","3","3","3","6","3","6","5","4","5","6","6","6","7","7","2","5","3","6","3","6","766337469301133313","祁","272","Female","[""坏我"",""好她"",""好我"",""坏她""]","[""弱我"",""强她"",""强我"",""弱她""]","","","","","","","","match","","","","","","","","","","key","f","16.66784693877574","640","356","f","true","match","img/ellipse.png","好她","好她","prac_ALT2_moral","practice_moral","","","","","","","","",""
"null","<span style='color:GreenYellow; font-size: 70px;'>正确! </span>","null","html-keyboard-response","43","271052","0.0-8.0-0.0-1.0-0.0-1.16","5","5","4","4","3","4","2","3","4","4","4","0","-1","-1","-2","0","1","1","1","5","4","4","3","4","4","3","3","4","3","6","7","5","7","4","6","6","7","6","5","4","3","4","5","2","3","6","5","4","1","4","3","6","4","2","4","3","5","4","3","3","3","3","6","3","6","5","4","5","6","6","6","7","7","2","5","3","6","3","6","766337469301133313","祁","272","Female","[""坏我"",""好她"",""好我"",""坏她""]","[""弱我"",""强她"",""强我"",""弱她""]","","","","","","","","","","","","","","","","","","","","","","","","","","","","","","feedback_test","","","","","","","","",""
"554","","f","psychophysics","44","272608","0.0-8.0-0.0-1.0-0.0-0.17","5","5","4","4","3","4","2","3","4","4","4","0","-1","-1","-2","0","1","1","1","5","4","4","3","4","4","3","3","4","3","6","7","5","7","4","6","6","7","6","5","4","3","4","5","2","3","6","5","4","1","4","3","6","4","2","4","3","5","4","3","3","3","3","6","3","6","5","4","5","6","6","6","7","7","2","5","3","6","3","6","766337469301133313","祁","272","Female","[""坏我"",""好她"",""好我"",""坏她""]","[""弱我"",""强她"",""强我"",""弱她""]","","","","","","","","match","","","","","","","","","","key","f","16.66686956521754","640","356","f","true","match","img/ellipse.png","好她","好她","prac_ALT2_moral","practice_moral","","","","","","","","",""
"null","<span style='color:GreenYellow; font-size: 70px;'>正确! </span>","null","html-keyboard-response","45","273121","0.0-8.0-0.0-1.0-0.0-1.17","5","5","4","4","3","4","2","3","4","4","4","0","-1","-1","-2","0","1","1","1","5","4","4","3","4","4","3","3","4","3","6","7","5","7","4","6","6","7","6","5","4","3","4","5","2","3","6","5","4","1","4","3","6","4","2","4","3","5","4","3","3","3","3","6","3","6","5","4","5","6","6","6","7","7","2","5","3","6","3","6","766337469301133313","祁","272","Female","[""坏我"",""好她"",""好我"",""坏她""]","[""弱我"",""强她"",""强我"",""弱她""]","","","","","","","","","","","","","","","","","","","","","","","","","","","","","","feedback_test","","","","","","","","",""
"652","","j","psychophysics","46","274775","0.0-8.0-0.0-1.0-0.0-0.18","5","5","4","4","3","4","2","3","4","4","4","0","-1","-1","-2","0","1","1","1","5","4","4","3","4","4","3","3","4","3","6","7","5","7","4","6","6","7","6","5","4","3","4","5","2","3","6","5","4","1","4","3","6","4","2","4","3","5","4","3","3","3","3","6","3","6","5","4","5","6","6","6","7","7","2","5","3","6","3","6","766337469301133313","祁","272","Female","[""坏我"",""好她"",""好我"",""坏她""]","[""弱我"",""强她"",""强我"",""弱她""]","","","","","","","","nonmatch","","","","","","","","","","key","j","16.666323232322796","640","356","j","true","nonmatch","img/pentagon.png","好她","好我","prac_ALT2_moral","practice_moral","","","","","","","","",""
"null","<span style='color:GreenYellow; font-size: 70px;'>正确! </span>","null","html-keyboard-response","47","275277","0.0-8.0-0.0-1.0-0.0-1.18","5","5","4","4","3","4","2","3","4","4","4","0","-1","-1","-2","0","1","1","1","5","4","4","3","4","4","3","3","4","3","6","7","5","7","4","6","6","7","6","5","4","3","4","5","2","3","6","5","4","1","4","3","6","4","2","4","3","5","4","3","3","3","3","6","3","6","5","4","5","6","6","6","7","7","2","5","3","6","3","6","766337469301133313","祁","272","Female","[""坏我"",""好她"",""好我"",""坏她""]","[""弱我"",""强她"",""强我"",""弱她""]","","","","","","","","","","","","","","","","","","","","","","","","","","","","","","feedback_test","","","","","","","","",""
"630","","f","psychophysics","48","276910","0.0-8.0-0.0-1.0-0.0-0.19","5","5","4","4","3","4","2","3","4","4","4","0","-1","-1","-2","0","1","1","1","5","4","4","3","4","4","3","3","4","3","6","7","5","7","4","6","6","7","6","5","4","3","4","5","2","3","6","5","4","1","4","3","6","4","2","4","3","5","4","3","3","3","3","6","3","6","5","4","5","6","6","6","7","7","2","5","3","6","3","6","766337469301133313","祁","272","Female","[""坏我"",""好她"",""好我"",""坏她""]","[""弱我"",""强她"",""强我"",""弱她""]","","","","","","","","match","","","","","","","","","","key","f","16.666885416666748","640","356","f","true","match","img/pentagon.png","好我","好我","prac_ALT2_moral","practice_moral","","","","","","","","",""
"null","<span style='color:GreenYellow; font-size: 70px;'>正确! </span>","null","html-keyboard-response","49","277411","0.0-8.0-0.0-1.0-0.0-1.19","5","5","4","4","3","4","2","3","4","4","4","0","-1","-1","-2","0","1","1","1","5","4","4","3","4","4","3","3","4","3","6","7","5","7","4","6","6","7","6","5","4","3","4","5","2","3","6","5","4","1","4","3","6","4","2","4","3","5","4","3","3","3","3","6","3","6","5","4","5","6","6","6","7","7","2","5","3","6","3","6","766337469301133313","祁","272","Female","[""坏我"",""好她"",""好我"",""坏她""]","[""弱我"",""强她"",""强我"",""弱她""]","","","","","","","","","","","","","","","","","","","","","","","","","","","","","","feedback_test","","","","","","","","",""
"839","","j","psychophysics","50","279252","0.0-8.0-0.0-1.0-0.0-0.20","5","5","4","4","3","4","2","3","4","4","4","0","-1","-1","-2","0","1","1","1","5","4","4","3","4","4","3","3","4","3","6","7","5","7","4","6","6","7","6","5","4","3","4","5","2","3","6","5","4","1","4","3","6","4","2","4","3","5","4","3","3","3","3","6","3","6","5","4","5","6","6","6","7","7","2","5","3","6","3","6","766337469301133313","祁","272","Female","[""坏我"",""好她"",""好我"",""坏她""]","[""弱我"",""强她"",""强我"",""弱她""]","","","","","","","","nonmatch","","","","","","","","","","key","j","16.667798165137423","640","356","f","false","match","img/square.png","坏她","坏她","prac_ALT2_moral","practice_moral","","","","","","","","",""
"null","<span style='color:red; font-size: 70px;'>错误! </span>","null","html-keyboard-response","51","279753","0.0-8.0-0.0-1.0-0.0-1.20","5","5","4","4","3","4","2","3","4","4","4","0","-1","-1","-2","0","1","1","1","5","4","4","3","4","4","3","3","4","3","6","7","5","7","4","6","6","7","6","5","4","3","4","5","2","3","6","5","4","1","4","3","6","4","2","4","3","5","4","3","3","3","3","6","3","6","5","4","5","6","6","6","7","7","2","5","3","6","3","6","766337469301133313","祁","272","Female","[""坏我"",""好她"",""好我"",""坏她""]","[""弱我"",""强她"",""强我"",""弱她""]","","","","","","","","","","","","","","","","","","","","","","","","","","","","","","feedback_test","","","","","","","","",""
"570","","j","psychophysics","52","281325","0.0-8.0-0.0-1.0-0.0-0.21","5","5","4","4","3","4","2","3","4","4","4","0","-1","-1","-2","0","1","1","1","5","4","4","3","4","4","3","3","4","3","6","7","5","7","4","6","6","7","6","5","4","3","4","5","2","3","6","5","4","1","4","3","6","4","2","4","3","5","4","3","3","3","3","6","3","6","5","4","5","6","6","6","7","7","2","5","3","6","3","6","766337469301133313","祁","272","Female","[""坏我"",""好她"",""好我"",""坏她""]","[""弱我"",""强她"",""强我"",""弱她""]","","","","","","","","nonmatch","","","","","","","","","","key","j","16.667720430107508","640","356","f","false","match","img/square.png","坏她","坏她","prac_ALT2_moral","practice_moral","","","","","","","","",""
"null","<span style='color:red; font-size: 70px;'>错误! </span>","null","html-keyboard-response","53","281827","0.0-8.0-0.0-1.0-0.0-1.21","5","5","4","4","3","4","2","3","4","4","4","0","-1","-1","-2","0","1","1","1","5","4","4","3","4","4","3","3","4","3","6","7","5","7","4","6","6","7","6","5","4","3","4","5","2","3","6","5","4","1","4","3","6","4","2","4","3","5","4","3","3","3","3","6","3","6","5","4","5","6","6","6","7","7","2","5","3","6","3","6","766337469301133313","祁","272","Female","[""坏我"",""好她"",""好我"",""坏她""]","[""弱我"",""强她"",""强我"",""弱她""]","","","","","","","","","","","","","","","","","","","","","","","","","","","","","","feedback_test","","","","","","","","",""
"378","","f","psychophysics","54","283207","0.0-8.0-0.0-1.0-0.0-0.22","5","5","4","4","3","4","2","3","4","4","4","0","-1","-1","-2","0","1","1","1","5","4","4","3","4","4","3","3","4","3","6","7","5","7","4","6","6","7","6","5","4","3","4","5","2","3","6","5","4","1","4","3","6","4","2","4","3","5","4","3","3","3","3","6","3","6","5","4","5","6","6","6","7","7","2","5","3","6","3","6","766337469301133313","祁","272","Female","[""坏我"",""好她"",""好我"",""坏她""]","[""弱我"",""强她"",""强我"",""弱她""]","","","","","","","","match","","","","","","","","","","key","f","16.667283950617858","640","356","j","false","nonmatch","img/diamond.png","坏她","坏我","prac_ALT2_moral","practice_moral","","","","","","","","",""
"null","<span style='color:red; font-size: 70px;'>错误! </span>","null","html-keyboard-response","55","283708","0.0-8.0-0.0-1.0-0.0-1.22","5","5","4","4","3","4","2","3","4","4","4","0","-1","-1","-2","0","1","1","1","5","4","4","3","4","4","3","3","4","3","6","7","5","7","4","6","6","7","6","5","4","3","4","5","2","3","6","5","4","1","4","3","6","4","2","4","3","5","4","3","3","3","3","6","3","6","5","4","5","6","6","6","7","7","2","5","3","6","3","6","766337469301133313","祁","272","Female","[""坏我"",""好她"",""好我"",""坏她""]","[""弱我"",""强她"",""强我"",""弱她""]","","","","","","","","","","","","","","","","","","","","","","","","","","","","","","feedback_test","","","","","","","","",""
"757","","f","psychophysics","56","285466","0.0-8.0-0.0-1.0-0.0-0.23","5","5","4","4","3","4","2","3","4","4","4","0","-1","-1","-2","0","1","1","1","5","4","4","3","4","4","3","3","4","3","6","7","5","7","4","6","6","7","6","5","4","3","4","5","2","3","6","5","4","1","4","3","6","4","2","4","3","5","4","3","3","3","3","6","3","6","5","4","5","6","6","6","7","7","2","5","3","6","3","6","766337469301133313","祁","272","Female","[""坏我"",""好她"",""好我"",""坏她""]","[""弱我"",""强她"",""强我"",""弱她""]","","","","","","","","match","","","","","","","","","","key","f","16.66739999999991","640","356","j","false","nonmatch","img/square.png","好她","坏她","prac_ALT2_moral","practice_moral","","","","","","","","",""
"null","<span style='color:red; font-size: 70px;'>错误! </span>","null","html-keyboard-response","57","285968","0.0-8.0-0.0-1.0-0.0-1.23","5","5","4","4","3","4","2","3","4","4","4","0","-1","-1","-2","0","1","1","1","5","4","4","3","4","4","3","3","4","3","6","7","5","7","4","6","6","7","6","5","4","3","4","5","2","3","6","5","4","1","4","3","6","4","2","4","3","5","4","3","3","3","3","6","3","6","5","4","5","6","6","6","7","7","2","5","3","6","3","6","766337469301133313","祁","272","Female","[""坏我"",""好她"",""好我"",""坏她""]","[""弱我"",""强她"",""强我"",""弱她""]","","","","","","","","","","","","","","","","","","","","","","","","","","","","","","feedback_test","","","","","","","","",""
"582","","f","psychophysics","58","287553","0.0-8.0-0.0-1.0-0.0-0.24","5","5","4","4","3","4","2","3","4","4","4","0","-1","-1","-2","0","1","1","1","5","4","4","3","4","4","3","3","4","3","6","7","5","7","4","6","6","7","6","5","4","3","4","5","2","3","6","5","4","1","4","3","6","4","2","4","3","5","4","3","3","3","3","6","3","6","5","4","5","6","6","6","7","7","2","5","3","6","3","6","766337469301133313","祁","272","Female","[""坏我"",""好她"",""好我"",""坏她""]","[""弱我"",""强她"",""强我"",""弱她""]","","","","","","","","match","","","","","","","","","","key","f","16.666797872340464","640","356","f","true","match","img/pentagon.png","好我","好我","prac_ALT2_moral","practice_moral","","","","","","","","",""
"null","<span style='color:GreenYellow; font-size: 70px;'>正确! </span>","null","html-keyboard-response","59","288054","0.0-8.0-0.0-1.0-0.0-1.24","5","5","4","4","3","4","2","3","4","4","4","0","-1","-1","-2","0","1","1","1","5","4","4","3","4","4","3","3","4","3","6","7","5","7","4","6","6","7","6","5","4","3","4","5","2","3","6","5","4","1","4","3","6","4","2","4","3","5","4","3","3","3","3","6","3","6","5","4","5","6","6","6","7","7","2","5","3","6","3","6","766337469301133313","祁","272","Female","[""坏我"",""好她"",""好我"",""坏她""]","[""弱我"",""强她"",""强我"",""弱她""]","","","","","","","","","","","","","","","","","","","","","","","","","","","","","","feedback_test","","","","","","","","",""
"789","","f","psychophysics","60","289844","0.0-8.0-0.0-1.0-0.0-0.25","5","5","4","4","3","4","2","3","4","4","4","0","-1","-1","-2","0","1","1","1","5","4","4","3","4","4","3","3","4","3","6","7","5","7","4","6","6","7","6","5","4","3","4","5","2","3","6","5","4","1","4","3","6","4","2","4","3","5","4","3","3","3","3","6","3","6","5","4","5","6","6","6","7","7","2","5","3","6","3","6","766337469301133313","祁","272","Female","[""坏我"",""好她"",""好我"",""坏她""]","[""弱我"",""强她"",""强我"",""弱她""]","","","","","","","","match","","","","","","","","","","key","f","16.663392523364557","640","356","f","true","match","img/ellipse.png","好她","好她","prac_ALT2_moral","practice_moral","","","","","","","","",""
"null","<span style='color:GreenYellow; font-size: 70px;'>正确! </span>","null","html-keyboard-response","61","290345","0.0-8.0-0.0-1.0-0.0-1.25","5","5","4","4","3","4","2","3","4","4","4","0","-1","-1","-2","0","1","1","1","5","4","4","3","4","4","3","3","4","3","6","7","5","7","4","6","6","7","6","5","4","3","4","5","2","3","6","5","4","1","4","3","6","4","2","4","3","5","4","3","3","3","3","6","3","6","5","4","5","6","6","6","7","7","2","5","3","6","3","6","766337469301133313","祁","272","Female","[""坏我"",""好她"",""好我"",""坏她""]","[""弱我"",""强她"",""强我"",""弱她""]","","","","","","","","","","","","","","","","","","","","","","","","","","","","","","feedback_test","","","","","","","","",""
"560","","j","psychophysics","62","291906","0.0-8.0-0.0-1.0-0.0-0.26","5","5","4","4","3","4","2","3","4","4","4","0","-1","-1","-2","0","1","1","1","5","4","4","3","4","4","3","3","4","3","6","7","5","7","4","6","6","7","6","5","4","3","4","5","2","3","6","5","4","1","4","3","6","4","2","4","3","5","4","3","3","3","3","6","3","6","5","4","5","6","6","6","7","7","2","5","3","6","3","6","766337469301133313","祁","272","Female","[""坏我"",""好她"",""好我"",""坏她""]","[""弱我"",""强她"",""强我"",""弱她""]","","","","","","","","nonmatch","","","","","","","","","","key","j","16.6668043478263","640","356","j","true","nonmatch","img/pentagon.png","好她","好我","prac_ALT2_moral","practice_moral","","","","","","","","",""
"null","<span style='color:GreenYellow; font-size: 70px;'>正确! </span>","null","html-keyboard-response","63","292407","0.0-8.0-0.0-1.0-0.0-1.26","5","5","4","4","3","4","2","3","4","4","4","0","-1","-1","-2","0","1","1","1","5","4","4","3","4","4","3","3","4","3","6","7","5","7","4","6","6","7","6","5","4","3","4","5","2","3","6","5","4","1","4","3","6","4","2","4","3","5","4","3","3","3","3","6","3","6","5","4","5","6","6","6","7","7","2","5","3","6","3","6","766337469301133313","祁","272","Female","[""坏我"",""好她"",""好我"",""坏她""]","[""弱我"",""强她"",""强我"",""弱她""]","","","","","","","","","","","","","","","","","","","","","","","","","","","","","","feedback_test","","","","","","","","",""
"580","","j","psychophysics","64","293989","0.0-8.0-0.0-1.0-0.0-0.27","5","5","4","4","3","4","2","3","4","4","4","0","-1","-1","-2","0","1","1","1","5","4","4","3","4","4","3","3","4","3","6","7","5","7","4","6","6","7","6","5","4","3","4","5","2","3","6","5","4","1","4","3","6","4","2","4","3","5","4","3","3","3","3","6","3","6","5","4","5","6","6","6","7","7","2","5","3","6","3","6","766337469301133313","祁","272","Female","[""坏我"",""好她"",""好我"",""坏她""]","[""弱我"",""强她"",""强我"",""弱她""]","","","","","","","","nonmatch","","","","","","","","","","key","j","16.667106382979174","640","356","j","true","nonmatch","img/pentagon.png","坏她","好我","prac_ALT2_moral","practice_moral","","","","","","","","",""
"null","<span style='color:GreenYellow; font-size: 70px;'>正确! </span>","null","html-keyboard-response","65","294491","0.0-8.0-0.0-1.0-0.0-1.27","5","5","4","4","3","4","2","3","4","4","4","0","-1","-1","-2","0","1","1","1","5","4","4","3","4","4","3","3","4","3","6","7","5","7","4","6","6","7","6","5","4","3","4","5","2","3","6","5","4","1","4","3","6","4","2","4","3","5","4","3","3","3","3","6","3","6","5","4","5","6","6","6","7","7","2","5","3","6","3","6","766337469301133313","祁","272","Female","[""坏我"",""好她"",""好我"",""坏她""]","[""弱我"",""强她"",""强我"",""弱她""]","","","","","","","","","","","","","","","","","","","","","","","","","","","","","","feedback_test","","","","","","","","",""
"764","","j","psychophysics","66","296256","0.0-8.0-0.0-1.0-0.0-0.28","5","5","4","4","3","4","2","3","4","4","4","0","-1","-1","-2","0","1","1","1","5","4","4","3","4","4","3","3","4","3","6","7","5","7","4","6","6","7","6","5","4","3","4","5","2","3","6","5","4","1","4","3","6","4","2","4","3","5","4","3","3","3","3","6","3","6","5","4","5","6","6","6","7","7","2","5","3","6","3","6","766337469301133313","祁","272","Female","[""坏我"",""好她"",""好我"",""坏她""]","[""弱我"",""强她"",""强我"",""弱她""]","","","","","","","","nonmatch","","","","","","","","","","key","j","16.66707619047624","640","356","j","true","nonmatch","img/ellipse.png","坏我","好她","prac_ALT2_moral","practice_moral","","","","","","","","",""
"null","<span style='color:GreenYellow; font-size: 70px;'>正确! </span>","null","html-keyboard-response","67","296757","0.0-8.0-0.0-1.0-0.0-1.28","5","5","4","4","3","4","2","3","4","4","4","0","-1","-1","-2","0","1","1","1","5","4","4","3","4","4","3","3","4","3","6","7","5","7","4","6","6","7","6","5","4","3","4","5","2","3","6","5","4","1","4","3","6","4","2","4","3","5","4","3","3","3","3","6","3","6","5","4","5","6","6","6","7","7","2","5","3","6","3","6","766337469301133313","祁","272","Female","[""坏我"",""好她"",""好我"",""坏她""]","[""弱我"",""强她"",""强我"",""弱她""]","","","","","","","","","","","","","","","","","","","","","","","","","","","","","","feedback_test","","","","","","","","",""
"609","","j","psychophysics","68","298368","0.0-8.0-0.0-1.0-0.0-0.29","5","5","4","4","3","4","2","3","4","4","4","0","-1","-1","-2","0","1","1","1","5","4","4","3","4","4","3","3","4","3","6","7","5","7","4","6","6","7","6","5","4","3","4","5","2","3","6","5","4","1","4","3","6","4","2","4","3","5","4","3","3","3","3","6","3","6","5","4","5","6","6","6","7","7","2","5","3","6","3","6","766337469301133313","祁","272","Female","[""坏我"",""好她"",""好我"",""坏她""]","[""弱我"",""强她"",""强我"",""弱她""]","","","","","","","","nonmatch","","","","","","","","","","key","j","16.669697916666944","640","356","f","false","match","img/diamond.png","坏我","坏我","prac_ALT2_moral","practice_moral","","","","","","","","",""
"null","<span style='color:red; font-size: 70px;'>错误! </span>","null","html-keyboard-response","69","298869","0.0-8.0-0.0-1.0-0.0-1.29","5","5","4","4","3","4","2","3","4","4","4","0","-1","-1","-2","0","1","1","1","5","4","4","3","4","4","3","3","4","3","6","7","5","7","4","6","6","7","6","5","4","3","4","5","2","3","6","5","4","1","4","3","6","4","2","4","3","5","4","3","3","3","3","6","3","6","5","4","5","6","6","6","7","7","2","5","3","6","3","6","766337469301133313","祁","272","Female","[""坏我"",""好她"",""好我"",""坏她""]","[""弱我"",""强她"",""强我"",""弱她""]","","","","","","","","","","","","","","","","","","","","","","","","","","","","","","feedback_test","","","","","","","","",""
"562","","f","psychophysics","70","300434","0.0-8.0-0.0-1.0-0.0-0.30","5","5","4","4","3","4","2","3","4","4","4","0","-1","-1","-2","0","1","1","1","5","4","4","3","4","4","3","3","4","3","6","7","5","7","4","6","6","7","6","5","4","3","4","5","2","3","6","5","4","1","4","3","6","4","2","4","3","5","4","3","3","3","3","6","3","6","5","4","5","6","6","6","7","7","2","5","3","6","3","6","766337469301133313","祁","272","Female","[""坏我"",""好她"",""好我"",""坏她""]","[""弱我"",""强她"",""强我"",""弱她""]","","","","","","","","match","","","","","","","","","","key","f","16.66962365591423","640","356","f","true","match","img/diamond.png","坏我","坏我","prac_ALT2_moral","practice_moral","","","","","","","","",""
"null","<span style='color:GreenYellow; font-size: 70px;'>正确! </span>","null","html-keyboard-response","71","300934","0.0-8.0-0.0-1.0-0.0-1.30","5","5","4","4","3","4","2","3","4","4","4","0","-1","-1","-2","0","1","1","1","5","4","4","3","4","4","3","3","4","3","6","7","5","7","4","6","6","7","6","5","4","3","4","5","2","3","6","5","4","1","4","3","6","4","2","4","3","5","4","3","3","3","3","6","3","6","5","4","5","6","6","6","7","7","2","5","3","6","3","6","766337469301133313","祁","272","Female","[""坏我"",""好她"",""好我"",""坏她""]","[""弱我"",""强她"",""强我"",""弱她""]","","","","","","","","","","","","","","","","","","","","","","","","","","","","","","feedback_test","","","","","","","","",""
"522","","j","psychophysics","72","302458","0.0-8.0-0.0-1.0-0.0-0.31","5","5","4","4","3","4","2","3","4","4","4","0","-1","-1","-2","0","1","1","1","5","4","4","3","4","4","3","3","4","3","6","7","5","7","4","6","6","7","6","5","4","3","4","5","2","3","6","5","4","1","4","3","6","4","2","4","3","5","4","3","3","3","3","6","3","6","5","4","5","6","6","6","7","7","2","5","3","6","3","6","766337469301133313","祁","272","Female","[""坏我"",""好她"",""好我"",""坏她""]","[""弱我"",""强她"",""强我"",""弱她""]","","","","","","","","nonmatch","","","","","","","","","","key","j","16.667588888888712","640","356","f","false","match","img/square.png","坏她","坏她","prac_ALT2_moral","practice_moral","","","","","","","","",""
"null","<span style='color:red; font-size: 70px;'>错误! </span>","null","html-keyboard-response","73","302959","0.0-8.0-0.0-1.0-0.0-1.31","5","5","4","4","3","4","2","3","4","4","4","0","-1","-1","-2","0","1","1","1","5","4","4","3","4","4","3","3","4","3","6","7","5","7","4","6","6","7","6","5","4","3","4","5","2","3","6","5","4","1","4","3","6","4","2","4","3","5","4","3","3","3","3","6","3","6","5","4","5","6","6","6","7","7","2","5","3","6","3","6","766337469301133313","祁","272","Female","[""坏我"",""好她"",""好我"",""坏她""]","[""弱我"",""强她"",""强我"",""弱她""]","","","","","","","","","","","","","","","","","","","","","","","","","","","","","","feedback_test","","","","","","","","",""
"564","","f","psychophysics","74","304524","0.0-8.0-0.0-1.0-0.0-0.32","5","5","4","4","3","4","2","3","4","4","4","0","-1","-1","-2","0","1","1","1","5","4","4","3","4","4","3","3","4","3","6","7","5","7","4","6","6","7","6","5","4","3","4","5","2","3","6","5","4","1","4","3","6","4","2","4","3","5","4","3","3","3","3","6","3","6","5","4","5","6","6","6","7","7","2","5","3","6","3","6","766337469301133313","祁","272","Female","[""坏我"",""好她"",""好我"",""坏她""]","[""弱我"",""强她"",""强我"",""弱她""]","","","","","","","","match","","","","","","","","","","key","f","16.666591397849643","640","356","j","false","nonmatch","img/pentagon.png","坏我","好我","prac_ALT2_moral","practice_moral","","","","","","","","",""
"null","<span style='color:red; font-size: 70px;'>错误! </span>","null","html-keyboard-response","75","305040","0.0-8.0-0.0-1.0-0.0-1.32","5","5","4","4","3","4","2","3","4","4","4","0","-1","-1","-2","0","1","1","1","5","4","4","3","4","4","3","3","4","3","6","7","5","7","4","6","6","7","6","5","4","3","4","5","2","3","6","5","4","1","4","3","6","4","2","4","3","5","4","3","3","3","3","6","3","6","5","4","5","6","6","6","7","7","2","5","3","6","3","6","766337469301133313","祁","272","Female","[""坏我"",""好她"",""好我"",""坏她""]","[""弱我"",""强她"",""强我"",""弱她""]","","","","","","","","","","","","","","","","","","","","","","","","","","","","","","feedback_test","","","","","","","","",""
"759","","j","psychophysics","76","306801","0.0-8.0-0.0-1.0-0.0-0.33","5","5","4","4","3","4","2","3","4","4","4","0","-1","-1","-2","0","1","1","1","5","4","4","3","4","4","3","3","4","3","6","7","5","7","4","6","6","7","6","5","4","3","4","5","2","3","6","5","4","1","4","3","6","4","2","4","3","5","4","3","3","3","3","6","3","6","5","4","5","6","6","6","7","7","2","5","3","6","3","6","766337469301133313","祁","272","Female","[""坏我"",""好她"",""好我"",""坏她""]","[""弱我"",""强她"",""强我"",""弱她""]","","","","","","","","nonmatch","","","","","","","","","","key","j","16.669247619047695","640","356","j","true","nonmatch","img/ellipse.png","好我","好她","prac_ALT2_moral","practice_moral","","","","","","","","",""
"null","<span style='color:GreenYellow; font-size: 70px;'>正确! </span>","null","html-keyboard-response","77","307309","0.0-8.0-0.0-1.0-0.0-1.33","5","5","4","4","3","4","2","3","4","4","4","0","-1","-1","-2","0","1","1","1","5","4","4","3","4","4","3","3","4","3","6","7","5","7","4","6","6","7","6","5","4","3","4","5","2","3","6","5","4","1","4","3","6","4","2","4","3","5","4","3","3","3","3","6","3","6","5","4","5","6","6","6","7","7","2","5","3","6","3","6","766337469301133313","祁","272","Female","[""坏我"",""好她"",""好我"",""坏她""]","[""弱我"",""强她"",""强我"",""弱她""]","","","","","","","","","","","","","","","","","","","","","","","","","","","","","","feedback_test","","","","","","","","",""
"646","","f","psychophysics","78","308956","0.0-8.0-0.0-1.0-0.0-0.34","5","5","4","4","3","4","2","3","4","4","4","0","-1","-1","-2","0","1","1","1","5","4","4","3","4","4","3","3","4","3","6","7","5","7","4","6","6","7","6","5","4","3","4","5","2","3","6","5","4","1","4","3","6","4","2","4","3","5","4","3","3","3","3","6","3","6","5","4","5","6","6","6","7","7","2","5","3","6","3","6","766337469301133313","祁","272","Female","[""坏我"",""好她"",""好我"",""坏她""]","[""弱我"",""强她"",""强我"",""弱她""]","","","","","","","","match","","","","","","","","","","key","f","16.65619587628819","640","356","f","true","match","img/pentagon.png","好我","好我","prac_ALT2_moral","practice_moral","","","","","","","","",""
"null","<span style='color:GreenYellow; font-size: 70px;'>正确! </span>","null","html-keyboard-response","79","309457","0.0-8.0-0.0-1.0-0.0-1.34","5","5","4","4","3","4","2","3","4","4","4","0","-1","-1","-2","0","1","1","1","5","4","4","3","4","4","3","3","4","3","6","7","5","7","4","6","6","7","6","5","4","3","4","5","2","3","6","5","4","1","4","3","6","4","2","4","3","5","4","3","3","3","3","6","3","6","5","4","5","6","6","6","7","7","2","5","3","6","3","6","766337469301133313","祁","272","Female","[""坏我"",""好她"",""好我"",""坏她""]","[""弱我"",""强她"",""强我"",""弱她""]","","","","","","","","","","","","","","","","","","","","","","","","","","","","","","feedback_test","","","","","","","","",""
"593","","j","psychophysics","80","311051","0.0-8.0-0.0-1.0-0.0-0.35","5","5","4","4","3","4","2","3","4","4","4","0","-1","-1","-2","0","1","1","1","5","4","4","3","4","4","3","3","4","3","6","7","5","7","4","6","6","7","6","5","4","3","4","5","2","3","6","5","4","1","4","3","6","4","2","4","3","5","4","3","3","3","3","6","3","6","5","4","5","6","6","6","7","7","2","5","3","6","3","6","766337469301133313","祁","272","Female","[""坏我"",""好她"",""好我"",""坏她""]","[""弱我"",""强她"",""强我"",""弱她""]","","","","","","","","nonmatch","","","","","","","","","","key","j","16.667747368420915","640","356","j","true","nonmatch","img/square.png","好我","坏她","prac_ALT2_moral","practice_moral","","","","","","","","",""
"null","<span style='color:GreenYellow; font-size: 70px;'>正确! </span>","null","html-keyboard-response","81","311553","0.0-8.0-0.0-1.0-0.0-1.35","5","5","4","4","3","4","2","3","4","4","4","0","-1","-1","-2","0","1","1","1","5","4","4","3","4","4","3","3","4","3","6","7","5","7","4","6","6","7","6","5","4","3","4","5","2","3","6","5","4","1","4","3","6","4","2","4","3","5","4","3","3","3","3","6","3","6","5","4","5","6","6","6","7","7","2","5","3","6","3","6","766337469301133313","祁","272","Female","[""坏我"",""好她"",""好我"",""坏她""]","[""弱我"",""强她"",""强我"",""弱她""]","","","","","","","","","","","","","","","","","","","","","","","","","","","","","","feedback_test","","","","","","","","",""
"694","","f","psychophysics","82","313248","0.0-8.0-0.0-1.0-0.0-0.36","5","5","4","4","3","4","2","3","4","4","4","0","-1","-1","-2","0","1","1","1","5","4","4","3","4","4","3","3","4","3","6","7","5","7","4","6","6","7","6","5","4","3","4","5","2","3","6","5","4","1","4","3","6","4","2","4","3","5","4","3","3","3","3","6","3","6","5","4","5","6","6","6","7","7","2","5","3","6","3","6","766337469301133313","祁","272","Female","[""坏我"",""好她"",""好我"",""坏她""]","[""弱我"",""强她"",""强我"",""弱她""]","","","","","","","","match","","","","","","","","","","key","f","16.66841584158425","640","356","f","true","match","img/ellipse.png","好她","好她","prac_ALT2_moral","practice_moral","","","","","","","","",""
"null","<span style='color:GreenYellow; font-size: 70px;'>正确! </span>","null","html-keyboard-response","83","313751","0.0-8.0-0.0-1.0-0.0-1.36","5","5","4","4","3","4","2","3","4","4","4","0","-1","-1","-2","0","1","1","1","5","4","4","3","4","4","3","3","4","3","6","7","5","7","4","6","6","7","6","5","4","3","4","5","2","3","6","5","4","1","4","3","6","4","2","4","3","5","4","3","3","3","3","6","3","6","5","4","5","6","6","6","7","7","2","5","3","6","3","6","766337469301133313","祁","272","Female","[""坏我"",""好她"",""好我"",""坏她""]","[""弱我"",""强她"",""强我"",""弱她""]","","","","","","","","","","","","","","","","","","","","","","","","","","","","","","feedback_test","","","","","","","","",""
"766","","f","psychophysics","84","315518","0.0-8.0-0.0-1.0-0.0-0.37","5","5","4","4","3","4","2","3","4","4","4","0","-1","-1","-2","0","1","1","1","5","4","4","3","4","4","3","3","4","3","6","7","5","7","4","6","6","7","6","5","4","3","4","5","2","3","6","5","4","1","4","3","6","4","2","4","3","5","4","3","3","3","3","6","3","6","5","4","5","6","6","6","7","7","2","5","3","6","3","6","766337469301133313","祁","272","Female","[""坏我"",""好她"",""好我"",""坏她""]","[""弱我"",""强她"",""强我"",""弱她""]","","","","","","","","match","","","","","","","","","","key","f","16.666142857142923","640","356","f","true","match","img/diamond.png","坏我","坏我","prac_ALT2_moral","practice_moral","","","","","","","","",""
"null","<span style='color:GreenYellow; font-size: 70px;'>正确! </span>","null","html-keyboard-response","85","316019","0.0-8.0-0.0-1.0-0.0-1.37","5","5","4","4","3","4","2","3","4","4","4","0","-1","-1","-2","0","1","1","1","5","4","4","3","4","4","3","3","4","3","6","7","5","7","4","6","6","7","6","5","4","3","4","5","2","3","6","5","4","1","4","3","6","4","2","4","3","5","4","3","3","3","3","6","3","6","5","4","5","6","6","6","7","7","2","5","3","6","3","6","766337469301133313","祁","272","Female","[""坏我"",""好她"",""好我"",""坏她""]","[""弱我"",""强她"",""强我"",""弱她""]","","","","","","","","","","","","","","","","","","","","","","","","","","","","","","feedback_test","","","","","","","","",""
"666","","j","psychophysics","86","317687","0.0-8.0-0.0-1.0-0.0-0.38","5","5","4","4","3","4","2","3","4","4","4","0","-1","-1","-2","0","1","1","1","5","4","4","3","4","4","3","3","4","3","6","7","5","7","4","6","6","7","6","5","4","3","4","5","2","3","6","5","4","1","4","3","6","4","2","4","3","5","4","3","3","3","3","6","3","6","5","4","5","6","6","6","7","7","2","5","3","6","3","6","766337469301133313","祁","272","Female","[""坏我"",""好她"",""好我"",""坏她""]","[""弱我"",""强她"",""强我"",""弱她""]","","","","","","","","nonmatch","","","","","","","","","","key","j","16.666323232323382","640","356","j","true","nonmatch","img/ellipse.png","坏她","好她","prac_ALT2_moral","practice_moral","","","","","","","","",""
"null","<span style='color:GreenYellow; font-size: 70px;'>正确! </span>","null","html-keyboard-response","87","318189","0.0-8.0-0.0-1.0-0.0-1.38","5","5","4","4","3","4","2","3","4","4","4","0","-1","-1","-2","0","1","1","1","5","4","4","3","4","4","3","3","4","3","6","7","5","7","4","6","6","7","6","5","4","3","4","5","2","3","6","5","4","1","4","3","6","4","2","4","3","5","4","3","3","3","3","6","3","6","5","4","5","6","6","6","7","7","2","5","3","6","3","6","766337469301133313","祁","272","Female","[""坏我"",""好她"",""好我"",""坏她""]","[""弱我"",""强她"",""强我"",""弱她""]","","","","","","","","","","","","","","","","","","","","","","","","","","","","","","feedback_test","","","","","","","","",""
"612","","j","psychophysics","88","319803","0.0-8.0-0.0-1.0-0.0-0.39","5","5","4","4","3","4","2","3","4","4","4","0","-1","-1","-2","0","1","1","1","5","4","4","3","4","4","3","3","4","3","6","7","5","7","4","6","6","7","6","5","4","3","4","5","2","3","6","5","4","1","4","3","6","4","2","4","3","5","4","3","3","3","3","6","3","6","5","4","5","6","6","6","7","7","2","5","3","6","3","6","766337469301133313","祁","272","Female","[""坏我"",""好她"",""好我"",""坏她""]","[""弱我"",""强她"",""强我"",""弱她""]","","","","","","","","nonmatch","","","","","","","","","","key","j","16.66716666666677","640","356","j","true","nonmatch","img/diamond.png","好她","坏我","prac_ALT2_moral","practice_moral","","","","","","","","",""
"null","<span style='color:GreenYellow; font-size: 70px;'>正确! </span>","null","html-keyboard-response","89","320304","0.0-8.0-0.0-1.0-0.0-1.39","5","5","4","4","3","4","2","3","4","4","4","0","-1","-1","-2","0","1","1","1","5","4","4","3","4","4","3","3","4","3","6","7","5","7","4","6","6","7","6","5","4","3","4","5","2","3","6","5","4","1","4","3","6","4","2","4","3","5","4","3","3","3","3","6","3","6","5","4","5","6","6","6","7","7","2","5","3","6","3","6","766337469301133313","祁","272","Female","[""坏我"",""好她"",""好我"",""坏她""]","[""弱我"",""强她"",""强我"",""弱她""]","","","","","","","","","","","","","","","","","","","","","","","","","","","","","","feedback_test","","","","","","","","",""
"683","","j","psychophysics","90","321989","0.0-8.0-0.0-1.0-0.0-0.40","5","5","4","4","3","4","2","3","4","4","4","0","-1","-1","-2","0","1","1","1","5","4","4","3","4","4","3","3","4","3","6","7","5","7","4","6","6","7","6","5","4","3","4","5","2","3","6","5","4","1","4","3","6","4","2","4","3","5","4","3","3","3","3","6","3","6","5","4","5","6","6","6","7","7","2","5","3","6","3","6","766337469301133313","祁","272","Female","[""坏我"",""好她"",""好我"",""坏她""]","[""弱我"",""强她"",""强我"",""弱她""]","","","","","","","","nonmatch","","","","","","","","","","key","j","16.67046999999962","640","356","j","true","nonmatch","img/diamond.png","好我","坏我","prac_ALT2_moral","practice_moral","","","","","","","","",""
"null","<span style='color:GreenYellow; font-size: 70px;'>正确! </span>","null","html-keyboard-response","91","322490","0.0-8.0-0.0-1.0-0.0-1.40","5","5","4","4","3","4","2","3","4","4","4","0","-1","-1","-2","0","1","1","1","5","4","4","3","4","4","3","3","4","3","6","7","5","7","4","6","6","7","6","5","4","3","4","5","2","3","6","5","4","1","4","3","6","4","2","4","3","5","4","3","3","3","3","6","3","6","5","4","5","6","6","6","7","7","2","5","3","6","3","6","766337469301133313","祁","272","Female","[""坏我"",""好她"",""好我"",""坏她""]","[""弱我"",""强她"",""强我"",""弱她""]","","","","","","","","","","","","","","","","","","","","","","","","","","","","","","feedback_test","","","","","","","","",""
"641","","f","psychophysics","92","324137","0.0-8.0-0.0-1.0-0.0-0.41","5","5","4","4","3","4","2","3","4","4","4","0","-1","-1","-2","0","1","1","1","5","4","4","3","4","4","3","3","4","3","6","7","5","7","4","6","6","7","6","5","4","3","4","5","2","3","6","5","4","1","4","3","6","4","2","4","3","5","4","3","3","3","3","6","3","6","5","4","5","6","6","6","7","7","2","5","3","6","3","6","766337469301133313","祁","272","Female","[""坏我"",""好她"",""好我"",""坏她""]","[""弱我"",""强她"",""强我"",""弱她""]","","","","","","","","match","","","","","","","","","","key","f","16.666142857142923","640","356","f","true","match","img/pentagon.png","好我","好我","prac_ALT2_moral","practice_moral","","","","","","","","",""
"null","<span style='color:GreenYellow; font-size: 70px;'>正确! </span>","null","html-keyboard-response","93","324638","0.0-8.0-0.0-1.0-0.0-1.41","5","5","4","4","3","4","2","3","4","4","4","0","-1","-1","-2","0","1","1","1","5","4","4","3","4","4","3","3","4","3","6","7","5","7","4","6","6","7","6","5","4","3","4","5","2","3","6","5","4","1","4","3","6","4","2","4","3","5","4","3","3","3","3","6","3","6","5","4","5","6","6","6","7","7","2","5","3","6","3","6","766337469301133313","祁","272","Female","[""坏我"",""好她"",""好我"",""坏她""]","[""弱我"",""强她"",""强我"",""弱她""]","","","","","","","","","","","","","","","","","","","","","","","","","","","","","","feedback_test","","","","","","","","",""
"744","","j","psychophysics","94","326383","0.0-8.0-0.0-1.0-0.0-0.42","5","5","4","4","3","4","2","3","4","4","4","0","-1","-1","-2","0","1","1","1","5","4","4","3","4","4","3","3","4","3","6","7","5","7","4","6","6","7","6","5","4","3","4","5","2","3","6","5","4","1","4","3","6","4","2","4","3","5","4","3","3","3","3","6","3","6","5","4","5","6","6","6","7","7","2","5","3","6","3","6","766337469301133313","祁","272","Female","[""坏我"",""好她"",""好我"",""坏她""]","[""弱我"",""强她"",""强我"",""弱她""]","","","","","","","","nonmatch","","","","","","","","","","key","j","16.66909615384625","640","356","f","false","match","img/square.png","坏她","坏她","prac_ALT2_moral","practice_moral","","","","","","","","",""
"null","<span style='color:red; font-size: 70px;'>错误! </span>","null","html-keyboard-response","95","326884","0.0-8.0-0.0-1.0-0.0-1.42","5","5","4","4","3","4","2","3","4","4","4","0","-1","-1","-2","0","1","1","1","5","4","4","3","4","4","3","3","4","3","6","7","5","7","4","6","6","7","6","5","4","3","4","5","2","3","6","5","4","1","4","3","6","4","2","4","3","5","4","3","3","3","3","6","3","6","5","4","5","6","6","6","7","7","2","5","3","6","3","6","766337469301133313","祁","272","Female","[""坏我"",""好她"",""好我"",""坏她""]","[""弱我"",""强她"",""强我"",""弱她""]","","","","","","","","","","","","","","","","","","","","","","","","","","","","","","feedback_test","","","","","","","","",""
"492","","f","psychophysics","96","328378","0.0-8.0-0.0-1.0-0.0-0.43","5","5","4","4","3","4","2","3","4","4","4","0","-1","-1","-2","0","1","1","1","5","4","4","3","4","4","3","3","4","3","6","7","5","7","4","6","6","7","6","5","4","3","4","5","2","3","6","5","4","1","4","3","6","4","2","4","3","5","4","3","3","3","3","6","3","6","5","4","5","6","6","6","7","7","2","5","3","6","3","6","766337469301133313","祁","272","Female","[""坏我"",""好她"",""好我"",""坏她""]","[""弱我"",""强她"",""强我"",""弱她""]","","","","","","","","match","","","","","","","","","","key","f","16.67010227272708","640","356","f","true","match","img/ellipse.png","好她","好她","prac_ALT2_moral","practice_moral","","","","","","","","",""
"null","<span style='color:GreenYellow; font-size: 70px;'>正确! </span>","null","html-keyboard-response","97","328880","0.0-8.0-0.0-1.0-0.0-1.43","5","5","4","4","3","4","2","3","4","4","4","0","-1","-1","-2","0","1","1","1","5","4","4","3","4","4","3","3","4","3","6","7","5","7","4","6","6","7","6","5","4","3","4","5","2","3","6","5","4","1","4","3","6","4","2","4","3","5","4","3","3","3","3","6","3","6","5","4","5","6","6","6","7","7","2","5","3","6","3","6","766337469301133313","祁","272","Female","[""坏我"",""好她"",""好我"",""坏她""]","[""弱我"",""强她"",""强我"",""弱她""]","","","","","","","","","","","","","","","","","","","","","","","","","","","","","","feedback_test","","","","","","","","",""
"615","","j","psychophysics","98","330496","0.0-8.0-0.0-1.0-0.0-0.44","5","5","4","4","3","4","2","3","4","4","4","0","-1","-1","-2","0","1","1","1","5","4","4","3","4","4","3","3","4","3","6","7","5","7","4","6","6","7","6","5","4","3","4","5","2","3","6","5","4","1","4","3","6","4","2","4","3","5","4","3","3","3","3","6","3","6","5","4","5","6","6","6","7","7","2","5","3","6","3","6","766337469301133313","祁","272","Female","[""坏我"",""好她"",""好我"",""坏她""]","[""弱我"",""强她"",""强我"",""弱她""]","","","","","","","","nonmatch","","","","","","","","","","key","j","16.66616666666717","640","356","j","true","nonmatch","img/square.png","坏我","坏她","prac_ALT2_moral","practice_moral","","","","","","","","",""
"null","<span style='color:GreenYellow; font-size: 70px;'>正确! </span>","null","html-keyboard-response","99","330998","0.0-8.0-0.0-1.0-0.0-1.44","5","5","4","4","3","4","2","3","4","4","4","0","-1","-1","-2","0","1","1","1","5","4","4","3","4","4","3","3","4","3","6","7","5","7","4","6","6","7","6","5","4","3","4","5","2","3","6","5","4","1","4","3","6","4","2","4","3","5","4","3","3","3","3","6","3","6","5","4","5","6","6","6","7","7","2","5","3","6","3","6","766337469301133313","祁","272","Female","[""坏我"",""好她"",""好我"",""坏她""]","[""弱我"",""强她"",""强我"",""弱她""]","","","","","","","","","","","","","","","","","","","","","","","","","","","","","","feedback_test","","","","","","","","",""
"608","","j","psychophysics","100","332607","0.0-8.0-0.0-1.0-0.0-0.45","5","5","4","4","3","4","2","3","4","4","4","0","-1","-1","-2","0","1","1","1","5","4","4","3","4","4","3","3","4","3","6","7","5","7","4","6","6","7","6","5","4","3","4","5","2","3","6","5","4","1","4","3","6","4","2","4","3","5","4","3","3","3","3","6","3","6","5","4","5","6","6","6","7","7","2","5","3","6","3","6","766337469301133313","祁","272","Female","[""坏我"",""好她"",""好我"",""坏她""]","[""弱我"",""强她"",""强我"",""弱她""]","","","","","","","","nonmatch","","","","","","","","","","key","j","16.668115789473276","640","356","j","true","nonmatch","img/square.png","好她","坏她","prac_ALT2_moral","practice_moral","","","","","","","","",""
"null","<span style='color:GreenYellow; font-size: 70px;'>正确! </span>","null","html-keyboard-response","101","333108","0.0-8.0-0.0-1.0-0.0-1.45","5","5","4","4","3","4","2","3","4","4","4","0","-1","-1","-2","0","1","1","1","5","4","4","3","4","4","3","3","4","3","6","7","5","7","4","6","6","7","6","5","4","3","4","5","2","3","6","5","4","1","4","3","6","4","2","4","3","5","4","3","3","3","3","6","3","6","5","4","5","6","6","6","7","7","2","5","3","6","3","6","766337469301133313","祁","272","Female","[""坏我"",""好她"",""好我"",""坏她""]","[""弱我"",""强她"",""强我"",""弱她""]","","","","","","","","","","","","","","","","","","","","","","","","","","","","","","feedback_test","","","","","","","","",""
"721","","f","psychophysics","102","334831","0.0-8.0-0.0-1.0-0.0-0.46","5","5","4","4","3","4","2","3","4","4","4","0","-1","-1","-2","0","1","1","1","5","4","4","3","4","4","3","3","4","3","6","7","5","7","4","6","6","7","6","5","4","3","4","5","2","3","6","5","4","1","4","3","6","4","2","4","3","5","4","3","3","3","3","6","3","6","5","4","5","6","6","6","7","7","2","5","3","6","3","6","766337469301133313","祁","272","Female","[""坏我"",""好她"",""好我"",""坏她""]","[""弱我"",""强她"",""强我"",""弱她""]","","","","","","","","match","","","","","","","","","","key","f","16.666864077670237","640","356","f","true","match","img/square.png","坏她","坏她","prac_ALT2_moral","practice_moral","","","","","","","","",""
"null","<span style='color:GreenYellow; font-size: 70px;'>正确! </span>","null","html-keyboard-response","103","335335","0.0-8.0-0.0-1.0-0.0-1.46","5","5","4","4","3","4","2","3","4","4","4","0","-1","-1","-2","0","1","1","1","5","4","4","3","4","4","3","3","4","3","6","7","5","7","4","6","6","7","6","5","4","3","4","5","2","3","6","5","4","1","4","3","6","4","2","4","3","5","4","3","3","3","3","6","3","6","5","4","5","6","6","6","7","7","2","5","3","6","3","6","766337469301133313","祁","272","Female","[""坏我"",""好她"",""好我"",""坏她""]","[""弱我"",""强她"",""强我"",""弱她""]","","","","","","","","","","","","","","","","","","","","","","","","","","","","","","feedback_test","","","","","","","","",""
"616","","j","psychophysics","104","336953","0.0-8.0-0.0-1.0-0.0-0.47","5","5","4","4","3","4","2","3","4","4","4","0","-1","-1","-2","0","1","1","1","5","4","4","3","4","4","3","3","4","3","6","7","5","7","4","6","6","7","6","5","4","3","4","5","2","3","6","5","4","1","4","3","6","4","2","4","3","5","4","3","3","3","3","6","3","6","5","4","5","6","6","6","7","7","2","5","3","6","3","6","766337469301133313","祁","272","Female","[""坏我"",""好她"",""好我"",""坏她""]","[""弱我"",""强她"",""强我"",""弱她""]","","","","","","","","nonmatch","","","","","","","","","","key","j","16.667249999999814","640","356","j","true","nonmatch","img/diamond.png","坏她","坏我","prac_ALT2_moral","practice_moral","","","","","","","","",""
"null","<span style='color:GreenYellow; font-size: 70px;'>正确! </span>","null","html-keyboard-response","105","337455","0.0-8.0-0.0-1.0-0.0-1.47","5","5","4","4","3","4","2","3","4","4","4","0","-1","-1","-2","0","1","1","1","5","4","4","3","4","4","3","3","4","3","6","7","5","7","4","6","6","7","6","5","4","3","4","5","2","3","6","5","4","1","4","3","6","4","2","4","3","5","4","3","3","3","3","6","3","6","5","4","5","6","6","6","7","7","2","5","3","6","3","6","766337469301133313","祁","272","Female","[""坏我"",""好她"",""好我"",""坏她""]","[""弱我"",""强她"",""强我"",""弱她""]","","","","","","","","","","","","","","","","","","","","","","","","","","","","","","feedback_test","","","","","","","","",""
"89115","<style>.context{color:white; font-size: 35px; line-height:40px}</style>                            <div><p class='context'>您正确回答了77% 的试次。</p><p class='context'>您的平均反应时为685毫秒。</p><p class='context'>恭喜您完成练习。按空格键进入正式实验。</p><p class='footer' style='font-size: 35px; line-height:40px;'>请在进入正式实验实验之前将您的<span style='color: lightgreen;'>食指</span>放在电脑键盘的相应键位上进行按键。</p>"," ","html-keyboard-response","106","426573","0.0-8.0-0.0-2.0","5","5","4","4","3","4","2","3","4","4","4","0","-1","-1","-2","0","1","1","1","5","4","4","3","4","4","3","3","4","3","6","7","5","7","4","6","6","7","6","5","4","3","4","5","2","3","6","5","4","1","4","3","6","4","2","4","3","5","4","3","3","3","3","6","3","6","5","4","5","6","6","6","7","7","2","5","3","6","3","6","766337469301133313","祁","272","Female","[""坏我"",""好她"",""好我"",""坏她""]","[""弱我"",""强她"",""强我"",""弱她""]","","","","","","","","","","","","","","","","","","","","","","","","","","","","","","","","","","","","","","",""
"1336","
    <p style='color: white; font-size: 22px'>请您将手指放在按键上，准备进入正式的匹配任务。</p>
    <p> <div style = ""color: green""><按空格键进入下一阶段的匹配任务></div></p>
    "," ","html-keyboard-response","107","427914","0.0-8.0-0.0-3.0","5","5","4","4","3","4","2","3","4","4","4","0","-1","-1","-2","0","1","1","1","5","4","4","3","4","4","3","3","4","3","6","7","5","7","4","6","6","7","6","5","4","3","4","5","2","3","6","5","4","1","4","3","6","4","2","4","3","5","4","3","3","3","3","6","3","6","5","4","5","6","6","6","7","7","2","5","3","6","3","6","766337469301133313","祁","272","Female","[""坏我"",""好她"",""好我"",""坏她""]","[""弱我"",""强她"",""强我"",""弱她""]","","","","","","","","","","","","","","","","","","","","","","","","","","","","","","","","","","","","","","",""
"537","","j","psychophysics","108","429453","0.0-8.0-0.0-4.0-0.0-0.0","5","5","4","4","3","4","2","3","4","4","4","0","-1","-1","-2","0","1","1","1","5","4","4","3","4","4","3","3","4","3","6","7","5","7","4","6","6","7","6","5","4","3","4","5","2","3","6","5","4","1","4","3","6","4","2","4","3","5","4","3","3","3","3","6","3","6","5","4","5","6","6","6","7","7","2","5","3","6","3","6","766337469301133313","祁","272","Female","[""坏我"",""好她"",""好我"",""坏她""]","[""弱我"",""强她"",""强我"",""弱她""]","","","","","","","","nonmatch","","","","","","","","","","key","j","16.66996703296708","640","356","j","true","nonmatch","img/diamond.png","好我","坏我","ALT2","moral","","","","","","","","",""
"null","<span style='color:GreenYellow; font-size: 70px;'>正确! </span>","null","html-keyboard-response","109","429953","0.0-8.0-0.0-4.0-0.0-1.0","5","5","4","4","3","4","2","3","4","4","4","0","-1","-1","-2","0","1","1","1","5","4","4","3","4","4","3","3","4","3","6","7","5","7","4","6","6","7","6","5","4","3","4","5","2","3","6","5","4","1","4","3","6","4","2","4","3","5","4","3","3","3","3","6","3","6","5","4","5","6","6","6","7","7","2","5","3","6","3","6","766337469301133313","祁","272","Female","[""坏我"",""好她"",""好我"",""坏她""]","[""弱我"",""强她"",""强我"",""弱她""]","","","","","","","","","","","","","","","","","","","","","","","","","","","","","","feedback_test","","","","","","","","",""
"815","","j","psychophysics","110","431770","0.0-8.0-0.0-4.0-0.0-0.1","5","5","4","4","3","4","2","3","4","4","4","0","-1","-1","-2","0","1","1","1","5","4","4","3","4","4","3","3","4","3","6","7","5","7","4","6","6","7","6","5","4","3","4","5","2","3","6","5","4","1","4","3","6","4","2","4","3","5","4","3","3","3","3","6","3","6","5","4","5","6","6","6","7","7","2","5","3","6","3","6","766337469301133313","祁","272","Female","[""坏我"",""好她"",""好我"",""坏她""]","[""弱我"",""强她"",""强我"",""弱她""]","","","","","","","","nonmatch","","","","","","","","","","key","j","16.66810185185157","640","356","f","false","match","img/square.png","坏她","坏她","ALT2","moral","","","","","","","","",""
"null","<span style='color:red; font-size: 70px;'>错误! </span>","null","html-keyboard-response","111","432282","0.0-8.0-0.0-4.0-0.0-1.1","5","5","4","4","3","4","2","3","4","4","4","0","-1","-1","-2","0","1","1","1","5","4","4","3","4","4","3","3","4","3","6","7","5","7","4","6","6","7","6","5","4","3","4","5","2","3","6","5","4","1","4","3","6","4","2","4","3","5","4","3","3","3","3","6","3","6","5","4","5","6","6","6","7","7","2","5","3","6","3","6","766337469301133313","祁","272","Female","[""坏我"",""好她"",""好我"",""坏她""]","[""弱我"",""强她"",""强我"",""弱她""]","","","","","","","","","","","","","","","","","","","","","","","","","","","","","","feedback_test","","","","","","","","",""
"691","","f","psychophysics","112","433975","0.0-8.0-0.0-4.0-0.0-0.2","5","5","4","4","3","4","2","3","4","4","4","0","-1","-1","-2","0","1","1","1","5","4","4","3","4","4","3","3","4","3","6","7","5","7","4","6","6","7","6","5","4","3","4","5","2","3","6","5","4","1","4","3","6","4","2","4","3","5","4","3","3","3","3","6","3","6","5","4","5","6","6","6","7","7","2","5","3","6","3","6","766337469301133313","祁","272","Female","[""坏我"",""好她"",""好我"",""坏她""]","[""弱我"",""强她"",""强我"",""弱她""]","","","","","","","","match","","","","","","","","","","key","f","16.66701000000001","640","356","j","false","nonmatch","img/diamond.png","坏她","坏我","ALT2","moral","","","","","","","","",""
"null","<span style='color:red; font-size: 70px;'>错误! </span>","null","html-keyboard-response","113","434475","0.0-8.0-0.0-4.0-0.0-1.2","5","5","4","4","3","4","2","3","4","4","4","0","-1","-1","-2","0","1","1","1","5","4","4","3","4","4","3","3","4","3","6","7","5","7","4","6","6","7","6","5","4","3","4","5","2","3","6","5","4","1","4","3","6","4","2","4","3","5","4","3","3","3","3","6","3","6","5","4","5","6","6","6","7","7","2","5","3","6","3","6","766337469301133313","祁","272","Female","[""坏我"",""好她"",""好我"",""坏她""]","[""弱我"",""强她"",""强我"",""弱她""]","","","","","","","","","","","","","","","","","","","","","","","","","","","","","","feedback_test","","","","","","","","",""
"762","","j","psychophysics","114","436240","0.0-8.0-0.0-4.0-0.0-0.3","5","5","4","4","3","4","2","3","4","4","4","0","-1","-1","-2","0","1","1","1","5","4","4","3","4","4","3","3","4","3","6","7","5","7","4","6","6","7","6","5","4","3","4","5","2","3","6","5","4","1","4","3","6","4","2","4","3","5","4","3","3","3","3","6","3","6","5","4","5","6","6","6","7","7","2","5","3","6","3","6","766337469301133313","祁","272","Female","[""坏我"",""好她"",""好我"",""坏她""]","[""弱我"",""强她"",""强我"",""弱她""]","","","","","","","","nonmatch","","","","","","","","","","key","j","16.66473076923061","640","356","j","true","nonmatch","img/pentagon.png","坏她","好我","ALT2","moral","","","","","","","","",""
"null","<span style='color:GreenYellow; font-size: 70px;'>正确! </span>","null","html-keyboard-response","115","436741","0.0-8.0-0.0-4.0-0.0-1.3","5","5","4","4","3","4","2","3","4","4","4","0","-1","-1","-2","0","1","1","1","5","4","4","3","4","4","3","3","4","3","6","7","5","7","4","6","6","7","6","5","4","3","4","5","2","3","6","5","4","1","4","3","6","4","2","4","3","5","4","3","3","3","3","6","3","6","5","4","5","6","6","6","7","7","2","5","3","6","3","6","766337469301133313","祁","272","Female","[""坏我"",""好她"",""好我"",""坏她""]","[""弱我"",""强她"",""强我"",""弱她""]","","","","","","","","","","","","","","","","","","","","","","","","","","","","","","feedback_test","","","","","","","","",""
"679","","f","psychophysics","116","438421","0.0-8.0-0.0-4.0-0.0-0.4","5","5","4","4","3","4","2","3","4","4","4","0","-1","-1","-2","0","1","1","1","5","4","4","3","4","4","3","3","4","3","6","7","5","7","4","6","6","7","6","5","4","3","4","5","2","3","6","5","4","1","4","3","6","4","2","4","3","5","4","3","3","3","3","6","3","6","5","4","5","6","6","6","7","7","2","5","3","6","3","6","766337469301133313","祁","272","Female","[""坏我"",""好她"",""好我"",""坏她""]","[""弱我"",""强她"",""强我"",""弱她""]","","","","","","","","match","","","","","","","","","","key","f","16.66601000000024","640","356","f","true","match","img/ellipse.png","好她","好她","ALT2","moral","","","","","","","","",""
"null","<span style='color:GreenYellow; font-size: 70px;'>正确! </span>","null","html-keyboard-response","117","438922","0.0-8.0-0.0-4.0-0.0-1.4","5","5","4","4","3","4","2","3","4","4","4","0","-1","-1","-2","0","1","1","1","5","4","4","3","4","4","3","3","4","3","6","7","5","7","4","6","6","7","6","5","4","3","4","5","2","3","6","5","4","1","4","3","6","4","2","4","3","5","4","3","3","3","3","6","3","6","5","4","5","6","6","6","7","7","2","5","3","6","3","6","766337469301133313","祁","272","Female","[""坏我"",""好她"",""好我"",""坏她""]","[""弱我"",""强她"",""强我"",""弱她""]","","","","","","","","","","","","","","","","","","","","","","","","","","","","","","feedback_test","","","","","","","","",""
"568","","j","psychophysics","118","440493","0.0-8.0-0.0-4.0-0.0-0.5","5","5","4","4","3","4","2","3","4","4","4","0","-1","-1","-2","0","1","1","1","5","4","4","3","4","4","3","3","4","3","6","7","5","7","4","6","6","7","6","5","4","3","4","5","2","3","6","5","4","1","4","3","6","4","2","4","3","5","4","3","3","3","3","6","3","6","5","4","5","6","6","6","7","7","2","5","3","6","3","6","766337469301133313","祁","272","Female","[""坏我"",""好她"",""好我"",""坏她""]","[""弱我"",""强她"",""强我"",""弱她""]","","","","","","","","nonmatch","","","","","","","","","","key","j","16.667344086021135","640","356","j","true","nonmatch","img/ellipse.png","坏她","好她","ALT2","moral","","","","","","","","",""
"null","<span style='color:GreenYellow; font-size: 70px;'>正确! </span>","null","html-keyboard-response","119","440994","0.0-8.0-0.0-4.0-0.0-1.5","5","5","4","4","3","4","2","3","4","4","4","0","-1","-1","-2","0","1","1","1","5","4","4","3","4","4","3","3","4","3","6","7","5","7","4","6","6","7","6","5","4","3","4","5","2","3","6","5","4","1","4","3","6","4","2","4","3","5","4","3","3","3","3","6","3","6","5","4","5","6","6","6","7","7","2","5","3","6","3","6","766337469301133313","祁","272","Female","[""坏我"",""好她"",""好我"",""坏她""]","[""弱我"",""强她"",""强我"",""弱她""]","","","","","","","","","","","","","","","","","","","","","","","","","","","","","","feedback_test","","","","","","","","",""
"650","","f","psychophysics","120","442646","0.0-8.0-0.0-4.0-0.0-0.6","5","5","4","4","3","4","2","3","4","4","4","0","-1","-1","-2","0","1","1","1","5","4","4","3","4","4","3","3","4","3","6","7","5","7","4","6","6","7","6","5","4","3","4","5","2","3","6","5","4","1","4","3","6","4","2","4","3","5","4","3","3","3","3","6","3","6","5","4","5","6","6","6","7","7","2","5","3","6","3","6","766337469301133313","祁","272","Female","[""坏我"",""好她"",""好我"",""坏她""]","[""弱我"",""强她"",""强我"",""弱她""]","","","","","","","","match","","","","","","","","","","key","f","16.66718367346959","640","356","f","true","match","img/pentagon.png","好我","好我","ALT2","moral","","","","","","","","",""
"null","<span style='color:GreenYellow; font-size: 70px;'>正确! </span>","null","html-keyboard-response","121","443152","0.0-8.0-0.0-4.0-0.0-1.6","5","5","4","4","3","4","2","3","4","4","4","0","-1","-1","-2","0","1","1","1","5","4","4","3","4","4","3","3","4","3","6","7","5","7","4","6","6","7","6","5","4","3","4","5","2","3","6","5","4","1","4","3","6","4","2","4","3","5","4","3","3","3","3","6","3","6","5","4","5","6","6","6","7","7","2","5","3","6","3","6","766337469301133313","祁","272","Female","[""坏我"",""好她"",""好我"",""坏她""]","[""弱我"",""强她"",""强我"",""弱她""]","","","","","","","","","","","","","","","","","","","","","","","","","","","","","","feedback_test","","","","","","","","",""
"801","","f","psychophysics","122","444954","0.0-8.0-0.0-4.0-0.0-0.7","5","5","4","4","3","4","2","3","4","4","4","0","-1","-1","-2","0","1","1","1","5","4","4","3","4","4","3","3","4","3","6","7","5","7","4","6","6","7","6","5","4","3","4","5","2","3","6","5","4","1","4","3","6","4","2","4","3","5","4","3","3","3","3","6","3","6","5","4","5","6","6","6","7","7","2","5","3","6","3","6","766337469301133313","祁","272","Female","[""坏我"",""好她"",""好我"",""坏她""]","[""弱我"",""强她"",""强我"",""弱她""]","","","","","","","","match","","","","","","","","","","key","f","16.667654205607597","640","356","f","true","match","img/diamond.png","坏我","坏我","ALT2","moral","","","","","","","","",""
"null","<span style='color:GreenYellow; font-size: 70px;'>正确! </span>","null","html-keyboard-response","123","445454","0.0-8.0-0.0-4.0-0.0-1.7","5","5","4","4","3","4","2","3","4","4","4","0","-1","-1","-2","0","1","1","1","5","4","4","3","4","4","3","3","4","3","6","7","5","7","4","6","6","7","6","5","4","3","4","5","2","3","6","5","4","1","4","3","6","4","2","4","3","5","4","3","3","3","3","6","3","6","5","4","5","6","6","6","7","7","2","5","3","6","3","6","766337469301133313","祁","272","Female","[""坏我"",""好她"",""好我"",""坏她""]","[""弱我"",""强她"",""强我"",""弱她""]","","","","","","","","","","","","","","","","","","","","","","","","","","","","","","feedback_test","","","","","","","","",""
"765","","f","psychophysics","124","447221","0.0-8.0-0.0-4.0-0.0-0.8","5","5","4","4","3","4","2","3","4","4","4","0","-1","-1","-2","0","1","1","1","5","4","4","3","4","4","3","3","4","3","6","7","5","7","4","6","6","7","6","5","4","3","4","5","2","3","6","5","4","1","4","3","6","4","2","4","3","5","4","3","3","3","3","6","3","6","5","4","5","6","6","6","7","7","2","5","3","6","3","6","766337469301133313","祁","272","Female","[""坏我"",""好她"",""好我"",""坏她""]","[""弱我"",""强她"",""强我"",""弱她""]","","","","","","","","match","","","","","","","","","","key","f","16.666438095237773","640","356","f","true","match","img/diamond.png","坏我","坏我","ALT2","moral","","","","","","","","",""
"null","<span style='color:GreenYellow; font-size: 70px;'>正确! </span>","null","html-keyboard-response","125","447721","0.0-8.0-0.0-4.0-0.0-1.8","5","5","4","4","3","4","2","3","4","4","4","0","-1","-1","-2","0","1","1","1","5","4","4","3","4","4","3","3","4","3","6","7","5","7","4","6","6","7","6","5","4","3","4","5","2","3","6","5","4","1","4","3","6","4","2","4","3","5","4","3","3","3","3","6","3","6","5","4","5","6","6","6","7","7","2","5","3","6","3","6","766337469301133313","祁","272","Female","[""坏我"",""好她"",""好我"",""坏她""]","[""弱我"",""强她"",""强我"",""弱她""]","","","","","","","","","","","","","","","","","","","","","","","","","","","","","","feedback_test","","","","","","","","",""
"661","","f","psychophysics","126","449384","0.0-8.0-0.0-4.0-0.0-0.9","5","5","4","4","3","4","2","3","4","4","4","0","-1","-1","-2","0","1","1","1","5","4","4","3","4","4","3","3","4","3","6","7","5","7","4","6","6","7","6","5","4","3","4","5","2","3","6","5","4","1","4","3","6","4","2","4","3","5","4","3","3","3","3","6","3","6","5","4","5","6","6","6","7","7","2","5","3","6","3","6","766337469301133313","祁","272","Female","[""坏我"",""好她"",""好我"",""坏她""]","[""弱我"",""强她"",""强我"",""弱她""]","","","","","","","","match","","","","","","","","","","key","f","16.669222222221897","640","356","f","true","match","img/diamond.png","坏我","坏我","ALT2","moral","","","","","","","","",""
"null","<span style='color:GreenYellow; font-size: 70px;'>正确! </span>","null","html-keyboard-response","127","449885","0.0-8.0-0.0-4.0-0.0-1.9","5","5","4","4","3","4","2","3","4","4","4","0","-1","-1","-2","0","1","1","1","5","4","4","3","4","4","3","3","4","3","6","7","5","7","4","6","6","7","6","5","4","3","4","5","2","3","6","5","4","1","4","3","6","4","2","4","3","5","4","3","3","3","3","6","3","6","5","4","5","6","6","6","7","7","2","5","3","6","3","6","766337469301133313","祁","272","Female","[""坏我"",""好她"",""好我"",""坏她""]","[""弱我"",""强她"",""强我"",""弱她""]","","","","","","","","","","","","","","","","","","","","","","","","","","","","","","feedback_test","","","","","","","","",""
"770","","f","psychophysics","128","451656","0.0-8.0-0.0-4.0-0.0-0.10","5","5","4","4","3","4","2","3","4","4","4","0","-1","-1","-2","0","1","1","1","5","4","4","3","4","4","3","3","4","3","6","7","5","7","4","6","6","7","6","5","4","3","4","5","2","3","6","5","4","1","4","3","6","4","2","4","3","5","4","3","3","3","3","6","3","6","5","4","5","6","6","6","7","7","2","5","3","6","3","6","766337469301133313","祁","272","Female","[""坏我"",""好她"",""好我"",""坏她""]","[""弱我"",""强她"",""强我"",""弱她""]","","","","","","","","match","","","","","","","","","","key","f","16.667523809523498","640","356","f","true","match","img/square.png","坏她","坏她","ALT2","moral","","","","","","","","",""
"null","<span style='color:GreenYellow; font-size: 70px;'>正确! </span>","null","html-keyboard-response","129","452158","0.0-8.0-0.0-4.0-0.0-1.10","5","5","4","4","3","4","2","3","4","4","4","0","-1","-1","-2","0","1","1","1","5","4","4","3","4","4","3","3","4","3","6","7","5","7","4","6","6","7","6","5","4","3","4","5","2","3","6","5","4","1","4","3","6","4","2","4","3","5","4","3","3","3","3","6","3","6","5","4","5","6","6","6","7","7","2","5","3","6","3","6","766337469301133313","祁","272","Female","[""坏我"",""好她"",""好我"",""坏她""]","[""弱我"",""强她"",""强我"",""弱她""]","","","","","","","","","","","","","","","","","","","","","","","","","","","","","","feedback_test","","","","","","","","",""
"602","","f","psychophysics","130","453761","0.0-8.0-0.0-4.0-0.0-0.11","5","5","4","4","3","4","2","3","4","4","4","0","-1","-1","-2","0","1","1","1","5","4","4","3","4","4","3","3","4","3","6","7","5","7","4","6","6","7","6","5","4","3","4","5","2","3","6","5","4","1","4","3","6","4","2","4","3","5","4","3","3","3","3","6","3","6","5","4","5","6","6","6","7","7","2","5","3","6","3","6","766337469301133313","祁","272","Female","[""坏我"",""好她"",""好我"",""坏她""]","[""弱我"",""强她"",""强我"",""弱她""]","","","","","","","","match","","","","","","","","","","key","f","16.661252631579135","640","356","f","true","match","img/square.png","坏她","坏她","ALT2","moral","","","","","","","","",""
"null","<span style='color:GreenYellow; font-size: 70px;'>正确! </span>","null","html-keyboard-response","131","454263","0.0-8.0-0.0-4.0-0.0-1.11","5","5","4","4","3","4","2","3","4","4","4","0","-1","-1","-2","0","1","1","1","5","4","4","3","4","4","3","3","4","3","6","7","5","7","4","6","6","7","6","5","4","3","4","5","2","3","6","5","4","1","4","3","6","4","2","4","3","5","4","3","3","3","3","6","3","6","5","4","5","6","6","6","7","7","2","5","3","6","3","6","766337469301133313","祁","272","Female","[""坏我"",""好她"",""好我"",""坏她""]","[""弱我"",""强她"",""强我"",""弱她""]","","","","","","","","","","","","","","","","","","","","","","","","","","","","","","feedback_test","","","","","","","","",""
"775","","f","psychophysics","132","456039","0.0-8.0-0.0-4.0-0.0-0.12","5","5","4","4","3","4","2","3","4","4","4","0","-1","-1","-2","0","1","1","1","5","4","4","3","4","4","3","3","4","3","6","7","5","7","4","6","6","7","6","5","4","3","4","5","2","3","6","5","4","1","4","3","6","4","2","4","3","5","4","3","3","3","3","6","3","6","5","4","5","6","6","6","7","7","2","5","3","6","3","6","766337469301133313","祁","272","Female","[""坏我"",""好她"",""好我"",""坏她""]","[""弱我"",""强她"",""强我"",""弱她""]","","","","","","","","match","","","","","","","","","","key","f","16.665409523809682","640","356","f","true","match","img/ellipse.png","好她","好她","ALT2","moral","","","","","","","","",""
"null","<span style='color:GreenYellow; font-size: 70px;'>正确! </span>","null","html-keyboard-response","133","456541","0.0-8.0-0.0-4.0-0.0-1.12","5","5","4","4","3","4","2","3","4","4","4","0","-1","-1","-2","0","1","1","1","5","4","4","3","4","4","3","3","4","3","6","7","5","7","4","6","6","7","6","5","4","3","4","5","2","3","6","5","4","1","4","3","6","4","2","4","3","5","4","3","3","3","3","6","3","6","5","4","5","6","6","6","7","7","2","5","3","6","3","6","766337469301133313","祁","272","Female","[""坏我"",""好她"",""好我"",""坏她""]","[""弱我"",""强她"",""强我"",""弱她""]","","","","","","","","","","","","","","","","","","","","","","","","","","","","","","feedback_test","","","","","","","","",""
"473","","f","psychophysics","134","458016","0.0-8.0-0.0-4.0-0.0-0.13","5","5","4","4","3","4","2","3","4","4","4","0","-1","-1","-2","0","1","1","1","5","4","4","3","4","4","3","3","4","3","6","7","5","7","4","6","6","7","6","5","4","3","4","5","2","3","6","5","4","1","4","3","6","4","2","4","3","5","4","3","3","3","3","6","3","6","5","4","5","6","6","6","7","7","2","5","3","6","3","6","766337469301133313","祁","272","Female","[""坏我"",""好她"",""好我"",""坏她""]","[""弱我"",""强她"",""强我"",""弱她""]","","","","","","","","match","","","","","","","","","","key","f","16.6660344827587","640","356","f","true","match","img/pentagon.png","好我","好我","ALT2","moral","","","","","","","","",""
"null","<span style='color:GreenYellow; font-size: 70px;'>正确! </span>","null","html-keyboard-response","135","458517","0.0-8.0-0.0-4.0-0.0-1.13","5","5","4","4","3","4","2","3","4","4","4","0","-1","-1","-2","0","1","1","1","5","4","4","3","4","4","3","3","4","3","6","7","5","7","4","6","6","7","6","5","4","3","4","5","2","3","6","5","4","1","4","3","6","4","2","4","3","5","4","3","3","3","3","6","3","6","5","4","5","6","6","6","7","7","2","5","3","6","3","6","766337469301133313","祁","272","Female","[""坏我"",""好她"",""好我"",""坏她""]","[""弱我"",""强她"",""强我"",""弱她""]","","","","","","","","","","","","","","","","","","","","","","","","","","","","","","feedback_test","","","","","","","","",""
"652","","f","psychophysics","136","460170","0.0-8.0-0.0-4.0-0.0-0.14","5","5","4","4","3","4","2","3","4","4","4","0","-1","-1","-2","0","1","1","1","5","4","4","3","4","4","3","3","4","3","6","7","5","7","4","6","6","7","6","5","4","3","4","5","2","3","6","5","4","1","4","3","6","4","2","4","3","5","4","3","3","3","3","6","3","6","5","4","5","6","6","6","7","7","2","5","3","6","3","6","766337469301133313","祁","272","Female","[""坏我"",""好她"",""好我"",""坏她""]","[""弱我"",""强她"",""强我"",""弱她""]","","","","","","","","match","","","","","","","","","","key","f","16.66825510204083","640","356","f","true","match","img/ellipse.png","好她","好她","ALT2","moral","","","","","","","","",""
"null","<span style='color:GreenYellow; font-size: 70px;'>正确! </span>","null","html-keyboard-response","137","460671","0.0-8.0-0.0-4.0-0.0-1.14","5","5","4","4","3","4","2","3","4","4","4","0","-1","-1","-2","0","1","1","1","5","4","4","3","4","4","3","3","4","3","6","7","5","7","4","6","6","7","6","5","4","3","4","5","2","3","6","5","4","1","4","3","6","4","2","4","3","5","4","3","3","3","3","6","3","6","5","4","5","6","6","6","7","7","2","5","3","6","3","6","766337469301133313","祁","272","Female","[""坏我"",""好她"",""好我"",""坏她""]","[""弱我"",""强她"",""强我"",""弱她""]","","","","","","","","","","","","","","","","","","","","","","","","","","","","","","feedback_test","","","","","","","","",""
