"rt","stimulus","response","trial_type","trial_index","time_elapsed","internal_node_id","swb_1","swb_2","swb_3","swb_4","swb_5","LOT_1","LOT_2","LOT_3","LOT_4","LOT_5","LOT_6","IPC_1","IPC_2","IPC_3","IPC_4","IPC_5","IPC_6","IPC_7","IPC_8","MorIden_1","MorIden_2","MorIden_3","MorIden_4","MorIden_5","MorIden_6","MorIden_7","MorIden_8","MorIden_9","MorIden_10","moralSeImag_1","moralSeImag_2","moralSeImag_3","moralSeImag_4","moralSeImag_5","moralSeImag_6","moralSeImag_7","moralSeImag_8","moralSeImag_9","sde_1","sde_2","sde_3","sde_4","sde_5","sde_6","sde_7","sde_8","sde_9","sde_10","trap2","sde_11","sde_12","sde_13","sde_14","sde_15","sde_16","sde_17","sde_18","sde_19","sde_20","IM_1","IM_2","IM_3","IM_4","IM_5","IM_6","IM_7","IM_8","IM_9","IM_10","IM_11","IM_12","IM_13","IM_14","IM_15","IM_16","IM_17","IM_18","IM_19","IM_20","subj_idx","friend_name","ParticipantID","Sex","Word","Word2","value","success","timeout","failed_images","failed_audio","failed_video","user_agent","responses","item_order","radio_event_ids","radio_event_times","key_event_times","mouse_event_times","straightlining","zigzagging","honeypot","task_id","screen_id","time_stamp","response_type","key_press","avg_frame_time","center_x","center_y","person","word","valence","domain","math","correct_response","correct","status","view_history","identity","duration","Image","condition","question_order","trap2_item"
"30710","
   <p><div style='color:white; font-size: 25px'>您好，欢迎参加本次实验。</div></p>
   <p><div style='color:white; font-size: 25px'>为充分保障您的权利，请确保您已经知晓并同意《参与实验同意书》以及《数据公开知情同意书》。</div></p>
   <p><div style='color:white; font-size: 25px'>如果您未见过上述内容，请咨询实验员。</div></p>
   <p style='color:white; font-size: 25px'>如果您选择继续实验，则表示您已经清楚两份知情同意书的内容并同意。</p>
   <p><div style = ""color: pink;font-size:30px;"">请确保您记得day0的实验编号，您将在本次实验输入该编号，若您忘记，请咨询实验员后作答。</div></p>
   <p><div style = ""color:lightblue;font-size:25px;"">请您尽可能认真地作答，我们将依据您在各问卷和按键任务中的作答质量发放报酬。</div></p>
   <p> <div style = ""color: green""><按空格键至下页></div> </p>
   "," ","html-keyboard-response","0","30716","0.0-0.0","5","5","6","5","5","5","4","4","4","4","4","0","1","-2","1","0","0","1","0","5","5","4","4","4","4","5","4","4","5","6","8","5","7","6","3","5","6","6","5","2","3","2","2","2","3","5","5","5","1","3","2","5","3","2","5","3","6","3","2","3","3","2","3","3","3","2","3","6","5","7","5","5","3","3","6","3","3","3","5","715186425389121536","G","312","Female","[""好我"",""坏我"",""好她"",""坏她""]","[""强我"",""弱我"",""强她"",""弱她""]","","","","","","","","","","","","","","","","","","","","","","","","","","","","","","","","","","","","","","",""
"","","","call-function","1","30722","0.0-1.0-0.0","5","5","6","5","5","5","4","4","4","4","4","0","1","-2","1","0","0","1","0","5","5","4","4","4","4","5","4","4","5","6","8","5","7","6","3","5","6","6","5","2","3","2","2","2","3","5","5","5","1","3","2","5","3","2","5","3","6","3","2","3","3","2","3","3","3","2","3","6","5","7","5","5","3","3","6","3","3","3","5","715186425389121536","G","312","Female","[""好我"",""坏我"",""好她"",""坏她""]","[""强我"",""弱我"",""强她"",""弱她""]","","","","","","","","","","","","","","","","","","","","","","","","","","","","","","","","","","","","","","",""
"31612","","[{""name"":""Sex"",""value"":""1""},{""name"":""friend_name"",""value"":""G""},{""name"":""ParticipantID"",""value"":""312""}]","survey-html-form","2","62336","0.0-1.0-1.0","5","5","6","5","5","5","4","4","4","4","4","0","1","-2","1","0","0","1","0","5","5","4","4","4","4","5","4","4","5","6","8","5","7","6","3","5","6","6","5","2","3","2","2","2","3","5","5","5","1","3","2","5","3","2","5","3","6","3","2","3","3","2","3","3","3","2","3","6","5","7","5","5","3","3","6","3","3","3","5","715186425389121536","G","312","Female","[""好我"",""坏我"",""好她"",""坏她""]","[""强我"",""弱我"",""强她"",""弱她""]","","","","","","","","","","","","","","","","","","","","","","","","","","","","","","","","","","","","","","",""
"","","","preload","3","63009","0.0-2.0","5","5","6","5","5","5","4","4","4","4","4","0","1","-2","1","0","0","1","0","5","5","4","4","4","4","5","4","4","5","6","8","5","7","6","3","5","6","6","5","2","3","2","2","2","3","5","5","5","1","3","2","5","3","2","5","3","6","3","2","3","3","2","3","3","3","2","3","6","5","7","5","5","3","3","6","3","3","3","5","715186425389121536","G","312","Female","[""好我"",""坏我"",""好她"",""坏她""]","[""强我"",""弱我"",""强她"",""弱她""]","","true","false","[]","[]","[]","","","","","","","","","","","","","","","","","","","","","","","","","","","","","","","","",""
"","","","fullscreen","4","67688","0.0-3.0","5","5","6","5","5","5","4","4","4","4","4","0","1","-2","1","0","0","1","0","5","5","4","4","4","4","5","4","4","5","6","8","5","7","6","3","5","6","6","5","2","3","2","2","2","3","5","5","5","1","3","2","5","3","2","5","3","6","3","2","3","3","2","3","3","3","2","3","6","5","7","5","5","3","3","6","3","3","3","5","715186425389121536","G","312","Female","[""好我"",""坏我"",""好她"",""坏她""]","[""强我"",""弱我"",""强她"",""弱她""]","","true","","","","","{}","","","","","","","","","","","","","","","","","","","","","","","","","","","","","","","",""
"15251.299999999814","","{""Q01"":""5"",""Q02"":""5"",""Q03"":""6"",""Q04"":""5"",""Q05"":""5""}","survey-template","5","82943","0.0-4.0","5","5","6","5","5","5","4","4","4","4","4","0","1","-2","1","0","0","1","0","5","5","4","4","4","4","5","4","4","5","6","8","5","7","6","3","5","6","6","5","2","3","2","2","2","3","5","5","5","1","3","2","5","3","2","5","3","6","3","2","3","3","2","3","3","3","2","3","6","5","7","5","5","3","3","6","3","3","3","5","715186425389121536","G","312","Female","[""好我"",""坏我"",""好她"",""坏她""]","[""强我"",""弱我"",""强她"",""弱她""]","","","","","","","","{""Q01"":""5"",""Q02"":""5"",""Q03"":""6"",""Q04"":""5"",""Q05"":""5""}","[0,1,2,3,4]","[""Q01"",""Q02"",""Q03"",""Q04"",""Q05""]","[4022.0999999996275,6270.0999999996275,7873.0999999996275,8671.899999999441,10664]","[]","[4022.0999999996275,6270.0999999996275,7873.0999999996275,8671.899999999441,10664,15249.799999999814]","0.8","0.5","0","","","","","","","","","","","","","","","","","","","","","","",""
"20865.5","","{""Q01"":""5"",""Q02"":""4"",""Q03"":""4"",""Q04"":""4"",""Q05"":""4"",""Q06"":""4""}","survey-template","6","103814","0.0-5.0","5","5","6","5","5","5","4","4","4","4","4","0","1","-2","1","0","0","1","0","5","5","4","4","4","4","5","4","4","5","6","8","5","7","6","3","5","6","6","5","2","3","2","2","2","3","5","5","5","1","3","2","5","3","2","5","3","6","3","2","3","3","2","3","3","3","2","3","6","5","7","5","5","3","3","6","3","3","3","5","715186425389121536","G","312","Female","[""好我"",""坏我"",""好她"",""坏她""]","[""强我"",""弱我"",""强她"",""弱她""]","","","","","","","","{""Q01"":""5"",""Q02"":""4"",""Q03"":""4"",""Q04"":""4"",""Q05"":""4"",""Q06"":""4""}","[0,1,2,3,4,5]","[""Q01"",""Q02"",""Q03"",""Q06"",""Q05"",""Q04""]","[2732.5,5724.5999999996275,7194.299999999814,15632.400000000373,16864.299999999814,17404.299999999814]","[]","[2732.5,5724.5999999996275,7194.299999999814,15632.400000000373,16864.299999999814,17404.299999999814,20864.299999999814]","0.5","0","0","","","","","","","","","","","","","","","","","","","","","","",""
"19536.5","","{""Q01"":""0"",""Q02"":""1"",""Q03"":""-2"",""Q04"":""1"",""Q05"":""0"",""Q06"":""0"",""Q07"":""1"",""Q08"":""0""}","survey-template","7","123357","0.0-6.0","5","5","6","5","5","5","4","4","4","4","4","0","1","-2","1","0","0","1","0","5","5","4","4","4","4","5","4","4","5","6","8","5","7","6","3","5","6","6","5","2","3","2","2","2","3","5","5","5","1","3","2","5","3","2","5","3","6","3","2","3","3","2","3","3","3","2","3","6","5","7","5","5","3","3","6","3","3","3","5","715186425389121536","G","312","Female","[""好我"",""坏我"",""好她"",""坏她""]","[""强我"",""弱我"",""强她"",""弱她""]","","","","","","","","{""Q01"":""0"",""Q02"":""1"",""Q03"":""-2"",""Q04"":""1"",""Q05"":""0"",""Q06"":""0"",""Q07"":""1"",""Q08"":""0""}","[0,1,2,3,4,5,6,7]","[""Q01"",""Q02"",""Q03"",""Q04"",""Q05"",""Q06"",""Q07"",""Q08""]","[2942.800000000745,7367.200000000186,9460.600000000559,12844.700000000186,15540.700000000186,16466.5,17794.700000000186,18682.60000000056]","[]","[2942.800000000745,7367.200000000186,9460.600000000559,12844.700000000186,13972.800000000745,15540.700000000186,16466.5,17794.700000000186,18682.60000000056,19534.800000000745]","0.5","0.5714285714285714","0","","","","","","","","","","","","","","","","","","","","","","",""
"11856","
    <p><div style='color:white;font-size:35px; line-height:20px;'>词汇评估任务</div></p><br>
    <p><div style='color:white;font-size:25px; line-height:20px;'>请再次回忆该亲密的朋友，你们至少2年前就认识了，并且最近2年经常见面。</div></p>
    <p><div style='color:white;font-size:25px; line-height:20px;'>在本实验中，您将会看到一些形容词。</div></p>
    <p><div style='color:yellow;font-size:25px; line-height:20px;'>您的任务是判断这些形容词是否符合对您自己或您的朋友的描述。</div></p><p style='font-size:35px'>符合按<span style=""color:lightgreen""> f 键</span>，不符合按<span style=""color:red""> j 键</span></p>","0","html-button-response","8","135219","0.0-7.0-0.0","5","5","6","5","5","5","4","4","4","4","4","0","1","-2","1","0","0","1","0","5","5","4","4","4","4","5","4","4","5","6","8","5","7","6","3","5","6","6","5","2","3","2","2","2","3","5","5","5","1","3","2","5","3","2","5","3","6","3","2","3","3","2","3","3","3","2","3","6","5","7","5","5","3","3","6","3","3","3","5","715186425389121536","G","312","Female","[""好我"",""坏我"",""好她"",""坏她""]","[""强我"",""弱我"",""强她"",""弱她""]","","","","","","","","","","","","","","","","","SRET_EW","EW_instructions","Sun Dec 10 2023 21:40:43 GMT+0800 (中国标准时间)","","","","","","","","","","","","","","","","","","","",""
"null","","null","psychophysics","9","138227","0.0-7.0-1.0-0.0","5","5","6","5","5","5","4","4","4","4","4","0","1","-2","1","0","0","1","0","5","5","4","4","4","4","5","4","4","5","6","8","5","7","6","3","5","6","6","5","2","3","2","2","2","3","5","5","5","1","3","2","5","3","2","5","3","6","3","2","3","3","2","3","3","3","2","3","6","5","7","5","5","3","3","6","3","3","3","5","715186425389121536","G","312","Female","[""好我"",""坏我"",""好她"",""坏她""]","[""强我"",""弱我"",""强她"",""弱她""]","","","","","","","","","","","","","","","","","SRET_EW","EW_practice","","key","null","6.993348130841101","768","428","自己","刻板","Negative","ability","","","","","","","","","","",""
"1345","","f","psychophysics","10","140578","0.0-7.0-1.0-0.1","5","5","6","5","5","5","4","4","4","4","4","0","1","-2","1","0","0","1","0","5","5","4","4","4","4","5","4","4","5","6","8","5","7","6","3","5","6","6","5","2","3","2","2","2","3","5","5","5","1","3","2","5","3","2","5","3","6","3","2","3","3","2","3","3","3","2","3","6","5","7","5","5","3","3","6","3","3","3","5","715186425389121536","G","312","Female","[""好我"",""坏我"",""好她"",""坏她""]","[""强我"",""弱我"",""强她"",""弱她""]","","","","","","","","yes","","","","","","","","","SRET_EW","EW_practice","","key","f","6.944562130177565","768","428","朋友","忠实","Positive","morality","","","","","","","","","","",""
"1371","","j","psychophysics","11","142951","0.0-7.0-1.0-0.2","5","5","6","5","5","5","4","4","4","4","4","0","1","-2","1","0","0","1","0","5","5","4","4","4","4","5","4","4","5","6","8","5","7","6","3","5","6","6","5","2","3","2","2","2","3","5","5","5","1","3","2","5","3","2","5","3","6","3","2","3","3","2","3","3","3","2","3","6","5","7","5","5","3","3","6","3","3","3","5","715186425389121536","G","312","Female","[""好我"",""坏我"",""好她"",""坏她""]","[""强我"",""弱我"",""强她"",""弱她""]","","","","","","","","no","","","","","","","","","SRET_EW","EW_practice","","key","j","6.944662756598254","768","428","朋友","徇私","Negative","morality","","","","","","","","","","",""
"915","","f","psychophysics","12","144871","0.0-7.0-1.0-0.3","5","5","6","5","5","5","4","4","4","4","4","0","1","-2","1","0","0","1","0","5","5","4","4","4","4","5","4","4","5","6","8","5","7","6","3","5","6","6","5","2","3","2","2","2","3","5","5","5","1","3","2","5","3","2","5","3","6","3","2","3","3","2","3","3","3","2","3","6","5","7","5","5","3","3","6","3","3","3","5","715186425389121536","G","312","Female","[""好我"",""坏我"",""好她"",""坏她""]","[""强我"",""弱我"",""强她"",""弱她""]","","","","","","","","yes","","","","","","","","","SRET_EW","EW_practice","","key","f","6.9444654545454645","768","428","自己","严谨","Positive","ability","","","","","","","","","","",""
"13924","
    <p><div style='color:white;font-size:35px; line-height:20px;'>请您再次阅读实验要求</div></p><br>
    <p><div style='color:white;font-size:25px; line-height:20px;'>请回忆某一个亲密的朋友，你们至少2年前就认识了，并且最近2年经常见面。</div></p>
    <p><div style='color:white;font-size:25px; line-height:20px;'>在本实验中，您将会看到一些形容词。</div></p>
    <p><div style='color:yellow;font-size:25px; line-height:20px;'>您的任务是判断这些形容词是否符合对您自己或您的朋友的描述。</div></p>
    <p><div class='footer' style='font-size:25px; line-height:20px;'>如果对本实验还有不清楚之处，请立即向实验员咨询。</p><p style='font-size:25px; line-height:20px;'>如果您明白了规则：</p><p style='font-size:22px; line-height:20px;'>请按 继续 进入正式实验</p>
    </div>
    <p style='font-size:35px'>符合按<span style=""color:lightgreen""> f 键</span>，不符合按<span style=""color:red""> j 键</span></p>","0","html-button-response","13","158797","0.0-7.0-2.0","5","5","6","5","5","5","4","4","4","4","4","0","1","-2","1","0","0","1","0","5","5","4","4","4","4","5","4","4","5","6","8","5","7","6","3","5","6","6","5","2","3","2","2","2","3","5","5","5","1","3","2","5","3","2","5","3","6","3","2","3","3","2","3","3","3","2","3","6","5","7","5","5","3","3","6","3","3","3","5","715186425389121536","G","312","Female","[""好我"",""坏我"",""好她"",""坏她""]","[""强我"",""弱我"",""强她"",""弱她""]","","","","","","","","","","","","","","","","","SRET_EW","prac_instructions","Sun Dec 10 2023 21:40:43 GMT+0800 (中国标准时间)","","","","","","","","","","","","","","","","","","","",""
"1131","","j","psychophysics","14","160934","0.0-7.0-3.0-0.0","5","5","6","5","5","5","4","4","4","4","4","0","1","-2","1","0","0","1","0","5","5","4","4","4","4","5","4","4","5","6","8","5","7","6","3","5","6","6","5","2","3","2","2","2","3","5","5","5","1","3","2","5","3","2","5","3","6","3","2","3","3","2","3","3","3","2","3","6","5","7","5","5","3","3","6","3","3","3","5","715186425389121536","G","312","Female","[""好我"",""坏我"",""好她"",""坏她""]","[""强我"",""弱我"",""强她"",""弱她""]","","","","","","","","no","","","","","","","","","SRET","EW_formal","","key","j","6.944794788273698","768","428","自己","说谎","Negative","morality","","","","","","","","","","",""
"1165","","f","psychophysics","15","163103","0.0-7.0-3.0-0.1","5","5","6","5","5","5","4","4","4","4","4","0","1","-2","1","0","0","1","0","5","5","4","4","4","4","5","4","4","5","6","8","5","7","6","3","5","6","6","5","2","3","2","2","2","3","5","5","5","1","3","2","5","3","2","5","3","6","3","2","3","3","2","3","3","3","2","3","6","5","7","5","5","3","3","6","3","3","3","5","715186425389121536","G","312","Female","[""好我"",""坏我"",""好她"",""坏她""]","[""强我"",""弱我"",""强她"",""弱她""]","","","","","","","","yes","","","","","","","","","SRET","EW_formal","","key","f","6.944527331189686","768","428","朋友","务实","Positive","ability","","","","","","","","","","",""
"985","","j","psychophysics","16","165094","0.0-7.0-3.0-0.2","5","5","6","5","5","5","4","4","4","4","4","0","1","-2","1","0","0","1","0","5","5","4","4","4","4","5","4","4","5","6","8","5","7","6","3","5","6","6","5","2","3","2","2","2","3","5","5","5","1","3","2","5","3","2","5","3","6","3","2","3","3","2","3","3","3","2","3","6","5","7","5","5","3","3","6","3","3","3","5","715186425389121536","G","312","Female","[""好我"",""坏我"",""好她"",""坏她""]","[""强我"",""弱我"",""强她"",""弱她""]","","","","","","","","no","","","","","","","","","SRET","EW_formal","","key","j","7.042833333333326","768","428","朋友","迷糊","Negative","ability","","","","","","","","","","",""
"1008","","f","psychophysics","17","167105","0.0-7.0-3.0-0.3","5","5","6","5","5","5","4","4","4","4","4","0","1","-2","1","0","0","1","0","5","5","4","4","4","4","5","4","4","5","6","8","5","7","6","3","5","6","6","5","2","3","2","2","2","3","5","5","5","1","3","2","5","3","2","5","3","6","3","2","3","3","2","3","3","3","2","3","6","5","7","5","5","3","3","6","3","3","3","5","715186425389121536","G","312","Female","[""好我"",""坏我"",""好她"",""坏她""]","[""强我"",""弱我"",""强她"",""弱她""]","","","","","","","","yes","","","","","","","","","SRET","EW_formal","","key","f","6.9444844290657635","768","428","自己","坚贞","Positive","morality","","","","","","","","","","",""
"763","","f","psychophysics","18","168873","0.0-7.0-3.0-0.4","5","5","6","5","5","5","4","4","4","4","4","0","1","-2","1","0","0","1","0","5","5","4","4","4","4","5","4","4","5","6","8","5","7","6","3","5","6","6","5","2","3","2","2","2","3","5","5","5","1","3","2","5","3","2","5","3","6","3","2","3","3","2","3","3","3","2","3","6","5","7","5","5","3","3","6","3","3","3","5","715186425389121536","G","312","Female","[""好我"",""坏我"",""好她"",""坏她""]","[""强我"",""弱我"",""强她"",""弱她""]","","","","","","","","yes","","","","","","","","","SRET","EW_formal","","key","f","6.944632411067187","768","428","自己","坚持","Positive","ability","","","","","","","","","","",""
"797","","j","psychophysics","19","170681","0.0-7.0-3.0-0.5","5","5","6","5","5","5","4","4","4","4","4","0","1","-2","1","0","0","1","0","5","5","4","4","4","4","5","4","4","5","6","8","5","7","6","3","5","6","6","5","2","3","2","2","2","3","5","5","5","1","3","2","5","3","2","5","3","6","3","2","3","3","2","3","3","3","2","3","6","5","7","5","5","3","3","6","3","3","3","5","715186425389121536","G","312","Female","[""好我"",""坏我"",""好她"",""坏她""]","[""强我"",""弱我"",""强她"",""弱她""]","","","","","","","","no","","","","","","","","","SRET","EW_formal","","key","j","6.944549999999939","768","428","自己","罪恶","Negative","morality","","","","","","","","","","",""
"1651","","f","psychophysics","20","173336","0.0-7.0-3.0-0.6","5","5","6","5","5","5","4","4","4","4","4","0","1","-2","1","0","0","1","0","5","5","4","4","4","4","5","4","4","5","6","8","5","7","6","3","5","6","6","5","2","3","2","2","2","3","5","5","5","1","3","2","5","3","2","5","3","6","3","2","3","3","2","3","3","3","2","3","6","5","7","5","5","3","3","6","3","3","3","5","715186425389121536","G","312","Female","[""好我"",""坏我"",""好她"",""坏她""]","[""强我"",""弱我"",""强她"",""弱她""]","","","","","","","","yes","","","","","","","","","SRET","EW_formal","","key","f","6.944614173228388","768","428","自己","外行","Negative","ability","","","","","","","","","","",""
"986","","f","psychophysics","21","175329","0.0-7.0-3.0-0.7","5","5","6","5","5","5","4","4","4","4","4","0","1","-2","1","0","0","1","0","5","5","4","4","4","4","5","4","4","5","6","8","5","7","6","3","5","6","6","5","2","3","2","2","2","3","5","5","5","1","3","2","5","3","2","5","3","6","3","2","3","3","2","3","3","3","2","3","6","5","7","5","5","3","3","6","3","3","3","5","715186425389121536","G","312","Female","[""好我"",""坏我"",""好她"",""坏她""]","[""强我"",""弱我"",""强她"",""弱她""]","","","","","","","","yes","","","","","","","","","SRET","EW_formal","","key","f","6.944583916083858","768","428","自己","君子","Positive","morality","","","","","","","","","","",""
"749","","j","psychophysics","22","177086","0.0-7.0-3.0-0.8","5","5","6","5","5","5","4","4","4","4","4","0","1","-2","1","0","0","1","0","5","5","4","4","4","4","5","4","4","5","6","8","5","7","6","3","5","6","6","5","2","3","2","2","2","3","5","5","5","1","3","2","5","3","2","5","3","6","3","2","3","3","2","3","3","3","2","3","6","5","7","5","5","3","3","6","3","3","3","5","715186425389121536","G","312","Female","[""好我"",""坏我"",""好她"",""坏她""]","[""强我"",""弱我"",""强她"",""弱她""]","","","","","","","","no","","","","","","","","","SRET","EW_formal","","key","j","6.944567460317528","768","428","自己","迟钝","Negative","ability","","","","","","","","","","",""
"684","","f","psychophysics","23","178772","0.0-7.0-3.0-0.9","5","5","6","5","5","5","4","4","4","4","4","0","1","-2","1","0","0","1","0","5","5","4","4","4","4","5","4","4","5","6","8","5","7","6","3","5","6","6","5","2","3","2","2","2","3","5","5","5","1","3","2","5","3","2","5","3","6","3","2","3","3","2","3","3","3","2","3","6","5","7","5","5","3","3","6","3","3","3","5","715186425389121536","G","312","Female","[""好我"",""坏我"",""好她"",""坏她""]","[""强我"",""弱我"",""强她"",""弱她""]","","","","","","","","yes","","","","","","","","","SRET","EW_formal","","key","f","7.002583333333314","768","428","自己","厚道","Positive","morality","","","","","","","","","","",""
"1073","","f","psychophysics","24","180849","0.0-7.0-3.0-0.10","5","5","6","5","5","5","4","4","4","4","4","0","1","-2","1","0","0","1","0","5","5","4","4","4","4","5","4","4","5","6","8","5","7","6","3","5","6","6","5","2","3","2","2","2","3","5","5","5","1","3","2","5","3","2","5","3","6","3","2","3","3","2","3","3","3","2","3","6","5","7","5","5","3","3","6","3","3","3","5","715186425389121536","G","312","Female","[""好我"",""坏我"",""好她"",""坏她""]","[""强我"",""弱我"",""强她"",""弱她""]","","","","","","","","yes","","","","","","","","","SRET","EW_formal","","key","f","6.944499999999937","768","428","朋友","拖延","Negative","ability","","","","","","","","","","",""
"815","","f","psychophysics","25","182667","0.0-7.0-3.0-0.11","5","5","6","5","5","5","4","4","4","4","4","0","1","-2","1","0","0","1","0","5","5","4","4","4","4","5","4","4","5","6","8","5","7","6","3","5","6","6","5","2","3","2","2","2","3","5","5","5","1","3","2","5","3","2","5","3","6","3","2","3","3","2","3","3","3","2","3","6","5","7","5","5","3","3","6","3","3","3","5","715186425389121536","G","312","Female","[""好我"",""坏我"",""好她"",""坏她""]","[""强我"",""弱我"",""强她"",""弱她""]","","","","","","","","yes","","","","","","","","","SRET","EW_formal","","key","f","6.944666666666628","768","428","朋友","礼貌","Positive","morality","","","","","","","","","","",""
"1010","","f","psychophysics","26","184681","0.0-7.0-3.0-0.12","5","5","6","5","5","5","4","4","4","4","4","0","1","-2","1","0","0","1","0","5","5","4","4","4","4","5","4","4","5","6","8","5","7","6","3","5","6","6","5","2","3","2","2","2","3","5","5","5","1","3","2","5","3","2","5","3","6","3","2","3","3","2","3","3","3","2","3","6","5","7","5","5","3","3","6","3","3","3","5","715186425389121536","G","312","Female","[""好我"",""坏我"",""好她"",""坏她""]","[""强我"",""弱我"",""强她"",""弱她""]","","","","","","","","yes","","","","","","","","","SRET","EW_formal","","key","f","6.944740484429062","768","428","自己","诚信","Positive","morality","","","","","","","","","","",""
"736","","j","psychophysics","27","186421","0.0-7.0-3.0-0.13","5","5","6","5","5","5","4","4","4","4","4","0","1","-2","1","0","0","1","0","5","5","4","4","4","4","5","4","4","5","6","8","5","7","6","3","5","6","6","5","2","3","2","2","2","3","5","5","5","1","3","2","5","3","2","5","3","6","3","2","3","3","2","3","3","3","2","3","6","5","7","5","5","3","3","6","3","3","3","5","715186425389121536","G","312","Female","[""好我"",""坏我"",""好她"",""坏她""]","[""强我"",""弱我"",""强她"",""弱她""]","","","","","","","","no","","","","","","","","","SRET","EW_formal","","key","j","6.9445983935743625","768","428","自己","不良","Negative","morality","","","","","","","","","","",""
"848","","j","psychophysics","28","188274","0.0-7.0-3.0-0.14","5","5","6","5","5","5","4","4","4","4","4","0","1","-2","1","0","0","1","0","5","5","4","4","4","4","5","4","4","5","6","8","5","7","6","3","5","6","6","5","2","3","2","2","2","3","5","5","5","1","3","2","5","3","2","5","3","6","3","2","3","3","2","3","3","3","2","3","6","5","7","5","5","3","3","6","3","3","3","5","715186425389121536","G","312","Female","[""好我"",""坏我"",""好她"",""坏她""]","[""强我"",""弱我"",""强她"",""弱她""]","","","","","","","","no","","","","","","","","","SRET","EW_formal","","key","j","6.944635338345924","768","428","自己","无耻","Negative","morality","","","","","","","","","","",""
"945","","f","psychophysics","29","190225","0.0-7.0-3.0-0.15","5","5","6","5","5","5","4","4","4","4","4","0","1","-2","1","0","0","1","0","5","5","4","4","4","4","5","4","4","5","6","8","5","7","6","3","5","6","6","5","2","3","2","2","2","3","5","5","5","1","3","2","5","3","2","5","3","6","3","2","3","3","2","3","3","3","2","3","6","5","7","5","5","3","3","6","3","3","3","5","715186425389121536","G","312","Female","[""好我"",""坏我"",""好她"",""坏她""]","[""强我"",""弱我"",""强她"",""弱她""]","","","","","","","","yes","","","","","","","","","SRET","EW_formal","","key","f","6.94465357142856","768","428","朋友","精干","Positive","ability","","","","","","","","","","",""
"1045","","j","psychophysics","30","192273","0.0-7.0-3.0-0.16","5","5","6","5","5","5","4","4","4","4","4","0","1","-2","1","0","0","1","0","5","5","4","4","4","4","5","4","4","5","6","8","5","7","6","3","5","6","6","5","2","3","2","2","2","3","5","5","5","1","3","2","5","3","2","5","3","6","3","2","3","3","2","3","3","3","2","3","6","5","7","5","5","3","3","6","3","3","3","5","715186425389121536","G","312","Female","[""好我"",""坏我"",""好她"",""坏她""]","[""强我"",""弱我"",""强她"",""弱她""]","","","","","","","","no","","","","","","","","","SRET","EW_formal","","key","j","6.944510204081688","768","428","朋友","愚钝","Negative","ability","","","","","","","","","","",""
"null","","null","psychophysics","31","195279","0.0-7.0-3.0-0.17","5","5","6","5","5","5","4","4","4","4","4","0","1","-2","1","0","0","1","0","5","5","4","4","4","4","5","4","4","5","6","8","5","7","6","3","5","6","6","5","2","3","2","2","2","3","5","5","5","1","3","2","5","3","2","5","3","6","3","2","3","3","2","3","3","3","2","3","6","5","7","5","5","3","3","6","3","3","3","5","715186425389121536","G","312","Female","[""好我"",""坏我"",""好她"",""坏她""]","[""强我"",""弱我"",""强她"",""弱她""]","","","","","","","","","","","","","","","","","SRET","EW_formal","","key","null","6.944583333333328","768","428","自己","无知","Negative","ability","","","","","","","","","","",""
"1034","","j","psychophysics","32","197315","0.0-7.0-3.0-0.18","5","5","6","5","5","5","4","4","4","4","4","0","1","-2","1","0","0","1","0","5","5","4","4","4","4","5","4","4","5","6","8","5","7","6","3","5","6","6","5","2","3","2","2","2","3","5","5","5","1","3","2","5","3","2","5","3","6","3","2","3","3","2","3","3","3","2","3","6","5","7","5","5","3","3","6","3","3","3","5","715186425389121536","G","312","Female","[""好我"",""坏我"",""好她"",""坏她""]","[""强我"",""弱我"",""强她"",""弱她""]","","","","","","","","no","","","","","","","","","SRET","EW_formal","","key","j","6.944647260273971","768","428","朋友","逞能","Negative","ability","","","","","","","","","","",""
"621","","f","psychophysics","33","198939","0.0-7.0-3.0-0.19","5","5","6","5","5","5","4","4","4","4","4","0","1","-2","1","0","0","1","0","5","5","4","4","4","4","5","4","4","5","6","8","5","7","6","3","5","6","6","5","2","3","2","2","2","3","5","5","5","1","3","2","5","3","2","5","3","6","3","2","3","3","2","3","3","3","2","3","6","5","7","5","5","3","3","6","3","3","3","5","715186425389121536","G","312","Female","[""好我"",""坏我"",""好她"",""坏她""]","[""强我"",""弱我"",""强她"",""弱她""]","","","","","","","","yes","","","","","","","","","SRET","EW_formal","","key","f","6.944721030042898","768","428","自己","慷慨","Positive","morality","","","","","","","","","","",""
"632","","j","psychophysics","34","200574","0.0-7.0-3.0-0.20","5","5","6","5","5","5","4","4","4","4","4","0","1","-2","1","0","0","1","0","5","5","4","4","4","4","5","4","4","5","6","8","5","7","6","3","5","6","6","5","2","3","2","2","2","3","5","5","5","1","3","2","5","3","2","5","3","6","3","2","3","3","2","3","3","3","2","3","6","5","7","5","5","3","3","6","3","3","3","5","715186425389121536","G","312","Female","[""好我"",""坏我"",""好她"",""坏她""]","[""强我"",""弱我"",""强她"",""弱她""]","","","","","","","","no","","","","","","","","","SRET","EW_formal","","key","j","6.944705128205072","768","428","自己","奸诈","Negative","morality","","","","","","","","","","",""
"1320","","f","psychophysics","35","202899","0.0-7.0-3.0-0.21","5","5","6","5","5","5","4","4","4","4","4","0","1","-2","1","0","0","1","0","5","5","4","4","4","4","5","4","4","5","6","8","5","7","6","3","5","6","6","5","2","3","2","2","2","3","5","5","5","1","3","2","5","3","2","5","3","6","3","2","3","3","2","3","3","3","2","3","6","5","7","5","5","3","3","6","3","3","3","5","715186425389121536","G","312","Female","[""好我"",""坏我"",""好她"",""坏她""]","[""强我"",""弱我"",""强她"",""弱她""]","","","","","","","","yes","","","","","","","","","SRET","EW_formal","","key","f","6.944709580838311","768","428","朋友","忠勇","Positive","morality","","","","","","","","","","",""
"698","","f","psychophysics","36","204599","0.0-7.0-3.0-0.22","5","5","6","5","5","5","4","4","4","4","4","0","1","-2","1","0","0","1","0","5","5","4","4","4","4","5","4","4","5","6","8","5","7","6","3","5","6","6","5","2","3","2","2","2","3","5","5","5","1","3","2","5","3","2","5","3","6","3","2","3","3","2","3","3","3","2","3","6","5","7","5","5","3","3","6","3","3","3","5","715186425389121536","G","312","Female","[""好我"",""坏我"",""好她"",""坏她""]","[""强我"",""弱我"",""强她"",""弱她""]","","","","","","","","yes","","","","","","","","","SRET","EW_formal","","key","f","6.9445901639343495","768","428","自己","聪明","Positive","ability","","","","","","","","","","",""
"632","","f","psychophysics","37","206234","0.0-7.0-3.0-0.23","5","5","6","5","5","5","4","4","4","4","4","0","1","-2","1","0","0","1","0","5","5","4","4","4","4","5","4","4","5","6","8","5","7","6","3","5","6","6","5","2","3","2","2","2","3","5","5","5","1","3","2","5","3","2","5","3","6","3","2","3","3","2","3","3","3","2","3","6","5","7","5","5","3","3","6","3","3","3","5","715186425389121536","G","312","Female","[""好我"",""坏我"",""好她"",""坏她""]","[""强我"",""弱我"",""强她"",""弱她""]","","","","","","","","yes","","","","","","","","","SRET","EW_formal","","key","f","6.944615384615419","768","428","自己","孝顺","Positive","morality","","","","","","","","","","",""
"1317","","j","psychophysics","38","208557","0.0-7.0-3.0-0.24","5","5","6","5","5","5","4","4","4","4","4","0","1","-2","1","0","0","1","0","5","5","4","4","4","4","5","4","4","5","6","8","5","7","6","3","5","6","6","5","2","3","2","2","2","3","5","5","5","1","3","2","5","3","2","5","3","6","3","2","3","3","2","3","3","3","2","3","6","5","7","5","5","3","3","6","3","3","3","5","715186425389121536","G","312","Female","[""好我"",""坏我"",""好她"",""坏她""]","[""强我"",""弱我"",""强她"",""弱她""]","","","","","","","","no","","","","","","","","","SRET","EW_formal","","key","j","6.944616766467002","768","428","朋友","稳健","Positive","ability","","","","","","","","","","",""
"826","","f","psychophysics","39","210387","0.0-7.0-3.0-0.25","5","5","6","5","5","5","4","4","4","4","4","0","1","-2","1","0","0","1","0","5","5","4","4","4","4","5","4","4","5","6","8","5","7","6","3","5","6","6","5","2","3","2","2","2","3","5","5","5","1","3","2","5","3","2","5","3","6","3","2","3","3","2","3","3","3","2","3","6","5","7","5","5","3","3","6","3","3","3","5","715186425389121536","G","312","Female","[""好我"",""坏我"",""好她"",""坏她""]","[""强我"",""弱我"",""强她"",""弱她""]","","","","","","","","yes","","","","","","","","","SRET","EW_formal","","key","f","6.9444809160306376","768","428","朋友","博学","Positive","ability","","","","","","","","","","",""
"833","","f","psychophysics","40","212224","0.0-7.0-3.0-0.26","5","5","6","5","5","5","4","4","4","4","4","0","1","-2","1","0","0","1","0","5","5","4","4","4","4","5","4","4","5","6","8","5","7","6","3","5","6","6","5","2","3","2","2","2","3","5","5","5","1","3","2","5","3","2","5","3","6","3","2","3","3","2","3","3","3","2","3","6","5","7","5","5","3","3","6","3","3","3","5","715186425389121536","G","312","Female","[""好我"",""坏我"",""好她"",""坏她""]","[""强我"",""弱我"",""强她"",""弱她""]","","","","","","","","yes","","","","","","","","","SRET","EW_formal","","key","f","6.944465909090937","768","428","朋友","仁厚","Positive","morality","","","","","","","","","","",""
"949","","j","psychophysics","41","214176","0.0-7.0-3.0-0.27","5","5","6","5","5","5","4","4","4","4","4","0","1","-2","1","0","0","1","0","5","5","4","4","4","4","5","4","4","5","6","8","5","7","6","3","5","6","6","5","2","3","2","2","2","3","5","5","5","1","3","2","5","3","2","5","3","6","3","2","3","3","2","3","3","3","2","3","6","5","7","5","5","3","3","6","3","3","3","5","715186425389121536","G","312","Female","[""好我"",""坏我"",""好她"",""坏她""]","[""强我"",""弱我"",""强她"",""弱她""]","","","","","","","","no","","","","","","","","","SRET","EW_formal","","key","j","6.9446357142856865","768","428","自己","缺德","Negative","morality","","","","","","","","","","",""
"1051","","j","psychophysics","42","216230","0.0-7.0-3.0-0.28","5","5","6","5","5","5","4","4","4","4","4","0","1","-2","1","0","0","1","0","5","5","4","4","4","4","5","4","4","5","6","8","5","7","6","3","5","6","6","5","2","3","2","2","2","3","5","5","5","1","3","2","5","3","2","5","3","6","3","2","3","3","2","3","3","3","2","3","6","5","7","5","5","3","3","6","3","3","3","5","715186425389121536","G","312","Female","[""好我"",""坏我"",""好她"",""坏她""]","[""强我"",""弱我"",""强她"",""弱她""]","","","","","","","","no","","","","","","","","","SRET","EW_formal","","key","j","6.944532203389789","768","428","自己","无能","Negative","ability","","","","","","","","","","",""
"985","","f","psychophysics","43","218218","0.0-7.0-3.0-0.29","5","5","6","5","5","5","4","4","4","4","4","0","1","-2","1","0","0","1","0","5","5","4","4","4","4","5","4","4","5","6","8","5","7","6","3","5","6","6","5","2","3","2","2","2","3","5","5","5","1","3","2","5","3","2","5","3","6","3","2","3","3","2","3","3","3","2","3","6","5","7","5","5","3","3","6","3","3","3","5","715186425389121536","G","312","Female","[""好我"",""坏我"",""好她"",""坏她""]","[""强我"",""弱我"",""强她"",""弱她""]","","","","","","","","yes","","","","","","","","","SRET","EW_formal","","key","f","6.944673684210488","768","428","朋友","懂行","Positive","ability","","","","","","","","","","",""
"1086","","f","psychophysics","44","220307","0.0-7.0-3.0-0.30","5","5","6","5","5","5","4","4","4","4","4","0","1","-2","1","0","0","1","0","5","5","4","4","4","4","5","4","4","5","6","8","5","7","6","3","5","6","6","5","2","3","2","2","2","3","5","5","5","1","3","2","5","3","2","5","3","6","3","2","3","3","2","3","3","3","2","3","6","5","7","5","5","3","3","6","3","3","3","5","715186425389121536","G","312","Female","[""好我"",""坏我"",""好她"",""坏她""]","[""强我"",""弱我"",""强她"",""弱她""]","","","","","","","","yes","","","","","","","","","SRET","EW_formal","","key","f","6.944639999999975","768","428","自己","智慧","Positive","ability","","","","","","","","","","",""
"768","","j","psychophysics","45","222079","0.0-7.0-3.0-0.31","5","5","6","5","5","5","4","4","4","4","4","0","1","-2","1","0","0","1","0","5","5","4","4","4","4","5","4","4","5","6","8","5","7","6","3","5","6","6","5","2","3","2","2","2","3","5","5","5","1","3","2","5","3","2","5","3","6","3","2","3","3","2","3","3","3","2","3","6","5","7","5","5","3","3","6","3","3","3","5","715186425389121536","G","312","Female","[""好我"",""坏我"",""好她"",""坏她""]","[""强我"",""弱我"",""强她"",""弱她""]","","","","","","","","no","","","","","","","","","SRET","EW_formal","","key","j","6.944830708661392","768","428","朋友","阴毒","Negative","morality","","","","","","","","","","",""
"963","","j","psychophysics","46","224045","0.0-7.0-3.0-0.32","5","5","6","5","5","5","4","4","4","4","4","0","1","-2","1","0","0","1","0","5","5","4","4","4","4","5","4","4","5","6","8","5","7","6","3","5","6","6","5","2","3","2","2","2","3","5","5","5","1","3","2","5","3","2","5","3","6","3","2","3","3","2","3","3","3","2","3","6","5","7","5","5","3","3","6","3","3","3","5","715186425389121536","G","312","Female","[""好我"",""坏我"",""好她"",""坏她""]","[""强我"",""弱我"",""强她"",""弱她""]","","","","","","","","no","","","","","","","","","SRET","EW_formal","","key","j","6.944648936170224","768","428","自己","失信","Negative","morality","","","","","","","","","","",""
"751","","j","psychophysics","47","225856","0.0-7.0-3.0-0.33","5","5","6","5","5","5","4","4","4","4","4","0","1","-2","1","0","0","1","0","5","5","4","4","4","4","5","4","4","5","6","8","5","7","6","3","5","6","6","5","2","3","2","2","2","3","5","5","5","1","3","2","5","3","2","5","3","6","3","2","3","3","2","3","3","3","2","3","6","5","7","5","5","3","3","6","3","3","3","5","715186425389121536","G","312","Female","[""好我"",""坏我"",""好她"",""坏她""]","[""强我"",""弱我"",""强她"",""弱她""]","","","","","","","","no","","","","","","","","","SRET","EW_formal","","key","j","7.136675889328055","768","428","朋友","笨蛋","Negative","ability","","","","","","","","","","",""
"684","","j","psychophysics","48","227544","0.0-7.0-3.0-0.34","5","5","6","5","5","5","4","4","4","4","4","0","1","-2","1","0","0","1","0","5","5","4","4","4","4","5","4","4","5","6","8","5","7","6","3","5","6","6","5","2","3","2","2","2","3","5","5","5","1","3","2","5","3","2","5","3","6","3","2","3","3","2","3","3","3","2","3","6","5","7","5","5","3","3","6","3","3","3","5","715186425389121536","G","312","Female","[""好我"",""坏我"",""好她"",""坏她""]","[""强我"",""弱我"",""强她"",""弱她""]","","","","","","","","no","","","","","","","","","SRET","EW_formal","","key","j","6.9445495867768825","768","428","朋友","虚伪","Negative","morality","","","","","","","","","","",""
"642","","j","psychophysics","49","229189","0.0-7.0-3.0-0.35","5","5","6","5","5","5","4","4","4","4","4","0","1","-2","1","0","0","1","0","5","5","4","4","4","4","5","4","4","5","6","8","5","7","6","3","5","6","6","5","2","3","2","2","2","3","5","5","5","1","3","2","5","3","2","5","3","6","3","2","3","3","2","3","3","3","2","3","6","5","7","5","5","3","3","6","3","3","3","5","715186425389121536","G","312","Female","[""好我"",""坏我"",""好她"",""坏她""]","[""强我"",""弱我"",""强她"",""弱她""]","","","","","","","","no","","","","","","","","","SRET","EW_formal","","key","j","7.125913043478225","768","428","自己","邪恶","Negative","morality","","","","","","","","","","",""
"525","","f","psychophysics","50","230718","0.0-7.0-3.0-0.36","5","5","6","5","5","5","4","4","4","4","4","0","1","-2","1","0","0","1","0","5","5","4","4","4","4","5","4","4","5","6","8","5","7","6","3","5","6","6","5","2","3","2","2","2","3","5","5","5","1","3","2","5","3","2","5","3","6","3","2","3","3","2","3","3","3","2","3","6","5","7","5","5","3","3","6","3","3","3","5","715186425389121536","G","312","Female","[""好我"",""坏我"",""好她"",""坏她""]","[""强我"",""弱我"",""强她"",""弱她""]","","","","","","","","yes","","","","","","","","","SRET","EW_formal","","key","f","6.944940639269452","768","428","朋友","文明","Positive","morality","","","","","","","","","","",""
"856","","j","psychophysics","51","232578","0.0-7.0-3.0-0.37","5","5","6","5","5","5","4","4","4","4","4","0","1","-2","1","0","0","1","0","5","5","4","4","4","4","5","4","4","5","6","8","5","7","6","3","5","6","6","5","2","3","2","2","2","3","5","5","5","1","3","2","5","3","2","5","3","6","3","2","3","3","2","3","3","3","2","3","6","5","7","5","5","3","3","6","3","3","3","5","715186425389121536","G","312","Female","[""好我"",""坏我"",""好她"",""坏她""]","[""强我"",""弱我"",""强她"",""弱她""]","","","","","","","","no","","","","","","","","","SRET","EW_formal","","key","j","6.9446554307117125","768","428","朋友","守时","Positive","morality","","","","","","","","","","",""
"808","","f","psychophysics","52","234391","0.0-7.0-3.0-0.38","5","5","6","5","5","5","4","4","4","4","4","0","1","-2","1","0","0","1","0","5","5","4","4","4","4","5","4","4","5","6","8","5","7","6","3","5","6","6","5","2","3","2","2","2","3","5","5","5","1","3","2","5","3","2","5","3","6","3","2","3","3","2","3","3","3","2","3","6","5","7","5","5","3","3","6","3","3","3","5","715186425389121536","G","312","Female","[""好我"",""坏我"",""好她"",""坏她""]","[""强我"",""弱我"",""强她"",""弱她""]","","","","","","","","yes","","","","","","","","","SRET","EW_formal","","key","f","6.94461153846149","768","428","朋友","守信","Positive","morality","","","","","","","","","","",""
"1202","","f","psychophysics","53","236597","0.0-7.0-3.0-0.39","5","5","6","5","5","5","4","4","4","4","4","0","1","-2","1","0","0","1","0","5","5","4","4","4","4","5","4","4","5","6","8","5","7","6","3","5","6","6","5","2","3","2","2","2","3","5","5","5","1","3","2","5","3","2","5","3","6","3","2","3","3","2","3","3","3","2","3","6","5","7","5","5","3","3","6","3","3","3","5","715186425389121536","G","312","Female","[""好我"",""坏我"",""好她"",""坏她""]","[""强我"",""弱我"",""强她"",""弱她""]","","","","","","","","yes","","","","","","","","","SRET","EW_formal","","key","f","6.94470253164561","768","428","自己","廉明","Positive","morality","","","","","","","","","","",""
"1208","","f","psychophysics","54","238814","0.0-7.0-3.0-0.40","5","5","6","5","5","5","4","4","4","4","4","0","1","-2","1","0","0","1","0","5","5","4","4","4","4","5","4","4","5","6","8","5","7","6","3","5","6","6","5","2","3","2","2","2","3","5","5","5","1","3","2","5","3","2","5","3","6","3","2","3","3","2","3","3","3","2","3","6","5","7","5","5","3","3","6","3","3","3","5","715186425389121536","G","312","Female","[""好我"",""坏我"",""好她"",""坏她""]","[""强我"",""弱我"",""强她"",""弱她""]","","","","","","","","yes","","","","","","","","","SRET","EW_formal","","key","f","6.966474842767318","768","428","朋友","高效","Positive","ability","","","","","","","","","","",""
"755","","j","psychophysics","55","240573","0.0-7.0-3.0-0.41","5","5","6","5","5","5","4","4","4","4","4","0","1","-2","1","0","0","1","0","5","5","4","4","4","4","5","4","4","5","6","8","5","7","6","3","5","6","6","5","2","3","2","2","2","3","5","5","5","1","3","2","5","3","2","5","3","6","3","2","3","3","2","3","3","3","2","3","6","5","7","5","5","3","3","6","3","3","3","5","715186425389121536","G","312","Female","[""好我"",""坏我"",""好她"",""坏她""]","[""强我"",""弱我"",""强她"",""弱她""]","","","","","","","","no","","","","","","","","","SRET","EW_formal","","key","j","6.9447420634919945","768","428","朋友","伪善","Negative","morality","","","","","","","","","","",""
"588","","j","psychophysics","56","242170","0.0-7.0-3.0-0.42","5","5","6","5","5","5","4","4","4","4","4","0","1","-2","1","0","0","1","0","5","5","4","4","4","4","5","4","4","5","6","8","5","7","6","3","5","6","6","5","2","3","2","2","2","3","5","5","5","1","3","2","5","3","2","5","3","6","3","2","3","3","2","3","3","3","2","3","6","5","7","5","5","3","3","6","3","3","3","5","715186425389121536","G","312","Female","[""好我"",""坏我"",""好她"",""坏她""]","[""强我"",""弱我"",""强她"",""弱她""]","","","","","","","","no","","","","","","","","","SRET","EW_formal","","key","j","6.944663755458553","768","428","自己","小人","Negative","morality","","","","","","","","","","",""
"1060","","j","psychophysics","57","244232","0.0-7.0-3.0-0.43","5","5","6","5","5","5","4","4","4","4","4","0","1","-2","1","0","0","1","0","5","5","4","4","4","4","5","4","4","5","6","8","5","7","6","3","5","6","6","5","2","3","2","2","2","3","5","5","5","1","3","2","5","3","2","5","3","6","3","2","3","3","2","3","3","3","2","3","6","5","7","5","5","3","3","6","3","3","3","5","715186425389121536","G","312","Female","[""好我"",""坏我"",""好她"",""坏她""]","[""强我"",""弱我"",""强她"",""弱她""]","","","","","","","","no","","","","","","","","","SRET","EW_formal","","key","j","6.944702702702744","768","428","朋友","中用","Positive","ability","","","","","","","","","","",""
"880","","j","psychophysics","58","246115","0.0-7.0-3.0-0.44","5","5","6","5","5","5","4","4","4","4","4","0","1","-2","1","0","0","1","0","5","5","4","4","4","4","5","4","4","5","6","8","5","7","6","3","5","6","6","5","2","3","2","2","2","3","5","5","5","1","3","2","5","3","2","5","3","6","3","2","3","3","2","3","3","3","2","3","6","5","7","5","5","3","3","6","3","3","3","5","715186425389121536","G","312","Female","[""好我"",""坏我"",""好她"",""坏她""]","[""强我"",""弱我"",""强她"",""弱她""]","","","","","","","","no","","","","","","","","","SRET","EW_formal","","key","j","6.944740740740693","768","428","自己","刻苦","Positive","ability","","","","","","","","","","",""
"1029","","f","psychophysics","59","248156","0.0-7.0-3.0-0.45","5","5","6","5","5","5","4","4","4","4","4","0","1","-2","1","0","0","1","0","5","5","4","4","4","4","5","4","4","5","6","8","5","7","6","3","5","6","6","5","2","3","2","2","2","3","5","5","5","1","3","2","5","3","2","5","3","6","3","2","3","3","2","3","3","3","2","3","6","5","7","5","5","3","3","6","3","3","3","5","715186425389121536","G","312","Female","[""好我"",""坏我"",""好她"",""坏她""]","[""强我"",""弱我"",""强她"",""弱她""]","","","","","","","","yes","","","","","","","","","SRET","EW_formal","","key","f","6.944505119453993","768","428","自己","淡泊","Positive","morality","","","","","","","","","","",""
"712","","f","psychophysics","60","249871","0.0-7.0-3.0-0.46","5","5","6","5","5","5","4","4","4","4","4","0","1","-2","1","0","0","1","0","5","5","4","4","4","4","5","4","4","5","6","8","5","7","6","3","5","6","6","5","2","3","2","2","2","3","5","5","5","1","3","2","5","3","2","5","3","6","3","2","3","3","2","3","3","3","2","3","6","5","7","5","5","3","3","6","3","3","3","5","715186425389121536","G","312","Female","[""好我"",""坏我"",""好她"",""坏她""]","[""强我"",""弱我"",""强她"",""弱她""]","","","","","","","","yes","","","","","","","","","SRET","EW_formal","","key","f","6.944772357723536","768","428","自己","专注","Positive","ability","","","","","","","","","","",""
"1120","","f","psychophysics","61","251994","0.0-7.0-3.0-0.47","5","5","6","5","5","5","4","4","4","4","4","0","1","-2","1","0","0","1","0","5","5","4","4","4","4","5","4","4","5","6","8","5","7","6","3","5","6","6","5","2","3","2","2","2","3","5","5","5","1","3","2","5","3","2","5","3","6","3","2","3","3","2","3","3","3","2","3","6","5","7","5","5","3","3","6","3","3","3","5","715186425389121536","G","312","Female","[""好我"",""坏我"",""好她"",""坏她""]","[""强我"",""弱我"",""强她"",""弱她""]","","","","","","","","yes","","","","","","","","","SRET","EW_formal","","key","f","7.107634228187958","768","428","自己","庸碌","Negative","ability","","","","","","","","","","",""
"680","","j","psychophysics","62","253680","0.0-7.0-3.0-0.48","5","5","6","5","5","5","4","4","4","4","4","0","1","-2","1","0","0","1","0","5","5","4","4","4","4","5","4","4","5","6","8","5","7","6","3","5","6","6","5","2","3","2","2","2","3","5","5","5","1","3","2","5","3","2","5","3","6","3","2","3","3","2","3","3","3","2","3","6","5","7","5","5","3","3","6","3","3","3","5","715186425389121536","G","312","Female","[""好我"",""坏我"",""好她"",""坏她""]","[""强我"",""弱我"",""强她"",""弱她""]","","","","","","","","no","","","","","","","","","SRET","EW_formal","","key","j","7.152598290598223","768","428","朋友","腐败","Negative","morality","","","","","","","","","","",""
"1268","","f","psychophysics","63","255955","0.0-7.0-3.0-0.49","5","5","6","5","5","5","4","4","4","4","4","0","1","-2","1","0","0","1","0","5","5","4","4","4","4","5","4","4","5","6","8","5","7","6","3","5","6","6","5","2","3","2","2","2","3","5","5","5","1","3","2","5","3","2","5","3","6","3","2","3","3","2","3","3","3","2","3","6","5","7","5","5","3","3","6","3","3","3","5","715186425389121536","G","312","Female","[""好我"",""坏我"",""好她"",""坏她""]","[""强我"",""弱我"",""强她"",""弱她""]","","","","","","","","yes","","","","","","","","","SRET","EW_formal","","key","f","6.944474006116277","768","428","自己","顶事","Positive","ability","","","","","","","","","","",""
"605","","j","psychophysics","64","257563","0.0-7.0-3.0-0.50","5","5","6","5","5","5","4","4","4","4","4","0","1","-2","1","0","0","1","0","5","5","4","4","4","4","5","4","4","5","6","8","5","7","6","3","5","6","6","5","2","3","2","2","2","3","5","5","5","1","3","2","5","3","2","5","3","6","3","2","3","3","2","3","3","3","2","3","6","5","7","5","5","3","3","6","3","3","3","5","715186425389121536","G","312","Female","[""好我"",""坏我"",""好她"",""坏她""]","[""强我"",""弱我"",""强她"",""弱她""]","","","","","","","","no","","","","","","","","","SRET","EW_formal","","key","j","6.944747826087025","768","428","朋友","刻薄","Negative","morality","","","","","","","","","","",""
"1767","","f","psychophysics","65","260335","0.0-7.0-3.0-0.51","5","5","6","5","5","5","4","4","4","4","4","0","1","-2","1","0","0","1","0","5","5","4","4","4","4","5","4","4","5","6","8","5","7","6","3","5","6","6","5","2","3","2","2","2","3","5","5","5","1","3","2","5","3","2","5","3","6","3","2","3","3","2","3","3","3","2","3","6","5","7","5","5","3","3","6","3","3","3","5","715186425389121536","G","312","Female","[""好我"",""坏我"",""好她"",""坏她""]","[""强我"",""弱我"",""强她"",""弱她""]","","","","","","","","yes","","","","","","","","","SRET","EW_formal","","key","f","6.9446115288220405","768","428","朋友","有力","Positive","ability","","","","","","","","","","",""
"652","","j","psychophysics","66","261992","0.0-7.0-3.0-0.52","5","5","6","5","5","5","4","4","4","4","4","0","1","-2","1","0","0","1","0","5","5","4","4","4","4","5","4","4","5","6","8","5","7","6","3","5","6","6","5","2","3","2","2","2","3","5","5","5","1","3","2","5","3","2","5","3","6","3","2","3","3","2","3","3","3","2","3","6","5","7","5","5","3","3","6","3","3","3","5","715186425389121536","G","312","Female","[""好我"",""坏我"",""好她"",""坏她""]","[""强我"",""弱我"",""强她"",""弱她""]","","","","","","","","no","","","","","","","","","SRET","EW_formal","","key","j","6.944738396624436","768","428","朋友","短浅","Negative","ability","","","","","","","","","","",""
"711","","j","psychophysics","67","263709","0.0-7.0-3.0-0.53","5","5","6","5","5","5","4","4","4","4","4","0","1","-2","1","0","0","1","0","5","5","4","4","4","4","5","4","4","5","6","8","5","7","6","3","5","6","6","5","2","3","2","2","2","3","5","5","5","1","3","2","5","3","2","5","3","6","3","2","3","3","2","3","3","3","2","3","6","5","7","5","5","3","3","6","3","3","3","5","715186425389121536","G","312","Female","[""好我"",""坏我"",""好她"",""坏她""]","[""强我"",""弱我"",""强她"",""弱她""]","","","","","","","","no","","","","","","","","","SRET","EW_formal","","key","j","6.944577235772276","768","428","朋友","弱智","Negative","ability","","","","","","","","","","",""
"686","","f","psychophysics","68","265405","0.0-7.0-3.0-0.54","5","5","6","5","5","5","4","4","4","4","4","0","1","-2","1","0","0","1","0","5","5","4","4","4","4","5","4","4","5","6","8","5","7","6","3","5","6","6","5","2","3","2","2","2","3","5","5","5","1","3","2","5","3","2","5","3","6","3","2","3","3","2","3","3","3","2","3","6","5","7","5","5","3","3","6","3","3","3","5","715186425389121536","G","312","Female","[""好我"",""坏我"",""好她"",""坏她""]","[""强我"",""弱我"",""强她"",""弱她""]","","","","","","","","yes","","","","","","","","","SRET","EW_formal","","key","f","6.944405737704908","768","428","朋友","利落","Positive","ability","","","","","","","","","","",""
"739","","f","psychophysics","69","267148","0.0-7.0-3.0-0.55","5","5","6","5","5","5","4","4","4","4","4","0","1","-2","1","0","0","1","0","5","5","4","4","4","4","5","4","4","5","6","8","5","7","6","3","5","6","6","5","2","3","2","2","2","3","5","5","5","1","3","2","5","3","2","5","3","6","3","2","3","3","2","3","3","3","2","3","6","5","7","5","5","3","3","6","3","3","3","5","715186425389121536","G","312","Female","[""好我"",""坏我"",""好她"",""坏她""]","[""强我"",""弱我"",""强她"",""弱她""]","","","","","","","","yes","","","","","","","","","SRET","EW_formal","","key","f","6.944367999999784","768","428","朋友","敬业","Positive","morality","","","","","","","","","","",""
"704","","j","psychophysics","70","268856","0.0-7.0-3.0-0.56","5","5","6","5","5","5","4","4","4","4","4","0","1","-2","1","0","0","1","0","5","5","4","4","4","4","5","4","4","5","6","8","5","7","6","3","5","6","6","5","2","3","2","2","2","3","5","5","5","1","3","2","5","3","2","5","3","6","3","2","3","3","2","3","3","3","2","3","6","5","7","5","5","3","3","6","3","3","3","5","715186425389121536","G","312","Female","[""好我"",""坏我"",""好她"",""坏她""]","[""强我"",""弱我"",""强她"",""弱她""]","","","","","","","","no","","","","","","","","","SRET","EW_formal","","key","j","6.944677551020393","768","428","自己","愚蠢","Negative","ability","","","","","","","","","","",""
"713","","j","psychophysics","71","270574","0.0-7.0-3.0-0.57","5","5","6","5","5","5","4","4","4","4","4","0","1","-2","1","0","0","1","0","5","5","4","4","4","4","5","4","4","5","6","8","5","7","6","3","5","6","6","5","2","3","2","2","2","3","5","5","5","1","3","2","5","3","2","5","3","6","3","2","3","3","2","3","3","3","2","3","6","5","7","5","5","3","3","6","3","3","3","5","715186425389121536","G","312","Female","[""好我"",""坏我"",""好她"",""坏她""]","[""强我"",""弱我"",""强她"",""弱她""]","","","","","","","","no","","","","","","","","","SRET","EW_formal","","key","j","6.944617886178818","768","428","朋友","黑心","Negative","morality","","","","","","","","","","",""
"1073","","f","psychophysics","72","272656","0.0-7.0-3.0-0.58","5","5","6","5","5","5","4","4","4","4","4","0","1","-2","1","0","0","1","0","5","5","4","4","4","4","5","4","4","5","6","8","5","7","6","3","5","6","6","5","2","3","2","2","2","3","5","5","5","1","3","2","5","3","2","5","3","6","3","2","3","3","2","3","3","3","2","3","6","5","7","5","5","3","3","6","3","3","3","5","715186425389121536","G","312","Female","[""好我"",""坏我"",""好她"",""坏她""]","[""强我"",""弱我"",""强她"",""弱她""]","","","","","","","","yes","","","","","","","","","SRET","EW_formal","","key","f","6.9446655518395195","768","428","朋友","屈才","Negative","ability","","","","","","","","","","",""
"839","","j","psychophysics","73","274499","0.0-7.0-3.0-0.59","5","5","6","5","5","5","4","4","4","4","4","0","1","-2","1","0","0","1","0","5","5","4","4","4","4","5","4","4","5","6","8","5","7","6","3","5","6","6","5","2","3","2","2","2","3","5","5","5","1","3","2","5","3","2","5","3","6","3","2","3","3","2","3","3","3","2","3","6","5","7","5","5","3","3","6","3","3","3","5","715186425389121536","G","312","Female","[""好我"",""坏我"",""好她"",""坏她""]","[""强我"",""弱我"",""强她"",""弱她""]","","","","","","","","no","","","","","","","","","SRET","EW_formal","","key","j","6.9447121212120475","768","428","自己","才尽","Negative","ability","","","","","","","","","","",""
"907","","j","psychophysics","74","276409","0.0-7.0-3.0-0.60","5","5","6","5","5","5","4","4","4","4","4","0","1","-2","1","0","0","1","0","5","5","4","4","4","4","5","4","4","5","6","8","5","7","6","3","5","6","6","5","2","3","2","2","2","3","5","5","5","1","3","2","5","3","2","5","3","6","3","2","3","3","2","3","3","3","2","3","6","5","7","5","5","3","3","6","3","3","3","5","715186425389121536","G","312","Female","[""好我"",""坏我"",""好她"",""坏她""]","[""强我"",""弱我"",""强她"",""弱她""]","","","","","","","","no","","","","","","","","","SRET","EW_formal","","key","j","6.944718978101988","768","428","朋友","拜金","Negative","morality","","","","","","","","","","",""
"840","","j","psychophysics","75","278252","0.0-7.0-3.0-0.61","5","5","6","5","5","5","4","4","4","4","4","0","1","-2","1","0","0","1","0","5","5","4","4","4","4","5","4","4","5","6","8","5","7","6","3","5","6","6","5","2","3","2","2","2","3","5","5","5","1","3","2","5","3","2","5","3","6","3","2","3","3","2","3","3","3","2","3","6","5","7","5","5","3","3","6","3","3","3","5","715186425389121536","G","312","Female","[""好我"",""坏我"",""好她"",""坏她""]","[""强我"",""弱我"",""强她"",""弱她""]","","","","","","","","no","","","","","","","","","SRET","EW_formal","","key","j","6.944547169811514","768","428","朋友","不仁","Negative","morality","","","","","","","","","","",""
"1234","","j","psychophysics","76","280491","0.0-7.0-3.0-0.62","5","5","6","5","5","5","4","4","4","4","4","0","1","-2","1","0","0","1","0","5","5","4","4","4","4","5","4","4","5","6","8","5","7","6","3","5","6","6","5","2","3","2","2","2","3","5","5","5","1","3","2","5","3","2","5","3","6","3","2","3","3","2","3","3","3","2","3","6","5","7","5","5","3","3","6","3","3","3","5","715186425389121536","G","312","Female","[""好我"",""坏我"",""好她"",""坏她""]","[""强我"",""弱我"",""强她"",""弱她""]","","","","","","","","no","","","","","","","","","SRET","EW_formal","","key","j","6.944436137071619","768","428","朋友","盲目","Negative","ability","","","","","","","","","","",""
"871","","f","psychophysics","77","282364","0.0-7.0-3.0-0.63","5","5","6","5","5","5","4","4","4","4","4","0","1","-2","1","0","0","1","0","5","5","4","4","4","4","5","4","4","5","6","8","5","7","6","3","5","6","6","5","2","3","2","2","2","3","5","5","5","1","3","2","5","3","2","5","3","6","3","2","3","3","2","3","3","3","2","3","6","5","7","5","5","3","3","6","3","3","3","5","715186425389121536","G","312","Female","[""好我"",""坏我"",""好她"",""坏她""]","[""强我"",""弱我"",""强她"",""弱她""]","","","","","","","","yes","","","","","","","","","SRET","EW_formal","","key","f","6.944646840148863","768","428","朋友","善心","Positive","morality","","","","","","","","","","",""
"1000","","f","psychophysics","78","284368","0.0-7.0-3.0-0.64","5","5","6","5","5","5","4","4","4","4","4","0","1","-2","1","0","0","1","0","5","5","4","4","4","4","5","4","4","5","6","8","5","7","6","3","5","6","6","5","2","3","2","2","2","3","5","5","5","1","3","2","5","3","2","5","3","6","3","2","3","3","2","3","3","3","2","3","6","5","7","5","5","3","3","6","3","3","3","5","715186425389121536","G","312","Female","[""好我"",""坏我"",""好她"",""坏她""]","[""强我"",""弱我"",""强她"",""弱她""]","","","","","","","","yes","","","","","","","","","SRET","EW_formal","","key","f","6.993035087719347","768","428","朋友","勤奋","Positive","ability","","","","","","","","","","",""
"1544","","j","psychophysics","79","286916","0.0-7.0-3.0-0.65","5","5","6","5","5","5","4","4","4","4","4","0","1","-2","1","0","0","1","0","5","5","4","4","4","4","5","4","4","5","6","8","5","7","6","3","5","6","6","5","2","3","2","2","2","3","5","5","5","1","3","2","5","3","2","5","3","6","3","2","3","3","2","3","3","3","2","3","6","5","7","5","5","3","3","6","3","3","3","5","715186425389121536","G","312","Female","[""好我"",""坏我"",""好她"",""坏她""]","[""强我"",""弱我"",""强她"",""弱她""]","","","","","","","","no","","","","","","","","","SRET","EW_formal","","key","j","6.944663934426317","768","428","自己","利己","Negative","morality","","","","","","","","","","",""
"916","","j","psychophysics","80","288839","0.0-7.0-3.0-0.66","5","5","6","5","5","5","4","4","4","4","4","0","1","-2","1","0","0","1","0","5","5","4","4","4","4","5","4","4","5","6","8","5","7","6","3","5","6","6","5","2","3","2","2","2","3","5","5","5","1","3","2","5","3","2","5","3","6","3","2","3","3","2","3","3","3","2","3","6","5","7","5","5","3","3","6","3","3","3","5","715186425389121536","G","312","Female","[""好我"",""坏我"",""好她"",""坏她""]","[""强我"",""弱我"",""强她"",""弱她""]","","","","","","","","no","","","","","","","","","SRET","EW_formal","","key","j","6.944583333333181","768","428","自己","差生","Negative","ability","","","","","","","","","","",""
"1715","","f","psychophysics","81","291558","0.0-7.0-3.0-0.67","5","5","6","5","5","5","4","4","4","4","4","0","1","-2","1","0","0","1","0","5","5","4","4","4","4","5","4","4","5","6","8","5","7","6","3","5","6","6","5","2","3","2","2","2","3","5","5","5","1","3","2","5","3","2","5","3","6","3","2","3","3","2","3","3","3","2","3","6","5","7","5","5","3","3","6","3","3","3","5","715186425389121536","G","312","Female","[""好我"",""坏我"",""好她"",""坏她""]","[""强我"",""弱我"",""强她"",""弱她""]","","","","","","","","yes","","","","","","","","","SRET","EW_formal","","key","f","6.962261538461555","768","428","自己","上进","Positive","ability","","","","","","","","","","",""
"908","","j","psychophysics","82","293469","0.0-7.0-3.0-0.68","5","5","6","5","5","5","4","4","4","4","4","0","1","-2","1","0","0","1","0","5","5","4","4","4","4","5","4","4","5","6","8","5","7","6","3","5","6","6","5","2","3","2","2","2","3","5","5","5","1","3","2","5","3","2","5","3","6","3","2","3","3","2","3","3","3","2","3","6","5","7","5","5","3","3","6","3","3","3","5","715186425389121536","G","312","Female","[""好我"",""坏我"",""好她"",""坏她""]","[""强我"",""弱我"",""强她"",""弱她""]","","","","","","","","no","","","","","","","","","SRET","EW_formal","","key","j","6.944700729927001","768","428","自己","博识","Positive","ability","","","","","","","","","","",""
"683","","j","psychophysics","83","295155","0.0-7.0-3.0-0.69","5","5","6","5","5","5","4","4","4","4","4","0","1","-2","1","0","0","1","0","5","5","4","4","4","4","5","4","4","5","6","8","5","7","6","3","5","6","6","5","2","3","2","2","2","3","5","5","5","1","3","2","5","3","2","5","3","6","3","2","3","3","2","3","3","3","2","3","6","5","7","5","5","3","3","6","3","3","3","5","715186425389121536","G","312","Female","[""好我"",""坏我"",""好她"",""坏她""]","[""强我"",""弱我"",""强她"",""弱她""]","","","","","","","","no","","","","","","","","","SRET","EW_formal","","key","j","6.944334710743961","768","428","朋友","不端","Negative","morality","","","","","","","","","","",""
"1613","","f","psychophysics","84","297773","0.0-7.0-3.0-0.70","5","5","6","5","5","5","4","4","4","4","4","0","1","-2","1","0","0","1","0","5","5","4","4","4","4","5","4","4","5","6","8","5","7","6","3","5","6","6","5","2","3","2","2","2","3","5","5","5","1","3","2","5","3","2","5","3","6","3","2","3","3","2","3","3","3","2","3","6","5","7","5","5","3","3","6","3","3","3","5","715186425389121536","G","312","Female","[""好我"",""坏我"",""好她"",""坏她""]","[""强我"",""弱我"",""强她"",""弱她""]","","","","","","","","yes","","","","","","","","","SRET","EW_formal","","key","f","6.944561170212685","768","428","自己","干练","Positive","ability","","","","","","","","","","",""
"1073","","f","psychophysics","85","299850","0.0-7.0-3.0-0.71","5","5","6","5","5","5","4","4","4","4","4","0","1","-2","1","0","0","1","0","5","5","4","4","4","4","5","4","4","5","6","8","5","7","6","3","5","6","6","5","2","3","2","2","2","3","5","5","5","1","3","2","5","3","2","5","3","6","3","2","3","3","2","3","3","3","2","3","6","5","7","5","5","3","3","6","3","3","3","5","715186425389121536","G","312","Female","[""好我"",""坏我"",""好她"",""坏她""]","[""强我"",""弱我"",""强她"",""弱她""]","","","","","","","","yes","","","","","","","","","SRET","EW_formal","","key","f","6.944617449664573","768","428","朋友","廉正","Positive","morality","","","","","","","","","","",""
"580","","j","psychophysics","86","301435","0.0-7.0-3.0-0.72","5","5","6","5","5","5","4","4","4","4","4","0","1","-2","1","0","0","1","0","5","5","4","4","4","4","5","4","4","5","6","8","5","7","6","3","5","6","6","5","2","3","2","2","2","3","5","5","5","1","3","2","5","3","2","5","3","6","3","2","3","3","2","3","3","3","2","3","6","5","7","5","5","3","3","6","3","3","3","5","715186425389121536","G","312","Female","[""好我"",""坏我"",""好她"",""坏她""]","[""强我"",""弱我"",""强她"",""弱她""]","","","","","","","","no","","","","","","","","","SRET","EW_formal","","key","j","6.9447621145374905","768","428","自己","废物","Negative","ability","","","","","","","","","","",""
"680","","f","psychophysics","87","303117","0.0-7.0-3.0-0.73","5","5","6","5","5","5","4","4","4","4","4","0","1","-2","1","0","0","1","0","5","5","4","4","4","4","5","4","4","5","6","8","5","7","6","3","5","6","6","5","2","3","2","2","2","3","5","5","5","1","3","2","5","3","2","5","3","6","3","2","3","3","2","3","3","3","2","3","6","5","7","5","5","3","3","6","3","3","3","5","715186425389121536","G","312","Female","[""好我"",""坏我"",""好她"",""坏她""]","[""强我"",""弱我"",""强她"",""弱她""]","","","","","","","","yes","","","","","","","","","SRET","EW_formal","","key","f","6.944647302904458","768","428","朋友","高洁","Positive","morality","","","","","","","","","","",""
"741","","j","psychophysics","88","304865","0.0-7.0-3.0-0.74","5","5","6","5","5","5","4","4","4","4","4","0","1","-2","1","0","0","1","0","5","5","4","4","4","4","5","4","4","5","6","8","5","7","6","3","5","6","6","5","2","3","2","2","2","3","5","5","5","1","3","2","5","3","2","5","3","6","3","2","3","3","2","3","3","3","2","3","6","5","7","5","5","3","3","6","3","3","3","5","715186425389121536","G","312","Female","[""好我"",""坏我"",""好她"",""坏她""]","[""强我"",""弱我"",""强她"",""弱她""]","","","","","","","","no","","","","","","","","","SRET","EW_formal","","key","j","6.944956175298838","768","428","朋友","短视","Negative","ability","","","","","","","","","","",""
"954","","f","psychophysics","89","306823","0.0-7.0-3.0-0.75","5","5","6","5","5","5","4","4","4","4","4","0","1","-2","1","0","0","1","0","5","5","4","4","4","4","5","4","4","5","6","8","5","7","6","3","5","6","6","5","2","3","2","2","2","3","5","5","5","1","3","2","5","3","2","5","3","6","3","2","3","3","2","3","3","3","2","3","6","5","7","5","5","3","3","6","3","3","3","5","715186425389121536","G","312","Female","[""好我"",""坏我"",""好她"",""坏她""]","[""强我"",""弱我"",""强她"",""弱她""]","","","","","","","","yes","","","","","","","","","SRET","EW_formal","","key","f","6.944722419928841","768","428","自己","刚正","Positive","morality","","","","","","","","","","",""
"544","","j","psychophysics","90","308371","0.0-7.0-3.0-0.76","5","5","6","5","5","5","4","4","4","4","4","0","1","-2","1","0","0","1","0","5","5","4","4","4","4","5","4","4","5","6","8","5","7","6","3","5","6","6","5","2","3","2","2","2","3","5","5","5","1","3","2","5","3","2","5","3","6","3","2","3","3","2","3","3","3","2","3","6","5","7","5","5","3","3","6","3","3","3","5","715186425389121536","G","312","Female","[""好我"",""坏我"",""好她"",""坏她""]","[""强我"",""弱我"",""强她"",""弱她""]","","","","","","","","no","","","","","","","","","SRET","EW_formal","","key","j","6.944599099099103","768","428","自己","狡狯","Negative","morality","","","","","","","","","","",""
"748","","j","psychophysics","91","310123","0.0-7.0-3.0-0.77","5","5","6","5","5","5","4","4","4","4","4","0","1","-2","1","0","0","1","0","5","5","4","4","4","4","5","4","4","5","6","8","5","7","6","3","5","6","6","5","2","3","2","2","2","3","5","5","5","1","3","2","5","3","2","5","3","6","3","2","3","3","2","3","3","3","2","3","6","5","7","5","5","3","3","6","3","3","3","5","715186425389121536","G","312","Female","[""好我"",""坏我"",""好她"",""坏她""]","[""强我"",""弱我"",""强她"",""弱她""]","","","","","","","","no","","","","","","","","","SRET","EW_formal","","key","j","6.944474103585752","768","428","自己","粗心","Negative","ability","","","","","","","","","","",""
"917","","f","psychophysics","92","312047","0.0-7.0-3.0-0.78","5","5","6","5","5","5","4","4","4","4","4","0","1","-2","1","0","0","1","0","5","5","4","4","4","4","5","4","4","5","6","8","5","7","6","3","5","6","6","5","2","3","2","2","2","3","5","5","5","1","3","2","5","3","2","5","3","6","3","2","3","3","2","3","3","3","2","3","6","5","7","5","5","3","3","6","3","3","3","5","715186425389121536","G","312","Female","[""好我"",""坏我"",""好她"",""坏她""]","[""强我"",""弱我"",""强她"",""弱她""]","","","","","","","","yes","","","","","","","","","SRET","EW_formal","","key","f","6.969992727272594","768","428","自己","正气","Positive","morality","","","","","","","","","","",""
"839","","j","psychophysics","93","313945","0.0-7.0-3.0-0.79","5","5","6","5","5","5","4","4","4","4","4","0","1","-2","1","0","0","1","0","5","5","4","4","4","4","5","4","4","5","6","8","5","7","6","3","5","6","6","5","2","3","2","2","2","3","5","5","5","1","3","2","5","3","2","5","3","6","3","2","3","3","2","3","3","3","2","3","6","5","7","5","5","3","3","6","3","3","3","5","715186425389121536","G","312","Female","[""好我"",""坏我"",""好她"",""坏她""]","[""强我"",""弱我"",""强她"",""弱她""]","","","","","","","","no","","","","","","","","","SRET","EW_formal","","key","j","7.128320754716779","768","428","朋友","迂拙","Negative","ability","","","","","","","","","","",""
"784","","j","psychophysics","94","315785","0.0-7.0-3.0-0.80","5","5","6","5","5","5","4","4","4","4","4","0","1","-2","1","0","0","1","0","5","5","4","4","4","4","5","4","4","5","6","8","5","7","6","3","5","6","6","5","2","3","2","2","2","3","5","5","5","1","3","2","5","3","2","5","3","6","3","2","3","3","2","3","3","3","2","3","6","5","7","5","5","3","3","6","3","3","3","5","715186425389121536","G","312","Female","[""好我"",""坏我"",""好她"",""坏她""]","[""强我"",""弱我"",""强她"",""弱她""]","","","","","","","","no","","","","","","","","","SRET","EW_formal","","key","j","7.105949612403182","768","428","朋友","淫乱","Negative","morality","","","","","","","","","","",""
"780","","f","psychophysics","95","317568","0.0-7.0-3.0-0.81","5","5","6","5","5","5","4","4","4","4","4","0","1","-2","1","0","0","1","0","5","5","4","4","4","4","5","4","4","5","6","8","5","7","6","3","5","6","6","5","2","3","2","2","2","3","5","5","5","1","3","2","5","3","2","5","3","6","3","2","3","3","2","3","3","3","2","3","6","5","7","5","5","3","3","6","3","3","3","5","715186425389121536","G","312","Female","[""好我"",""坏我"",""好她"",""坏她""]","[""强我"",""弱我"",""强她"",""弱她""]","","","","","","","","yes","","","","","","","","","SRET","EW_formal","","key","f","6.944835937500102","768","428","朋友","能干","Positive","ability","","","","","","","","","","",""
"576","","f","psychophysics","96","319152","0.0-7.0-3.0-0.82","5","5","6","5","5","5","4","4","4","4","4","0","1","-2","1","0","0","1","0","5","5","4","4","4","4","5","4","4","5","6","8","5","7","6","3","5","6","6","5","2","3","2","2","2","3","5","5","5","1","3","2","5","3","2","5","3","6","3","2","3","3","2","3","3","3","2","3","6","5","7","5","5","3","3","6","3","3","3","5","715186425389121536","G","312","Female","[""好我"",""坏我"",""好她"",""坏她""]","[""强我"",""弱我"",""强她"",""弱她""]","","","","","","","","yes","","","","","","","","","SRET","EW_formal","","key","f","6.94439647577104","768","428","自己","义气","Positive","morality","","","","","","","","","","",""
"1271","","f","psychophysics","97","321435","0.0-7.0-3.0-0.83","5","5","6","5","5","5","4","4","4","4","4","0","1","-2","1","0","0","1","0","5","5","4","4","4","4","5","4","4","5","6","8","5","7","6","3","5","6","6","5","2","3","2","2","2","3","5","5","5","1","3","2","5","3","2","5","3","6","3","2","3","3","2","3","3","3","2","3","6","5","7","5","5","3","3","6","3","3","3","5","715186425389121536","G","312","Female","[""好我"",""坏我"",""好她"",""坏她""]","[""强我"",""弱我"",""强她"",""弱她""]","","","","","","","","yes","","","","","","","","","SRET","EW_formal","","key","f","6.944685975609811","768","428","自己","思辨","Positive","ability","","","","","","","","","","",""
"796","","f","psychophysics","98","323234","0.0-7.0-3.0-0.84","5","5","6","5","5","5","4","4","4","4","4","0","1","-2","1","0","0","1","0","5","5","4","4","4","4","5","4","4","5","6","8","5","7","6","3","5","6","6","5","2","3","2","2","2","3","5","5","5","1","3","2","5","3","2","5","3","6","3","2","3","3","2","3","3","3","2","3","6","5","7","5","5","3","3","6","3","3","3","5","715186425389121536","G","312","Female","[""好我"",""坏我"",""好她"",""坏她""]","[""强我"",""弱我"",""强她"",""弱她""]","","","","","","","","yes","","","","","","","","","SRET","EW_formal","","key","f","6.9448139534883255","768","428","朋友","素养","Positive","morality","","","","","","","","","","",""
"616","","j","psychophysics","99","324853","0.0-7.0-3.0-0.85","5","5","6","5","5","5","4","4","4","4","4","0","1","-2","1","0","0","1","0","5","5","4","4","4","4","5","4","4","5","6","8","5","7","6","3","5","6","6","5","2","3","2","2","2","3","5","5","5","1","3","2","5","3","2","5","3","6","3","2","3","3","2","3","3","3","2","3","6","5","7","5","5","3","3","6","3","3","3","5","715186425389121536","G","312","Female","[""好我"",""坏我"",""好她"",""坏她""]","[""强我"",""弱我"",""强她"",""弱她""]","","","","","","","","no","","","","","","","","","SRET","EW_formal","","key","j","6.9448232758621655","768","428","朋友","低俗","Negative","morality","","","","","","","","","","",""
"679","","f","psychophysics","100","326540","0.0-7.0-3.0-0.86","5","5","6","5","5","5","4","4","4","4","4","0","1","-2","1","0","0","1","0","5","5","4","4","4","4","5","4","4","5","6","8","5","7","6","3","5","6","6","5","2","3","2","2","2","3","5","5","5","1","3","2","5","3","2","5","3","6","3","2","3","3","2","3","3","3","2","3","6","5","7","5","5","3","3","6","3","3","3","5","715186425389121536","G","312","Female","[""好我"",""坏我"",""好她"",""坏她""]","[""强我"",""弱我"",""强她"",""弱她""]","","","","","","","","yes","","","","","","","","","SRET","EW_formal","","key","f","6.944727272727317","768","428","自己","主见","Positive","ability","","","","","","","","","","",""
"993","","f","psychophysics","101","328538","0.0-7.0-3.0-0.87","5","5","6","5","5","5","4","4","4","4","4","0","1","-2","1","0","0","1","0","5","5","4","4","4","4","5","4","4","5","6","8","5","7","6","3","5","6","6","5","2","3","2","2","2","3","5","5","5","1","3","2","5","3","2","5","3","6","3","2","3","3","2","3","3","3","2","3","6","5","7","5","5","3","3","6","3","3","3","5","715186425389121536","G","312","Female","[""好我"",""坏我"",""好她"",""坏她""]","[""强我"",""弱我"",""强她"",""弱她""]","","","","","","","","yes","","","","","","","","","SRET","EW_formal","","key","f","6.944547038327599","768","428","自己","缓慢","Negative","ability","","","","","","","","","","",""
"18725","
    <p><div style='color:white;font-size:35px; line-height:20px;'>计算任务</div></p><br>
    <p><div style='color:red;font-size:25px; line-height:20px;'>接下来，您将看到一些四则运算题，<b>请从键盘选择 0-9 进行反应。</b></div></p>
    <p><div style='color:red;font-size:25px; line-height:20px;'>请尽可能快地进行计算，计算的速度和正确率将影响报酬的发放。</div></p>
    <p><div class='footer' style='color:white;font-size:25px; line-height:20px;'>如果对本实验还有不清楚之处，请立即向实验员咨询。</p><p style='color:white;font-size:25px; line-height:20px;'>如果您明白了规则：</p><p style='color:white;font-size:22px; line-height:20px;'>请按 继续 进入练习</p>
    </div>
    ","0","html-button-response","102","347265","0.0-7.0-4.0","5","5","6","5","5","5","4","4","4","4","4","0","1","-2","1","0","0","1","0","5","5","4","4","4","4","5","4","4","5","6","8","5","7","6","3","5","6","6","5","2","3","2","2","2","3","5","5","5","1","3","2","5","3","2","5","3","6","3","2","3","3","2","3","3","3","2","3","6","5","7","5","5","3","3","6","3","3","3","5","715186425389121536","G","312","Female","[""好我"",""坏我"",""好她"",""坏她""]","[""强我"",""弱我"",""强她"",""弱她""]","","","","","","","","","","","","","","","","","SRET_math","math_instructions","Sun Dec 10 2023 21:40:43 GMT+0800 (中国标准时间)","","","","","","","","","","","","","","","","","","","",""
"3227","","7","psychophysics","103","350496","0.0-7.0-5.0-0.0","5","5","6","5","5","5","4","4","4","4","4","0","1","-2","1","0","0","1","0","5","5","4","4","4","4","5","4","4","5","6","8","5","7","6","3","5","6","6","5","2","3","2","2","2","3","5","5","5","1","3","2","5","3","2","5","3","6","3","2","3","3","2","3","3","3","2","3","6","5","7","5","5","3","3","6","3","3","3","5","715186425389121536","G","312","Female","[""好我"",""坏我"",""好她"",""坏她""]","[""强我"",""弱我"",""强她"",""弱她""]","","","","","","","","7","","","","","","","","","SRET","SRET_math_calculate","","key","7","6.959477419354853","768","428","","","","","6+1= ?","7","1","","","","","","","",""
"1992","","0","psychophysics","104","352500","0.0-7.0-5.0-0.1","5","5","6","5","5","5","4","4","4","4","4","0","1","-2","1","0","0","1","0","5","5","4","4","4","4","5","4","4","5","6","8","5","7","6","3","5","6","6","5","2","3","2","2","2","3","5","5","5","1","3","2","5","3","2","5","3","6","3","2","3","3","2","3","3","3","2","3","6","5","7","5","5","3","3","6","3","3","3","5","715186425389121536","G","312","Female","[""好我"",""坏我"",""好她"",""坏她""]","[""强我"",""弱我"",""强她"",""弱她""]","","","","","","","","0","","","","","","","","","SRET","SRET_math_calculate","","key","0","6.944599303135807","768","428","","","","","9-9= ?","0","1","","","","","","","",""
"2902","","9","psychophysics","105","355413","0.0-7.0-5.0-0.2","5","5","6","5","5","5","4","4","4","4","4","0","1","-2","1","0","0","1","0","5","5","4","4","4","4","5","4","4","5","6","8","5","7","6","3","5","6","6","5","2","3","2","2","2","3","5","5","5","1","3","2","5","3","2","5","3","6","3","2","3","3","2","3","3","3","2","3","6","5","7","5","5","3","3","6","3","3","3","5","715186425389121536","G","312","Female","[""好我"",""坏我"",""好她"",""坏她""]","[""强我"",""弱我"",""强她"",""弱她""]","","","","","","","","9","","","","","","","","","SRET","SRET_math_calculate","","key","9","6.94457040572784","768","428","","","","","43-34= ?","9","1","","","","","","","",""
"2164","","8","psychophysics","106","357590","0.0-7.0-5.0-0.3","5","5","6","5","5","5","4","4","4","4","4","0","1","-2","1","0","0","1","0","5","5","4","4","4","4","5","4","4","5","6","8","5","7","6","3","5","6","6","5","2","3","2","2","2","3","5","5","5","1","3","2","5","3","2","5","3","6","3","2","3","3","2","3","3","3","2","3","6","5","7","5","5","3","3","6","3","3","3","5","715186425389121536","G","312","Female","[""好我"",""坏我"",""好她"",""坏她""]","[""强我"",""弱我"",""强她"",""弱她""]","","","","","","","","8","","","","","","","","","SRET","SRET_math_calculate","","key","8","6.9445993589744415","768","428","","","","","4+4= ?","8","1","","","","","","","",""
"2005","","3","psychophysics","107","359602","0.0-7.0-5.0-0.4","5","5","6","5","5","5","4","4","4","4","4","0","1","-2","1","0","0","1","0","5","5","4","4","4","4","5","4","4","5","6","8","5","7","6","3","5","6","6","5","2","3","2","2","2","3","5","5","5","1","3","2","5","3","2","5","3","6","3","2","3","3","2","3","3","3","2","3","6","5","7","5","5","3","3","6","3","3","3","5","715186425389121536","G","312","Female","[""好我"",""坏我"",""好她"",""坏她""]","[""强我"",""弱我"",""强她"",""弱她""]","","","","","","","","3","","","","","","","","","SRET","SRET_math_calculate","","key","3","6.9445294117646466","768","428","","","","","9-6= ?","3","1","","","","","","","",""
"1901","","5","psychophysics","108","361513","0.0-7.0-5.0-0.5","5","5","6","5","5","5","4","4","4","4","4","0","1","-2","1","0","0","1","0","5","5","4","4","4","4","5","4","4","5","6","8","5","7","6","3","5","6","6","5","2","3","2","2","2","3","5","5","5","1","3","2","5","3","2","5","3","6","3","2","3","3","2","3","3","3","2","3","6","5","7","5","5","3","3","6","3","3","3","5","715186425389121536","G","312","Female","[""好我"",""坏我"",""好她"",""坏她""]","[""强我"",""弱我"",""强她"",""弱她""]","","","","","","","","5","","","","","","","","","SRET","SRET_math_calculate","","key","5","6.944664233576601","768","428","","","","","15-10= ?","5","1","","","","","","","",""
"2432","","0","psychophysics","109","363956","0.0-7.0-5.0-0.6","5","5","6","5","5","5","4","4","4","4","4","0","1","-2","1","0","0","1","0","5","5","4","4","4","4","5","4","4","5","6","8","5","7","6","3","5","6","6","5","2","3","2","2","2","3","5","5","5","1","3","2","5","3","2","5","3","6","3","2","3","3","2","3","3","3","2","3","6","5","7","5","5","3","3","6","3","3","3","5","715186425389121536","G","312","Female","[""好我"",""坏我"",""好她"",""坏她""]","[""强我"",""弱我"",""强她"",""弱她""]","","","","","","","","0","","","","","","","","","SRET","SRET_math_calculate","","key","0","6.944564102564148","768","428","","","","","7*0= ?","0","1","","","","","","","",""
"1951","","7","psychophysics","110","365917","0.0-7.0-5.0-0.7","5","5","6","5","5","5","4","4","4","4","4","0","1","-2","1","0","0","1","0","5","5","4","4","4","4","5","4","4","5","6","8","5","7","6","3","5","6","6","5","2","3","2","2","2","3","5","5","5","1","3","2","5","3","2","5","3","6","3","2","3","3","2","3","3","3","2","3","6","5","7","5","5","3","3","6","3","3","3","5","715186425389121536","G","312","Female","[""好我"",""坏我"",""好她"",""坏她""]","[""强我"",""弱我"",""强她"",""弱她""]","","","","","","","","7","","","","","","","","","SRET","SRET_math_calculate","","key","7","6.9447793594306315","768","428","","","","","9-2= ?","7","1","","","","","","","",""
"1840","","0","psychophysics","111","367769","0.0-7.0-5.0-0.8","5","5","6","5","5","5","4","4","4","4","4","0","1","-2","1","0","0","1","0","5","5","4","4","4","4","5","4","4","5","6","8","5","7","6","3","5","6","6","5","2","3","2","2","2","3","5","5","5","1","3","2","5","3","2","5","3","6","3","2","3","3","2","3","3","3","2","3","6","5","7","5","5","3","3","6","3","3","3","5","715186425389121536","G","312","Female","[""好我"",""坏我"",""好她"",""坏她""]","[""强我"",""弱我"",""强她"",""弱她""]","","","","","","","","0","","","","","","","","","SRET","SRET_math_calculate","","key","0","6.94380451127829","768","428","","","","","1-1= ?","0","1","","","","","","","",""
"2008","","7","psychophysics","112","369785","0.0-7.0-5.0-0.9","5","5","6","5","5","5","4","4","4","4","4","0","1","-2","1","0","0","1","0","5","5","4","4","4","4","5","4","4","5","6","8","5","7","6","3","5","6","6","5","2","3","2","2","2","3","5","5","5","1","3","2","5","3","2","5","3","6","3","2","3","3","2","3","3","3","2","3","6","5","7","5","5","3","3","6","3","3","3","5","715186425389121536","G","312","Female","[""好我"",""坏我"",""好她"",""坏她""]","[""强我"",""弱我"",""强她"",""弱她""]","","","","","","","","7","","","","","","","","","SRET","SRET_math_calculate","","key","7","6.944591695501607","768","428","","","","","1+6= ?","7","1","","","","","","","",""
"1919","","9","psychophysics","113","371716","0.0-7.0-5.0-0.10","5","5","6","5","5","5","4","4","4","4","4","0","1","-2","1","0","0","1","0","5","5","4","4","4","4","5","4","4","5","6","8","5","7","6","3","5","6","6","5","2","3","2","2","2","3","5","5","5","1","3","2","5","3","2","5","3","6","3","2","3","3","2","3","3","3","2","3","6","5","7","5","5","3","3","6","3","3","3","5","715186425389121536","G","312","Female","[""好我"",""坏我"",""好她"",""坏她""]","[""强我"",""弱我"",""强她"",""弱她""]","","","","","","","","9","","","","","","","","","SRET","SRET_math_calculate","","key","9","6.9446931407941985","768","428","","","","","8+1= ?","9","1","","","","","","","",""
"2017","","6","psychophysics","114","373742","0.0-7.0-5.0-0.11","5","5","6","5","5","5","4","4","4","4","4","0","1","-2","1","0","0","1","0","5","5","4","4","4","4","5","4","4","5","6","8","5","7","6","3","5","6","6","5","2","3","2","2","2","3","5","5","5","1","3","2","5","3","2","5","3","6","3","2","3","3","2","3","3","3","2","3","6","5","7","5","5","3","3","6","3","3","3","5","715186425389121536","G","312","Female","[""好我"",""坏我"",""好她"",""坏她""]","[""强我"",""弱我"",""强她"",""弱她""]","","","","","","","","6","","","","","","","","","SRET","SRET_math_calculate","","key","6","6.9447835051545415","768","428","","","","","8-2= ?","6","1","","","","","","","",""
"1841","","9","psychophysics","115","375598","0.0-7.0-5.0-0.12","5","5","6","5","5","5","4","4","4","4","4","0","1","-2","1","0","0","1","0","5","5","4","4","4","4","5","4","4","5","6","8","5","7","6","3","5","6","6","5","2","3","2","2","2","3","5","5","5","1","3","2","5","3","2","5","3","6","3","2","3","3","2","3","3","3","2","3","6","5","7","5","5","3","3","6","3","3","3","5","715186425389121536","G","312","Female","[""好我"",""坏我"",""好她"",""坏她""]","[""强我"",""弱我"",""强她"",""弱她""]","","","","","","","","9","","","","","","","","","SRET","SRET_math_calculate","","key","9","6.944342105263184","768","428","","","","","6+3= ?","9","1","","","","","","","",""
"2491","","3","psychophysics","116","378094","0.0-7.0-5.0-0.13","5","5","6","5","5","5","4","4","4","4","4","0","1","-2","1","0","0","1","0","5","5","4","4","4","4","5","4","4","5","6","8","5","7","6","3","5","6","6","5","2","3","2","2","2","3","5","5","5","1","3","2","5","3","2","5","3","6","3","2","3","3","2","3","3","3","2","3","6","5","7","5","5","3","3","6","3","3","3","5","715186425389121536","G","312","Female","[""好我"",""坏我"",""好她"",""坏她""]","[""强我"",""弱我"",""强她"",""弱她""]","","","","","","","","3","","","","","","","","","SRET","SRET_math_calculate","","key","3","6.944813370473604","768","428","","","","","9/3= ?","3","1","","","","","","","",""
"2156","","3","psychophysics","117","380261","0.0-7.0-5.0-0.14","5","5","6","5","5","5","4","4","4","4","4","0","1","-2","1","0","0","1","0","5","5","4","4","4","4","5","4","4","5","6","8","5","7","6","3","5","6","6","5","2","3","2","2","2","3","5","5","5","1","3","2","5","3","2","5","3","6","3","2","3","3","2","3","3","3","2","3","6","5","7","5","5","3","3","6","3","3","3","5","715186425389121536","G","312","Female","[""好我"",""坏我"",""好她"",""坏她""]","[""强我"",""弱我"",""强她"",""弱她""]","","","","","","","","3","","","","","","","","","SRET","SRET_math_calculate","","key","3","6.944678456591587","768","428","","","","","8-5= ?","3","1","","","","","","","",""
"2504","","7","psychophysics","118","382776","0.0-7.0-5.0-0.15","5","5","6","5","5","5","4","4","4","4","4","0","1","-2","1","0","0","1","0","5","5","4","4","4","4","5","4","4","5","6","8","5","7","6","3","5","6","6","5","2","3","2","2","2","3","5","5","5","1","3","2","5","3","2","5","3","6","3","2","3","3","2","3","3","3","2","3","6","5","7","5","5","3","3","6","3","3","3","5","715186425389121536","G","312","Female","[""好我"",""坏我"",""好她"",""坏她""]","[""强我"",""弱我"",""强她"",""弱她""]","","","","","","","","7","","","","","","","","","SRET","SRET_math_calculate","","key","7","6.944725761772778","768","428","","","","","21/3= ? ","7","1","","","","","","","",""
"3039","","5","psychophysics","119","385826","0.0-7.0-5.0-0.16","5","5","6","5","5","5","4","4","4","4","4","0","1","-2","1","0","0","1","0","5","5","4","4","4","4","5","4","4","5","6","8","5","7","6","3","5","6","6","5","2","3","2","2","2","3","5","5","5","1","3","2","5","3","2","5","3","6","3","2","3","3","2","3","3","3","2","3","6","5","7","5","5","3","3","6","3","3","3","5","715186425389121536","G","312","Female","[""好我"",""坏我"",""好她"",""坏她""]","[""强我"",""弱我"",""强她"",""弱她""]","","","","","","","","5","","","","","","","","","SRET","SRET_math_calculate","","key","5","6.944515981735235","768","428","","","","","12-7= ?","5","1","","","","","","","",""
"1878","","3","psychophysics","120","387719","0.0-7.0-5.0-0.17","5","5","6","5","5","5","4","4","4","4","4","0","1","-2","1","0","0","1","0","5","5","4","4","4","4","5","4","4","5","6","8","5","7","6","3","5","6","6","5","2","3","2","2","2","3","5","5","5","1","3","2","5","3","2","5","3","6","3","2","3","3","2","3","3","3","2","3","6","5","7","5","5","3","3","6","3","3","3","5","715186425389121536","G","312","Female","[""好我"",""坏我"",""好她"",""坏她""]","[""强我"",""弱我"",""强她"",""弱她""]","","","","","","","","3","","","","","","","","","SRET","SRET_math_calculate","","key","3","6.970339483394833","768","428","","","","","2+1= ?","3","1","","","","","","","",""
"3076","","1","psychophysics","121","390806","0.0-7.0-5.0-0.18","5","5","6","5","5","5","4","4","4","4","4","0","1","-2","1","0","0","1","0","5","5","4","4","4","4","5","4","4","5","6","8","5","7","6","3","5","6","6","5","2","3","2","2","2","3","5","5","5","1","3","2","5","3","2","5","3","6","3","2","3","3","2","3","3","3","2","3","6","5","7","5","5","3","3","6","3","3","3","5","715186425389121536","G","312","Female","[""好我"",""坏我"",""好她"",""坏她""]","[""强我"",""弱我"",""强她"",""弱她""]","","","","","","","","1","","","","","","","","","SRET","SRET_math_calculate","","key","1","6.944729119638858","768","428","","","","","30-29= ?","1","1","","","","","","","",""
"2303","","5","psychophysics","122","393119","0.0-7.0-5.0-0.19","5","5","6","5","5","5","4","4","4","4","4","0","1","-2","1","0","0","1","0","5","5","4","4","4","4","5","4","4","5","6","8","5","7","6","3","5","6","6","5","2","3","2","2","2","3","5","5","5","1","3","2","5","3","2","5","3","6","3","2","3","3","2","3","3","3","2","3","6","5","7","5","5","3","3","6","3","3","3","5","715186425389121536","G","312","Female","[""好我"",""坏我"",""好她"",""坏她""]","[""强我"",""弱我"",""强她"",""弱她""]","","","","","","","","5","","","","","","","","","SRET","SRET_math_calculate","","key","5","6.944891566264967","768","428","","","","","14-9= ?","5","1","","","","","","","",""
"2069","","2","psychophysics","123","395198","0.0-7.0-5.0-0.20","5","5","6","5","5","5","4","4","4","4","4","0","1","-2","1","0","0","1","0","5","5","4","4","4","4","5","4","4","5","6","8","5","7","6","3","5","6","6","5","2","3","2","2","2","3","5","5","5","1","3","2","5","3","2","5","3","6","3","2","3","3","2","3","3","3","2","3","6","5","7","5","5","3","3","6","3","3","3","5","715186425389121536","G","312","Female","[""好我"",""坏我"",""好她"",""坏她""]","[""强我"",""弱我"",""强她"",""弱她""]","","","","","","","","2","","","","","","","","","SRET","SRET_math_calculate","","key","2","6.944705685618743","768","428","","","","","9-7= ?","2","1","","","","","","","",""
"3136","","0","psychophysics","124","398347","0.0-7.0-5.0-0.21","5","5","6","5","5","5","4","4","4","4","4","0","1","-2","1","0","0","1","0","5","5","4","4","4","4","5","4","4","5","6","8","5","7","6","3","5","6","6","5","2","3","2","2","2","3","5","5","5","1","3","2","5","3","2","5","3","6","3","2","3","3","2","3","3","3","2","3","6","5","7","5","5","3","3","6","3","3","3","5","715186425389121536","G","312","Female","[""好我"",""坏我"",""好她"",""坏她""]","[""强我"",""弱我"",""强她"",""弱她""]","","","","","","","","0","","","","","","","","","SRET","SRET_math_calculate","","key","0","6.944519911504447","768","428","","","","","32-32= ?","0","1","","","","","","","",""
"2093","","6","psychophysics","125","400453","0.0-7.0-5.0-0.22","5","5","6","5","5","5","4","4","4","4","4","0","1","-2","1","0","0","1","0","5","5","4","4","4","4","5","4","4","5","6","8","5","7","6","3","5","6","6","5","2","3","2","2","2","3","5","5","5","1","3","2","5","3","2","5","3","6","3","2","3","3","2","3","3","3","2","3","6","5","7","5","5","3","3","6","3","3","3","5","715186425389121536","G","312","Female","[""好我"",""坏我"",""好她"",""坏她""]","[""强我"",""弱我"",""强她"",""弱她""]","","","","","","","","6","","","","","","","","","SRET","SRET_math_calculate","","key","6","6.944864238410554","768","428","","","","","2*3= ?","6","1","","","","","","","",""
"1882","","3","psychophysics","126","402344","0.0-7.0-5.0-0.23","5","5","6","5","5","5","4","4","4","4","4","0","1","-2","1","0","0","1","0","5","5","4","4","4","4","5","4","4","5","6","8","5","7","6","3","5","6","6","5","2","3","2","2","2","3","5","5","5","1","3","2","5","3","2","5","3","6","3","2","3","3","2","3","3","3","2","3","6","5","7","5","5","3","3","6","3","3","3","5","715186425389121536","G","312","Female","[""好我"",""坏我"",""好她"",""坏她""]","[""强我"",""弱我"",""强她"",""弱她""]","","","","","","","","3","","","","","","","","","SRET","SRET_math_calculate","","key","3","6.9447463235292695","768","428","","","","","1+2= ?","3","1","","","","","","","",""
"1967","","5","psychophysics","127","404323","0.0-7.0-5.0-0.24","5","5","6","5","5","5","4","4","4","4","4","0","1","-2","1","0","0","1","0","5","5","4","4","4","4","5","4","4","5","6","8","5","7","6","3","5","6","6","5","2","3","2","2","2","3","5","5","5","1","3","2","5","3","2","5","3","6","3","2","3","3","2","3","3","3","2","3","6","5","7","5","5","3","3","6","3","3","3","5","715186425389121536","G","312","Female","[""好我"",""坏我"",""好她"",""坏她""]","[""强我"",""弱我"",""强她"",""弱她""]","","","","","","","","5","","","","","","","","","SRET","SRET_math_calculate","","key","5","6.944436619718417","768","428","","","","","9-4= ?","5","1","","","","","","","",""
"2078","","9","psychophysics","128","406414","0.0-7.0-5.0-0.25","5","5","6","5","5","5","4","4","4","4","4","0","1","-2","1","0","0","1","0","5","5","4","4","4","4","5","4","4","5","6","8","5","7","6","3","5","6","6","5","2","3","2","2","2","3","5","5","5","1","3","2","5","3","2","5","3","6","3","2","3","3","2","3","3","3","2","3","6","5","7","5","5","3","3","6","3","3","3","5","715186425389121536","G","312","Female","[""好我"",""坏我"",""好她"",""坏她""]","[""强我"",""弱我"",""强她"",""弱她""]","","","","","","","","9","","","","","","","","","SRET","SRET_math_calculate","","key","9","6.944516666666798","768","428","","","","","5+4= ?","9","1","","","","","","","",""
"1994","","6","psychophysics","129","408417","0.0-7.0-5.0-0.26","5","5","6","5","5","5","4","4","4","4","4","0","1","-2","1","0","0","1","0","5","5","4","4","4","4","5","4","4","5","6","8","5","7","6","3","5","6","6","5","2","3","2","2","2","3","5","5","5","1","3","2","5","3","2","5","3","6","3","2","3","3","2","3","3","3","2","3","6","5","7","5","5","3","3","6","3","3","3","5","715186425389121536","G","312","Female","[""好我"",""坏我"",""好她"",""坏她""]","[""强我"",""弱我"",""强她"",""弱她""]","","","","","","","","6","","","","","","","","","SRET","SRET_math_calculate","","key","6","6.944703832752629","768","428","","","","","3*2= ?","6","1","","","","","","","",""
"2833","","8","psychophysics","130","411262","0.0-7.0-5.0-0.27","5","5","6","5","5","5","4","4","4","4","4","0","1","-2","1","0","0","1","0","5","5","4","4","4","4","5","4","4","5","6","8","5","7","6","3","5","6","6","5","2","3","2","2","2","3","5","5","5","1","3","2","5","3","2","5","3","6","3","2","3","3","2","3","3","3","2","3","6","5","7","5","5","3","3","6","3","3","3","5","715186425389121536","G","312","Female","[""好我"",""坏我"",""好她"",""坏她""]","[""强我"",""弱我"",""强她"",""弱她""]","","","","","","","","8","","","","","","","","","SRET","SRET_math_calculate","","key","8","6.944816625916854","768","428","","","","","13-5= ?","8","1","","","","","","","",""
"2126","","4","psychophysics","131","413400","0.0-7.0-5.0-0.28","5","5","6","5","5","5","4","4","4","4","4","0","1","-2","1","0","0","1","0","5","5","4","4","4","4","5","4","4","5","6","8","5","7","6","3","5","6","6","5","2","3","2","2","2","3","5","5","5","1","3","2","5","3","2","5","3","6","3","2","3","3","2","3","3","3","2","3","6","5","7","5","5","3","3","6","3","3","3","5","715186425389121536","G","312","Female","[""好我"",""坏我"",""好她"",""坏她""]","[""强我"",""弱我"",""强她"",""弱她""]","","","","","","","","4","","","","","","","","","SRET","SRET_math_calculate","","key","4","6.944638436482134","768","428","","","","","2+2= ?","4","1","","","","","","","",""
"2048","","3","psychophysics","132","415459","0.0-7.0-5.0-0.29","5","5","6","5","5","5","4","4","4","4","4","0","1","-2","1","0","0","1","0","5","5","4","4","4","4","5","4","4","5","6","8","5","7","6","3","5","6","6","5","2","3","2","2","2","3","5","5","5","1","3","2","5","3","2","5","3","6","3","2","3","3","2","3","3","3","2","3","6","5","7","5","5","3","3","6","3","3","3","5","715186425389121536","G","312","Female","[""好我"",""坏我"",""好她"",""坏她""]","[""强我"",""弱我"",""强她"",""弱她""]","","","","","","","","3","","","","","","","","","SRET","SRET_math_calculate","","key","3","6.944806779660995","768","428","","","","","21/7=  ?","3","1","","","","","","","",""
"2063","","7","psychophysics","133","417531","0.0-7.0-5.0-0.30","5","5","6","5","5","5","4","4","4","4","4","0","1","-2","1","0","0","1","0","5","5","4","4","4","4","5","4","4","5","6","8","5","7","6","3","5","6","6","5","2","3","2","2","2","3","5","5","5","1","3","2","5","3","2","5","3","6","3","2","3","3","2","3","3","3","2","3","6","5","7","5","5","3","3","6","3","3","3","5","715186425389121536","G","312","Female","[""好我"",""坏我"",""好她"",""坏她""]","[""强我"",""弱我"",""强她"",""弱她""]","","","","","","","","7","","","","","","","","","SRET","SRET_math_calculate","","key","7","6.944711409395892","768","428","","","","","7*1=  ?","7","1","","","","","","","",""
"1845","","9","psychophysics","134","419388","0.0-7.0-5.0-0.31","5","5","6","5","5","5","4","4","4","4","4","0","1","-2","1","0","0","1","0","5","5","4","4","4","4","5","4","4","5","6","8","5","7","6","3","5","6","6","5","2","3","2","2","2","3","5","5","5","1","3","2","5","3","2","5","3","6","3","2","3","3","2","3","3","3","2","3","6","5","7","5","5","3","3","6","3","3","3","5","715186425389121536","G","312","Female","[""好我"",""坏我"",""好她"",""坏她""]","[""强我"",""弱我"",""强她"",""弱她""]","","","","","","","","9","","","","","","","","","SRET","SRET_math_calculate","","key","9","6.944545112781995","768","428","","","","","1+8= ?","9","1","","","","","","","",""
"2124","","8","psychophysics","135","421522","0.0-7.0-5.0-0.32","5","5","6","5","5","5","4","4","4","4","4","0","1","-2","1","0","0","1","0","5","5","4","4","4","4","5","4","4","5","6","8","5","7","6","3","5","6","6","5","2","3","2","2","2","3","5","5","5","1","3","2","5","3","2","5","3","6","3","2","3","3","2","3","3","3","2","3","6","5","7","5","5","3","3","6","3","3","3","5","715186425389121536","G","312","Female","[""好我"",""坏我"",""好她"",""坏她""]","[""强我"",""弱我"",""强她"",""弱她""]","","","","","","","","8","","","","","","","","","SRET","SRET_math_calculate","","key","8","6.94464379084963","768","428","","","","","4*2= ?","8","1","","","","","","","",""
"2167","","5","psychophysics","136","423699","0.0-7.0-5.0-0.33","5","5","6","5","5","5","4","4","4","4","4","0","1","-2","1","0","0","1","0","5","5","4","4","4","4","5","4","4","5","6","8","5","7","6","3","5","6","6","5","2","3","2","2","2","3","5","5","5","1","3","2","5","3","2","5","3","6","3","2","3","3","2","3","3","3","2","3","6","5","7","5","5","3","3","6","3","3","3","5","715186425389121536","G","312","Female","[""好我"",""坏我"",""好她"",""坏她""]","[""强我"",""弱我"",""强她"",""弱她""]","","","","","","","","5","","","","","","","","","SRET","SRET_math_calculate","","key","5","6.946290734824323","768","428","","","","","17-12= ? ","5","1","","","","","","","",""
"3594","","7","psychophysics","137","427304","0.0-7.0-5.0-0.34","5","5","6","5","5","5","4","4","4","4","4","0","1","-2","1","0","0","1","0","5","5","4","4","4","4","5","4","4","5","6","8","5","7","6","3","5","6","6","5","2","3","2","2","2","3","5","5","5","1","3","2","5","3","2","5","3","6","3","2","3","3","2","3","3","3","2","3","6","5","7","5","5","3","3","6","3","3","3","5","715186425389121536","G","312","Female","[""好我"",""坏我"",""好她"",""坏她""]","[""强我"",""弱我"",""强她"",""弱她""]","","","","","","","","7","","","","","","","","","SRET","SRET_math_calculate","","key","7","6.944469111969085","768","428","","","","","49/7 = ?","7","1","","","","","","","",""
"2011","","6","psychophysics","138","429325","0.0-7.0-5.0-0.35","5","5","6","5","5","5","4","4","4","4","4","0","1","-2","1","0","0","1","0","5","5","4","4","4","4","5","4","4","5","6","8","5","7","6","3","5","6","6","5","2","3","2","2","2","3","5","5","5","1","3","2","5","3","2","5","3","6","3","2","3","3","2","3","3","3","2","3","6","5","7","5","5","3","3","6","3","3","3","5","715186425389121536","G","312","Female","[""好我"",""坏我"",""好她"",""坏她""]","[""强我"",""弱我"",""强她"",""弱她""]","","","","","","","","6","","","","","","","","","SRET","SRET_math_calculate","","key","6","6.94467931034481","768","428","","","","","5+1= ?","6","1","","","","","","","",""
"1981","","7","psychophysics","139","431316","0.0-7.0-5.0-0.36","5","5","6","5","5","5","4","4","4","4","4","0","1","-2","1","0","0","1","0","5","5","4","4","4","4","5","4","4","5","6","8","5","7","6","3","5","6","6","5","2","3","2","2","2","3","5","5","5","1","3","2","5","3","2","5","3","6","3","2","3","3","2","3","3","3","2","3","6","5","7","5","5","3","3","6","3","3","3","5","715186425389121536","G","312","Female","[""好我"",""坏我"",""好她"",""坏她""]","[""强我"",""弱我"",""强她"",""弱她""]","","","","","","","","7","","","","","","","","","SRET","SRET_math_calculate","","key","7","6.944587412587419","768","428","","","","","3+4= ?","7","1","","","","","","","",""
"4108","","7","psychophysics","140","435435","0.0-7.0-5.0-0.37","5","5","6","5","5","5","4","4","4","4","4","0","1","-2","1","0","0","1","0","5","5","4","4","4","4","5","4","4","5","6","8","5","7","6","3","5","6","6","5","2","3","2","2","2","3","5","5","5","1","3","2","5","3","2","5","3","6","3","2","3","3","2","3","3","3","2","3","6","5","7","5","5","3","3","6","3","3","3","5","715186425389121536","G","312","Female","[""好我"",""坏我"",""好她"",""坏她""]","[""强我"",""弱我"",""强她"",""弱她""]","","","","","","","","7","","","","","","","","","SRET","SRET_math_calculate","","key","7","6.944543918918892","768","428","","","","","13-6= ?","7","1","","","","","","","",""
"2374","","9","psychophysics","141","437820","0.0-7.0-5.0-0.38","5","5","6","5","5","5","4","4","4","4","4","0","1","-2","1","0","0","1","0","5","5","4","4","4","4","5","4","4","5","6","8","5","7","6","3","5","6","6","5","2","3","2","2","2","3","5","5","5","1","3","2","5","3","2","5","3","6","3","2","3","3","2","3","3","3","2","3","6","5","7","5","5","3","3","6","3","3","3","5","715186425389121536","G","312","Female","[""好我"",""坏我"",""好她"",""坏她""]","[""强我"",""弱我"",""强她"",""弱她""]","","","","","","","","9","","","","","","","","","SRET","SRET_math_calculate","","key","9","6.944789473684089","768","428","","","","","32-23= ?","9","1","","","","","","","",""
"2086","","3","psychophysics","142","439922","0.0-7.0-5.0-0.39","5","5","6","5","5","5","4","4","4","4","4","0","1","-2","1","0","0","1","0","5","5","4","4","4","4","5","4","4","5","6","8","5","7","6","3","5","6","6","5","2","3","2","2","2","3","5","5","5","1","3","2","5","3","2","5","3","6","3","2","3","3","2","3","3","3","2","3","6","5","7","5","5","3","3","6","3","3","3","5","715186425389121536","G","312","Female","[""好我"",""坏我"",""好她"",""坏她""]","[""强我"",""弱我"",""强她"",""弱她""]","","","","","","","","3","","","","","","","","","SRET","SRET_math_calculate","","key","3","6.970737541528369","768","428","","","","","3+0= ?","3","1","","","","","","","",""
