"rt","stimulus","response","trial_type","trial_index","time_elapsed","internal_node_id","swb_1","swb_2","swb_3","swb_4","swb_5","LOT_1","LOT_2","LOT_3","LOT_4","LOT_5","LOT_6","IPC_1","IPC_2","IPC_3","IPC_4","IPC_5","IPC_6","IPC_7","IPC_8","MorIden_1","MorIden_2","MorIden_3","MorIden_4","MorIden_5","MorIden_6","MorIden_7","MorIden_8","MorIden_9","MorIden_10","moralSeImag_1","moralSeImag_2","moralSeImag_3","moralSeImag_4","moralSeImag_5","moralSeImag_6","moralSeImag_7","moralSeImag_8","moralSeImag_9","sde_1","sde_2","sde_3","sde_4","sde_5","sde_6","sde_7","sde_8","sde_9","sde_10","trap2","sde_11","sde_12","sde_13","sde_14","sde_15","sde_16","sde_17","sde_18","sde_19","sde_20","IM_1","IM_2","IM_3","IM_4","IM_5","IM_6","IM_7","IM_8","IM_9","IM_10","IM_11","IM_12","IM_13","IM_14","IM_15","IM_16","IM_17","IM_18","IM_19","IM_20","subj_idx","friend_name","ParticipantID","Sex","Word","Word2","value","success","timeout","failed_images","failed_audio","failed_video","user_agent","responses","item_order","radio_event_ids","radio_event_times","key_event_times","mouse_event_times","straightlining","zigzagging","honeypot","view_history","response_type","key_press","avg_frame_time","center_x","center_y","correct_response","correct","identity","Image","word","condition","task_id","screen_id","time_stamp","person","valence","domain","math","status","duration","question_order","trap2_item"
"5694","
   <p><div style='color:white; font-size: 25px'>您好，欢迎参加本次实验。</div></p>
   <p><div style='color:white; font-size: 25px'>为充分保障您的权利，请确保您已经知晓并同意《参与实验同意书》以及《数据公开知情同意书》。</div></p>
   <p><div style='color:white; font-size: 25px'>如果您未见过上述内容，请咨询实验员。</div></p>
   <p style='color:white; font-size: 25px'>如果您选择继续实验，则表示您已经清楚两份知情同意书的内容并同意。</p>
   <p><div style = ""color: pink;font-size:30px;"">请确保您记得day0的实验编号，您将在本次实验输入该编号，若您忘记，请咨询实验员后作答。</div></p>
   <p><div style = ""color:lightblue;font-size:25px;"">请您尽可能认真地作答，我们将依据您在各问卷和按键任务中的作答质量发放报酬。</div></p>
   <p> <div style = ""color: green""><按空格键至下页></div> </p>
   "," ","html-keyboard-response","0","5697","0.0-0.0","3","2","2","3","1","5","3","2","4","5","5","1","1","-1","1","-1","1","0","1","5","4","5","5","5","3","4","4","4","3","2","3","3","4","3","3","3","4","4","5","5","2","3","5","2","5","2","5","1","1","2","2","5","3","3","2","5","2","2","3","2","3","1","1","1","5","3","3","2","7","6","3","3","3","3","5","2","7","3","5","752227872634310658","刘","14","Male","[""好他"",""坏我"",""好我"",""坏他""]","[""强他"",""弱我"",""强我"",""弱他""]","","","","","","","","","","","","","","","","","","","","","","","","","","","","","","","","","","","","","","",""
"","","","call-function","1","5698","0.0-1.0-0.0","3","2","2","3","1","5","3","2","4","5","5","1","1","-1","1","-1","1","0","1","5","4","5","5","5","3","4","4","4","3","2","3","3","4","3","3","3","4","4","5","5","2","3","5","2","5","2","5","1","1","2","2","5","3","3","2","5","2","2","3","2","3","1","1","1","5","3","3","2","7","6","3","3","3","3","5","2","7","3","5","752227872634310658","刘","14","Male","[""好他"",""坏我"",""好我"",""坏他""]","[""强他"",""弱我"",""强我"",""弱他""]","","","","","","","","","","","","","","","","","","","","","","","","","","","","","","","","","","","","","","",""
"250647","","[{""name"":""Sex"",""value"":""0""},{""name"":""friend_name"",""value"":""刘""},{""name"":""ParticipantID"",""value"":""14""}]","survey-html-form","2","256346","0.0-1.0-1.0","3","2","2","3","1","5","3","2","4","5","5","1","1","-1","1","-1","1","0","1","5","4","5","5","5","3","4","4","4","3","2","3","3","4","3","3","3","4","4","5","5","2","3","5","2","5","2","5","1","1","2","2","5","3","3","2","5","2","2","3","2","3","1","1","1","5","3","3","2","7","6","3","3","3","3","5","2","7","3","5","752227872634310658","刘","14","Male","[""好他"",""坏我"",""好我"",""坏他""]","[""强他"",""弱我"",""强我"",""弱他""]","","","","","","","","","","","","","","","","","","","","","","","","","","","","","","","","","","","","","","",""
"","","","preload","3","258585","0.0-2.0","3","2","2","3","1","5","3","2","4","5","5","1","1","-1","1","-1","1","0","1","5","4","5","5","5","3","4","4","4","3","2","3","3","4","3","3","3","4","4","5","5","2","3","5","2","5","2","5","1","1","2","2","5","3","3","2","5","2","2","3","2","3","1","1","1","5","3","3","2","7","6","3","3","3","3","5","2","7","3","5","752227872634310658","刘","14","Male","[""好他"",""坏我"",""好我"",""坏他""]","[""强他"",""弱我"",""强我"",""弱他""]","","true","false","[]","[]","[]","","","","","","","","","","","","","","","","","","","","","","","","","","","","","","","","",""
"","","","fullscreen","4","288384","0.0-3.0","3","2","2","3","1","5","3","2","4","5","5","1","1","-1","1","-1","1","0","1","5","4","5","5","5","3","4","4","4","3","2","3","3","4","3","3","3","4","4","5","5","2","3","5","2","5","2","5","1","1","2","2","5","3","3","2","5","2","2","3","2","3","1","1","1","5","3","3","2","7","6","3","3","3","3","5","2","7","3","5","752227872634310658","刘","14","Male","[""好他"",""坏我"",""好我"",""坏他""]","[""强他"",""弱我"",""强我"",""弱他""]","","true","","","","","{}","","","","","","","","","","","","","","","","","","","","","","","","","","","","","","","",""
"20899.699999999255","","{""Q01"":""3"",""Q02"":""2"",""Q03"":""2"",""Q04"":""3"",""Q05"":""1""}","survey-template","5","309286","0.0-4.0","3","2","2","3","1","5","3","2","4","5","5","1","1","-1","1","-1","1","0","1","5","4","5","5","5","3","4","4","4","3","2","3","3","4","3","3","3","4","4","5","5","2","3","5","2","5","2","5","1","1","2","2","5","3","3","2","5","2","2","3","2","3","1","1","1","5","3","3","2","7","6","3","3","3","3","5","2","7","3","5","752227872634310658","刘","14","Male","[""好他"",""坏我"",""好我"",""坏他""]","[""强他"",""弱我"",""强我"",""弱他""]","","","","","","","","{""Q01"":""3"",""Q02"":""2"",""Q03"":""2"",""Q04"":""3"",""Q05"":""1""}","[0,1,2,3,4]","[""Q01"",""Q01"",""Q02"",""Q03"",""Q04"",""Q05""]","[4607.299999998882,7891.5,10049.199999999255,11540.89999999851,13137.199999999255,16189]","[]","[4607.299999998882,7891.5,10049.199999999255,11540.89999999851,13137.199999999255,15153.699999999255,15756.699999999255,16189,20898.5]","0.4","0.5","0","","","","","","","","","","","","","","","","","","","","","","",""
"18951.800000000745","","{""Q01"":""5"",""Q02"":""3"",""Q03"":""2"",""Q04"":""4"",""Q05"":""5"",""Q06"":""5""}","survey-template","6","328241","0.0-5.0","3","2","2","3","1","5","3","2","4","5","5","1","1","-1","1","-1","1","0","1","5","4","5","5","5","3","4","4","4","3","2","3","3","4","3","3","3","4","4","5","5","2","3","5","2","5","2","5","1","1","2","2","5","3","3","2","5","2","2","3","2","3","1","1","1","5","3","3","2","7","6","3","3","3","3","5","2","7","3","5","752227872634310658","刘","14","Male","[""好他"",""坏我"",""好我"",""坏他""]","[""强他"",""弱我"",""强我"",""弱他""]","","","","","","","","{""Q01"":""5"",""Q02"":""3"",""Q03"":""2"",""Q04"":""4"",""Q05"":""5"",""Q06"":""5""}","[0,1,2,3,4,5]","[""Q01"",""Q02"",""Q03"",""Q04"",""Q05"",""Q06""]","[2310.7000000011176,4976.800000000745,7920.700000001118,10797,12327.200000001118,17478.700000001118]","[]","[2310.7000000011176,4976.800000000745,7064.5999999996275,7400.5999999996275,7920.700000001118,10388.700000001118,10797,12327.200000001118,17478.700000001118,18950.800000000745]","0.3333333333333333","0.6","0","","","","","","","","","","","","","","","","","","","","","","",""
"24479","","{""Q01"":""1"",""Q02"":""1"",""Q03"":""-1"",""Q04"":""1"",""Q05"":""-1"",""Q06"":""1"",""Q07"":""0"",""Q08"":""1""}","survey-template","7","352725","0.0-6.0","3","2","2","3","1","5","3","2","4","5","5","1","1","-1","1","-1","1","0","1","5","4","5","5","5","3","4","4","4","3","2","3","3","4","3","3","3","4","4","5","5","2","3","5","2","5","2","5","1","1","2","2","5","3","3","2","5","2","2","3","2","3","1","1","1","5","3","3","2","7","6","3","3","3","3","5","2","7","3","5","752227872634310658","刘","14","Male","[""好他"",""坏我"",""好我"",""坏他""]","[""强他"",""弱我"",""强我"",""弱他""]","","","","","","","","{""Q01"":""1"",""Q02"":""1"",""Q03"":""-1"",""Q04"":""1"",""Q05"":""-1"",""Q06"":""1"",""Q07"":""0"",""Q08"":""1""}","[0,1,2,3,4,5,6,7]","[""Q01"",""Q02"",""Q02"",""Q03"",""Q04"",""Q05"",""Q06"",""Q07"",""Q08""]","[2300.800000000745,6352.9000000003725,7621.300000000745,10502.900000000373,13666.60000000149,15959.10000000149,17882.800000000745,20357,22104.700000001118]","[]","[2300.800000000745,6352.9000000003725,7137.10000000149,7621.300000000745,10174.900000000373,10502.900000000373,13400.200000001118,13666.60000000149,15959.10000000149,17882.800000000745,20357,22104.700000001118,24477.10000000149]","0.625","0.2857142857142857","0","","","","","","","","","","","","","","","","","","","","","","",""
"6636","","","instructions","8","359364","0.0-7.0","3","2","2","3","1","5","3","2","4","5","5","1","1","-1","1","-1","1","0","1","5","4","5","5","5","3","4","4","4","3","2","3","3","4","3","3","3","4","4","5","5","2","3","5","2","5","2","5","1","1","2","2","5","3","3","2","5","2","2","3","2","3","1","1","1","5","3","3","2","7","6","3","3","3","3","5","2","7","3","5","752227872634310658","刘","14","Male","[""好他"",""坏我"",""好我"",""坏他""]","[""强他"",""弱我"",""强我"",""弱他""]","","","","","","","","","","","","","","","","","[{""page_index"":0,""viewing_time"":6635}]","","","","","","","","","","","","","","","","","","","","","",""
"56497","","","instructions","9","415864","0.0-8.0-1.0-0.0","3","2","2","3","1","5","3","2","4","5","5","1","1","-1","1","-1","1","0","1","5","4","5","5","5","3","4","4","4","3","2","3","3","4","3","3","3","4","4","5","5","2","3","5","2","5","2","5","1","1","2","2","5","3","3","2","5","2","2","3","2","3","1","1","1","5","3","3","2","7","6","3","3","3","3","5","2","7","3","5","752227872634310658","刘","14","Male","[""好他"",""坏我"",""好我"",""坏他""]","[""强他"",""弱我"",""强我"",""弱他""]","","","","","","","","","","","","","","","","","[{""page_index"":0,""viewing_time"":15541},{""page_index"":1,""viewing_time"":37982},{""page_index"":2,""viewing_time"":1756},{""page_index"":3,""viewing_time"":1218}]","","","","","","","","","","","","","","","","","","","","","",""
"null","","null","psychophysics","10","418070","0.0-8.0-1.0-1.0-0.0-0.0","3","2","2","3","1","5","3","2","4","5","5","1","1","-1","1","-1","1","0","1","5","4","5","5","5","3","4","4","4","3","2","3","3","4","3","3","3","4","4","5","5","2","3","5","2","5","2","5","1","1","2","2","5","3","3","2","5","2","2","3","2","3","1","1","1","5","3","3","2","7","6","3","3","3","3","5","2","7","3","5","752227872634310658","刘","14","Male","[""好他"",""坏我"",""好我"",""坏他""]","[""强他"",""弱我"",""强我"",""弱他""]","","","","","","","","null","","","","","","","","","","key","null","16.66672519083981","640","356","f","false","match","img/ellipse.png","弱他","弱他","prac_ALT2_ability","practice_ability","","","","","","","","",""
"null","<span class='add_' style='color:yellow; font-size: 70px;'> 太慢! </span>","null","html-keyboard-response","11","418574","0.0-8.0-1.0-1.0-0.0-1.0","3","2","2","3","1","5","3","2","4","5","5","1","1","-1","1","-1","1","0","1","5","4","5","5","5","3","4","4","4","3","2","3","3","4","3","3","3","4","4","5","5","2","3","5","2","5","2","5","1","1","2","2","5","3","3","2","5","2","2","3","2","3","1","1","1","5","3","3","2","7","6","3","3","3","3","5","2","7","3","5","752227872634310658","刘","14","Male","[""好他"",""坏我"",""好我"",""坏他""]","[""强他"",""弱我"",""强我"",""弱他""]","","","","","","","","","","","","","","","","","","","","","","","","","","","","","","feedback_test","","","","","","","","",""
"802","","f","psychophysics","12","420380","0.0-8.0-1.0-1.0-0.0-0.1","3","2","2","3","1","5","3","2","4","5","5","1","1","-1","1","-1","1","0","1","5","4","5","5","5","3","4","4","4","3","2","3","3","4","3","3","3","4","4","5","5","2","3","5","2","5","2","5","1","1","2","2","5","3","3","2","5","2","2","3","2","3","1","1","1","5","3","3","2","7","6","3","3","3","3","5","2","7","3","5","752227872634310658","刘","14","Male","[""好他"",""坏我"",""好我"",""坏他""]","[""强他"",""弱我"",""强我"",""弱他""]","","","","","","","","match","","","","","","","","","","key","f","16.665504672896947","640","356","f","true","match","img/hexagon.png","强他","强他","prac_ALT2_ability","practice_ability","","","","","","","","",""
"null","<span style='color:GreenYellow; font-size: 70px;'>正确! </span>","null","html-keyboard-response","13","420883","0.0-8.0-1.0-1.0-0.0-1.1","3","2","2","3","1","5","3","2","4","5","5","1","1","-1","1","-1","1","0","1","5","4","5","5","5","3","4","4","4","3","2","3","3","4","3","3","3","4","4","5","5","2","3","5","2","5","2","5","1","1","2","2","5","3","3","2","5","2","2","3","2","3","1","1","1","5","3","3","2","7","6","3","3","3","3","5","2","7","3","5","752227872634310658","刘","14","Male","[""好他"",""坏我"",""好我"",""坏他""]","[""强他"",""弱我"",""强我"",""弱他""]","","","","","","","","","","","","","","","","","","","","","","","","","","","","","","feedback_test","","","","","","","","",""
"766","","f","psychophysics","14","422652","0.0-8.0-1.0-1.0-0.0-0.2","3","2","2","3","1","5","3","2","4","5","5","1","1","-1","1","-1","1","0","1","5","4","5","5","5","3","4","4","4","3","2","3","3","4","3","3","3","4","4","5","5","2","3","5","2","5","2","5","1","1","2","2","5","3","3","2","5","2","2","3","2","3","1","1","1","5","3","3","2","7","6","3","3","3","3","5","2","7","3","5","752227872634310658","刘","14","Male","[""好他"",""坏我"",""好我"",""坏他""]","[""强他"",""弱我"",""强我"",""弱他""]","","","","","","","","match","","","","","","","","","","key","f","16.665019047618955","640","356","f","true","match","img/diamond.png","强我","强我","prac_ALT2_ability","practice_ability","","","","","","","","",""
"null","<span style='color:GreenYellow; font-size: 70px;'>正确! </span>","null","html-keyboard-response","15","423153","0.0-8.0-1.0-1.0-0.0-1.2","3","2","2","3","1","5","3","2","4","5","5","1","1","-1","1","-1","1","0","1","5","4","5","5","5","3","4","4","4","3","2","3","3","4","3","3","3","4","4","5","5","2","3","5","2","5","2","5","1","1","2","2","5","3","3","2","5","2","2","3","2","3","1","1","1","5","3","3","2","7","6","3","3","3","3","5","2","7","3","5","752227872634310658","刘","14","Male","[""好他"",""坏我"",""好我"",""坏他""]","[""强他"",""弱我"",""强我"",""弱他""]","","","","","","","","","","","","","","","","","","","","","","","","","","","","","","feedback_test","","","","","","","","",""
"517","","j","psychophysics","16","424673","0.0-8.0-1.0-1.0-0.0-0.3","3","2","2","3","1","5","3","2","4","5","5","1","1","-1","1","-1","1","0","1","5","4","5","5","5","3","4","4","4","3","2","3","3","4","3","3","3","4","4","5","5","2","3","5","2","5","2","5","1","1","2","2","5","3","3","2","5","2","2","3","2","3","1","1","1","5","3","3","2","7","6","3","3","3","3","5","2","7","3","5","752227872634310658","刘","14","Male","[""好他"",""坏我"",""好我"",""坏他""]","[""强他"",""弱我"",""强我"",""弱他""]","","","","","","","","nonmatch","","","","","","","","","","key","j","16.66831111111096","640","356","f","false","match","img/trapezoid.png","弱我","弱我","prac_ALT2_ability","practice_ability","","","","","","","","",""
"null","<span style='color:red; font-size: 70px;'>错误! </span>","null","html-keyboard-response","17","425176","0.0-8.0-1.0-1.0-0.0-1.3","3","2","2","3","1","5","3","2","4","5","5","1","1","-1","1","-1","1","0","1","5","4","5","5","5","3","4","4","4","3","2","3","3","4","3","3","3","4","4","5","5","2","3","5","2","5","2","5","1","1","2","2","5","3","3","2","5","2","2","3","2","3","1","1","1","5","3","3","2","7","6","3","3","3","3","5","2","7","3","5","752227872634310658","刘","14","Male","[""好他"",""坏我"",""好我"",""坏他""]","[""强他"",""弱我"",""强我"",""弱他""]","","","","","","","","","","","","","","","","","","","","","","","","","","","","","","feedback_test","","","","","","","","",""
"412","","f","psychophysics","18","426590","0.0-8.0-1.0-1.0-0.0-0.4","3","2","2","3","1","5","3","2","4","5","5","1","1","-1","1","-1","1","0","1","5","4","5","5","5","3","4","4","4","3","2","3","3","4","3","3","3","4","4","5","5","2","3","5","2","5","2","5","1","1","2","2","5","3","3","2","5","2","2","3","2","3","1","1","1","5","3","3","2","7","6","3","3","3","3","5","2","7","3","5","752227872634310658","刘","14","Male","[""好他"",""坏我"",""好我"",""坏他""]","[""强他"",""弱我"",""强我"",""弱他""]","","","","","","","","match","","","","","","","","","","key","f","16.66691666666676","640","356","j","false","nonmatch","img/trapezoid.png","弱他","弱我","prac_ALT2_ability","practice_ability","","","","","","","","",""
"null","<span style='color:red; font-size: 70px;'>错误! </span>","null","html-keyboard-response","19","427092","0.0-8.0-1.0-1.0-0.0-1.4","3","2","2","3","1","5","3","2","4","5","5","1","1","-1","1","-1","1","0","1","5","4","5","5","5","3","4","4","4","3","2","3","3","4","3","3","3","4","4","5","5","2","3","5","2","5","2","5","1","1","2","2","5","3","3","2","5","2","2","3","2","3","1","1","1","5","3","3","2","7","6","3","3","3","3","5","2","7","3","5","752227872634310658","刘","14","Male","[""好他"",""坏我"",""好我"",""坏他""]","[""强他"",""弱我"",""强我"",""弱他""]","","","","","","","","","","","","","","","","","","","","","","","","","","","","","","feedback_test","","","","","","","","",""
"312","","j","psychophysics","20","428408","0.0-8.0-1.0-1.0-0.0-0.5","3","2","2","3","1","5","3","2","4","5","5","1","1","-1","1","-1","1","0","1","5","4","5","5","5","3","4","4","4","3","2","3","3","4","3","3","3","4","4","5","5","2","3","5","2","5","2","5","1","1","2","2","5","3","3","2","5","2","2","3","2","3","1","1","1","5","3","3","2","7","6","3","3","3","3","5","2","7","3","5","752227872634310658","刘","14","Male","[""好他"",""坏我"",""好我"",""坏他""]","[""强他"",""弱我"",""强我"",""弱他""]","","","","","","","","nonmatch","","","","","","","","","","key","j","16.667448717948552","640","356","j","true","nonmatch","img/diamond.png","强他","强我","prac_ALT2_ability","practice_ability","","","","","","","","",""
"null","<span style='color:GreenYellow; font-size: 70px;'>正确! </span>","null","html-keyboard-response","21","428909","0.0-8.0-1.0-1.0-0.0-1.5","3","2","2","3","1","5","3","2","4","5","5","1","1","-1","1","-1","1","0","1","5","4","5","5","5","3","4","4","4","3","2","3","3","4","3","3","3","4","4","5","5","2","3","5","2","5","2","5","1","1","2","2","5","3","3","2","5","2","2","3","2","3","1","1","1","5","3","3","2","7","6","3","3","3","3","5","2","7","3","5","752227872634310658","刘","14","Male","[""好他"",""坏我"",""好我"",""坏他""]","[""强他"",""弱我"",""强我"",""弱他""]","","","","","","","","","","","","","","","","","","","","","","","","","","","","","","feedback_test","","","","","","","","",""
"368","","f","psychophysics","22","430279","0.0-8.0-1.0-1.0-0.0-0.6","3","2","2","3","1","5","3","2","4","5","5","1","1","-1","1","-1","1","0","1","5","4","5","5","5","3","4","4","4","3","2","3","3","4","3","3","3","4","4","5","5","2","3","5","2","5","2","5","1","1","2","2","5","3","3","2","5","2","2","3","2","3","1","1","1","5","3","3","2","7","6","3","3","3","3","5","2","7","3","5","752227872634310658","刘","14","Male","[""好他"",""坏我"",""好我"",""坏他""]","[""强他"",""弱我"",""强我"",""弱他""]","","","","","","","","match","","","","","","","","","","key","f","16.666938271604902","640","356","f","true","match","img/hexagon.png","强他","强他","prac_ALT2_ability","practice_ability","","","","","","","","",""
"null","<span style='color:GreenYellow; font-size: 70px;'>正确! </span>","null","html-keyboard-response","23","430783","0.0-8.0-1.0-1.0-0.0-1.6","3","2","2","3","1","5","3","2","4","5","5","1","1","-1","1","-1","1","0","1","5","4","5","5","5","3","4","4","4","3","2","3","3","4","3","3","3","4","4","5","5","2","3","5","2","5","2","5","1","1","2","2","5","3","3","2","5","2","2","3","2","3","1","1","1","5","3","3","2","7","6","3","3","3","3","5","2","7","3","5","752227872634310658","刘","14","Male","[""好他"",""坏我"",""好我"",""坏他""]","[""强他"",""弱我"",""强我"",""弱他""]","","","","","","","","","","","","","","","","","","","","","","","","","","","","","","feedback_test","","","","","","","","",""
"343","","j","psychophysics","24","432129","0.0-8.0-1.0-1.0-0.0-0.7","3","2","2","3","1","5","3","2","4","5","5","1","1","-1","1","-1","1","0","1","5","4","5","5","5","3","4","4","4","3","2","3","3","4","3","3","3","4","4","5","5","2","3","5","2","5","2","5","1","1","2","2","5","3","3","2","5","2","2","3","2","3","1","1","1","5","3","3","2","7","6","3","3","3","3","5","2","7","3","5","752227872634310658","刘","14","Male","[""好他"",""坏我"",""好我"",""坏他""]","[""强他"",""弱我"",""强我"",""弱他""]","","","","","","","","nonmatch","","","","","","","","","","key","j","16.665215189873","640","356","j","true","nonmatch","img/hexagon.png","强我","强他","prac_ALT2_ability","practice_ability","","","","","","","","",""
"null","<span style='color:GreenYellow; font-size: 70px;'>正确! </span>","null","html-keyboard-response","25","432630","0.0-8.0-1.0-1.0-0.0-1.7","3","2","2","3","1","5","3","2","4","5","5","1","1","-1","1","-1","1","0","1","5","4","5","5","5","3","4","4","4","3","2","3","3","4","3","3","3","4","4","5","5","2","3","5","2","5","2","5","1","1","2","2","5","3","3","2","5","2","2","3","2","3","1","1","1","5","3","3","2","7","6","3","3","3","3","5","2","7","3","5","752227872634310658","刘","14","Male","[""好他"",""坏我"",""好我"",""坏他""]","[""强他"",""弱我"",""强我"",""弱他""]","","","","","","","","","","","","","","","","","","","","","","","","","","","","","","feedback_test","","","","","","","","",""
"481","","f","psychophysics","26","434114","0.0-8.0-1.0-1.0-0.0-0.8","3","2","2","3","1","5","3","2","4","5","5","1","1","-1","1","-1","1","0","1","5","4","5","5","5","3","4","4","4","3","2","3","3","4","3","3","3","4","4","5","5","2","3","5","2","5","2","5","1","1","2","2","5","3","3","2","5","2","2","3","2","3","1","1","1","5","3","3","2","7","6","3","3","3","3","5","2","7","3","5","752227872634310658","刘","14","Male","[""好他"",""坏我"",""好我"",""坏他""]","[""强他"",""弱我"",""强我"",""弱他""]","","","","","","","","match","","","","","","","","","","key","f","16.66641379310348","640","356","j","false","nonmatch","img/ellipse.png","弱我","弱他","prac_ALT2_ability","practice_ability","","","","","","","","",""
"null","<span style='color:red; font-size: 70px;'>错误! </span>","null","html-keyboard-response","27","434617","0.0-8.0-1.0-1.0-0.0-1.8","3","2","2","3","1","5","3","2","4","5","5","1","1","-1","1","-1","1","0","1","5","4","5","5","5","3","4","4","4","3","2","3","3","4","3","3","3","4","4","5","5","2","3","5","2","5","2","5","1","1","2","2","5","3","3","2","5","2","2","3","2","3","1","1","1","5","3","3","2","7","6","3","3","3","3","5","2","7","3","5","752227872634310658","刘","14","Male","[""好他"",""坏我"",""好我"",""坏他""]","[""强他"",""弱我"",""强我"",""弱他""]","","","","","","","","","","","","","","","","","","","","","","","","","","","","","","feedback_test","","","","","","","","",""
"331","","j","psychophysics","28","435951","0.0-8.0-1.0-1.0-0.0-0.9","3","2","2","3","1","5","3","2","4","5","5","1","1","-1","1","-1","1","0","1","5","4","5","5","5","3","4","4","4","3","2","3","3","4","3","3","3","4","4","5","5","2","3","5","2","5","2","5","1","1","2","2","5","3","3","2","5","2","2","3","2","3","1","1","1","5","3","3","2","7","6","3","3","3","3","5","2","7","3","5","752227872634310658","刘","14","Male","[""好他"",""坏我"",""好我"",""坏他""]","[""强他"",""弱我"",""强我"",""弱他""]","","","","","","","","nonmatch","","","","","","","","","","key","j","16.669037974683445","640","356","j","true","nonmatch","img/hexagon.png","弱他","强他","prac_ALT2_ability","practice_ability","","","","","","","","",""
"null","<span style='color:GreenYellow; font-size: 70px;'>正确! </span>","null","html-keyboard-response","29","436455","0.0-8.0-1.0-1.0-0.0-1.9","3","2","2","3","1","5","3","2","4","5","5","1","1","-1","1","-1","1","0","1","5","4","5","5","5","3","4","4","4","3","2","3","3","4","3","3","3","4","4","5","5","2","3","5","2","5","2","5","1","1","2","2","5","3","3","2","5","2","2","3","2","3","1","1","1","5","3","3","2","7","6","3","3","3","3","5","2","7","3","5","752227872634310658","刘","14","Male","[""好他"",""坏我"",""好我"",""坏他""]","[""强他"",""弱我"",""强我"",""弱他""]","","","","","","","","","","","","","","","","","","","","","","","","","","","","","","feedback_test","","","","","","","","",""
"314","","f","psychophysics","30","437772","0.0-8.0-1.0-1.0-0.0-0.10","3","2","2","3","1","5","3","2","4","5","5","1","1","-1","1","-1","1","0","1","5","4","5","5","5","3","4","4","4","3","2","3","3","4","3","3","3","4","4","5","5","2","3","5","2","5","2","5","1","1","2","2","5","3","3","2","5","2","2","3","2","3","1","1","1","5","3","3","2","7","6","3","3","3","3","5","2","7","3","5","752227872634310658","刘","14","Male","[""好他"",""坏我"",""好我"",""坏他""]","[""强他"",""弱我"",""强我"",""弱他""]","","","","","","","","match","","","","","","","","","","key","f","16.66725641025681","640","356","f","true","match","img/ellipse.png","弱他","弱他","prac_ALT2_ability","practice_ability","","","","","","","","",""
"null","<span style='color:GreenYellow; font-size: 70px;'>正确! </span>","null","html-keyboard-response","31","438274","0.0-8.0-1.0-1.0-0.0-1.10","3","2","2","3","1","5","3","2","4","5","5","1","1","-1","1","-1","1","0","1","5","4","5","5","5","3","4","4","4","3","2","3","3","4","3","3","3","4","4","5","5","2","3","5","2","5","2","5","1","1","2","2","5","3","3","2","5","2","2","3","2","3","1","1","1","5","3","3","2","7","6","3","3","3","3","5","2","7","3","5","752227872634310658","刘","14","Male","[""好他"",""坏我"",""好我"",""坏他""]","[""强他"",""弱我"",""强我"",""弱他""]","","","","","","","","","","","","","","","","","","","","","","","","","","","","","","feedback_test","","","","","","","","",""
"365","","j","psychophysics","32","439640","0.0-8.0-1.0-1.0-0.0-0.11","3","2","2","3","1","5","3","2","4","5","5","1","1","-1","1","-1","1","0","1","5","4","5","5","5","3","4","4","4","3","2","3","3","4","3","3","3","4","4","5","5","2","3","5","2","5","2","5","1","1","2","2","5","3","3","2","5","2","2","3","2","3","1","1","1","5","3","3","2","7","6","3","3","3","3","5","2","7","3","5","752227872634310658","刘","14","Male","[""好他"",""坏我"",""好我"",""坏他""]","[""强他"",""弱我"",""强我"",""弱他""]","","","","","","","","nonmatch","","","","","","","","","","key","j","16.666123456790192","640","356","j","true","nonmatch","img/hexagon.png","弱我","强他","prac_ALT2_ability","practice_ability","","","","","","","","",""
"null","<span style='color:GreenYellow; font-size: 70px;'>正确! </span>","null","html-keyboard-response","33","440142","0.0-8.0-1.0-1.0-0.0-1.11","3","2","2","3","1","5","3","2","4","5","5","1","1","-1","1","-1","1","0","1","5","4","5","5","5","3","4","4","4","3","2","3","3","4","3","3","3","4","4","5","5","2","3","5","2","5","2","5","1","1","2","2","5","3","3","2","5","2","2","3","2","3","1","1","1","5","3","3","2","7","6","3","3","3","3","5","2","7","3","5","752227872634310658","刘","14","Male","[""好他"",""坏我"",""好我"",""坏他""]","[""强他"",""弱我"",""强我"",""弱他""]","","","","","","","","","","","","","","","","","","","","","","","","","","","","","","feedback_test","","","","","","","","",""
"299","","f","psychophysics","34","441444","0.0-8.0-1.0-1.0-0.0-0.12","3","2","2","3","1","5","3","2","4","5","5","1","1","-1","1","-1","1","0","1","5","4","5","5","5","3","4","4","4","3","2","3","3","4","3","3","3","4","4","5","5","2","3","5","2","5","2","5","1","1","2","2","5","3","3","2","5","2","2","3","2","3","1","1","1","5","3","3","2","7","6","3","3","3","3","5","2","7","3","5","752227872634310658","刘","14","Male","[""好他"",""坏我"",""好我"",""坏他""]","[""强他"",""弱我"",""强我"",""弱他""]","","","","","","","","match","","","","","","","","","","key","f","16.666116883117226","640","356","f","true","match","img/ellipse.png","弱他","弱他","prac_ALT2_ability","practice_ability","","","","","","","","",""
"null","<span style='color:GreenYellow; font-size: 70px;'>正确! </span>","null","html-keyboard-response","35","441946","0.0-8.0-1.0-1.0-0.0-1.12","3","2","2","3","1","5","3","2","4","5","5","1","1","-1","1","-1","1","0","1","5","4","5","5","5","3","4","4","4","3","2","3","3","4","3","3","3","4","4","5","5","2","3","5","2","5","2","5","1","1","2","2","5","3","3","2","5","2","2","3","2","3","1","1","1","5","3","3","2","7","6","3","3","3","3","5","2","7","3","5","752227872634310658","刘","14","Male","[""好他"",""坏我"",""好我"",""坏他""]","[""强他"",""弱我"",""强我"",""弱他""]","","","","","","","","","","","","","","","","","","","","","","","","","","","","","","feedback_test","","","","","","","","",""
"462","","j","psychophysics","36","443410","0.0-8.0-1.0-1.0-0.0-0.13","3","2","2","3","1","5","3","2","4","5","5","1","1","-1","1","-1","1","0","1","5","4","5","5","5","3","4","4","4","3","2","3","3","4","3","3","3","4","4","5","5","2","3","5","2","5","2","5","1","1","2","2","5","3","3","2","5","2","2","3","2","3","1","1","1","5","3","3","2","7","6","3","3","3","3","5","2","7","3","5","752227872634310658","刘","14","Male","[""好他"",""坏我"",""好我"",""坏他""]","[""强他"",""弱我"",""强我"",""弱他""]","","","","","","","","nonmatch","","","","","","","","","","key","j","16.65115116279082","640","356","j","true","nonmatch","img/ellipse.png","强我","弱他","prac_ALT2_ability","practice_ability","","","","","","","","",""
"null","<span style='color:GreenYellow; font-size: 70px;'>正确! </span>","null","html-keyboard-response","37","443913","0.0-8.0-1.0-1.0-0.0-1.13","3","2","2","3","1","5","3","2","4","5","5","1","1","-1","1","-1","1","0","1","5","4","5","5","5","3","4","4","4","3","2","3","3","4","3","3","3","4","4","5","5","2","3","5","2","5","2","5","1","1","2","2","5","3","3","2","5","2","2","3","2","3","1","1","1","5","3","3","2","7","6","3","3","3","3","5","2","7","3","5","752227872634310658","刘","14","Male","[""好他"",""坏我"",""好我"",""坏他""]","[""强他"",""弱我"",""强我"",""弱他""]","","","","","","","","","","","","","","","","","","","","","","","","","","","","","","feedback_test","","","","","","","","",""
"377","","f","psychophysics","38","445293","0.0-8.0-1.0-1.0-0.0-0.14","3","2","2","3","1","5","3","2","4","5","5","1","1","-1","1","-1","1","0","1","5","4","5","5","5","3","4","4","4","3","2","3","3","4","3","3","3","4","4","5","5","2","3","5","2","5","2","5","1","1","2","2","5","3","3","2","5","2","2","3","2","3","1","1","1","5","3","3","2","7","6","3","3","3","3","5","2","7","3","5","752227872634310658","刘","14","Male","[""好他"",""坏我"",""好我"",""坏他""]","[""强他"",""弱我"",""强我"",""弱他""]","","","","","","","","match","","","","","","","","","","key","f","16.66358024691358","640","356","j","false","nonmatch","img/diamond.png","弱我","强我","prac_ALT2_ability","practice_ability","","","","","","","","",""
"null","<span style='color:red; font-size: 70px;'>错误! </span>","null","html-keyboard-response","39","445794","0.0-8.0-1.0-1.0-0.0-1.14","3","2","2","3","1","5","3","2","4","5","5","1","1","-1","1","-1","1","0","1","5","4","5","5","5","3","4","4","4","3","2","3","3","4","3","3","3","4","4","5","5","2","3","5","2","5","2","5","1","1","2","2","5","3","3","2","5","2","2","3","2","3","1","1","1","5","3","3","2","7","6","3","3","3","3","5","2","7","3","5","752227872634310658","刘","14","Male","[""好他"",""坏我"",""好我"",""坏他""]","[""强他"",""弱我"",""强我"",""弱他""]","","","","","","","","","","","","","","","","","","","","","","","","","","","","","","feedback_test","","","","","","","","",""
"417","","j","psychophysics","40","447212","0.0-8.0-1.0-1.0-0.0-0.15","3","2","2","3","1","5","3","2","4","5","5","1","1","-1","1","-1","1","0","1","5","4","5","5","5","3","4","4","4","3","2","3","3","4","3","3","3","4","4","5","5","2","3","5","2","5","2","5","1","1","2","2","5","3","3","2","5","2","2","3","2","3","1","1","1","5","3","3","2","7","6","3","3","3","3","5","2","7","3","5","752227872634310658","刘","14","Male","[""好他"",""坏我"",""好我"",""坏他""]","[""强他"",""弱我"",""强我"",""弱他""]","","","","","","","","nonmatch","","","","","","","","","","key","j","16.66921428571472","640","356","f","false","match","img/diamond.png","强我","强我","prac_ALT2_ability","practice_ability","","","","","","","","",""
"null","<span style='color:red; font-size: 70px;'>错误! </span>","null","html-keyboard-response","41","447715","0.0-8.0-1.0-1.0-0.0-1.15","3","2","2","3","1","5","3","2","4","5","5","1","1","-1","1","-1","1","0","1","5","4","5","5","5","3","4","4","4","3","2","3","3","4","3","3","3","4","4","5","5","2","3","5","2","5","2","5","1","1","2","2","5","3","3","2","5","2","2","3","2","3","1","1","1","5","3","3","2","7","6","3","3","3","3","5","2","7","3","5","752227872634310658","刘","14","Male","[""好他"",""坏我"",""好我"",""坏他""]","[""强他"",""弱我"",""强我"",""弱他""]","","","","","","","","","","","","","","","","","","","","","","","","","","","","","","feedback_test","","","","","","","","",""
"364","","f","psychophysics","42","449082","0.0-8.0-1.0-1.0-0.0-0.16","3","2","2","3","1","5","3","2","4","5","5","1","1","-1","1","-1","1","0","1","5","4","5","5","5","3","4","4","4","3","2","3","3","4","3","3","3","4","4","5","5","2","3","5","2","5","2","5","1","1","2","2","5","3","3","2","5","2","2","3","2","3","1","1","1","5","3","3","2","7","6","3","3","3","3","5","2","7","3","5","752227872634310658","刘","14","Male","[""好他"",""坏我"",""好我"",""坏他""]","[""强他"",""弱我"",""强我"",""弱他""]","","","","","","","","match","","","","","","","","","","key","f","16.66637037036995","640","356","j","false","nonmatch","img/trapezoid.png","强他","弱我","prac_ALT2_ability","practice_ability","","","","","","","","",""
"null","<span style='color:red; font-size: 70px;'>错误! </span>","null","html-keyboard-response","43","449585","0.0-8.0-1.0-1.0-0.0-1.16","3","2","2","3","1","5","3","2","4","5","5","1","1","-1","1","-1","1","0","1","5","4","5","5","5","3","4","4","4","3","2","3","3","4","3","3","3","4","4","5","5","2","3","5","2","5","2","5","1","1","2","2","5","3","3","2","5","2","2","3","2","3","1","1","1","5","3","3","2","7","6","3","3","3","3","5","2","7","3","5","752227872634310658","刘","14","Male","[""好他"",""坏我"",""好我"",""坏他""]","[""强他"",""弱我"",""强我"",""弱他""]","","","","","","","","","","","","","","","","","","","","","","","","","","","","","","feedback_test","","","","","","","","",""
"314","","f","psychophysics","44","450902","0.0-8.0-1.0-1.0-0.0-0.17","3","2","2","3","1","5","3","2","4","5","5","1","1","-1","1","-1","1","0","1","5","4","5","5","5","3","4","4","4","3","2","3","3","4","3","3","3","4","4","5","5","2","3","5","2","5","2","5","1","1","2","2","5","3","3","2","5","2","2","3","2","3","1","1","1","5","3","3","2","7","6","3","3","3","3","5","2","7","3","5","752227872634310658","刘","14","Male","[""好他"",""坏我"",""好我"",""坏他""]","[""强他"",""弱我"",""强我"",""弱他""]","","","","","","","","match","","","","","","","","","","key","f","16.666448717948068","640","356","f","true","match","img/diamond.png","强我","强我","prac_ALT2_ability","practice_ability","","","","","","","","",""
"null","<span style='color:GreenYellow; font-size: 70px;'>正确! </span>","null","html-keyboard-response","45","451405","0.0-8.0-1.0-1.0-0.0-1.17","3","2","2","3","1","5","3","2","4","5","5","1","1","-1","1","-1","1","0","1","5","4","5","5","5","3","4","4","4","3","2","3","3","4","3","3","3","4","4","5","5","2","3","5","2","5","2","5","1","1","2","2","5","3","3","2","5","2","2","3","2","3","1","1","1","5","3","3","2","7","6","3","3","3","3","5","2","7","3","5","752227872634310658","刘","14","Male","[""好他"",""坏我"",""好我"",""坏他""]","[""强他"",""弱我"",""强我"",""弱他""]","","","","","","","","","","","","","","","","","","","","","","","","","","","","","","feedback_test","","","","","","","","",""
"444","","f","psychophysics","46","452852","0.0-8.0-1.0-1.0-0.0-0.18","3","2","2","3","1","5","3","2","4","5","5","1","1","-1","1","-1","1","0","1","5","4","5","5","5","3","4","4","4","3","2","3","3","4","3","3","3","4","4","5","5","2","3","5","2","5","2","5","1","1","2","2","5","3","3","2","5","2","2","3","2","3","1","1","1","5","3","3","2","7","6","3","3","3","3","5","2","7","3","5","752227872634310658","刘","14","Male","[""好他"",""坏我"",""好我"",""坏他""]","[""强他"",""弱我"",""强我"",""弱他""]","","","","","","","","match","","","","","","","","","","key","f","16.666279069767985","640","356","j","false","nonmatch","img/trapezoid.png","强我","弱我","prac_ALT2_ability","practice_ability","","","","","","","","",""
"null","<span style='color:red; font-size: 70px;'>错误! </span>","null","html-keyboard-response","47","453354","0.0-8.0-1.0-1.0-0.0-1.18","3","2","2","3","1","5","3","2","4","5","5","1","1","-1","1","-1","1","0","1","5","4","5","5","5","3","4","4","4","3","2","3","3","4","3","3","3","4","4","5","5","2","3","5","2","5","2","5","1","1","2","2","5","3","3","2","5","2","2","3","2","3","1","1","1","5","3","3","2","7","6","3","3","3","3","5","2","7","3","5","752227872634310658","刘","14","Male","[""好他"",""坏我"",""好我"",""坏他""]","[""强他"",""弱我"",""强我"",""弱他""]","","","","","","","","","","","","","","","","","","","","","","","","","","","","","","feedback_test","","","","","","","","",""
"298","","j","psychophysics","48","454656","0.0-8.0-1.0-1.0-0.0-0.19","3","2","2","3","1","5","3","2","4","5","5","1","1","-1","1","-1","1","0","1","5","4","5","5","5","3","4","4","4","3","2","3","3","4","3","3","3","4","4","5","5","2","3","5","2","5","2","5","1","1","2","2","5","3","3","2","5","2","2","3","2","3","1","1","1","5","3","3","2","7","6","3","3","3","3","5","2","7","3","5","752227872634310658","刘","14","Male","[""好他"",""坏我"",""好我"",""坏他""]","[""强他"",""弱我"",""强我"",""弱他""]","","","","","","","","nonmatch","","","","","","","","","","key","j","16.666649350649283","640","356","j","true","nonmatch","img/ellipse.png","强他","弱他","prac_ALT2_ability","practice_ability","","","","","","","","",""
"null","<span style='color:GreenYellow; font-size: 70px;'>正确! </span>","null","html-keyboard-response","49","455159","0.0-8.0-1.0-1.0-0.0-1.19","3","2","2","3","1","5","3","2","4","5","5","1","1","-1","1","-1","1","0","1","5","4","5","5","5","3","4","4","4","3","2","3","3","4","3","3","3","4","4","5","5","2","3","5","2","5","2","5","1","1","2","2","5","3","3","2","5","2","2","3","2","3","1","1","1","5","3","3","2","7","6","3","3","3","3","5","2","7","3","5","752227872634310658","刘","14","Male","[""好他"",""坏我"",""好我"",""坏他""]","[""强他"",""弱我"",""强我"",""弱他""]","","","","","","","","","","","","","","","","","","","","","","","","","","","","","","feedback_test","","","","","","","","",""
"250","","f","psychophysics","50","456410","0.0-8.0-1.0-1.0-0.0-0.20","3","2","2","3","1","5","3","2","4","5","5","1","1","-1","1","-1","1","0","1","5","4","5","5","5","3","4","4","4","3","2","3","3","4","3","3","3","4","4","5","5","2","3","5","2","5","2","5","1","1","2","2","5","3","3","2","5","2","2","3","2","3","1","1","1","5","3","3","2","7","6","3","3","3","3","5","2","7","3","5","752227872634310658","刘","14","Male","[""好他"",""坏我"",""好我"",""坏他""]","[""强他"",""弱我"",""强我"",""弱他""]","","","","","","","","match","","","","","","","","","","key","f","16.667472972973513","640","356","f","true","match","img/trapezoid.png","弱我","弱我","prac_ALT2_ability","practice_ability","","","","","","","","",""
"null","<span style='color:GreenYellow; font-size: 70px;'>正确! </span>","null","html-keyboard-response","51","456912","0.0-8.0-1.0-1.0-0.0-1.20","3","2","2","3","1","5","3","2","4","5","5","1","1","-1","1","-1","1","0","1","5","4","5","5","5","3","4","4","4","3","2","3","3","4","3","3","3","4","4","5","5","2","3","5","2","5","2","5","1","1","2","2","5","3","3","2","5","2","2","3","2","3","1","1","1","5","3","3","2","7","6","3","3","3","3","5","2","7","3","5","752227872634310658","刘","14","Male","[""好他"",""坏我"",""好我"",""坏他""]","[""强他"",""弱我"",""强我"",""弱他""]","","","","","","","","","","","","","","","","","","","","","","","","","","","","","","feedback_test","","","","","","","","",""
"250","","j","psychophysics","52","458165","0.0-8.0-1.0-1.0-0.0-0.21","3","2","2","3","1","5","3","2","4","5","5","1","1","-1","1","-1","1","0","1","5","4","5","5","5","3","4","4","4","3","2","3","3","4","3","3","3","4","4","5","5","2","3","5","2","5","2","5","1","1","2","2","5","3","3","2","5","2","2","3","2","3","1","1","1","5","3","3","2","7","6","3","3","3","3","5","2","7","3","5","752227872634310658","刘","14","Male","[""好他"",""坏我"",""好我"",""坏他""]","[""强他"",""弱我"",""强我"",""弱他""]","","","","","","","","nonmatch","","","","","","","","","","key","j","16.66625675675695","640","356","f","false","match","img/hexagon.png","强他","强他","prac_ALT2_ability","practice_ability","","","","","","","","",""
"null","<span style='color:red; font-size: 70px;'>错误! </span>","null","html-keyboard-response","53","458668","0.0-8.0-1.0-1.0-0.0-1.21","3","2","2","3","1","5","3","2","4","5","5","1","1","-1","1","-1","1","0","1","5","4","5","5","5","3","4","4","4","3","2","3","3","4","3","3","3","4","4","5","5","2","3","5","2","5","2","5","1","1","2","2","5","3","3","2","5","2","2","3","2","3","1","1","1","5","3","3","2","7","6","3","3","3","3","5","2","7","3","5","752227872634310658","刘","14","Male","[""好他"",""坏我"",""好我"",""坏他""]","[""强他"",""弱我"",""强我"",""弱他""]","","","","","","","","","","","","","","","","","","","","","","","","","","","","","","feedback_test","","","","","","","","",""
"344","","f","psychophysics","54","460015","0.0-8.0-1.0-1.0-0.0-0.22","3","2","2","3","1","5","3","2","4","5","5","1","1","-1","1","-1","1","0","1","5","4","5","5","5","3","4","4","4","3","2","3","3","4","3","3","3","4","4","5","5","2","3","5","2","5","2","5","1","1","2","2","5","3","3","2","5","2","2","3","2","3","1","1","1","5","3","3","2","7","6","3","3","3","3","5","2","7","3","5","752227872634310658","刘","14","Male","[""好他"",""坏我"",""好我"",""坏他""]","[""强他"",""弱我"",""强我"",""弱他""]","","","","","","","","match","","","","","","","","","","key","f","16.66678749999992","640","356","f","true","match","img/trapezoid.png","弱我","弱我","prac_ALT2_ability","practice_ability","","","","","","","","",""
"null","<span style='color:GreenYellow; font-size: 70px;'>正确! </span>","null","html-keyboard-response","55","460517","0.0-8.0-1.0-1.0-0.0-1.22","3","2","2","3","1","5","3","2","4","5","5","1","1","-1","1","-1","1","0","1","5","4","5","5","5","3","4","4","4","3","2","3","3","4","3","3","3","4","4","5","5","2","3","5","2","5","2","5","1","1","2","2","5","3","3","2","5","2","2","3","2","3","1","1","1","5","3","3","2","7","6","3","3","3","3","5","2","7","3","5","752227872634310658","刘","14","Male","[""好他"",""坏我"",""好我"",""坏他""]","[""强他"",""弱我"",""强我"",""弱他""]","","","","","","","","","","","","","","","","","","","","","","","","","","","","","","feedback_test","","","","","","","","",""
"219","","f","psychophysics","56","461737","0.0-8.0-1.0-1.0-0.0-0.23","3","2","2","3","1","5","3","2","4","5","5","1","1","-1","1","-1","1","0","1","5","4","5","5","5","3","4","4","4","3","2","3","3","4","3","3","3","4","4","5","5","2","3","5","2","5","2","5","1","1","2","2","5","3","3","2","5","2","2","3","2","3","1","1","1","5","3","3","2","7","6","3","3","3","3","5","2","7","3","5","752227872634310658","刘","14","Male","[""好他"",""坏我"",""好我"",""坏他""]","[""强他"",""弱我"",""强我"",""弱他""]","","","","","","","","match","","","","","","","","","","key","f","16.664833333333565","640","356","j","false","nonmatch","img/diamond.png","弱他","强我","prac_ALT2_ability","practice_ability","","","","","","","","",""
"null","<span style='color:red; font-size: 70px;'>错误! </span>","null","html-keyboard-response","57","462239","0.0-8.0-1.0-1.0-0.0-1.23","3","2","2","3","1","5","3","2","4","5","5","1","1","-1","1","-1","1","0","1","5","4","5","5","5","3","4","4","4","3","2","3","3","4","3","3","3","4","4","5","5","2","3","5","2","5","2","5","1","1","2","2","5","3","3","2","5","2","2","3","2","3","1","1","1","5","3","3","2","7","6","3","3","3","3","5","2","7","3","5","752227872634310658","刘","14","Male","[""好他"",""坏我"",""好我"",""坏他""]","[""强他"",""弱我"",""强我"",""弱他""]","","","","","","","","","","","","","","","","","","","","","","","","","","","","","","feedback_test","","","","","","","","",""
"122","","j","psychophysics","58","463365","0.0-8.0-1.0-1.0-0.0-0.24","3","2","2","3","1","5","3","2","4","5","5","1","1","-1","1","-1","1","0","1","5","4","5","5","5","3","4","4","4","3","2","3","3","4","3","3","3","4","4","5","5","2","3","5","2","5","2","5","1","1","2","2","5","3","3","2","5","2","2","3","2","3","1","1","1","5","3","3","2","7","6","3","3","3","3","5","2","7","3","5","752227872634310658","刘","14","Male","[""好他"",""坏我"",""好我"",""坏他""]","[""强他"",""弱我"",""强我"",""弱他""]","","","","","","","","nonmatch","","","","","","","","","","key","j","16.669313432835565","640","356","f","false","match","img/diamond.png","强我","强我","prac_ALT2_ability","practice_ability","","","","","","","","",""
"null","<span style='color:yellow; font-size: 70px;'>过快! </span>","null","html-keyboard-response","59","463869","0.0-8.0-1.0-1.0-0.0-1.24","3","2","2","3","1","5","3","2","4","5","5","1","1","-1","1","-1","1","0","1","5","4","5","5","5","3","4","4","4","3","2","3","3","4","3","3","3","4","4","5","5","2","3","5","2","5","2","5","1","1","2","2","5","3","3","2","5","2","2","3","2","3","1","1","1","5","3","3","2","7","6","3","3","3","3","5","2","7","3","5","752227872634310658","刘","14","Male","[""好他"",""坏我"",""好我"",""坏他""]","[""强他"",""弱我"",""强我"",""弱他""]","","","","","","","","","","","","","","","","","","","","","","","","","","","","","","feedback_test","","","","","","","","",""
"360","","j","psychophysics","60","465231","0.0-8.0-1.0-1.0-0.0-0.25","3","2","2","3","1","5","3","2","4","5","5","1","1","-1","1","-1","1","0","1","5","4","5","5","5","3","4","4","4","3","2","3","3","4","3","3","3","4","4","5","5","2","3","5","2","5","2","5","1","1","2","2","5","3","3","2","5","2","2","3","2","3","1","1","1","5","3","3","2","7","6","3","3","3","3","5","2","7","3","5","752227872634310658","刘","14","Male","[""好他"",""坏我"",""好我"",""坏他""]","[""强他"",""弱我"",""强我"",""弱他""]","","","","","","","","nonmatch","","","","","","","","","","key","j","16.666086419752833","640","356","f","false","match","img/ellipse.png","弱他","弱他","prac_ALT2_ability","practice_ability","","","","","","","","",""
"null","<span style='color:red; font-size: 70px;'>错误! </span>","null","html-keyboard-response","61","465732","0.0-8.0-1.0-1.0-0.0-1.25","3","2","2","3","1","5","3","2","4","5","5","1","1","-1","1","-1","1","0","1","5","4","5","5","5","3","4","4","4","3","2","3","3","4","3","3","3","4","4","5","5","2","3","5","2","5","2","5","1","1","2","2","5","3","3","2","5","2","2","3","2","3","1","1","1","5","3","3","2","7","6","3","3","3","3","5","2","7","3","5","752227872634310658","刘","14","Male","[""好他"",""坏我"",""好我"",""坏他""]","[""强他"",""弱我"",""强我"",""弱他""]","","","","","","","","","","","","","","","","","","","","","","","","","","","","","","feedback_test","","","","","","","","",""
"320","","f","psychophysics","62","467054","0.0-8.0-1.0-1.0-0.0-0.26","3","2","2","3","1","5","3","2","4","5","5","1","1","-1","1","-1","1","0","1","5","4","5","5","5","3","4","4","4","3","2","3","3","4","3","3","3","4","4","5","5","2","3","5","2","5","2","5","1","1","2","2","5","3","3","2","5","2","2","3","2","3","1","1","1","5","3","3","2","7","6","3","3","3","3","5","2","7","3","5","752227872634310658","刘","14","Male","[""好他"",""坏我"",""好我"",""坏他""]","[""强他"",""弱我"",""强我"",""弱他""]","","","","","","","","match","","","","","","","","","","key","f","16.667730769230566","640","356","f","true","match","img/trapezoid.png","弱我","弱我","prac_ALT2_ability","practice_ability","","","","","","","","",""
"null","<span style='color:GreenYellow; font-size: 70px;'>正确! </span>","null","html-keyboard-response","63","467555","0.0-8.0-1.0-1.0-0.0-1.26","3","2","2","3","1","5","3","2","4","5","5","1","1","-1","1","-1","1","0","1","5","4","5","5","5","3","4","4","4","3","2","3","3","4","3","3","3","4","4","5","5","2","3","5","2","5","2","5","1","1","2","2","5","3","3","2","5","2","2","3","2","3","1","1","1","5","3","3","2","7","6","3","3","3","3","5","2","7","3","5","752227872634310658","刘","14","Male","[""好他"",""坏我"",""好我"",""坏他""]","[""强他"",""弱我"",""强我"",""弱他""]","","","","","","","","","","","","","","","","","","","","","","","","","","","","","","feedback_test","","","","","","","","",""
"412","","j","psychophysics","64","468969","0.0-8.0-1.0-1.0-0.0-0.27","3","2","2","3","1","5","3","2","4","5","5","1","1","-1","1","-1","1","0","1","5","4","5","5","5","3","4","4","4","3","2","3","3","4","3","3","3","4","4","5","5","2","3","5","2","5","2","5","1","1","2","2","5","3","3","2","5","2","2","3","2","3","1","1","1","5","3","3","2","7","6","3","3","3","3","5","2","7","3","5","752227872634310658","刘","14","Male","[""好他"",""坏我"",""好我"",""坏他""]","[""强他"",""弱我"",""强我"",""弱他""]","","","","","","","","nonmatch","","","","","","","","","","key","j","16.667166666666855","640","356","j","true","nonmatch","img/ellipse.png","弱我","弱他","prac_ALT2_ability","practice_ability","","","","","","","","",""
"null","<span style='color:GreenYellow; font-size: 70px;'>正确! </span>","null","html-keyboard-response","65","469470","0.0-8.0-1.0-1.0-0.0-1.27","3","2","2","3","1","5","3","2","4","5","5","1","1","-1","1","-1","1","0","1","5","4","5","5","5","3","4","4","4","3","2","3","3","4","3","3","3","4","4","5","5","2","3","5","2","5","2","5","1","1","2","2","5","3","3","2","5","2","2","3","2","3","1","1","1","5","3","3","2","7","6","3","3","3","3","5","2","7","3","5","752227872634310658","刘","14","Male","[""好他"",""坏我"",""好我"",""坏他""]","[""强他"",""弱我"",""强我"",""弱他""]","","","","","","","","","","","","","","","","","","","","","","","","","","","","","","feedback_test","","","","","","","","",""
"287","","f","psychophysics","66","470761","0.0-8.0-1.0-1.0-0.0-0.28","3","2","2","3","1","5","3","2","4","5","5","1","1","-1","1","-1","1","0","1","5","4","5","5","5","3","4","4","4","3","2","3","3","4","3","3","3","4","4","5","5","2","3","5","2","5","2","5","1","1","2","2","5","3","3","2","5","2","2","3","2","3","1","1","1","5","3","3","2","7","6","3","3","3","3","5","2","7","3","5","752227872634310658","刘","14","Male","[""好他"",""坏我"",""好我"",""坏他""]","[""强他"",""弱我"",""强我"",""弱他""]","","","","","","","","match","","","","","","","","","","key","f","16.66671052631634","640","356","f","true","match","img/diamond.png","强我","强我","prac_ALT2_ability","practice_ability","","","","","","","","",""
"null","<span style='color:GreenYellow; font-size: 70px;'>正确! </span>","null","html-keyboard-response","67","471263","0.0-8.0-1.0-1.0-0.0-1.28","3","2","2","3","1","5","3","2","4","5","5","1","1","-1","1","-1","1","0","1","5","4","5","5","5","3","4","4","4","3","2","3","3","4","3","3","3","4","4","5","5","2","3","5","2","5","2","5","1","1","2","2","5","3","3","2","5","2","2","3","2","3","1","1","1","5","3","3","2","7","6","3","3","3","3","5","2","7","3","5","752227872634310658","刘","14","Male","[""好他"",""坏我"",""好我"",""坏他""]","[""强他"",""弱我"",""强我"",""弱他""]","","","","","","","","","","","","","","","","","","","","","","","","","","","","","","feedback_test","","","","","","","","",""
"296","","j","psychophysics","68","472560","0.0-8.0-1.0-1.0-0.0-0.29","3","2","2","3","1","5","3","2","4","5","5","1","1","-1","1","-1","1","0","1","5","4","5","5","5","3","4","4","4","3","2","3","3","4","3","3","3","4","4","5","5","2","3","5","2","5","2","5","1","1","2","2","5","3","3","2","5","2","2","3","2","3","1","1","1","5","3","3","2","7","6","3","3","3","3","5","2","7","3","5","752227872634310658","刘","14","Male","[""好他"",""坏我"",""好我"",""坏他""]","[""强他"",""弱我"",""强我"",""弱他""]","","","","","","","","nonmatch","","","","","","","","","","key","j","16.66390909090889","640","356","f","false","match","img/diamond.png","强我","强我","prac_ALT2_ability","practice_ability","","","","","","","","",""
"null","<span style='color:red; font-size: 70px;'>错误! </span>","null","html-keyboard-response","69","473061","0.0-8.0-1.0-1.0-0.0-1.29","3","2","2","3","1","5","3","2","4","5","5","1","1","-1","1","-1","1","0","1","5","4","5","5","5","3","4","4","4","3","2","3","3","4","3","3","3","4","4","5","5","2","3","5","2","5","2","5","1","1","2","2","5","3","3","2","5","2","2","3","2","3","1","1","1","5","3","3","2","7","6","3","3","3","3","5","2","7","3","5","752227872634310658","刘","14","Male","[""好他"",""坏我"",""好我"",""坏他""]","[""强他"",""弱我"",""强我"",""弱他""]","","","","","","","","","","","","","","","","","","","","","","","","","","","","","","feedback_test","","","","","","","","",""
"304","","f","psychophysics","70","474368","0.0-8.0-1.0-1.0-0.0-0.30","3","2","2","3","1","5","3","2","4","5","5","1","1","-1","1","-1","1","0","1","5","4","5","5","5","3","4","4","4","3","2","3","3","4","3","3","3","4","4","5","5","2","3","5","2","5","2","5","1","1","2","2","5","3","3","2","5","2","2","3","2","3","1","1","1","5","3","3","2","7","6","3","3","3","3","5","2","7","3","5","752227872634310658","刘","14","Male","[""好他"",""坏我"",""好我"",""坏他""]","[""强他"",""弱我"",""强我"",""弱他""]","","","","","","","","match","","","","","","","","","","key","f","16.669701298701806","640","356","f","true","match","img/hexagon.png","强他","强他","prac_ALT2_ability","practice_ability","","","","","","","","",""
"null","<span style='color:GreenYellow; font-size: 70px;'>正确! </span>","null","html-keyboard-response","71","474871","0.0-8.0-1.0-1.0-0.0-1.30","3","2","2","3","1","5","3","2","4","5","5","1","1","-1","1","-1","1","0","1","5","4","5","5","5","3","4","4","4","3","2","3","3","4","3","3","3","4","4","5","5","2","3","5","2","5","2","5","1","1","2","2","5","3","3","2","5","2","2","3","2","3","1","1","1","5","3","3","2","7","6","3","3","3","3","5","2","7","3","5","752227872634310658","刘","14","Male","[""好他"",""坏我"",""好我"",""坏他""]","[""强他"",""弱我"",""强我"",""弱他""]","","","","","","","","","","","","","","","","","","","","","","","","","","","","","","feedback_test","","","","","","","","",""
"246","","j","psychophysics","72","476119","0.0-8.0-1.0-1.0-0.0-0.31","3","2","2","3","1","5","3","2","4","5","5","1","1","-1","1","-1","1","0","1","5","4","5","5","5","3","4","4","4","3","2","3","3","4","3","3","3","4","4","5","5","2","3","5","2","5","2","5","1","1","2","2","5","3","3","2","5","2","2","3","2","3","1","1","1","5","3","3","2","7","6","3","3","3","3","5","2","7","3","5","752227872634310658","刘","14","Male","[""好他"",""坏我"",""好我"",""坏他""]","[""强他"",""弱我"",""强我"",""弱他""]","","","","","","","","nonmatch","","","","","","","","","","key","j","16.66552702702717","640","356","j","true","nonmatch","img/trapezoid.png","强我","弱我","prac_ALT2_ability","practice_ability","","","","","","","","",""
"null","<span style='color:GreenYellow; font-size: 70px;'>正确! </span>","null","html-keyboard-response","73","476619","0.0-8.0-1.0-1.0-0.0-1.31","3","2","2","3","1","5","3","2","4","5","5","1","1","-1","1","-1","1","0","1","5","4","5","5","5","3","4","4","4","3","2","3","3","4","3","3","3","4","4","5","5","2","3","5","2","5","2","5","1","1","2","2","5","3","3","2","5","2","2","3","2","3","1","1","1","5","3","3","2","7","6","3","3","3","3","5","2","7","3","5","752227872634310658","刘","14","Male","[""好他"",""坏我"",""好我"",""坏他""]","[""强他"",""弱我"",""强我"",""弱他""]","","","","","","","","","","","","","","","","","","","","","","","","","","","","","","feedback_test","","","","","","","","",""
"400","","f","psychophysics","74","478023","0.0-8.0-1.0-1.0-0.0-0.32","3","2","2","3","1","5","3","2","4","5","5","1","1","-1","1","-1","1","0","1","5","4","5","5","5","3","4","4","4","3","2","3","3","4","3","3","3","4","4","5","5","2","3","5","2","5","2","5","1","1","2","2","5","3","3","2","5","2","2","3","2","3","1","1","1","5","3","3","2","7","6","3","3","3","3","5","2","7","3","5","752227872634310658","刘","14","Male","[""好他"",""坏我"",""好我"",""坏他""]","[""强他"",""弱我"",""强我"",""弱他""]","","","","","","","","match","","","","","","","","","","key","f","16.668554216867356","640","356","j","false","nonmatch","img/diamond.png","强他","强我","prac_ALT2_ability","practice_ability","","","","","","","","",""
"null","<span style='color:red; font-size: 70px;'>错误! </span>","null","html-keyboard-response","75","478525","0.0-8.0-1.0-1.0-0.0-1.32","3","2","2","3","1","5","3","2","4","5","5","1","1","-1","1","-1","1","0","1","5","4","5","5","5","3","4","4","4","3","2","3","3","4","3","3","3","4","4","5","5","2","3","5","2","5","2","5","1","1","2","2","5","3","3","2","5","2","2","3","2","3","1","1","1","5","3","3","2","7","6","3","3","3","3","5","2","7","3","5","752227872634310658","刘","14","Male","[""好他"",""坏我"",""好我"",""坏他""]","[""强他"",""弱我"",""强我"",""弱他""]","","","","","","","","","","","","","","","","","","","","","","","","","","","","","","feedback_test","","","","","","","","",""
"592","","j","psychophysics","76","480119","0.0-8.0-1.0-1.0-0.0-0.33","3","2","2","3","1","5","3","2","4","5","5","1","1","-1","1","-1","1","0","1","5","4","5","5","5","3","4","4","4","3","2","3","3","4","3","3","3","4","4","5","5","2","3","5","2","5","2","5","1","1","2","2","5","3","3","2","5","2","2","3","2","3","1","1","1","5","3","3","2","7","6","3","3","3","3","5","2","7","3","5","752227872634310658","刘","14","Male","[""好他"",""坏我"",""好我"",""坏他""]","[""强他"",""弱我"",""强我"",""弱他""]","","","","","","","","nonmatch","","","","","","","","","","key","j","16.666127659574876","640","356","f","false","match","img/ellipse.png","弱他","弱他","prac_ALT2_ability","practice_ability","","","","","","","","",""
"null","<span style='color:red; font-size: 70px;'>错误! </span>","null","html-keyboard-response","77","480621","0.0-8.0-1.0-1.0-0.0-1.33","3","2","2","3","1","5","3","2","4","5","5","1","1","-1","1","-1","1","0","1","5","4","5","5","5","3","4","4","4","3","2","3","3","4","3","3","3","4","4","5","5","2","3","5","2","5","2","5","1","1","2","2","5","3","3","2","5","2","2","3","2","3","1","1","1","5","3","3","2","7","6","3","3","3","3","5","2","7","3","5","752227872634310658","刘","14","Male","[""好他"",""坏我"",""好我"",""坏他""]","[""强他"",""弱我"",""强我"",""弱他""]","","","","","","","","","","","","","","","","","","","","","","","","","","","","","","feedback_test","","","","","","","","",""
"492","","f","psychophysics","78","482115","0.0-8.0-1.0-1.0-0.0-0.34","3","2","2","3","1","5","3","2","4","5","5","1","1","-1","1","-1","1","0","1","5","4","5","5","5","3","4","4","4","3","2","3","3","4","3","3","3","4","4","5","5","2","3","5","2","5","2","5","1","1","2","2","5","3","3","2","5","2","2","3","2","3","1","1","1","5","3","3","2","7","6","3","3","3","3","5","2","7","3","5","752227872634310658","刘","14","Male","[""好他"",""坏我"",""好我"",""坏他""]","[""强他"",""弱我"",""强我"",""弱他""]","","","","","","","","match","","","","","","","","","","key","f","16.665674157303318","640","356","f","true","match","img/ellipse.png","弱他","弱他","prac_ALT2_ability","practice_ability","","","","","","","","",""
"null","<span style='color:GreenYellow; font-size: 70px;'>正确! </span>","null","html-keyboard-response","79","482616","0.0-8.0-1.0-1.0-0.0-1.34","3","2","2","3","1","5","3","2","4","5","5","1","1","-1","1","-1","1","0","1","5","4","5","5","5","3","4","4","4","3","2","3","3","4","3","3","3","4","4","5","5","2","3","5","2","5","2","5","1","1","2","2","5","3","3","2","5","2","2","3","2","3","1","1","1","5","3","3","2","7","6","3","3","3","3","5","2","7","3","5","752227872634310658","刘","14","Male","[""好他"",""坏我"",""好我"",""坏他""]","[""强他"",""弱我"",""强我"",""弱他""]","","","","","","","","","","","","","","","","","","","","","","","","","","","","","","feedback_test","","","","","","","","",""
"562","","j","psychophysics","80","484182","0.0-8.0-1.0-1.0-0.0-0.35","3","2","2","3","1","5","3","2","4","5","5","1","1","-1","1","-1","1","0","1","5","4","5","5","5","3","4","4","4","3","2","3","3","4","3","3","3","4","4","5","5","2","3","5","2","5","2","5","1","1","2","2","5","3","3","2","5","2","2","3","2","3","1","1","1","5","3","3","2","7","6","3","3","3","3","5","2","7","3","5","752227872634310658","刘","14","Male","[""好他"",""坏我"",""好我"",""坏他""]","[""强他"",""弱我"",""强我"",""弱他""]","","","","","","","","nonmatch","","","","","","","","","","key","j","16.666967741935387","640","356","j","true","nonmatch","img/ellipse.png","强我","弱他","prac_ALT2_ability","practice_ability","","","","","","","","",""
"null","<span style='color:GreenYellow; font-size: 70px;'>正确! </span>","null","html-keyboard-response","81","484684","0.0-8.0-1.0-1.0-0.0-1.35","3","2","2","3","1","5","3","2","4","5","5","1","1","-1","1","-1","1","0","1","5","4","5","5","5","3","4","4","4","3","2","3","3","4","3","3","3","4","4","5","5","2","3","5","2","5","2","5","1","1","2","2","5","3","3","2","5","2","2","3","2","3","1","1","1","5","3","3","2","7","6","3","3","3","3","5","2","7","3","5","752227872634310658","刘","14","Male","[""好他"",""坏我"",""好我"",""坏他""]","[""强他"",""弱我"",""强我"",""弱他""]","","","","","","","","","","","","","","","","","","","","","","","","","","","","","","feedback_test","","","","","","","","",""
"508","","f","psychophysics","82","486195","0.0-8.0-1.0-1.0-0.0-0.36","3","2","2","3","1","5","3","2","4","5","5","1","1","-1","1","-1","1","0","1","5","4","5","5","5","3","4","4","4","3","2","3","3","4","3","3","3","4","4","5","5","2","3","5","2","5","2","5","1","1","2","2","5","3","3","2","5","2","2","3","2","3","1","1","1","5","3","3","2","7","6","3","3","3","3","5","2","7","3","5","752227872634310658","刘","14","Male","[""好他"",""坏我"",""好我"",""坏他""]","[""强他"",""弱我"",""强我"",""弱他""]","","","","","","","","match","","","","","","","","","","key","f","16.666522222222476","640","356","j","false","nonmatch","img/trapezoid.png","强他","弱我","prac_ALT2_ability","practice_ability","","","","","","","","",""
"null","<span style='color:red; font-size: 70px;'>错误! </span>","null","html-keyboard-response","83","486696","0.0-8.0-1.0-1.0-0.0-1.36","3","2","2","3","1","5","3","2","4","5","5","1","1","-1","1","-1","1","0","1","5","4","5","5","5","3","4","4","4","3","2","3","3","4","3","3","3","4","4","5","5","2","3","5","2","5","2","5","1","1","2","2","5","3","3","2","5","2","2","3","2","3","1","1","1","5","3","3","2","7","6","3","3","3","3","5","2","7","3","5","752227872634310658","刘","14","Male","[""好他"",""坏我"",""好我"",""坏他""]","[""强他"",""弱我"",""强我"",""弱他""]","","","","","","","","","","","","","","","","","","","","","","","","","","","","","","feedback_test","","","","","","","","",""
"659","","j","psychophysics","84","488358","0.0-8.0-1.0-1.0-0.0-0.37","3","2","2","3","1","5","3","2","4","5","5","1","1","-1","1","-1","1","0","1","5","4","5","5","5","3","4","4","4","3","2","3","3","4","3","3","3","4","4","5","5","2","3","5","2","5","2","5","1","1","2","2","5","3","3","2","5","2","2","3","2","3","1","1","1","5","3","3","2","7","6","3","3","3","3","5","2","7","3","5","752227872634310658","刘","14","Male","[""好他"",""坏我"",""好我"",""坏他""]","[""强他"",""弱我"",""强我"",""弱他""]","","","","","","","","nonmatch","","","","","","","","","","key","j","16.666397959183385","640","356","j","true","nonmatch","img/hexagon.png","强我","强他","prac_ALT2_ability","practice_ability","","","","","","","","",""
"null","<span style='color:GreenYellow; font-size: 70px;'>正确! </span>","null","html-keyboard-response","85","488860","0.0-8.0-1.0-1.0-0.0-1.37","3","2","2","3","1","5","3","2","4","5","5","1","1","-1","1","-1","1","0","1","5","4","5","5","5","3","4","4","4","3","2","3","3","4","3","3","3","4","4","5","5","2","3","5","2","5","2","5","1","1","2","2","5","3","3","2","5","2","2","3","2","3","1","1","1","5","3","3","2","7","6","3","3","3","3","5","2","7","3","5","752227872634310658","刘","14","Male","[""好他"",""坏我"",""好我"",""坏他""]","[""强他"",""弱我"",""强我"",""弱他""]","","","","","","","","","","","","","","","","","","","","","","","","","","","","","","feedback_test","","","","","","","","",""
"414","","f","psychophysics","86","490277","0.0-8.0-1.0-1.0-0.0-0.38","3","2","2","3","1","5","3","2","4","5","5","1","1","-1","1","-1","1","0","1","5","4","5","5","5","3","4","4","4","3","2","3","3","4","3","3","3","4","4","5","5","2","3","5","2","5","2","5","1","1","2","2","5","3","3","2","5","2","2","3","2","3","1","1","1","5","3","3","2","7","6","3","3","3","3","5","2","7","3","5","752227872634310658","刘","14","Male","[""好他"",""坏我"",""好我"",""坏他""]","[""强他"",""弱我"",""强我"",""弱他""]","","","","","","","","match","","","","","","","","","","key","f","16.665797619047225","640","356","j","false","nonmatch","img/trapezoid.png","弱他","弱我","prac_ALT2_ability","practice_ability","","","","","","","","",""
"null","<span style='color:red; font-size: 70px;'>错误! </span>","null","html-keyboard-response","87","490780","0.0-8.0-1.0-1.0-0.0-1.38","3","2","2","3","1","5","3","2","4","5","5","1","1","-1","1","-1","1","0","1","5","4","5","5","5","3","4","4","4","3","2","3","3","4","3","3","3","4","4","5","5","2","3","5","2","5","2","5","1","1","2","2","5","3","3","2","5","2","2","3","2","3","1","1","1","5","3","3","2","7","6","3","3","3","3","5","2","7","3","5","752227872634310658","刘","14","Male","[""好他"",""坏我"",""好我"",""坏他""]","[""强他"",""弱我"",""强我"",""弱他""]","","","","","","","","","","","","","","","","","","","","","","","","","","","","","","feedback_test","","","","","","","","",""
"735","","j","psychophysics","88","492517","0.0-8.0-1.0-1.0-0.0-0.39","3","2","2","3","1","5","3","2","4","5","5","1","1","-1","1","-1","1","0","1","5","4","5","5","5","3","4","4","4","3","2","3","3","4","3","3","3","4","4","5","5","2","3","5","2","5","2","5","1","1","2","2","5","3","3","2","5","2","2","3","2","3","1","1","1","5","3","3","2","7","6","3","3","3","3","5","2","7","3","5","752227872634310658","刘","14","Male","[""好他"",""坏我"",""好我"",""坏他""]","[""强他"",""弱我"",""强我"",""弱他""]","","","","","","","","nonmatch","","","","","","","","","","key","j","16.66588349514573","640","356","f","false","match","img/trapezoid.png","弱我","弱我","prac_ALT2_ability","practice_ability","","","","","","","","",""
"null","<span style='color:red; font-size: 70px;'>错误! </span>","null","html-keyboard-response","89","493019","0.0-8.0-1.0-1.0-0.0-1.39","3","2","2","3","1","5","3","2","4","5","5","1","1","-1","1","-1","1","0","1","5","4","5","5","5","3","4","4","4","3","2","3","3","4","3","3","3","4","4","5","5","2","3","5","2","5","2","5","1","1","2","2","5","3","3","2","5","2","2","3","2","3","1","1","1","5","3","3","2","7","6","3","3","3","3","5","2","7","3","5","752227872634310658","刘","14","Male","[""好他"",""坏我"",""好我"",""坏他""]","[""强他"",""弱我"",""强我"",""弱他""]","","","","","","","","","","","","","","","","","","","","","","","","","","","","","","feedback_test","","","","","","","","",""
"315","","j","psychophysics","90","494337","0.0-8.0-1.0-1.0-0.0-0.40","3","2","2","3","1","5","3","2","4","5","5","1","1","-1","1","-1","1","0","1","5","4","5","5","5","3","4","4","4","3","2","3","3","4","3","3","3","4","4","5","5","2","3","5","2","5","2","5","1","1","2","2","5","3","3","2","5","2","2","3","2","3","1","1","1","5","3","3","2","7","6","3","3","3","3","5","2","7","3","5","752227872634310658","刘","14","Male","[""好他"",""坏我"",""好我"",""坏他""]","[""强他"",""弱我"",""强我"",""弱他""]","","","","","","","","nonmatch","","","","","","","","","","key","j","16.66806410256406","640","356","j","true","nonmatch","img/ellipse.png","强他","弱他","prac_ALT2_ability","practice_ability","","","","","","","","",""
"null","<span style='color:GreenYellow; font-size: 70px;'>正确! </span>","null","html-keyboard-response","91","494840","0.0-8.0-1.0-1.0-0.0-1.40","3","2","2","3","1","5","3","2","4","5","5","1","1","-1","1","-1","1","0","1","5","4","5","5","5","3","4","4","4","3","2","3","3","4","3","3","3","4","4","5","5","2","3","5","2","5","2","5","1","1","2","2","5","3","3","2","5","2","2","3","2","3","1","1","1","5","3","3","2","7","6","3","3","3","3","5","2","7","3","5","752227872634310658","刘","14","Male","[""好他"",""坏我"",""好我"",""坏他""]","[""强他"",""弱我"",""强我"",""弱他""]","","","","","","","","","","","","","","","","","","","","","","","","","","","","","","feedback_test","","","","","","","","",""
"753","","f","psychophysics","92","496595","0.0-8.0-1.0-1.0-0.0-0.41","3","2","2","3","1","5","3","2","4","5","5","1","1","-1","1","-1","1","0","1","5","4","5","5","5","3","4","4","4","3","2","3","3","4","3","3","3","4","4","5","5","2","3","5","2","5","2","5","1","1","2","2","5","3","3","2","5","2","2","3","2","3","1","1","1","5","3","3","2","7","6","3","3","3","3","5","2","7","3","5","752227872634310658","刘","14","Male","[""好他"",""坏我"",""好我"",""坏他""]","[""强他"",""弱我"",""强我"",""弱他""]","","","","","","","","match","","","","","","","","","","key","f","16.66618269230765","640","356","j","false","nonmatch","img/diamond.png","弱我","强我","prac_ALT2_ability","practice_ability","","","","","","","","",""
"null","<span style='color:red; font-size: 70px;'>错误! </span>","null","html-keyboard-response","93","497097","0.0-8.0-1.0-1.0-0.0-1.41","3","2","2","3","1","5","3","2","4","5","5","1","1","-1","1","-1","1","0","1","5","4","5","5","5","3","4","4","4","3","2","3","3","4","3","3","3","4","4","5","5","2","3","5","2","5","2","5","1","1","2","2","5","3","3","2","5","2","2","3","2","3","1","1","1","5","3","3","2","7","6","3","3","3","3","5","2","7","3","5","752227872634310658","刘","14","Male","[""好他"",""坏我"",""好我"",""坏他""]","[""强他"",""弱我"",""强我"",""弱他""]","","","","","","","","","","","","","","","","","","","","","","","","","","","","","","feedback_test","","","","","","","","",""
"428","","f","psychophysics","94","498529","0.0-8.0-1.0-1.0-0.0-0.42","3","2","2","3","1","5","3","2","4","5","5","1","1","-1","1","-1","1","0","1","5","4","5","5","5","3","4","4","4","3","2","3","3","4","3","3","3","4","4","5","5","2","3","5","2","5","2","5","1","1","2","2","5","3","3","2","5","2","2","3","2","3","1","1","1","5","3","3","2","7","6","3","3","3","3","5","2","7","3","5","752227872634310658","刘","14","Male","[""好他"",""坏我"",""好我"",""坏他""]","[""强他"",""弱我"",""强我"",""弱他""]","","","","","","","","match","","","","","","","","","","key","f","16.668117647058576","640","356","j","false","nonmatch","img/hexagon.png","弱我","强他","prac_ALT2_ability","practice_ability","","","","","","","","",""
"null","<span style='color:red; font-size: 70px;'>错误! </span>","null","html-keyboard-response","95","499031","0.0-8.0-1.0-1.0-0.0-1.42","3","2","2","3","1","5","3","2","4","5","5","1","1","-1","1","-1","1","0","1","5","4","5","5","5","3","4","4","4","3","2","3","3","4","3","3","3","4","4","5","5","2","3","5","2","5","2","5","1","1","2","2","5","3","3","2","5","2","2","3","2","3","1","1","1","5","3","3","2","7","6","3","3","3","3","5","2","7","3","5","752227872634310658","刘","14","Male","[""好他"",""坏我"",""好我"",""坏他""]","[""强他"",""弱我"",""强我"",""弱他""]","","","","","","","","","","","","","","","","","","","","","","","","","","","","","","feedback_test","","","","","","","","",""
"299","","j","psychophysics","96","500333","0.0-8.0-1.0-1.0-0.0-0.43","3","2","2","3","1","5","3","2","4","5","5","1","1","-1","1","-1","1","0","1","5","4","5","5","5","3","4","4","4","3","2","3","3","4","3","3","3","4","4","5","5","2","3","5","2","5","2","5","1","1","2","2","5","3","3","2","5","2","2","3","2","3","1","1","1","5","3","3","2","7","6","3","3","3","3","5","2","7","3","5","752227872634310658","刘","14","Male","[""好他"",""坏我"",""好我"",""坏他""]","[""强他"",""弱我"",""强我"",""弱他""]","","","","","","","","nonmatch","","","","","","","","","","key","j","16.668948051948313","640","356","f","false","match","img/hexagon.png","强他","强他","prac_ALT2_ability","practice_ability","","","","","","","","",""
"null","<span style='color:red; font-size: 70px;'>错误! </span>","null","html-keyboard-response","97","500835","0.0-8.0-1.0-1.0-0.0-1.43","3","2","2","3","1","5","3","2","4","5","5","1","1","-1","1","-1","1","0","1","5","4","5","5","5","3","4","4","4","3","2","3","3","4","3","3","3","4","4","5","5","2","3","5","2","5","2","5","1","1","2","2","5","3","3","2","5","2","2","3","2","3","1","1","1","5","3","3","2","7","6","3","3","3","3","5","2","7","3","5","752227872634310658","刘","14","Male","[""好他"",""坏我"",""好我"",""坏他""]","[""强他"",""弱我"",""强我"",""弱他""]","","","","","","","","","","","","","","","","","","","","","","","","","","","","","","feedback_test","","","","","","","","",""
"266","","f","psychophysics","98","502104","0.0-8.0-1.0-1.0-0.0-0.44","3","2","2","3","1","5","3","2","4","5","5","1","1","-1","1","-1","1","0","1","5","4","5","5","5","3","4","4","4","3","2","3","3","4","3","3","3","4","4","5","5","2","3","5","2","5","2","5","1","1","2","2","5","3","3","2","5","2","2","3","2","3","1","1","1","5","3","3","2","7","6","3","3","3","3","5","2","7","3","5","752227872634310658","刘","14","Male","[""好他"",""坏我"",""好我"",""坏他""]","[""强他"",""弱我"",""强我"",""弱他""]","","","","","","","","match","","","","","","","","","","key","f","16.66799999999969","640","356","j","false","nonmatch","img/hexagon.png","弱他","强他","prac_ALT2_ability","practice_ability","","","","","","","","",""
"null","<span style='color:red; font-size: 70px;'>错误! </span>","null","html-keyboard-response","99","502607","0.0-8.0-1.0-1.0-0.0-1.44","3","2","2","3","1","5","3","2","4","5","5","1","1","-1","1","-1","1","0","1","5","4","5","5","5","3","4","4","4","3","2","3","3","4","3","3","3","4","4","5","5","2","3","5","2","5","2","5","1","1","2","2","5","3","3","2","5","2","2","3","2","3","1","1","1","5","3","3","2","7","6","3","3","3","3","5","2","7","3","5","752227872634310658","刘","14","Male","[""好他"",""坏我"",""好我"",""坏他""]","[""强他"",""弱我"",""强我"",""弱他""]","","","","","","","","","","","","","","","","","","","","","","","","","","","","","","feedback_test","","","","","","","","",""
"332","","f","psychophysics","100","503940","0.0-8.0-1.0-1.0-0.0-0.45","3","2","2","3","1","5","3","2","4","5","5","1","1","-1","1","-1","1","0","1","5","4","5","5","5","3","4","4","4","3","2","3","3","4","3","3","3","4","4","5","5","2","3","5","2","5","2","5","1","1","2","2","5","3","3","2","5","2","2","3","2","3","1","1","1","5","3","3","2","7","6","3","3","3","3","5","2","7","3","5","752227872634310658","刘","14","Male","[""好他"",""坏我"",""好我"",""坏他""]","[""强他"",""弱我"",""强我"",""弱他""]","","","","","","","","match","","","","","","","","","","key","f","16.66444303797517","640","356","f","true","match","img/trapezoid.png","弱我","弱我","prac_ALT2_ability","practice_ability","","","","","","","","",""
"null","<span style='color:GreenYellow; font-size: 70px;'>正确! </span>","null","html-keyboard-response","101","504443","0.0-8.0-1.0-1.0-0.0-1.45","3","2","2","3","1","5","3","2","4","5","5","1","1","-1","1","-1","1","0","1","5","4","5","5","5","3","4","4","4","3","2","3","3","4","3","3","3","4","4","5","5","2","3","5","2","5","2","5","1","1","2","2","5","3","3","2","5","2","2","3","2","3","1","1","1","5","3","3","2","7","6","3","3","3","3","5","2","7","3","5","752227872634310658","刘","14","Male","[""好他"",""坏我"",""好我"",""坏他""]","[""强他"",""弱我"",""强我"",""弱他""]","","","","","","","","","","","","","","","","","","","","","","","","","","","","","","feedback_test","","","","","","","","",""
"363","","f","psychophysics","102","505808","0.0-8.0-1.0-1.0-0.0-0.46","3","2","2","3","1","5","3","2","4","5","5","1","1","-1","1","-1","1","0","1","5","4","5","5","5","3","4","4","4","3","2","3","3","4","3","3","3","4","4","5","5","2","3","5","2","5","2","5","1","1","2","2","5","3","3","2","5","2","2","3","2","3","1","1","1","5","3","3","2","7","6","3","3","3","3","5","2","7","3","5","752227872634310658","刘","14","Male","[""好他"",""坏我"",""好我"",""坏他""]","[""强他"",""弱我"",""强我"",""弱他""]","","","","","","","","match","","","","","","","","","","key","f","16.66723456790162","640","356","f","true","match","img/hexagon.png","强他","强他","prac_ALT2_ability","practice_ability","","","","","","","","",""
"null","<span style='color:GreenYellow; font-size: 70px;'>正确! </span>","null","html-keyboard-response","103","506309","0.0-8.0-1.0-1.0-0.0-1.46","3","2","2","3","1","5","3","2","4","5","5","1","1","-1","1","-1","1","0","1","5","4","5","5","5","3","4","4","4","3","2","3","3","4","3","3","3","4","4","5","5","2","3","5","2","5","2","5","1","1","2","2","5","3","3","2","5","2","2","3","2","3","1","1","1","5","3","3","2","7","6","3","3","3","3","5","2","7","3","5","752227872634310658","刘","14","Male","[""好他"",""坏我"",""好我"",""坏他""]","[""强他"",""弱我"",""强我"",""弱他""]","","","","","","","","","","","","","","","","","","","","","","","","","","","","","","feedback_test","","","","","","","","",""
"319","","j","psychophysics","104","507630","0.0-8.0-1.0-1.0-0.0-0.47","3","2","2","3","1","5","3","2","4","5","5","1","1","-1","1","-1","1","0","1","5","4","5","5","5","3","4","4","4","3","2","3","3","4","3","3","3","4","4","5","5","2","3","5","2","5","2","5","1","1","2","2","5","3","3","2","5","2","2","3","2","3","1","1","1","5","3","3","2","7","6","3","3","3","3","5","2","7","3","5","752227872634310658","刘","14","Male","[""好他"",""坏我"",""好我"",""坏他""]","[""强他"",""弱我"",""强我"",""弱他""]","","","","","","","","nonmatch","","","","","","","","","","key","j","16.664564102564235","640","356","j","true","nonmatch","img/diamond.png","弱他","强我","prac_ALT2_ability","practice_ability","","","","","","","","",""
"null","<span style='color:GreenYellow; font-size: 70px;'>正确! </span>","null","html-keyboard-response","105","508132","0.0-8.0-1.0-1.0-0.0-1.47","3","2","2","3","1","5","3","2","4","5","5","1","1","-1","1","-1","1","0","1","5","4","5","5","5","3","4","4","4","3","2","3","3","4","3","3","3","4","4","5","5","2","3","5","2","5","2","5","1","1","2","2","5","3","3","2","5","2","2","3","2","3","1","1","1","5","3","3","2","7","6","3","3","3","3","5","2","7","3","5","752227872634310658","刘","14","Male","[""好他"",""坏我"",""好我"",""坏他""]","[""强他"",""弱我"",""强我"",""弱他""]","","","","","","","","","","","","","","","","","","","","","","","","","","","","","","feedback_test","","","","","","","","",""
"19085","<style>.context{color:white; font-size: 35px; line-height:40px}</style>                          <div><p class='context'>您正确回答了54% 的试次。</p><p class='context'>您的平均反应时为392毫秒。</p><p class='context'>恭喜您完成练习。按空格键继续。</p></div>"," ","html-keyboard-response","106","527222","0.0-8.0-1.0-1.0-1.0-0.0","3","2","2","3","1","5","3","2","4","5","5","1","1","-1","1","-1","1","0","1","5","4","5","5","5","3","4","4","4","3","2","3","3","4","3","3","3","4","4","5","5","2","3","5","2","5","2","5","1","1","2","2","5","3","3","2","5","2","2","3","2","3","1","1","1","5","3","3","2","7","6","3","3","3","3","5","2","7","3","5","752227872634310658","刘","14","Male","[""好他"",""坏我"",""好我"",""坏他""]","[""强他"",""弱我"",""强我"",""弱他""]","","","","","","","","","","","","","","","","","","","","","","","","","","","","","","","","","","","","","","",""
"100010","","","instructions","107","627236","0.0-8.0-1.0-1.0-1.0-1.0","3","2","2","3","1","5","3","2","4","5","5","1","1","-1","1","-1","1","0","1","5","4","5","5","5","3","4","4","4","3","2","3","3","4","3","3","3","4","4","5","5","2","3","5","2","5","2","5","1","1","2","2","5","3","3","2","5","2","2","3","2","3","1","1","1","5","3","3","2","7","6","3","3","3","3","5","2","7","3","5","752227872634310658","刘","14","Male","[""好他"",""坏我"",""好我"",""坏他""]","[""强他"",""弱我"",""强我"",""弱他""]","","","","","","","","","","","","","","","","","[{""page_index"":0,""viewing_time"":2473},{""page_index"":1,""viewing_time"":95914},{""page_index"":2,""viewing_time"":1624}]","","","","","","","","","","","","","","","","","","","","","",""
"890","","j","psychophysics","108","629127","0.0-8.0-1.0-1.1-0.1-0.48","3","2","2","3","1","5","3","2","4","5","5","1","1","-1","1","-1","1","0","1","5","4","5","5","5","3","4","4","4","3","2","3","3","4","3","3","3","4","4","5","5","2","3","5","2","5","2","5","1","1","2","2","5","3","3","2","5","2","2","3","2","3","1","1","1","5","3","3","2","7","6","3","3","3","3","5","2","7","3","5","752227872634310658","刘","14","Male","[""好他"",""坏我"",""好我"",""坏他""]","[""强他"",""弱我"",""强我"",""弱他""]","","","","","","","","nonmatch","","","","","","","","","","key","j","16.664669642857916","640","356","j","true","nonmatch","img/hexagon.png","弱我","强他","prac_ALT2_ability","practice_ability","","","","","","","","",""
"null","<span style='color:GreenYellow; font-size: 70px;'>正确! </span>","null","html-keyboard-response","109","629629","0.0-8.0-1.0-1.1-0.1-1.48","3","2","2","3","1","5","3","2","4","5","5","1","1","-1","1","-1","1","0","1","5","4","5","5","5","3","4","4","4","3","2","3","3","4","3","3","3","4","4","5","5","2","3","5","2","5","2","5","1","1","2","2","5","3","3","2","5","2","2","3","2","3","1","1","1","5","3","3","2","7","6","3","3","3","3","5","2","7","3","5","752227872634310658","刘","14","Male","[""好他"",""坏我"",""好我"",""坏他""]","[""强他"",""弱我"",""强我"",""弱他""]","","","","","","","","","","","","","","","","","","","","","","","","","","","","","","feedback_test","","","","","","","","",""
"821","","f","psychophysics","110","631453","0.0-8.0-1.0-1.1-0.1-0.49","3","2","2","3","1","5","3","2","4","5","5","1","1","-1","1","-1","1","0","1","5","4","5","5","5","3","4","4","4","3","2","3","3","4","3","3","3","4","4","5","5","2","3","5","2","5","2","5","1","1","2","2","5","3","3","2","5","2","2","3","2","3","1","1","1","5","3","3","2","7","6","3","3","3","3","5","2","7","3","5","752227872634310658","刘","14","Male","[""好他"",""坏我"",""好我"",""坏他""]","[""强他"",""弱我"",""强我"",""弱他""]","","","","","","","","match","","","","","","","","","","key","f","16.665805555555615","640","356","f","true","match","img/diamond.png","强我","强我","prac_ALT2_ability","practice_ability","","","","","","","","",""
"null","<span style='color:GreenYellow; font-size: 70px;'>正确! </span>","null","html-keyboard-response","111","631955","0.0-8.0-1.0-1.1-0.1-1.49","3","2","2","3","1","5","3","2","4","5","5","1","1","-1","1","-1","1","0","1","5","4","5","5","5","3","4","4","4","3","2","3","3","4","3","3","3","4","4","5","5","2","3","5","2","5","2","5","1","1","2","2","5","3","3","2","5","2","2","3","2","3","1","1","1","5","3","3","2","7","6","3","3","3","3","5","2","7","3","5","752227872634310658","刘","14","Male","[""好他"",""坏我"",""好我"",""坏他""]","[""强他"",""弱我"",""强我"",""弱他""]","","","","","","","","","","","","","","","","","","","","","","","","","","","","","","feedback_test","","","","","","","","",""
"887","","j","psychophysics","112","633845","0.0-8.0-1.0-1.1-0.1-0.50","3","2","2","3","1","5","3","2","4","5","5","1","1","-1","1","-1","1","0","1","5","4","5","5","5","3","4","4","4","3","2","3","3","4","3","3","3","4","4","5","5","2","3","5","2","5","2","5","1","1","2","2","5","3","3","2","5","2","2","3","2","3","1","1","1","5","3","3","2","7","6","3","3","3","3","5","2","7","3","5","752227872634310658","刘","14","Male","[""好他"",""坏我"",""好我"",""坏他""]","[""强他"",""弱我"",""强我"",""弱他""]","","","","","","","","nonmatch","","","","","","","","","","key","j","16.66703571428557","640","356","j","true","nonmatch","img/ellipse.png","强我","弱他","prac_ALT2_ability","practice_ability","","","","","","","","",""
"null","<span style='color:GreenYellow; font-size: 70px;'>正确! </span>","null","html-keyboard-response","113","634348","0.0-8.0-1.0-1.1-0.1-1.50","3","2","2","3","1","5","3","2","4","5","5","1","1","-1","1","-1","1","0","1","5","4","5","5","5","3","4","4","4","3","2","3","3","4","3","3","3","4","4","5","5","2","3","5","2","5","2","5","1","1","2","2","5","3","3","2","5","2","2","3","2","3","1","1","1","5","3","3","2","7","6","3","3","3","3","5","2","7","3","5","752227872634310658","刘","14","Male","[""好他"",""坏我"",""好我"",""坏他""]","[""强他"",""弱我"",""强我"",""弱他""]","","","","","","","","","","","","","","","","","","","","","","","","","","","","","","feedback_test","","","","","","","","",""
"948","","f","psychophysics","114","636299","0.0-8.0-1.0-1.1-0.1-0.51","3","2","2","3","1","5","3","2","4","5","5","1","1","-1","1","-1","1","0","1","5","4","5","5","5","3","4","4","4","3","2","3","3","4","3","3","3","4","4","5","5","2","3","5","2","5","2","5","1","1","2","2","5","3","3","2","5","2","2","3","2","3","1","1","1","5","3","3","2","7","6","3","3","3","3","5","2","7","3","5","752227872634310658","刘","14","Male","[""好他"",""坏我"",""好我"",""坏他""]","[""强他"",""弱我"",""强我"",""弱他""]","","","","","","","","match","","","","","","","","","","key","f","16.66744827586206","640","356","j","false","nonmatch","img/trapezoid.png","弱他","弱我","prac_ALT2_ability","practice_ability","","","","","","","","",""
"null","<span style='color:red; font-size: 70px;'>错误! </span>","null","html-keyboard-response","115","636802","0.0-8.0-1.0-1.1-0.1-1.51","3","2","2","3","1","5","3","2","4","5","5","1","1","-1","1","-1","1","0","1","5","4","5","5","5","3","4","4","4","3","2","3","3","4","3","3","3","4","4","5","5","2","3","5","2","5","2","5","1","1","2","2","5","3","3","2","5","2","2","3","2","3","1","1","1","5","3","3","2","7","6","3","3","3","3","5","2","7","3","5","752227872634310658","刘","14","Male","[""好他"",""坏我"",""好我"",""坏他""]","[""强他"",""弱我"",""强我"",""弱他""]","","","","","","","","","","","","","","","","","","","","","","","","","","","","","","feedback_test","","","","","","","","",""
"1045","","j","psychophysics","116","638850","0.0-8.0-1.0-1.1-0.1-0.52","3","2","2","3","1","5","3","2","4","5","5","1","1","-1","1","-1","1","0","1","5","4","5","5","5","3","4","4","4","3","2","3","3","4","3","3","3","4","4","5","5","2","3","5","2","5","2","5","1","1","2","2","5","3","3","2","5","2","2","3","2","3","1","1","1","5","3","3","2","7","6","3","3","3","3","5","2","7","3","5","752227872634310658","刘","14","Male","[""好他"",""坏我"",""好我"",""坏他""]","[""强他"",""弱我"",""强我"",""弱他""]","","","","","","","","nonmatch","","","","","","","","","","key","j","16.666516393442166","640","356","f","false","match","img/ellipse.png","弱他","弱他","prac_ALT2_ability","practice_ability","","","","","","","","",""
"null","<span style='color:red; font-size: 70px;'>错误! </span>","null","html-keyboard-response","117","639351","0.0-8.0-1.0-1.1-0.1-1.52","3","2","2","3","1","5","3","2","4","5","5","1","1","-1","1","-1","1","0","1","5","4","5","5","5","3","4","4","4","3","2","3","3","4","3","3","3","4","4","5","5","2","3","5","2","5","2","5","1","1","2","2","5","3","3","2","5","2","2","3","2","3","1","1","1","5","3","3","2","7","6","3","3","3","3","5","2","7","3","5","752227872634310658","刘","14","Male","[""好他"",""坏我"",""好我"",""坏他""]","[""强他"",""弱我"",""强我"",""弱他""]","","","","","","","","","","","","","","","","","","","","","","","","","","","","","","feedback_test","","","","","","","","",""
"1093","","j","psychophysics","118","641446","0.0-8.0-1.0-1.1-0.1-0.53","3","2","2","3","1","5","3","2","4","5","5","1","1","-1","1","-1","1","0","1","5","4","5","5","5","3","4","4","4","3","2","3","3","4","3","3","3","4","4","5","5","2","3","5","2","5","2","5","1","1","2","2","5","3","3","2","5","2","2","3","2","3","1","1","1","5","3","3","2","7","6","3","3","3","3","5","2","7","3","5","752227872634310658","刘","14","Male","[""好他"",""坏我"",""好我"",""坏他""]","[""强他"",""弱我"",""强我"",""弱他""]","","","","","","","","nonmatch","","","","","","","","","","key","j","16.666087999999522","640","356","f","false","match","img/trapezoid.png","弱我","弱我","prac_ALT2_ability","practice_ability","","","","","","","","",""
"null","<span style='color:red; font-size: 70px;'>错误! </span>","null","html-keyboard-response","119","641947","0.0-8.0-1.0-1.1-0.1-1.53","3","2","2","3","1","5","3","2","4","5","5","1","1","-1","1","-1","1","0","1","5","4","5","5","5","3","4","4","4","3","2","3","3","4","3","3","3","4","4","5","5","2","3","5","2","5","2","5","1","1","2","2","5","3","3","2","5","2","2","3","2","3","1","1","1","5","3","3","2","7","6","3","3","3","3","5","2","7","3","5","752227872634310658","刘","14","Male","[""好他"",""坏我"",""好我"",""坏他""]","[""强他"",""弱我"",""强我"",""弱他""]","","","","","","","","","","","","","","","","","","","","","","","","","","","","","","feedback_test","","","","","","","","",""
"1048","","j","psychophysics","120","643997","0.0-8.0-1.0-1.1-0.1-0.54","3","2","2","3","1","5","3","2","4","5","5","1","1","-1","1","-1","1","0","1","5","4","5","5","5","3","4","4","4","3","2","3","3","4","3","3","3","4","4","5","5","2","3","5","2","5","2","5","1","1","2","2","5","3","3","2","5","2","2","3","2","3","1","1","1","5","3","3","2","7","6","3","3","3","3","5","2","7","3","5","752227872634310658","刘","14","Male","[""好他"",""坏我"",""好我"",""坏他""]","[""强他"",""弱我"",""强我"",""弱他""]","","","","","","","","nonmatch","","","","","","","","","","key","j","16.66718032786844","640","356","j","true","nonmatch","img/ellipse.png","强他","弱他","prac_ALT2_ability","practice_ability","","","","","","","","",""
"null","<span style='color:GreenYellow; font-size: 70px;'>正确! </span>","null","html-keyboard-response","121","644498","0.0-8.0-1.0-1.1-0.1-1.54","3","2","2","3","1","5","3","2","4","5","5","1","1","-1","1","-1","1","0","1","5","4","5","5","5","3","4","4","4","3","2","3","3","4","3","3","3","4","4","5","5","2","3","5","2","5","2","5","1","1","2","2","5","3","3","2","5","2","2","3","2","3","1","1","1","5","3","3","2","7","6","3","3","3","3","5","2","7","3","5","752227872634310658","刘","14","Male","[""好他"",""坏我"",""好我"",""坏他""]","[""强他"",""弱我"",""强我"",""弱他""]","","","","","","","","","","","","","","","","","","","","","","","","","","","","","","feedback_test","","","","","","","","",""
"1021","","f","psychophysics","122","646520","0.0-8.0-1.0-1.1-0.1-0.55","3","2","2","3","1","5","3","2","4","5","5","1","1","-1","1","-1","1","0","1","5","4","5","5","5","3","4","4","4","3","2","3","3","4","3","3","3","4","4","5","5","2","3","5","2","5","2","5","1","1","2","2","5","3","3","2","5","2","2","3","2","3","1","1","1","5","3","3","2","7","6","3","3","3","3","5","2","7","3","5","752227872634310658","刘","14","Male","[""好他"",""坏我"",""好我"",""坏他""]","[""强他"",""弱我"",""强我"",""弱他""]","","","","","","","","match","","","","","","","","","","key","f","16.667949999999838","640","356","j","false","nonmatch","img/trapezoid.png","强他","弱我","prac_ALT2_ability","practice_ability","","","","","","","","",""
"null","<span style='color:red; font-size: 70px;'>错误! </span>","null","html-keyboard-response","123","647024","0.0-8.0-1.0-1.1-0.1-1.55","3","2","2","3","1","5","3","2","4","5","5","1","1","-1","1","-1","1","0","1","5","4","5","5","5","3","4","4","4","3","2","3","3","4","3","3","3","4","4","5","5","2","3","5","2","5","2","5","1","1","2","2","5","3","3","2","5","2","2","3","2","3","1","1","1","5","3","3","2","7","6","3","3","3","3","5","2","7","3","5","752227872634310658","刘","14","Male","[""好他"",""坏我"",""好我"",""坏他""]","[""强他"",""弱我"",""强我"",""弱他""]","","","","","","","","","","","","","","","","","","","","","","","","","","","","","","feedback_test","","","","","","","","",""
"1077","","j","psychophysics","124","649103","0.0-8.0-1.0-1.1-0.1-0.56","3","2","2","3","1","5","3","2","4","5","5","1","1","-1","1","-1","1","0","1","5","4","5","5","5","3","4","4","4","3","2","3","3","4","3","3","3","4","4","5","5","2","3","5","2","5","2","5","1","1","2","2","5","3","3","2","5","2","2","3","2","3","1","1","1","5","3","3","2","7","6","3","3","3","3","5","2","7","3","5","752227872634310658","刘","14","Male","[""好他"",""坏我"",""好我"",""坏他""]","[""强他"",""弱我"",""强我"",""弱他""]","","","","","","","","nonmatch","","","","","","","","","","key","j","16.667747967479926","640","356","f","false","match","img/ellipse.png","弱他","弱他","prac_ALT2_ability","practice_ability","","","","","","","","",""
"null","<span style='color:red; font-size: 70px;'>错误! </span>","null","html-keyboard-response","125","649607","0.0-8.0-1.0-1.1-0.1-1.56","3","2","2","3","1","5","3","2","4","5","5","1","1","-1","1","-1","1","0","1","5","4","5","5","5","3","4","4","4","3","2","3","3","4","3","3","3","4","4","5","5","2","3","5","2","5","2","5","1","1","2","2","5","3","3","2","5","2","2","3","2","3","1","1","1","5","3","3","2","7","6","3","3","3","3","5","2","7","3","5","752227872634310658","刘","14","Male","[""好他"",""坏我"",""好我"",""坏他""]","[""强他"",""弱我"",""强我"",""弱他""]","","","","","","","","","","","","","","","","","","","","","","","","","","","","","","feedback_test","","","","","","","","",""
"1180","","f","psychophysics","126","651790","0.0-8.0-1.0-1.1-0.1-0.57","3","2","2","3","1","5","3","2","4","5","5","1","1","-1","1","-1","1","0","1","5","4","5","5","5","3","4","4","4","3","2","3","3","4","3","3","3","4","4","5","5","2","3","5","2","5","2","5","1","1","2","2","5","3","3","2","5","2","2","3","2","3","1","1","1","5","3","3","2","7","6","3","3","3","3","5","2","7","3","5","752227872634310658","刘","14","Male","[""好他"",""坏我"",""好我"",""坏他""]","[""强他"",""弱我"",""强我"",""弱他""]","","","","","","","","match","","","","","","","","","","key","f","16.66608461538473","640","356","j","false","nonmatch","img/diamond.png","弱我","强我","prac_ALT2_ability","practice_ability","","","","","","","","",""
"null","<span style='color:red; font-size: 70px;'>错误! </span>","null","html-keyboard-response","127","652291","0.0-8.0-1.0-1.1-0.1-1.57","3","2","2","3","1","5","3","2","4","5","5","1","1","-1","1","-1","1","0","1","5","4","5","5","5","3","4","4","4","3","2","3","3","4","3","3","3","4","4","5","5","2","3","5","2","5","2","5","1","1","2","2","5","3","3","2","5","2","2","3","2","3","1","1","1","5","3","3","2","7","6","3","3","3","3","5","2","7","3","5","752227872634310658","刘","14","Male","[""好他"",""坏我"",""好我"",""坏他""]","[""强他"",""弱我"",""强我"",""弱他""]","","","","","","","","","","","","","","","","","","","","","","","","","","","","","","feedback_test","","","","","","","","",""
"827","","f","psychophysics","128","654121","0.0-8.0-1.0-1.1-0.1-0.58","3","2","2","3","1","5","3","2","4","5","5","1","1","-1","1","-1","1","0","1","5","4","5","5","5","3","4","4","4","3","2","3","3","4","3","3","3","4","4","5","5","2","3","5","2","5","2","5","1","1","2","2","5","3","3","2","5","2","2","3","2","3","1","1","1","5","3","3","2","7","6","3","3","3","3","5","2","7","3","5","752227872634310658","刘","14","Male","[""好他"",""坏我"",""好我"",""坏他""]","[""强他"",""弱我"",""强我"",""弱他""]","","","","","","","","match","","","","","","","","","","key","f","16.664073394495063","640","356","j","false","nonmatch","img/diamond.png","弱他","强我","prac_ALT2_ability","practice_ability","","","","","","","","",""
"null","<span style='color:red; font-size: 70px;'>错误! </span>","null","html-keyboard-response","129","654622","0.0-8.0-1.0-1.1-0.1-1.58","3","2","2","3","1","5","3","2","4","5","5","1","1","-1","1","-1","1","0","1","5","4","5","5","5","3","4","4","4","3","2","3","3","4","3","3","3","4","4","5","5","2","3","5","2","5","2","5","1","1","2","2","5","3","3","2","5","2","2","3","2","3","1","1","1","5","3","3","2","7","6","3","3","3","3","5","2","7","3","5","752227872634310658","刘","14","Male","[""好他"",""坏我"",""好我"",""坏他""]","[""强他"",""弱我"",""强我"",""弱他""]","","","","","","","","","","","","","","","","","","","","","","","","","","","","","","feedback_test","","","","","","","","",""
"874","","f","psychophysics","130","656497","0.0-8.0-1.0-1.1-0.1-0.59","3","2","2","3","1","5","3","2","4","5","5","1","1","-1","1","-1","1","0","1","5","4","5","5","5","3","4","4","4","3","2","3","3","4","3","3","3","4","4","5","5","2","3","5","2","5","2","5","1","1","2","2","5","3","3","2","5","2","2","3","2","3","1","1","1","5","3","3","2","7","6","3","3","3","3","5","2","7","3","5","752227872634310658","刘","14","Male","[""好他"",""坏我"",""好我"",""坏他""]","[""强他"",""弱我"",""强我"",""弱他""]","","","","","","","","match","","","","","","","","","","key","f","16.66633333333323","640","356","f","true","match","img/hexagon.png","强他","强他","prac_ALT2_ability","practice_ability","","","","","","","","",""
"null","<span style='color:GreenYellow; font-size: 70px;'>正确! </span>","null","html-keyboard-response","131","656999","0.0-8.0-1.0-1.1-0.1-1.59","3","2","2","3","1","5","3","2","4","5","5","1","1","-1","1","-1","1","0","1","5","4","5","5","5","3","4","4","4","3","2","3","3","4","3","3","3","4","4","5","5","2","3","5","2","5","2","5","1","1","2","2","5","3","3","2","5","2","2","3","2","3","1","1","1","5","3","3","2","7","6","3","3","3","3","5","2","7","3","5","752227872634310658","刘","14","Male","[""好他"",""坏我"",""好我"",""坏他""]","[""强他"",""弱我"",""强我"",""弱他""]","","","","","","","","","","","","","","","","","","","","","","","","","","","","","","feedback_test","","","","","","","","",""
"821","","f","psychophysics","132","658822","0.0-8.0-1.0-1.1-0.1-0.60","3","2","2","3","1","5","3","2","4","5","5","1","1","-1","1","-1","1","0","1","5","4","5","5","5","3","4","4","4","3","2","3","3","4","3","3","3","4","4","5","5","2","3","5","2","5","2","5","1","1","2","2","5","3","3","2","5","2","2","3","2","3","1","1","1","5","3","3","2","7","6","3","3","3","3","5","2","7","3","5","752227872634310658","刘","14","Male","[""好他"",""坏我"",""好我"",""坏他""]","[""强他"",""弱我"",""强我"",""弱他""]","","","","","","","","match","","","","","","","","","","key","f","16.66646788990843","640","356","j","false","nonmatch","img/hexagon.png","强我","强他","prac_ALT2_ability","practice_ability","","","","","","","","",""
"null","<span style='color:red; font-size: 70px;'>错误! </span>","null","html-keyboard-response","133","659326","0.0-8.0-1.0-1.1-0.1-1.60","3","2","2","3","1","5","3","2","4","5","5","1","1","-1","1","-1","1","0","1","5","4","5","5","5","3","4","4","4","3","2","3","3","4","3","3","3","4","4","5","5","2","3","5","2","5","2","5","1","1","2","2","5","3","3","2","5","2","2","3","2","3","1","1","1","5","3","3","2","7","6","3","3","3","3","5","2","7","3","5","752227872634310658","刘","14","Male","[""好他"",""坏我"",""好我"",""坏他""]","[""强他"",""弱我"",""强我"",""弱他""]","","","","","","","","","","","","","","","","","","","","","","","","","","","","","","feedback_test","","","","","","","","",""
"846","","f","psychophysics","134","661175","0.0-8.0-1.0-1.1-0.1-0.61","3","2","2","3","1","5","3","2","4","5","5","1","1","-1","1","-1","1","0","1","5","4","5","5","5","3","4","4","4","3","2","3","3","4","3","3","3","4","4","5","5","2","3","5","2","5","2","5","1","1","2","2","5","3","3","2","5","2","2","3","2","3","1","1","1","5","3","3","2","7","6","3","3","3","3","5","2","7","3","5","752227872634310658","刘","14","Male","[""好他"",""坏我"",""好我"",""坏他""]","[""强他"",""弱我"",""强我"",""弱他""]","","","","","","","","match","","","","","","","","","","key","f","16.66502727272772","640","356","j","false","nonmatch","img/ellipse.png","弱我","弱他","prac_ALT2_ability","practice_ability","","","","","","","","",""
"null","<span style='color:red; font-size: 70px;'>错误! </span>","null","html-keyboard-response","135","661676","0.0-8.0-1.0-1.1-0.1-1.61","3","2","2","3","1","5","3","2","4","5","5","1","1","-1","1","-1","1","0","1","5","4","5","5","5","3","4","4","4","3","2","3","3","4","3","3","3","4","4","5","5","2","3","5","2","5","2","5","1","1","2","2","5","3","3","2","5","2","2","3","2","3","1","1","1","5","3","3","2","7","6","3","3","3","3","5","2","7","3","5","752227872634310658","刘","14","Male","[""好他"",""坏我"",""好我"",""坏他""]","[""强他"",""弱我"",""强我"",""弱他""]","","","","","","","","","","","","","","","","","","","","","","","","","","","","","","feedback_test","","","","","","","","",""
"963","","f","psychophysics","136","663643","0.0-8.0-1.0-1.1-0.1-0.62","3","2","2","3","1","5","3","2","4","5","5","1","1","-1","1","-1","1","0","1","5","4","5","5","5","3","4","4","4","3","2","3","3","4","3","3","3","4","4","5","5","2","3","5","2","5","2","5","1","1","2","2","5","3","3","2","5","2","2","3","2","3","1","1","1","5","3","3","2","7","6","3","3","3","3","5","2","7","3","5","752227872634310658","刘","14","Male","[""好他"",""坏我"",""好我"",""坏他""]","[""强他"",""弱我"",""强我"",""弱他""]","","","","","","","","match","","","","","","","","","","key","f","16.66547863247892","640","356","f","true","match","img/diamond.png","强我","强我","prac_ALT2_ability","practice_ability","","","","","","","","",""
"null","<span style='color:GreenYellow; font-size: 70px;'>正确! </span>","null","html-keyboard-response","137","664145","0.0-8.0-1.0-1.1-0.1-1.62","3","2","2","3","1","5","3","2","4","5","5","1","1","-1","1","-1","1","0","1","5","4","5","5","5","3","4","4","4","3","2","3","3","4","3","3","3","4","4","5","5","2","3","5","2","5","2","5","1","1","2","2","5","3","3","2","5","2","2","3","2","3","1","1","1","5","3","3","2","7","6","3","3","3","3","5","2","7","3","5","752227872634310658","刘","14","Male","[""好他"",""坏我"",""好我"",""坏他""]","[""强他"",""弱我"",""强我"",""弱他""]","","","","","","","","","","","","","","","","","","","","","","","","","","","","","","feedback_test","","","","","","","","",""
