"rt","stimulus","response","trial_type","trial_index","time_elapsed","internal_node_id","swb_1","swb_2","swb_3","swb_4","swb_5","LOT_1","LOT_2","LOT_3","LOT_4","LOT_5","LOT_6","IPC_1","IPC_2","IPC_3","IPC_4","IPC_5","IPC_6","IPC_7","IPC_8","MorIden_1","MorIden_2","MorIden_3","MorIden_4","MorIden_5","MorIden_6","MorIden_7","MorIden_8","MorIden_9","MorIden_10","moralSeImag_1","moralSeImag_2","moralSeImag_3","moralSeImag_4","moralSeImag_5","moralSeImag_6","moralSeImag_7","moralSeImag_8","moralSeImag_9","sde_1","sde_2","sde_3","sde_4","sde_5","sde_6","sde_7","sde_8","sde_9","sde_10","trap2","sde_11","sde_12","sde_13","sde_14","sde_15","sde_16","sde_17","sde_18","sde_19","sde_20","IM_1","IM_2","IM_3","IM_4","IM_5","IM_6","IM_7","IM_8","IM_9","IM_10","IM_11","IM_12","IM_13","IM_14","IM_15","IM_16","IM_17","IM_18","IM_19","IM_20","subj_idx","friend_name","ParticipantID","Sex","Word","Word2","value","success","timeout","failed_images","failed_audio","failed_video","user_agent","responses","item_order","radio_event_ids","radio_event_times","key_event_times","mouse_event_times","straightlining","zigzagging","honeypot","task_id","screen_id","time_stamp","response_type","key_press","avg_frame_time","center_x","center_y","person","word","valence","domain","math","correct_response","correct","status","view_history","identity","duration","Image","condition","question_order","trap2_item"
"15956","
   <p><div style='color:white; font-size: 25px'>您好，欢迎参加本次实验。</div></p>
   <p><div style='color:white; font-size: 25px'>为充分保障您的权利，请确保您已经知晓并同意《参与实验同意书》以及《数据公开知情同意书》。</div></p>
   <p><div style='color:white; font-size: 25px'>如果您未见过上述内容，请咨询实验员。</div></p>
   <p style='color:white; font-size: 25px'>如果您选择继续实验，则表示您已经清楚两份知情同意书的内容并同意。</p>
   <p><div style = ""color: pink;font-size:30px;"">请确保您记得day0的实验编号，您将在本次实验输入该编号，若您忘记，请咨询实验员后作答。</div></p>
   <p><div style = ""color:lightblue;font-size:25px;"">请您尽可能认真地作答，我们将依据您在各问卷和按键任务中的作答质量发放报酬。</div></p>
   <p> <div style = ""color: green""><按空格键至下页></div> </p>
   "," ","html-keyboard-response","0","15962","0.0-0.0","6","5","6","5","5","5","1","4","5","4","5","2","0","0","1","0","2","1","1","5","5","5","5","5","4","4","4","5","5","8","8","6","9","7","8","8","6","9","6","5","5","6","6","3","6","1","5","2","1","3","2","5","3","7","6","6","3","5","5","3","6","3","5","3","7","2","5","5","7","7","6","6","3","2","7","3","7","3","5","598900137913221120","张","479","Male","[""坏他"",""好他"",""坏我"",""好我""]","[""弱他"",""强他"",""弱我"",""强我""]","","","","","","","","","","","","","","","","","","","","","","","","","","","","","","","","","","","","","","",""
"","","","call-function","1","15966","0.0-1.0-0.0","6","5","6","5","5","5","1","4","5","4","5","2","0","0","1","0","2","1","1","5","5","5","5","5","4","4","4","5","5","8","8","6","9","7","8","8","6","9","6","5","5","6","6","3","6","1","5","2","1","3","2","5","3","7","6","6","3","5","5","3","6","3","5","3","7","2","5","5","7","7","6","6","3","2","7","3","7","3","5","598900137913221120","张","479","Male","[""坏他"",""好他"",""坏我"",""好我""]","[""弱他"",""强他"",""弱我"",""强我""]","","","","","","","","","","","","","","","","","","","","","","","","","","","","","","","","","","","","","","",""
"22427","","[{""name"":""Sex"",""value"":""0""},{""name"":""friend_name"",""value"":""张""},{""name"":""ParticipantID"",""value"":""479""}]","survey-html-form","2","38397","0.0-1.0-1.0","6","5","6","5","5","5","1","4","5","4","5","2","0","0","1","0","2","1","1","5","5","5","5","5","4","4","4","5","5","8","8","6","9","7","8","8","6","9","6","5","5","6","6","3","6","1","5","2","1","3","2","5","3","7","6","6","3","5","5","3","6","3","5","3","7","2","5","5","7","7","6","6","3","2","7","3","7","3","5","598900137913221120","张","479","Male","[""坏他"",""好他"",""坏我"",""好我""]","[""弱他"",""强他"",""弱我"",""强我""]","","","","","","","","","","","","","","","","","","","","","","","","","","","","","","","","","","","","","","",""
"","","","preload","3","39305","0.0-2.0","6","5","6","5","5","5","1","4","5","4","5","2","0","0","1","0","2","1","1","5","5","5","5","5","4","4","4","5","5","8","8","6","9","7","8","8","6","9","6","5","5","6","6","3","6","1","5","2","1","3","2","5","3","7","6","6","3","5","5","3","6","3","5","3","7","2","5","5","7","7","6","6","3","2","7","3","7","3","5","598900137913221120","张","479","Male","[""坏他"",""好他"",""坏我"",""好我""]","[""弱他"",""强他"",""弱我"",""强我""]","","true","false","[]","[]","[]","","","","","","","","","","","","","","","","","","","","","","","","","","","","","","","","",""
"","","","fullscreen","4","40627","0.0-3.0","6","5","6","5","5","5","1","4","5","4","5","2","0","0","1","0","2","1","1","5","5","5","5","5","4","4","4","5","5","8","8","6","9","7","8","8","6","9","6","5","5","6","6","3","6","1","5","2","1","3","2","5","3","7","6","6","3","5","5","3","6","3","5","3","7","2","5","5","7","7","6","6","3","2","7","3","7","3","5","598900137913221120","张","479","Male","[""坏他"",""好他"",""坏我"",""好我""]","[""弱他"",""强他"",""弱我"",""强我""]","","true","","","","","{}","","","","","","","","","","","","","","","","","","","","","","","","","","","","","","","",""
"13683.5","","{""Q01"":""6"",""Q02"":""5"",""Q03"":""6"",""Q04"":""5"",""Q05"":""5""}","survey-template","5","54319","0.0-4.0","6","5","6","5","5","5","1","4","5","4","5","2","0","0","1","0","2","1","1","5","5","5","5","5","4","4","4","5","5","8","8","6","9","7","8","8","6","9","6","5","5","6","6","3","6","1","5","2","1","3","2","5","3","7","6","6","3","5","5","3","6","3","5","3","7","2","5","5","7","7","6","6","3","2","7","3","7","3","5","598900137913221120","张","479","Male","[""坏他"",""好他"",""坏我"",""好我""]","[""弱他"",""强他"",""弱我"",""强我""]","","","","","","","","{""Q01"":""6"",""Q02"":""5"",""Q03"":""6"",""Q04"":""5"",""Q05"":""5""}","[0,1,2,3,4]","[""Q01"",""Q02"",""Q03"",""Q04"",""Q05""]","[5826.5,8026.5,9379.199999809265,11394.299999713898,11962.599999904633]","[]","[5826.5,8026.5,8587.699999809265,9379.199999809265,9714.099999904633,10146,10953.89999961853,11394.299999713898,11962.599999904633,13682.299999713898]","0.6","0.75","0","","","","","","","","","","","","","","","","","","","","","","",""
"13516.700000286102","","{""Q01"":""5"",""Q02"":""1"",""Q03"":""4"",""Q04"":""5"",""Q05"":""4"",""Q06"":""5""}","survey-template","6","67843","0.0-5.0","6","5","6","5","5","5","1","4","5","4","5","2","0","0","1","0","2","1","1","5","5","5","5","5","4","4","4","5","5","8","8","6","9","7","8","8","6","9","6","5","5","6","6","3","6","1","5","2","1","3","2","5","3","7","6","6","3","5","5","3","6","3","5","3","7","2","5","5","7","7","6","6","3","2","7","3","7","3","5","598900137913221120","张","479","Male","[""坏他"",""好他"",""坏我"",""好我""]","[""弱他"",""强他"",""弱我"",""强我""]","","","","","","","","{""Q01"":""5"",""Q02"":""1"",""Q03"":""4"",""Q04"":""5"",""Q05"":""4"",""Q06"":""5""}","[0,1,2,3,4,5]","[""Q01"",""Q01"",""Q02"",""Q03"",""Q04"",""Q05"",""Q06""]","[2011.7000002861023,4603.800000190735,5068.599999904633,5662.300000190735,9092.400000095367,9516.099999904633,12627.700000286102]","[]","[2011.7000002861023,3155.800000190735,3691.800000190735,4603.800000190735,5068.599999904633,5662.300000190735,7643.700000286102,8835.900000095367,9092.400000095367,9516.099999904633,12220.099999904633,12627.700000286102,13515.900000095367]","0.5","0.4","0","","","","","","","","","","","","","","","","","","","","","","",""
"14867.699999809265","","{""Q01"":""2"",""Q02"":""0"",""Q03"":""0"",""Q04"":""1"",""Q05"":""0"",""Q06"":""2"",""Q07"":""1"",""Q08"":""1""}","survey-template","7","82716","0.0-6.0","6","5","6","5","5","5","1","4","5","4","5","2","0","0","1","0","2","1","1","5","5","5","5","5","4","4","4","5","5","8","8","6","9","7","8","8","6","9","6","5","5","6","6","3","6","1","5","2","1","3","2","5","3","7","6","6","3","5","5","3","6","3","5","3","7","2","5","5","7","7","6","6","3","2","7","3","7","3","5","598900137913221120","张","479","Male","[""坏他"",""好他"",""坏我"",""好我""]","[""弱他"",""强他"",""弱我"",""强我""]","","","","","","","","{""Q01"":""2"",""Q02"":""0"",""Q03"":""0"",""Q04"":""1"",""Q05"":""0"",""Q06"":""2"",""Q07"":""1"",""Q08"":""1""}","[0,1,2,3,4,5,6,7]","[""Q01"",""Q02"",""Q03"",""Q01"",""Q04"",""Q05"",""Q06"",""Q07"",""Q08""]","[1762.1999998092651,3393.9000000953674,5338.199999809265,6482.300000190735,7802,9666.5,11020.099999904633,11835.199999809265,13722.099999904633]","[]","[1762.1999998092651,3393.9000000953674,4897.800000190735,5338.199999809265,6097.900000095367,6482.300000190735,7802,9666.5,11020.099999904633,11835.199999809265,12561.900000095367,13722.099999904633,14866]","0.375","0.42857142857142855","0","","","","","","","","","","","","","","","","","","","","","","",""
"6955","
    <p><div style='color:white;font-size:35px; line-height:20px;'>词汇评估任务</div></p><br>
    <p><div style='color:white;font-size:25px; line-height:20px;'>请再次回忆该亲密的朋友，你们至少2年前就认识了，并且最近2年经常见面。</div></p>
    <p><div style='color:white;font-size:25px; line-height:20px;'>在本实验中，您将会看到一些形容词。</div></p>
    <p><div style='color:yellow;font-size:25px; line-height:20px;'>您的任务是判断这些形容词是否符合对您自己或您的朋友的描述。</div></p><p style='font-size:35px'>符合按<span style=""color:lightgreen""> j 键</span>，不符合按<span style=""color:red""> f 键</span></p>","0","html-button-response","8","89675","0.0-7.0-0.0","6","5","6","5","5","5","1","4","5","4","5","2","0","0","1","0","2","1","1","5","5","5","5","5","4","4","4","5","5","8","8","6","9","7","8","8","6","9","6","5","5","6","6","3","6","1","5","2","1","3","2","5","3","7","6","6","3","5","5","3","6","3","5","3","7","2","5","5","7","7","6","6","3","2","7","3","7","3","5","598900137913221120","张","479","Male","[""坏他"",""好他"",""坏我"",""好我""]","[""弱他"",""强他"",""弱我"",""强我""]","","","","","","","","","","","","","","","","","SRET_EW","EW_instructions","Sun Dec 10 2023 13:55:08 GMT+0800 (中国标准时间)","","","","","","","","","","","","","","","","","","","",""
"null","","null","psychophysics","9","92688","0.0-7.0-1.0-0.0","6","5","6","5","5","5","1","4","5","4","5","2","0","0","1","0","2","1","1","5","5","5","5","5","4","4","4","5","5","8","8","6","9","7","8","8","6","9","6","5","5","6","6","3","6","1","5","2","1","3","2","5","3","7","6","6","3","5","5","3","6","3","5","3","7","2","5","5","7","7","6","6","3","2","7","3","7","3","5","598900137913221120","张","479","Male","[""坏他"",""好他"",""坏我"",""好我""]","[""弱他"",""强他"",""弱我"",""强我""]","","","","","","","","","","","","","","","","","SRET_EW","EW_practice","","key","null","16.767307262569823","758.3333534223067","422.22223340729164","朋友","徇私","Negative","morality","","","","","","","","","","",""
"1339","","j","psychophysics","10","95037","0.0-7.0-1.0-0.1","6","5","6","5","5","5","1","4","5","4","5","2","0","0","1","0","2","1","1","5","5","5","5","5","4","4","4","5","5","8","8","6","9","7","8","8","6","9","6","5","5","6","6","3","6","1","5","2","1","3","2","5","3","7","6","6","3","5","5","3","6","3","5","3","7","2","5","5","7","7","6","6","3","2","7","3","7","3","5","598900137913221120","张","479","Male","[""坏他"",""好他"",""坏我"",""好我""]","[""弱他"",""强他"",""弱我"",""强我""]","","","","","","","","yes","","","","","","","","","SRET_EW","EW_practice","","key","j","16.673364285714342","758.3333534223067","422.22223340729164","朋友","忠实","Positive","morality","","","","","","","","","","",""
"1229","","f","psychophysics","11","97269","0.0-7.0-1.0-0.2","6","5","6","5","5","5","1","4","5","4","5","2","0","0","1","0","2","1","1","5","5","5","5","5","4","4","4","5","5","8","8","6","9","7","8","8","6","9","6","5","5","6","6","3","6","1","5","2","1","3","2","5","3","7","6","6","3","5","5","3","6","3","5","3","7","2","5","5","7","7","6","6","3","2","7","3","7","3","5","598900137913221120","张","479","Male","[""坏他"",""好他"",""坏我"",""好我""]","[""弱他"",""强他"",""弱我"",""强我""]","","","","","","","","no","","","","","","","","","SRET_EW","EW_practice","","key","f","16.674932330827094","758.3333534223067","422.22223340729164","自己","刻板","Negative","ability","","","","","","","","","","",""
"1071","","j","psychophysics","12","99344","0.0-7.0-1.0-0.3","6","5","6","5","5","5","1","4","5","4","5","2","0","0","1","0","2","1","1","5","5","5","5","5","4","4","4","5","5","8","8","6","9","7","8","8","6","9","6","5","5","6","6","3","6","1","5","2","1","3","2","5","3","7","6","6","3","5","5","3","6","3","5","3","7","2","5","5","7","7","6","6","3","2","7","3","7","3","5","598900137913221120","张","479","Male","[""坏他"",""好他"",""坏我"",""好我""]","[""弱他"",""强他"",""弱我"",""强我""]","","","","","","","","yes","","","","","","","","","SRET_EW","EW_practice","","key","j","16.67531707317072","758.3333534223067","422.22223340729164","自己","严谨","Positive","ability","","","","","","","","","","",""
"3252","
    <p><div style='color:white;font-size:35px; line-height:20px;'>请您再次阅读实验要求</div></p><br>
    <p><div style='color:white;font-size:25px; line-height:20px;'>请回忆某一个亲密的朋友，你们至少2年前就认识了，并且最近2年经常见面。</div></p>
    <p><div style='color:white;font-size:25px; line-height:20px;'>在本实验中，您将会看到一些形容词。</div></p>
    <p><div style='color:yellow;font-size:25px; line-height:20px;'>您的任务是判断这些形容词是否符合对您自己或您的朋友的描述。</div></p>
    <p><div class='footer' style='font-size:25px; line-height:20px;'>如果对本实验还有不清楚之处，请立即向实验员咨询。</p><p style='font-size:25px; line-height:20px;'>如果您明白了规则：</p><p style='font-size:22px; line-height:20px;'>请按 继续 进入正式实验</p>
    </div>
    <p style='font-size:35px'>符合按<span style=""color:lightgreen""> j 键</span>，不符合按<span style=""color:red""> f 键</span></p>","0","html-button-response","13","102602","0.0-7.0-2.0","6","5","6","5","5","5","1","4","5","4","5","2","0","0","1","0","2","1","1","5","5","5","5","5","4","4","4","5","5","8","8","6","9","7","8","8","6","9","6","5","5","6","6","3","6","1","5","2","1","3","2","5","3","7","6","6","3","5","5","3","6","3","5","3","7","2","5","5","7","7","6","6","3","2","7","3","7","3","5","598900137913221120","张","479","Male","[""坏他"",""好他"",""坏我"",""好我""]","[""弱他"",""强他"",""弱我"",""强我""]","","","","","","","","","","","","","","","","","SRET_EW","prac_instructions","Sun Dec 10 2023 13:55:08 GMT+0800 (中国标准时间)","","","","","","","","","","","","","","","","","","","",""
"877","","j","psychophysics","14","104487","0.0-7.0-3.0-0.0","6","5","6","5","5","5","1","4","5","4","5","2","0","0","1","0","2","1","1","5","5","5","5","5","4","4","4","5","5","8","8","6","9","7","8","8","6","9","6","5","5","6","6","3","6","1","5","2","1","3","2","5","3","7","6","6","3","5","5","3","6","3","5","3","7","2","5","5","7","7","6","6","3","2","7","3","7","3","5","598900137913221120","张","479","Male","[""坏他"",""好他"",""坏我"",""好我""]","[""弱他"",""强他"",""弱我"",""强我""]","","","","","","","","yes","","","","","","","","","SRET","EW_formal","","key","j","16.671106194690193","758.3333534223067","422.22223340729164","朋友","务实","Positive","ability","","","","","","","","","","",""
"1265","","f","psychophysics","15","106755","0.0-7.0-3.0-0.1","6","5","6","5","5","5","1","4","5","4","5","2","0","0","1","0","2","1","1","5","5","5","5","5","4","4","4","5","5","8","8","6","9","7","8","8","6","9","6","5","5","6","6","3","6","1","5","2","1","3","2","5","3","7","6","6","3","5","5","3","6","3","5","3","7","2","5","5","7","7","6","6","3","2","7","3","7","3","5","598900137913221120","张","479","Male","[""坏他"",""好他"",""坏我"",""好我""]","[""弱他"",""强他"",""弱我"",""强我""]","","","","","","","","no","","","","","","","","","SRET","EW_formal","","key","f","16.674696296296208","758.3333534223067","422.22223340729164","朋友","迷糊","Negative","ability","","","","","","","","","","",""
"1027","","f","psychophysics","16","108786","0.0-7.0-3.0-0.2","6","5","6","5","5","5","1","4","5","4","5","2","0","0","1","0","2","1","1","5","5","5","5","5","4","4","4","5","5","8","8","6","9","7","8","8","6","9","6","5","5","6","6","3","6","1","5","2","1","3","2","5","3","7","6","6","3","5","5","3","6","3","5","3","7","2","5","5","7","7","6","6","3","2","7","3","7","3","5","598900137913221120","张","479","Male","[""坏他"",""好他"",""坏我"",""好我""]","[""弱他"",""强他"",""弱我"",""强我""]","","","","","","","","no","","","","","","","","","SRET","EW_formal","","key","f","16.674533333333237","758.3333534223067","422.22223340729164","自己","说谎","Negative","morality","","","","","","","","","","",""
"986","","j","psychophysics","17","110780","0.0-7.0-3.0-0.3","6","5","6","5","5","5","1","4","5","4","5","2","0","0","1","0","2","1","1","5","5","5","5","5","4","4","4","5","5","8","8","6","9","7","8","8","6","9","6","5","5","6","6","3","6","1","5","2","1","3","2","5","3","7","6","6","3","5","5","3","6","3","5","3","7","2","5","5","7","7","6","6","3","2","7","3","7","3","5","598900137913221120","张","479","Male","[""坏他"",""好他"",""坏我"",""好我""]","[""弱他"",""强他"",""弱我"",""强我""]","","","","","","","","yes","","","","","","","","","SRET","EW_formal","","key","j","16.67343697478988","758.3333534223067","422.22223340729164","自己","坚贞","Positive","morality","","","","","","","","","","",""
"879","","j","psychophysics","18","112694","0.0-7.0-3.0-0.4","6","5","6","5","5","5","1","4","5","4","5","2","0","0","1","0","2","1","1","5","5","5","5","5","4","4","4","5","5","8","8","6","9","7","8","8","6","9","6","5","5","6","6","3","6","1","5","2","1","3","2","5","3","7","6","6","3","5","5","3","6","3","5","3","7","2","5","5","7","7","6","6","3","2","7","3","7","3","5","598900137913221120","张","479","Male","[""坏他"",""好他"",""坏我"",""好我""]","[""弱他"",""强他"",""弱我"",""强我""]","","","","","","","","yes","","","","","","","","","SRET","EW_formal","","key","j","16.824920353982304","758.3333534223067","422.22223340729164","自己","刚正","Positive","morality","","","","","","","","","","",""
"1291","","f","psychophysics","19","114988","0.0-7.0-3.0-0.5","6","5","6","5","5","5","1","4","5","4","5","2","0","0","1","0","2","1","1","5","5","5","5","5","4","4","4","5","5","8","8","6","9","7","8","8","6","9","6","5","5","6","6","3","6","1","5","2","1","3","2","5","3","7","6","6","3","5","5","3","6","3","5","3","7","2","5","5","7","7","6","6","3","2","7","3","7","3","5","598900137913221120","张","479","Male","[""坏他"",""好他"",""坏我"",""好我""]","[""弱他"",""强他"",""弱我"",""强我""]","","","","","","","","no","","","","","","","","","SRET","EW_formal","","key","f","16.674072992700715","758.3333534223067","422.22223340729164","自己","不端","Negative","morality","","","","","","","","","","",""
"1024","","f","psychophysics","20","117014","0.0-7.0-3.0-0.6","6","5","6","5","5","5","1","4","5","4","5","2","0","0","1","0","2","1","1","5","5","5","5","5","4","4","4","5","5","8","8","6","9","7","8","8","6","9","6","5","5","6","6","3","6","1","5","2","1","3","2","5","3","7","6","6","3","5","5","3","6","3","5","3","7","2","5","5","7","7","6","6","3","2","7","3","7","3","5","598900137913221120","张","479","Male","[""坏他"",""好他"",""坏我"",""好我""]","[""弱他"",""强他"",""弱我"",""强我""]","","","","","","","","no","","","","","","","","","SRET","EW_formal","","key","f","16.67531666666667","758.3333534223067","422.22223340729164","自己","马虎","Negative","ability","","","","","","","","","","",""
"1025","","f","psychophysics","21","119044","0.0-7.0-3.0-0.7","6","5","6","5","5","5","1","4","5","4","5","2","0","0","1","0","2","1","1","5","5","5","5","5","4","4","4","5","5","8","8","6","9","7","8","8","6","9","6","5","5","6","6","3","6","1","5","2","1","3","2","5","3","7","6","6","3","5","5","3","6","3","5","3","7","2","5","5","7","7","6","6","3","2","7","3","7","3","5","598900137913221120","张","479","Male","[""坏他"",""好他"",""坏我"",""好我""]","[""弱他"",""强他"",""弱我"",""强我""]","","","","","","","","no","","","","","","","","","SRET","EW_formal","","key","f","16.674570247933822","758.3333534223067","422.22223340729164","朋友","逞强","Negative","ability","","","","","","","","","","",""
"764","","f","psychophysics","22","120814","0.0-7.0-3.0-0.8","6","5","6","5","5","5","1","4","5","4","5","2","0","0","1","0","2","1","1","5","5","5","5","5","4","4","4","5","5","8","8","6","9","7","8","8","6","9","6","5","5","6","6","3","6","1","5","2","1","3","2","5","3","7","6","6","3","5","5","3","6","3","5","3","7","2","5","5","7","7","6","6","3","2","7","3","7","3","5","598900137913221120","张","479","Male","[""坏他"",""好他"",""坏我"",""好我""]","[""弱他"",""强他"",""弱我"",""强我""]","","","","","","","","no","","","","","","","","","SRET","EW_formal","","key","f","16.674047619047563","758.3333534223067","422.22223340729164","朋友","废物","Negative","ability","","","","","","","","","","",""
"1045","","f","psychophysics","23","122863","0.0-7.0-3.0-0.9","6","5","6","5","5","5","1","4","5","4","5","2","0","0","1","0","2","1","1","5","5","5","5","5","4","4","4","5","5","8","8","6","9","7","8","8","6","9","6","5","5","6","6","3","6","1","5","2","1","3","2","5","3","7","6","6","3","5","5","3","6","3","5","3","7","2","5","5","7","7","6","6","3","2","7","3","7","3","5","598900137913221120","张","479","Male","[""坏他"",""好他"",""坏我"",""好我""]","[""弱他"",""强他"",""弱我"",""强我""]","","","","","","","","no","","","","","","","","","SRET","EW_formal","","key","f","16.675573770491788","758.3333534223067","422.22223340729164","朋友","蛇蝎","Negative","morality","","","","","","","","","","",""
"1966","","j","psychophysics","24","125834","0.0-7.0-3.0-0.10","6","5","6","5","5","5","1","4","5","4","5","2","0","0","1","0","2","1","1","5","5","5","5","5","4","4","4","5","5","8","8","6","9","7","8","8","6","9","6","5","5","6","6","3","6","1","5","2","1","3","2","5","3","7","6","6","3","5","5","3","6","3","5","3","7","2","5","5","7","7","6","6","3","2","7","3","7","3","5","598900137913221120","张","479","Male","[""坏他"",""好他"",""坏我"",""好我""]","[""弱他"",""强他"",""弱我"",""强我""]","","","","","","","","yes","","","","","","","","","SRET","EW_formal","","key","j","16.67493220338985","758.3333534223067","422.22223340729164","朋友","果决","Positive","ability","","","","","","","","","","",""
"909","","j","psychophysics","25","127746","0.0-7.0-3.0-0.11","6","5","6","5","5","5","1","4","5","4","5","2","0","0","1","0","2","1","1","5","5","5","5","5","4","4","4","5","5","8","8","6","9","7","8","8","6","9","6","5","5","6","6","3","6","1","5","2","1","3","2","5","3","7","6","6","3","5","5","3","6","3","5","3","7","2","5","5","7","7","6","6","3","2","7","3","7","3","5","598900137913221120","张","479","Male","[""坏他"",""好他"",""坏我"",""好我""]","[""弱他"",""强他"",""弱我"",""强我""]","","","","","","","","yes","","","","","","","","","SRET","EW_formal","","key","j","16.675289473684277","758.3333534223067","422.22223340729164","朋友","无能","Negative","ability","","","","","","","","","","",""
"1169","","j","psychophysics","26","129919","0.0-7.0-3.0-0.12","6","5","6","5","5","5","1","4","5","4","5","2","0","0","1","0","2","1","1","5","5","5","5","5","4","4","4","5","5","8","8","6","9","7","8","8","6","9","6","5","5","6","6","3","6","1","5","2","1","3","2","5","3","7","6","6","3","5","5","3","6","3","5","3","7","2","5","5","7","7","6","6","3","2","7","3","7","3","5","598900137913221120","张","479","Male","[""坏他"",""好他"",""坏我"",""好我""]","[""弱他"",""强他"",""弱我"",""强我""]","","","","","","","","yes","","","","","","","","","SRET","EW_formal","","key","j","16.676317829457442","758.3333534223067","422.22223340729164","自己","慷慨","Positive","morality","","","","","","","","","","",""
"764","","f","psychophysics","27","131700","0.0-7.0-3.0-0.13","6","5","6","5","5","5","1","4","5","4","5","2","0","0","1","0","2","1","1","5","5","5","5","5","4","4","4","5","5","8","8","6","9","7","8","8","6","9","6","5","5","6","6","3","6","1","5","2","1","3","2","5","3","7","6","6","3","5","5","3","6","3","5","3","7","2","5","5","7","7","6","6","3","2","7","3","7","3","5","598900137913221120","张","479","Male","[""坏他"",""好他"",""坏我"",""好我""]","[""弱他"",""强他"",""弱我"",""强我""]","","","","","","","","no","","","","","","","","","SRET","EW_formal","","key","f","16.673245283018606","758.3333534223067","422.22223340729164","朋友","外行","Negative","ability","","","","","","","","","","",""
"849","","f","psychophysics","28","133553","0.0-7.0-3.0-0.14","6","5","6","5","5","5","1","4","5","4","5","2","0","0","1","0","2","1","1","5","5","5","5","5","4","4","4","5","5","8","8","6","9","7","8","8","6","9","6","5","5","6","6","3","6","1","5","2","1","3","2","5","3","7","6","6","3","5","5","3","6","3","5","3","7","2","5","5","7","7","6","6","3","2","7","3","7","3","5","598900137913221120","张","479","Male","[""坏他"",""好他"",""坏我"",""好我""]","[""弱他"",""强他"",""弱我"",""强我""]","","","","","","","","no","","","","","","","","","SRET","EW_formal","","key","f","16.674227272727347","758.3333534223067","422.22223340729164","自己","低劣","Negative","morality","","","","","","","","","","",""
"814","","j","psychophysics","29","135370","0.0-7.0-3.0-0.15","6","5","6","5","5","5","1","4","5","4","5","2","0","0","1","0","2","1","1","5","5","5","5","5","4","4","4","5","5","8","8","6","9","7","8","8","6","9","6","5","5","6","6","3","6","1","5","2","1","3","2","5","3","7","6","6","3","5","5","3","6","3","5","3","7","2","5","5","7","7","6","6","3","2","7","3","7","3","5","598900137913221120","张","479","Male","[""坏他"",""好他"",""坏我"",""好我""]","[""弱他"",""强他"",""弱我"",""强我""]","","","","","","","","yes","","","","","","","","","SRET","EW_formal","","key","j","16.67386111111113","758.3333534223067","422.22223340729164","自己","扎实","Positive","ability","","","","","","","","","","",""
"734","","f","psychophysics","30","137107","0.0-7.0-3.0-0.16","6","5","6","5","5","5","1","4","5","4","5","2","0","0","1","0","2","1","1","5","5","5","5","5","4","4","4","5","5","8","8","6","9","7","8","8","6","9","6","5","5","6","6","3","6","1","5","2","1","3","2","5","3","7","6","6","3","5","5","3","6","3","5","3","7","2","5","5","7","7","6","6","3","2","7","3","7","3","5","598900137913221120","张","479","Male","[""坏他"",""好他"",""坏我"",""好我""]","[""弱他"",""强他"",""弱我"",""强我""]","","","","","","","","no","","","","","","","","","SRET","EW_formal","","key","f","16.672893203883397","758.3333534223067","422.22223340729164","自己","无知","Negative","ability","","","","","","","","","","",""
"847","","j","psychophysics","31","138972","0.0-7.0-3.0-0.17","6","5","6","5","5","5","1","4","5","4","5","2","0","0","1","0","2","1","1","5","5","5","5","5","4","4","4","5","5","8","8","6","9","7","8","8","6","9","6","5","5","6","6","3","6","1","5","2","1","3","2","5","3","7","6","6","3","5","5","3","6","3","5","3","7","2","5","5","7","7","6","6","3","2","7","3","7","3","5","598900137913221120","张","479","Male","[""坏他"",""好他"",""坏我"",""好我""]","[""弱他"",""强他"",""弱我"",""强我""]","","","","","","","","yes","","","","","","","","","SRET","EW_formal","","key","j","16.672612612612642","758.3333534223067","422.22223340729164","自己","高尚","Positive","morality","","","","","","","","","","",""
"839","","j","psychophysics","32","140816","0.0-7.0-3.0-0.18","6","5","6","5","5","5","1","4","5","4","5","2","0","0","1","0","2","1","1","5","5","5","5","5","4","4","4","5","5","8","8","6","9","7","8","8","6","9","6","5","5","6","6","3","6","1","5","2","1","3","2","5","3","7","6","6","3","5","5","3","6","3","5","3","7","2","5","5","7","7","6","6","3","2","7","3","7","3","5","598900137913221120","张","479","Male","[""坏他"",""好他"",""坏我"",""好我""]","[""弱他"",""强他"",""弱我"",""强我""]","","","","","","","","yes","","","","","","","","","SRET","EW_formal","","key","j","16.680064220183557","758.3333534223067","422.22223340729164","自己","清廉","Positive","morality","","","","","","","","","","",""
"1055","","j","psychophysics","33","142881","0.0-7.0-3.0-0.19","6","5","6","5","5","5","1","4","5","4","5","2","0","0","1","0","2","1","1","5","5","5","5","5","4","4","4","5","5","8","8","6","9","7","8","8","6","9","6","5","5","6","6","3","6","1","5","2","1","3","2","5","3","7","6","6","3","5","5","3","6","3","5","3","7","2","5","5","7","7","6","6","3","2","7","3","7","3","5","598900137913221120","张","479","Male","[""坏他"",""好他"",""坏我"",""好我""]","[""弱他"",""强他"",""弱我"",""强我""]","","","","","","","","yes","","","","","","","","","SRET","EW_formal","","key","j","16.81135245901652","758.3333534223067","422.22223340729164","朋友","上进","Positive","ability","","","","","","","","","","",""
"921","","f","psychophysics","34","144810","0.0-7.0-3.0-0.20","6","5","6","5","5","5","1","4","5","4","5","2","0","0","1","0","2","1","1","5","5","5","5","5","4","4","4","5","5","8","8","6","9","7","8","8","6","9","6","5","5","6","6","3","6","1","5","2","1","3","2","5","3","7","6","6","3","5","5","3","6","3","5","3","7","2","5","5","7","7","6","6","3","2","7","3","7","3","5","598900137913221120","张","479","Male","[""坏他"",""好他"",""坏我"",""好我""]","[""弱他"",""强他"",""弱我"",""强我""]","","","","","","","","no","","","","","","","","","SRET","EW_formal","","key","f","16.673304347826026","758.3333534223067","422.22223340729164","朋友","顶事","Positive","ability","","","","","","","","","","",""
"709","","j","psychophysics","35","146521","0.0-7.0-3.0-0.21","6","5","6","5","5","5","1","4","5","4","5","2","0","0","1","0","2","1","1","5","5","5","5","5","4","4","4","5","5","8","8","6","9","7","8","8","6","9","6","5","5","6","6","3","6","1","5","2","1","3","2","5","3","7","6","6","3","5","5","3","6","3","5","3","7","2","5","5","7","7","6","6","3","2","7","3","7","3","5","598900137913221120","张","479","Male","[""坏他"",""好他"",""坏我"",""好我""]","[""弱他"",""强他"",""弱我"",""强我""]","","","","","","","","yes","","","","","","","","","SRET","EW_formal","","key","j","16.673656862744988","758.3333534223067","422.22223340729164","自己","刻苦","Positive","ability","","","","","","","","","","",""
"1285","","f","psychophysics","36","148810","0.0-7.0-3.0-0.22","6","5","6","5","5","5","1","4","5","4","5","2","0","0","1","0","2","1","1","5","5","5","5","5","4","4","4","5","5","8","8","6","9","7","8","8","6","9","6","5","5","6","6","3","6","1","5","2","1","3","2","5","3","7","6","6","3","5","5","3","6","3","5","3","7","2","5","5","7","7","6","6","3","2","7","3","7","3","5","598900137913221120","张","479","Male","[""坏他"",""好他"",""坏我"",""好我""]","[""弱他"",""强他"",""弱我"",""强我""]","","","","","","","","no","","","","","","","","","SRET","EW_formal","","key","f","16.676720588235185","758.3333534223067","422.22223340729164","朋友","无赖","Negative","morality","","","","","","","","","","",""
"923","","j","psychophysics","37","150744","0.0-7.0-3.0-0.23","6","5","6","5","5","5","1","4","5","4","5","2","0","0","1","0","2","1","1","5","5","5","5","5","4","4","4","5","5","8","8","6","9","7","8","8","6","9","6","5","5","6","6","3","6","1","5","2","1","3","2","5","3","7","6","6","3","5","5","3","6","3","5","3","7","2","5","5","7","7","6","6","3","2","7","3","7","3","5","598900137913221120","张","479","Male","[""坏他"",""好他"",""坏我"",""好我""]","[""弱他"",""强他"",""弱我"",""强我""]","","","","","","","","yes","","","","","","","","","SRET","EW_formal","","key","j","16.670982608695656","758.3333534223067","422.22223340729164","朋友","无私","Positive","morality","","","","","","","","","","",""
"866","","j","psychophysics","38","152613","0.0-7.0-3.0-0.24","6","5","6","5","5","5","1","4","5","4","5","2","0","0","1","0","2","1","1","5","5","5","5","5","4","4","4","5","5","8","8","6","9","7","8","8","6","9","6","5","5","6","6","3","6","1","5","2","1","3","2","5","3","7","6","6","3","5","5","3","6","3","5","3","7","2","5","5","7","7","6","6","3","2","7","3","7","3","5","598900137913221120","张","479","Male","[""坏他"",""好他"",""坏我"",""好我""]","[""弱他"",""强他"",""弱我"",""强我""]","","","","","","","","yes","","","","","","","","","SRET","EW_formal","","key","j","16.673423423423422","758.3333534223067","422.22223340729164","朋友","礼貌","Positive","morality","","","","","","","","","","",""
"759","","f","psychophysics","39","154377","0.0-7.0-3.0-0.25","6","5","6","5","5","5","1","4","5","4","5","2","0","0","1","0","2","1","1","5","5","5","5","5","4","4","4","5","5","8","8","6","9","7","8","8","6","9","6","5","5","6","6","3","6","1","5","2","1","3","2","5","3","7","6","6","3","5","5","3","6","3","5","3","7","2","5","5","7","7","6","6","3","2","7","3","7","3","5","598900137913221120","张","479","Male","[""坏他"",""好他"",""坏我"",""好我""]","[""弱他"",""强他"",""弱我"",""强我""]","","","","","","","","no","","","","","","","","","SRET","EW_formal","","key","f","16.675809523809445","758.3333534223067","422.22223340729164","朋友","愚痴","Negative","ability","","","","","","","","","","",""
"727","","j","psychophysics","40","156108","0.0-7.0-3.0-0.26","6","5","6","5","5","5","1","4","5","4","5","2","0","0","1","0","2","1","1","5","5","5","5","5","4","4","4","5","5","8","8","6","9","7","8","8","6","9","6","5","5","6","6","3","6","1","5","2","1","3","2","5","3","7","6","6","3","5","5","3","6","3","5","3","7","2","5","5","7","7","6","6","3","2","7","3","7","3","5","598900137913221120","张","479","Male","[""坏他"",""好他"",""坏我"",""好我""]","[""弱他"",""强他"",""弱我"",""强我""]","","","","","","","","yes","","","","","","","","","SRET","EW_formal","","key","j","16.674431372548888","758.3333534223067","422.22223340729164","朋友","全才","Positive","ability","","","","","","","","","","",""
"708","","j","psychophysics","41","157825","0.0-7.0-3.0-0.27","6","5","6","5","5","5","1","4","5","4","5","2","0","0","1","0","2","1","1","5","5","5","5","5","4","4","4","5","5","8","8","6","9","7","8","8","6","9","6","5","5","6","6","3","6","1","5","2","1","3","2","5","3","7","6","6","3","5","5","3","6","3","5","3","7","2","5","5","7","7","6","6","3","2","7","3","7","3","5","598900137913221120","张","479","Male","[""坏他"",""好他"",""坏我"",""好我""]","[""弱他"",""强他"",""弱我"",""强我""]","","","","","","","","yes","","","","","","","","","SRET","EW_formal","","key","j","16.839346534653515","758.3333534223067","422.22223340729164","朋友","小人","Negative","morality","","","","","","","","","","",""
"959","","j","psychophysics","42","159790","0.0-7.0-3.0-0.28","6","5","6","5","5","5","1","4","5","4","5","2","0","0","1","0","2","1","1","5","5","5","5","5","4","4","4","5","5","8","8","6","9","7","8","8","6","9","6","5","5","6","6","3","6","1","5","2","1","3","2","5","3","7","6","6","3","5","5","3","6","3","5","3","7","2","5","5","7","7","6","6","3","2","7","3","7","3","5","598900137913221120","张","479","Male","[""坏他"",""好他"",""坏我"",""好我""]","[""弱他"",""强他"",""弱我"",""强我""]","","","","","","","","yes","","","","","","","","","SRET","EW_formal","","key","j","16.65697435897419","758.3333534223067","422.22223340729164","自己","中用","Positive","ability","","","","","","","","","","",""
"883","","f","psychophysics","43","161701","0.0-7.0-3.0-0.29","6","5","6","5","5","5","1","4","5","4","5","2","0","0","1","0","2","1","1","5","5","5","5","5","4","4","4","5","5","8","8","6","9","7","8","8","6","9","6","5","5","6","6","3","6","1","5","2","1","3","2","5","3","7","6","6","3","5","5","3","6","3","5","3","7","2","5","5","7","7","6","6","3","2","7","3","7","3","5","598900137913221120","张","479","Male","[""坏他"",""好他"",""坏我"",""好我""]","[""弱他"",""强他"",""弱我"",""强我""]","","","","","","","","no","","","","","","","","","SRET","EW_formal","","key","f","16.674464912280918","758.3333534223067","422.22223340729164","朋友","罪恶","Negative","morality","","","","","","","","","","",""
"812","","f","psychophysics","44","163536","0.0-7.0-3.0-0.30","6","5","6","5","5","5","1","4","5","4","5","2","0","0","1","0","2","1","1","5","5","5","5","5","4","4","4","5","5","8","8","6","9","7","8","8","6","9","6","5","5","6","6","3","6","1","5","2","1","3","2","5","3","7","6","6","3","5","5","3","6","3","5","3","7","2","5","5","7","7","6","6","3","2","7","3","7","3","5","598900137913221120","张","479","Male","[""坏他"",""好他"",""坏我"",""好我""]","[""弱他"",""强他"",""弱我"",""强我""]","","","","","","","","no","","","","","","","","","SRET","EW_formal","","key","f","16.67862385321102","758.3333534223067","422.22223340729164","朋友","迟钝","Negative","ability","","","","","","","","","","",""
"1069","","f","psychophysics","45","165629","0.0-7.0-3.0-0.31","6","5","6","5","5","5","1","4","5","4","5","2","0","0","1","0","2","1","1","5","5","5","5","5","4","4","4","5","5","8","8","6","9","7","8","8","6","9","6","5","5","6","6","3","6","1","5","2","1","3","2","5","3","7","6","6","3","5","5","3","6","3","5","3","7","2","5","5","7","7","6","6","3","2","7","3","7","3","5","598900137913221120","张","479","Male","[""坏他"",""好他"",""坏我"",""好我""]","[""弱他"",""强他"",""弱我"",""强我""]","","","","","","","","no","","","","","","","","","SRET","EW_formal","","key","f","16.676008064515987","758.3333534223067","422.22223340729164","自己","虚假","Negative","morality","","","","","","","","","","",""
"1238","","f","psychophysics","46","167875","0.0-7.0-3.0-0.32","6","5","6","5","5","5","1","4","5","4","5","2","0","0","1","0","2","1","1","5","5","5","5","5","4","4","4","5","5","8","8","6","9","7","8","8","6","9","6","5","5","6","6","3","6","1","5","2","1","3","2","5","3","7","6","6","3","5","5","3","6","3","5","3","7","2","5","5","7","7","6","6","3","2","7","3","7","3","5","598900137913221120","张","479","Male","[""坏他"",""好他"",""坏我"",""好我""]","[""弱他"",""强他"",""弱我"",""强我""]","","","","","","","","no","","","","","","","","","SRET","EW_formal","","key","f","16.67387313432857","758.3333534223067","422.22223340729164","朋友","驽钝","Negative","ability","","","","","","","","","","",""
"1052","","f","psychophysics","47","169939","0.0-7.0-3.0-0.33","6","5","6","5","5","5","1","4","5","4","5","2","0","0","1","0","2","1","1","5","5","5","5","5","4","4","4","5","5","8","8","6","9","7","8","8","6","9","6","5","5","6","6","3","6","1","5","2","1","3","2","5","3","7","6","6","3","5","5","3","6","3","5","3","7","2","5","5","7","7","6","6","3","2","7","3","7","3","5","598900137913221120","张","479","Male","[""坏他"",""好他"",""坏我"",""好我""]","[""弱他"",""强他"",""弱我"",""强我""]","","","","","","","","no","","","","","","","","","SRET","EW_formal","","key","f","16.67255284552859","758.3333534223067","422.22223340729164","自己","短浅","Negative","ability","","","","","","","","","","",""
"698","","j","psychophysics","48","171650","0.0-7.0-3.0-0.34","6","5","6","5","5","5","1","4","5","4","5","2","0","0","1","0","2","1","1","5","5","5","5","5","4","4","4","5","5","8","8","6","9","7","8","8","6","9","6","5","5","6","6","3","6","1","5","2","1","3","2","5","3","7","6","6","3","5","5","3","6","3","5","3","7","2","5","5","7","7","6","6","3","2","7","3","7","3","5","598900137913221120","张","479","Male","[""坏他"",""好他"",""坏我"",""好我""]","[""弱他"",""强他"",""弱我"",""强我""]","","","","","","","","yes","","","","","","","","","SRET","EW_formal","","key","j","16.67670588235299","758.3333534223067","422.22223340729164","自己","忠良","Positive","morality","","","","","","","","","","",""
"737","","j","psychophysics","49","173390","0.0-7.0-3.0-0.35","6","5","6","5","5","5","1","4","5","4","5","2","0","0","1","0","2","1","1","5","5","5","5","5","4","4","4","5","5","8","8","6","9","7","8","8","6","9","6","5","5","6","6","3","6","1","5","2","1","3","2","5","3","7","6","6","3","5","5","3","6","3","5","3","7","2","5","5","7","7","6","6","3","2","7","3","7","3","5","598900137913221120","张","479","Male","[""坏他"",""好他"",""坏我"",""好我""]","[""弱他"",""强他"",""弱我"",""强我""]","","","","","","","","yes","","","","","","","","","SRET","EW_formal","","key","j","16.674524271844614","758.3333534223067","422.22223340729164","朋友","细心","Positive","ability","","","","","","","","","","",""
"770","","f","psychophysics","50","175164","0.0-7.0-3.0-0.36","6","5","6","5","5","5","1","4","5","4","5","2","0","0","1","0","2","1","1","5","5","5","5","5","4","4","4","5","5","8","8","6","9","7","8","8","6","9","6","5","5","6","6","3","6","1","5","2","1","3","2","5","3","7","6","6","3","5","5","3","6","3","5","3","7","2","5","5","7","7","6","6","3","2","7","3","7","3","5","598900137913221120","张","479","Male","[""坏他"",""好他"",""坏我"",""好我""]","[""弱他"",""强他"",""弱我"",""强我""]","","","","","","","","no","","","","","","","","","SRET","EW_formal","","key","f","16.67239622641514","758.3333534223067","422.22223340729164","自己","歹毒","Negative","morality","","","","","","","","","","",""
"768","","f","psychophysics","51","176935","0.0-7.0-3.0-0.37","6","5","6","5","5","5","1","4","5","4","5","2","0","0","1","0","2","1","1","5","5","5","5","5","4","4","4","5","5","8","8","6","9","7","8","8","6","9","6","5","5","6","6","3","6","1","5","2","1","3","2","5","3","7","6","6","3","5","5","3","6","3","5","3","7","2","5","5","7","7","6","6","3","2","7","3","7","3","5","598900137913221120","张","479","Male","[""坏他"",""好他"",""坏我"",""好我""]","[""弱他"",""强他"",""弱我"",""强我""]","","","","","","","","no","","","","","","","","","SRET","EW_formal","","key","f","16.67519230769232","758.3333534223067","422.22223340729164","朋友","奸险","Negative","morality","","","","","","","","","","",""
"920","","j","psychophysics","52","178873","0.0-7.0-3.0-0.38","6","5","6","5","5","5","1","4","5","4","5","2","0","0","1","0","2","1","1","5","5","5","5","5","4","4","4","5","5","8","8","6","9","7","8","8","6","9","6","5","5","6","6","3","6","1","5","2","1","3","2","5","3","7","6","6","3","5","5","3","6","3","5","3","7","2","5","5","7","7","6","6","3","2","7","3","7","3","5","598900137913221120","张","479","Male","[""坏他"",""好他"",""坏我"",""好我""]","[""弱他"",""强他"",""弱我"",""强我""]","","","","","","","","yes","","","","","","","","","SRET","EW_formal","","key","j","16.818791304348018","758.3333534223067","422.22223340729164","自己","学霸","Positive","ability","","","","","","","","","","",""
"725","","j","psychophysics","53","180601","0.0-7.0-3.0-0.39","6","5","6","5","5","5","1","4","5","4","5","2","0","0","1","0","2","1","1","5","5","5","5","5","4","4","4","5","5","8","8","6","9","7","8","8","6","9","6","5","5","6","6","3","6","1","5","2","1","3","2","5","3","7","6","6","3","5","5","3","6","3","5","3","7","2","5","5","7","7","6","6","3","2","7","3","7","3","5","598900137913221120","张","479","Male","[""坏他"",""好他"",""坏我"",""好我""]","[""弱他"",""强他"",""弱我"",""强我""]","","","","","","","","yes","","","","","","","","","SRET","EW_formal","","key","j","16.674852941176677","758.3333534223067","422.22223340729164","自己","努力","Positive","ability","","","","","","","","","","",""
"741","","j","psychophysics","54","182368","0.0-7.0-3.0-0.40","6","5","6","5","5","5","1","4","5","4","5","2","0","0","1","0","2","1","1","5","5","5","5","5","4","4","4","5","5","8","8","6","9","7","8","8","6","9","6","5","5","6","6","3","6","1","5","2","1","3","2","5","3","7","6","6","3","5","5","3","6","3","5","3","7","2","5","5","7","7","6","6","3","2","7","3","7","3","5","598900137913221120","张","479","Male","[""坏他"",""好他"",""坏我"",""好我""]","[""弱他"",""强他"",""弱我"",""强我""]","","","","","","","","yes","","","","","","","","","SRET","EW_formal","","key","j","16.67474285714284","758.3333534223067","422.22223340729164","自己","侠义","Positive","morality","","","","","","","","","","",""
"685","","j","psychophysics","55","184061","0.0-7.0-3.0-0.41","6","5","6","5","5","5","1","4","5","4","5","2","0","0","1","0","2","1","1","5","5","5","5","5","4","4","4","5","5","8","8","6","9","7","8","8","6","9","6","5","5","6","6","3","6","1","5","2","1","3","2","5","3","7","6","6","3","5","5","3","6","3","5","3","7","2","5","5","7","7","6","6","3","2","7","3","7","3","5","598900137913221120","张","479","Male","[""坏他"",""好他"",""坏我"",""好我""]","[""弱他"",""强他"",""弱我"",""强我""]","","","","","","","","yes","","","","","","","","","SRET","EW_formal","","key","j","16.67398019801966","758.3333534223067","422.22223340729164","朋友","自律","Positive","ability","","","","","","","","","","",""
"867","","f","psychophysics","56","185936","0.0-7.0-3.0-0.42","6","5","6","5","5","5","1","4","5","4","5","2","0","0","1","0","2","1","1","5","5","5","5","5","4","4","4","5","5","8","8","6","9","7","8","8","6","9","6","5","5","6","6","3","6","1","5","2","1","3","2","5","3","7","6","6","3","5","5","3","6","3","5","3","7","2","5","5","7","7","6","6","3","2","7","3","7","3","5","598900137913221120","张","479","Male","[""坏他"",""好他"",""坏我"",""好我""]","[""弱他"",""强他"",""弱我"",""强我""]","","","","","","","","no","","","","","","","","","SRET","EW_formal","","key","f","16.674378378378375","758.3333534223067","422.22223340729164","朋友","不良","Negative","morality","","","","","","","","","","",""
"1092","","j","psychophysics","57","188039","0.0-7.0-3.0-0.43","6","5","6","5","5","5","1","4","5","4","5","2","0","0","1","0","2","1","1","5","5","5","5","5","4","4","4","5","5","8","8","6","9","7","8","8","6","9","6","5","5","6","6","3","6","1","5","2","1","3","2","5","3","7","6","6","3","5","5","3","6","3","5","3","7","2","5","5","7","7","6","6","3","2","7","3","7","3","5","598900137913221120","张","479","Male","[""坏他"",""好他"",""坏我"",""好我""]","[""弱他"",""强他"",""弱我"",""强我""]","","","","","","","","yes","","","","","","","","","SRET","EW_formal","","key","j","16.675547619047435","758.3333534223067","422.22223340729164","朋友","利落","Positive","ability","","","","","","","","","","",""
"683","","j","psychophysics","58","189724","0.0-7.0-3.0-0.44","6","5","6","5","5","5","1","4","5","4","5","2","0","0","1","0","2","1","1","5","5","5","5","5","4","4","4","5","5","8","8","6","9","7","8","8","6","9","6","5","5","6","6","3","6","1","5","2","1","3","2","5","3","7","6","6","3","5","5","3","6","3","5","3","7","2","5","5","7","7","6","6","3","2","7","3","7","3","5","598900137913221120","张","479","Male","[""坏他"",""好他"",""坏我"",""好我""]","[""弱他"",""强他"",""弱我"",""强我""]","","","","","","","","yes","","","","","","","","","SRET","EW_formal","","key","j","16.673899999999847","758.3333534223067","422.22223340729164","自己","草率","Negative","ability","","","","","","","","","","",""
"1197","","j","psychophysics","59","191924","0.0-7.0-3.0-0.45","6","5","6","5","5","5","1","4","5","4","5","2","0","0","1","0","2","1","1","5","5","5","5","5","4","4","4","5","5","8","8","6","9","7","8","8","6","9","6","5","5","6","6","3","6","1","5","2","1","3","2","5","3","7","6","6","3","5","5","3","6","3","5","3","7","2","5","5","7","7","6","6","3","2","7","3","7","3","5","598900137913221120","张","479","Male","[""坏他"",""好他"",""坏我"",""好我""]","[""弱他"",""强他"",""弱我"",""强我""]","","","","","","","","yes","","","","","","","","","SRET","EW_formal","","key","j","16.675709923663984","758.3333534223067","422.22223340729164","朋友","高洁","Positive","morality","","","","","","","","","","",""
"881","","f","psychophysics","60","193808","0.0-7.0-3.0-0.46","6","5","6","5","5","5","1","4","5","4","5","2","0","0","1","0","2","1","1","5","5","5","5","5","4","4","4","5","5","8","8","6","9","7","8","8","6","9","6","5","5","6","6","3","6","1","5","2","1","3","2","5","3","7","6","6","3","5","5","3","6","3","5","3","7","2","5","5","7","7","6","6","3","2","7","3","7","3","5","598900137913221120","张","479","Male","[""坏他"",""好他"",""坏我"",""好我""]","[""弱他"",""强他"",""弱我"",""强我""]","","","","","","","","no","","","","","","","","","SRET","EW_formal","","key","f","16.671747747747602","758.3333534223067","422.22223340729164","朋友","愚蠢","Negative","ability","","","","","","","","","","",""
"633","","f","psychophysics","61","195451","0.0-7.0-3.0-0.47","6","5","6","5","5","5","1","4","5","4","5","2","0","0","1","0","2","1","1","5","5","5","5","5","4","4","4","5","5","8","8","6","9","7","8","8","6","9","6","5","5","6","6","3","6","1","5","2","1","3","2","5","3","7","6","6","3","5","5","3","6","3","5","3","7","2","5","5","7","7","6","6","3","2","7","3","7","3","5","598900137913221120","张","479","Male","[""坏他"",""好他"",""坏我"",""好我""]","[""弱他"",""强他"",""弱我"",""强我""]","","","","","","","","no","","","","","","","","","SRET","EW_formal","","key","f","16.67430612244893","758.3333534223067","422.22223340729164","自己","卑鄙","Negative","morality","","","","","","","","","","",""
"793","","f","psychophysics","62","197248","0.0-7.0-3.0-0.48","6","5","6","5","5","5","1","4","5","4","5","2","0","0","1","0","2","1","1","5","5","5","5","5","4","4","4","5","5","8","8","6","9","7","8","8","6","9","6","5","5","6","6","3","6","1","5","2","1","3","2","5","3","7","6","6","3","5","5","3","6","3","5","3","7","2","5","5","7","7","6","6","3","2","7","3","7","3","5","598900137913221120","张","479","Male","[""坏他"",""好他"",""坏我"",""好我""]","[""弱他"",""强他"",""弱我"",""强我""]","","","","","","","","no","","","","","","","","","SRET","EW_formal","","key","f","16.6742523364485","758.3333534223067","422.22223340729164","自己","偏私","Negative","morality","","","","","","","","","","",""
"683","","j","psychophysics","63","198935","0.0-7.0-3.0-0.49","6","5","6","5","5","5","1","4","5","4","5","2","0","0","1","0","2","1","1","5","5","5","5","5","4","4","4","5","5","8","8","6","9","7","8","8","6","9","6","5","5","6","6","3","6","1","5","2","1","3","2","5","3","7","6","6","3","5","5","3","6","3","5","3","7","2","5","5","7","7","6","6","3","2","7","3","7","3","5","598900137913221120","张","479","Male","[""坏他"",""好他"",""坏我"",""好我""]","[""弱他"",""强他"",""弱我"",""强我""]","","","","","","","","yes","","","","","","","","","SRET","EW_formal","","key","j","16.67076000000001","758.3333534223067","422.22223340729164","自己","稳健","Positive","ability","","","","","","","","","","",""
"707","","f","psychophysics","64","200652","0.0-7.0-3.0-0.50","6","5","6","5","5","5","1","4","5","4","5","2","0","0","1","0","2","1","1","5","5","5","5","5","4","4","4","5","5","8","8","6","9","7","8","8","6","9","6","5","5","6","6","3","6","1","5","2","1","3","2","5","3","7","6","6","3","5","5","3","6","3","5","3","7","2","5","5","7","7","6","6","3","2","7","3","7","3","5","598900137913221120","张","479","Male","[""坏他"",""好他"",""坏我"",""好我""]","[""弱他"",""强他"",""弱我"",""强我""]","","","","","","","","no","","","","","","","","","SRET","EW_formal","","key","f","16.676715686274452","758.3333534223067","422.22223340729164","朋友","愚钝","Negative","ability","","","","","","","","","","",""
"697","","j","psychophysics","65","202354","0.0-7.0-3.0-0.51","6","5","6","5","5","5","1","4","5","4","5","2","0","0","1","0","2","1","1","5","5","5","5","5","4","4","4","5","5","8","8","6","9","7","8","8","6","9","6","5","5","6","6","3","6","1","5","2","1","3","2","5","3","7","6","6","3","5","5","3","6","3","5","3","7","2","5","5","7","7","6","6","3","2","7","3","7","3","5","598900137913221120","张","479","Male","[""坏他"",""好他"",""坏我"",""好我""]","[""弱他"",""强他"",""弱我"",""强我""]","","","","","","","","yes","","","","","","","","","SRET","EW_formal","","key","j","16.67527722772257","758.3333534223067","422.22223340729164","朋友","专注","Positive","ability","","","","","","","","","","",""
"1615","","j","psychophysics","66","204987","0.0-7.0-3.0-0.52","6","5","6","5","5","5","1","4","5","4","5","2","0","0","1","0","2","1","1","5","5","5","5","5","4","4","4","5","5","8","8","6","9","7","8","8","6","9","6","5","5","6","6","3","6","1","5","2","1","3","2","5","3","7","6","6","3","5","5","3","6","3","5","3","7","2","5","5","7","7","6","6","3","2","7","3","7","3","5","598900137913221120","张","479","Male","[""坏他"",""好他"",""坏我"",""好我""]","[""弱他"",""强他"",""弱我"",""强我""]","","","","","","","","yes","","","","","","","","","SRET","EW_formal","","key","j","16.673210191082916","758.3333534223067","422.22223340729164","朋友","谦逊","Positive","morality","","","","","","","","","","",""
"634","","f","psychophysics","67","206623","0.0-7.0-3.0-0.53","6","5","6","5","5","5","1","4","5","4","5","2","0","0","1","0","2","1","1","5","5","5","5","5","4","4","4","5","5","8","8","6","9","7","8","8","6","9","6","5","5","6","6","3","6","1","5","2","1","3","2","5","3","7","6","6","3","5","5","3","6","3","5","3","7","2","5","5","7","7","6","6","3","2","7","3","7","3","5","598900137913221120","张","479","Male","[""坏他"",""好他"",""坏我"",""好我""]","[""弱他"",""强他"",""弱我"",""强我""]","","","","","","","","no","","","","","","","","","SRET","EW_formal","","key","f","16.680917525773186","758.3333534223067","422.22223340729164","朋友","阴毒","Negative","morality","","","","","","","","","","",""
"659","","j","psychophysics","68","208305","0.0-7.0-3.0-0.54","6","5","6","5","5","5","1","4","5","4","5","2","0","0","1","0","2","1","1","5","5","5","5","5","4","4","4","5","5","8","8","6","9","7","8","8","6","9","6","5","5","6","6","3","6","1","5","2","1","3","2","5","3","7","6","6","3","5","5","3","6","3","5","3","7","2","5","5","7","7","6","6","3","2","7","3","7","3","5","598900137913221120","张","479","Male","[""坏他"",""好他"",""坏我"",""好我""]","[""弱他"",""强他"",""弱我"",""强我""]","","","","","","","","yes","","","","","","","","","SRET","EW_formal","","key","j","16.674309999999824","758.3333534223067","422.22223340729164","自己","远见","Positive","ability","","","","","","","","","","",""
"771","","j","psychophysics","69","210082","0.0-7.0-3.0-0.55","6","5","6","5","5","5","1","4","5","4","5","2","0","0","1","0","2","1","1","5","5","5","5","5","4","4","4","5","5","8","8","6","9","7","8","8","6","9","6","5","5","6","6","3","6","1","5","2","1","3","2","5","3","7","6","6","3","5","5","3","6","3","5","3","7","2","5","5","7","7","6","6","3","2","7","3","7","3","5","598900137913221120","张","479","Male","[""坏他"",""好他"",""坏我"",""好我""]","[""弱他"",""强他"",""弱我"",""强我""]","","","","","","","","yes","","","","","","","","","SRET","EW_formal","","key","j","16.673580952380906","758.3333534223067","422.22223340729164","朋友","仁爱","Positive","morality","","","","","","","","","","",""
"766","","j","psychophysics","70","211856","0.0-7.0-3.0-0.56","6","5","6","5","5","5","1","4","5","4","5","2","0","0","1","0","2","1","1","5","5","5","5","5","4","4","4","5","5","8","8","6","9","7","8","8","6","9","6","5","5","6","6","3","6","1","5","2","1","3","2","5","3","7","6","6","3","5","5","3","6","3","5","3","7","2","5","5","7","7","6","6","3","2","7","3","7","3","5","598900137913221120","张","479","Male","[""坏他"",""好他"",""坏我"",""好我""]","[""弱他"",""强他"",""弱我"",""强我""]","","","","","","","","yes","","","","","","","","","SRET","EW_formal","","key","j","16.67249056603787","758.3333534223067","422.22223340729164","朋友","伪善","Negative","morality","","","","","","","","","","",""
"1102","","f","psychophysics","71","213965","0.0-7.0-3.0-0.57","6","5","6","5","5","5","1","4","5","4","5","2","0","0","1","0","2","1","1","5","5","5","5","5","4","4","4","5","5","8","8","6","9","7","8","8","6","9","6","5","5","6","6","3","6","1","5","2","1","3","2","5","3","7","6","6","3","5","5","3","6","3","5","3","7","2","5","5","7","7","6","6","3","2","7","3","7","3","5","598900137913221120","张","479","Male","[""坏他"",""好他"",""坏我"",""好我""]","[""弱他"",""强他"",""弱我"",""强我""]","","","","","","","","no","","","","","","","","","SRET","EW_formal","","key","f","16.67035999999987","758.3333534223067","422.22223340729164","自己","势利","Negative","morality","","","","","","","","","","",""
"730","","j","psychophysics","72","215702","0.0-7.0-3.0-0.58","6","5","6","5","5","5","1","4","5","4","5","2","0","0","1","0","2","1","1","5","5","5","5","5","4","4","4","5","5","8","8","6","9","7","8","8","6","9","6","5","5","6","6","3","6","1","5","2","1","3","2","5","3","7","6","6","3","5","5","3","6","3","5","3","7","2","5","5","7","7","6","6","3","2","7","3","7","3","5","598900137913221120","张","479","Male","[""坏他"",""好他"",""坏我"",""好我""]","[""弱他"",""强他"",""弱我"",""强我""]","","","","","","","","yes","","","","","","","","","SRET","EW_formal","","key","j","16.672750000000143","758.3333534223067","422.22223340729164","自己","无为","Negative","ability","","","","","","","","","","",""
"1417","","f","psychophysics","73","218123","0.0-7.0-3.0-0.59","6","5","6","5","5","5","1","4","5","4","5","2","0","0","1","0","2","1","1","5","5","5","5","5","4","4","4","5","5","8","8","6","9","7","8","8","6","9","6","5","5","6","6","3","6","1","5","2","1","3","2","5","3","7","6","6","3","5","5","3","6","3","5","3","7","2","5","5","7","7","6","6","3","2","7","3","7","3","5","598900137913221120","张","479","Male","[""坏他"",""好他"",""坏我"",""好我""]","[""弱他"",""强他"",""弱我"",""强我""]","","","","","","","","no","","","","","","","","","SRET","EW_formal","","key","f","16.674152777777838","758.3333534223067","422.22223340729164","朋友","拖延","Negative","ability","","","","","","","","","","",""
"861","","j","psychophysics","74","219988","0.0-7.0-3.0-0.60","6","5","6","5","5","5","1","4","5","4","5","2","0","0","1","0","2","1","1","5","5","5","5","5","4","4","4","5","5","8","8","6","9","7","8","8","6","9","6","5","5","6","6","3","6","1","5","2","1","3","2","5","3","7","6","6","3","5","5","3","6","3","5","3","7","2","5","5","7","7","6","6","3","2","7","3","7","3","5","598900137913221120","张","479","Male","[""坏他"",""好他"",""坏我"",""好我""]","[""弱他"",""强他"",""弱我"",""强我""]","","","","","","","","yes","","","","","","","","","SRET","EW_formal","","key","j","16.67423636363634","758.3333534223067","422.22223340729164","自己","无助","Negative","ability","","","","","","","","","","",""
"986","","f","psychophysics","75","221978","0.0-7.0-3.0-0.61","6","5","6","5","5","5","1","4","5","4","5","2","0","0","1","0","2","1","1","5","5","5","5","5","4","4","4","5","5","8","8","6","9","7","8","8","6","9","6","5","5","6","6","3","6","1","5","2","1","3","2","5","3","7","6","6","3","5","5","3","6","3","5","3","7","2","5","5","7","7","6","6","3","2","7","3","7","3","5","598900137913221120","张","479","Male","[""坏他"",""好他"",""坏我"",""好我""]","[""弱他"",""强他"",""弱我"",""强我""]","","","","","","","","no","","","","","","","","","SRET","EW_formal","","key","f","16.67042857142847","758.3333534223067","422.22223340729164","朋友","无敌","Positive","ability","","","","","","","","","","",""
"828","","j","psychophysics","76","223810","0.0-7.0-3.0-0.62","6","5","6","5","5","5","1","4","5","4","5","2","0","0","1","0","2","1","1","5","5","5","5","5","4","4","4","5","5","8","8","6","9","7","8","8","6","9","6","5","5","6","6","3","6","1","5","2","1","3","2","5","3","7","6","6","3","5","5","3","6","3","5","3","7","2","5","5","7","7","6","6","3","2","7","3","7","3","5","598900137913221120","张","479","Male","[""坏他"",""好他"",""坏我"",""好我""]","[""弱他"",""强他"",""弱我"",""强我""]","","","","","","","","yes","","","","","","","","","SRET","EW_formal","","key","j","16.677596330275296","758.3333534223067","422.22223340729164","朋友","厚道","Positive","morality","","","","","","","","","","",""
"907","","f","psychophysics","77","225722","0.0-7.0-3.0-0.63","6","5","6","5","5","5","1","4","5","4","5","2","0","0","1","0","2","1","1","5","5","5","5","5","4","4","4","5","5","8","8","6","9","7","8","8","6","9","6","5","5","6","6","3","6","1","5","2","1","3","2","5","3","7","6","6","3","5","5","3","6","3","5","3","7","2","5","5","7","7","6","6","3","2","7","3","7","3","5","598900137913221120","张","479","Male","[""坏他"",""好他"",""坏我"",""好我""]","[""弱他"",""强他"",""弱我"",""强我""]","","","","","","","","no","","","","","","","","","SRET","EW_formal","","key","f","16.67439823008871","758.3333534223067","422.22223340729164","朋友","背叛","Negative","morality","","","","","","","","","","",""
"1137","","f","psychophysics","78","227879","0.0-7.0-3.0-0.64","6","5","6","5","5","5","1","4","5","4","5","2","0","0","1","0","2","1","1","5","5","5","5","5","4","4","4","5","5","8","8","6","9","7","8","8","6","9","6","5","5","6","6","3","6","1","5","2","1","3","2","5","3","7","6","6","3","5","5","3","6","3","5","3","7","2","5","5","7","7","6","6","3","2","7","3","7","3","5","598900137913221120","张","479","Male","[""坏他"",""好他"",""坏我"",""好我""]","[""弱他"",""强他"",""弱我"",""强我""]","","","","","","","","no","","","","","","","","","SRET","EW_formal","","key","f","16.67262015503862","758.3333534223067","422.22223340729164","朋友","坦荡","Positive","morality","","","","","","","","","","",""
"817","","j","psychophysics","79","229701","0.0-7.0-3.0-0.65","6","5","6","5","5","5","1","4","5","4","5","2","0","0","1","0","2","1","1","5","5","5","5","5","4","4","4","5","5","8","8","6","9","7","8","8","6","9","6","5","5","6","6","3","6","1","5","2","1","3","2","5","3","7","6","6","3","5","5","3","6","3","5","3","7","2","5","5","7","7","6","6","3","2","7","3","7","3","5","598900137913221120","张","479","Male","[""坏他"",""好他"",""坏我"",""好我""]","[""弱他"",""强他"",""弱我"",""强我""]","","","","","","","","yes","","","","","","","","","SRET","EW_formal","","key","j","16.673916666666628","758.3333534223067","422.22223340729164","自己","好心","Positive","morality","","","","","","","","","","",""
"925","","j","psychophysics","80","231639","0.0-7.0-3.0-0.66","6","5","6","5","5","5","1","4","5","4","5","2","0","0","1","0","2","1","1","5","5","5","5","5","4","4","4","5","5","8","8","6","9","7","8","8","6","9","6","5","5","6","6","3","6","1","5","2","1","3","2","5","3","7","6","6","3","5","5","3","6","3","5","3","7","2","5","5","7","7","6","6","3","2","7","3","7","3","5","598900137913221120","张","479","Male","[""坏他"",""好他"",""坏我"",""好我""]","[""弱他"",""强他"",""弱我"",""强我""]","","","","","","","","yes","","","","","","","","","SRET","EW_formal","","key","j","16.673834782608523","758.3333534223067","422.22223340729164","自己","义气","Positive","morality","","","","","","","","","","",""
"843","","f","psychophysics","81","233485","0.0-7.0-3.0-0.67","6","5","6","5","5","5","1","4","5","4","5","2","0","0","1","0","2","1","1","5","5","5","5","5","4","4","4","5","5","8","8","6","9","7","8","8","6","9","6","5","5","6","6","3","6","1","5","2","1","3","2","5","3","7","6","6","3","5","5","3","6","3","5","3","7","2","5","5","7","7","6","6","3","2","7","3","7","3","5","598900137913221120","张","479","Male","[""坏他"",""好他"",""坏我"",""好我""]","[""弱他"",""强他"",""弱我"",""强我""]","","","","","","","","no","","","","","","","","","SRET","EW_formal","","key","f","16.675145454545483","758.3333534223067","422.22223340729164","自己","刻薄","Negative","morality","","","","","","","","","","",""
"684","","j","psychophysics","82","235191","0.0-7.0-3.0-0.68","6","5","6","5","5","5","1","4","5","4","5","2","0","0","1","0","2","1","1","5","5","5","5","5","4","4","4","5","5","8","8","6","9","7","8","8","6","9","6","5","5","6","6","3","6","1","5","2","1","3","2","5","3","7","6","6","3","5","5","3","6","3","5","3","7","2","5","5","7","7","6","6","3","2","7","3","7","3","5","598900137913221120","张","479","Male","[""坏他"",""好他"",""坏我"",""好我""]","[""弱他"",""强他"",""弱我"",""强我""]","","","","","","","","yes","","","","","","","","","SRET","EW_formal","","key","j","16.673225490196025","758.3333534223067","422.22223340729164","自己","智慧","Positive","ability","","","","","","","","","","",""
"726","","f","psychophysics","83","236919","0.0-7.0-3.0-0.69","6","5","6","5","5","5","1","4","5","4","5","2","0","0","1","0","2","1","1","5","5","5","5","5","4","4","4","5","5","8","8","6","9","7","8","8","6","9","6","5","5","6","6","3","6","1","5","2","1","3","2","5","3","7","6","6","3","5","5","3","6","3","5","3","7","2","5","5","7","7","6","6","3","2","7","3","7","3","5","598900137913221120","张","479","Male","[""坏他"",""好他"",""坏我"",""好我""]","[""弱他"",""强他"",""弱我"",""强我""]","","","","","","","","no","","","","","","","","","SRET","EW_formal","","key","f","16.674225490196157","758.3333534223067","422.22223340729164","自己","粗心","Negative","ability","","","","","","","","","","",""
"887","","j","psychophysics","84","238808","0.0-7.0-3.0-0.70","6","5","6","5","5","5","1","4","5","4","5","2","0","0","1","0","2","1","1","5","5","5","5","5","4","4","4","5","5","8","8","6","9","7","8","8","6","9","6","5","5","6","6","3","6","1","5","2","1","3","2","5","3","7","6","6","3","5","5","3","6","3","5","3","7","2","5","5","7","7","6","6","3","2","7","3","7","3","5","598900137913221120","张","479","Male","[""坏他"",""好他"",""坏我"",""好我""]","[""弱他"",""强他"",""弱我"",""强我""]","","","","","","","","yes","","","","","","","","","SRET","EW_formal","","key","j","16.825270270270366","758.3333534223067","422.22223340729164","朋友","娴熟","Positive","ability","","","","","","","","","","",""
"732","","j","psychophysics","85","240554","0.0-7.0-3.0-0.71","6","5","6","5","5","5","1","4","5","4","5","2","0","0","1","0","2","1","1","5","5","5","5","5","4","4","4","5","5","8","8","6","9","7","8","8","6","9","6","5","5","6","6","3","6","1","5","2","1","3","2","5","3","7","6","6","3","5","5","3","6","3","5","3","7","2","5","5","7","7","6","6","3","2","7","3","7","3","5","598900137913221120","张","479","Male","[""坏他"",""好他"",""坏我"",""好我""]","[""弱他"",""强他"",""弱我"",""强我""]","","","","","","","","yes","","","","","","","","","SRET","EW_formal","","key","j","16.6778557692308","758.3333534223067","422.22223340729164","自己","有力","Positive","ability","","","","","","","","","","",""
"934","","f","psychophysics","86","242507","0.0-7.0-3.0-0.72","6","5","6","5","5","5","1","4","5","4","5","2","0","0","1","0","2","1","1","5","5","5","5","5","4","4","4","5","5","8","8","6","9","7","8","8","6","9","6","5","5","6","6","3","6","1","5","2","1","3","2","5","3","7","6","6","3","5","5","3","6","3","5","3","7","2","5","5","7","7","6","6","3","2","7","3","7","3","5","598900137913221120","张","479","Male","[""坏他"",""好他"",""坏我"",""好我""]","[""弱他"",""强他"",""弱我"",""强我""]","","","","","","","","no","","","","","","","","","SRET","EW_formal","","key","f","16.67445689655167","758.3333534223067","422.22223340729164","自己","龌龊","Negative","morality","","","","","","","","","","",""
"648","","j","psychophysics","87","244164","0.0-7.0-3.0-0.73","6","5","6","5","5","5","1","4","5","4","5","2","0","0","1","0","2","1","1","5","5","5","5","5","4","4","4","5","5","8","8","6","9","7","8","8","6","9","6","5","5","6","6","3","6","1","5","2","1","3","2","5","3","7","6","6","3","5","5","3","6","3","5","3","7","2","5","5","7","7","6","6","3","2","7","3","7","3","5","598900137913221120","张","479","Male","[""坏他"",""好他"",""坏我"",""好我""]","[""弱他"",""强他"",""弱我"",""强我""]","","","","","","","","yes","","","","","","","","","SRET","EW_formal","","key","j","16.681704081632365","758.3333534223067","422.22223340729164","朋友","爱国","Positive","morality","","","","","","","","","","",""
"572","","j","psychophysics","88","245741","0.0-7.0-3.0-0.74","6","5","6","5","5","5","1","4","5","4","5","2","0","0","1","0","2","1","1","5","5","5","5","5","4","4","4","5","5","8","8","6","9","7","8","8","6","9","6","5","5","6","6","3","6","1","5","2","1","3","2","5","3","7","6","6","3","5","5","3","6","3","5","3","7","2","5","5","7","7","6","6","3","2","7","3","7","3","5","598900137913221120","张","479","Male","[""坏他"",""好他"",""坏我"",""好我""]","[""弱他"",""强他"",""弱我"",""强我""]","","","","","","","","yes","","","","","","","","","SRET","EW_formal","","key","j","16.670765957446765","758.3333534223067","422.22223340729164","自己","依靠","Negative","ability","","","","","","","","","","",""
"598","","j","psychophysics","89","247353","0.0-7.0-3.0-0.75","6","5","6","5","5","5","1","4","5","4","5","2","0","0","1","0","2","1","1","5","5","5","5","5","4","4","4","5","5","8","8","6","9","7","8","8","6","9","6","5","5","6","6","3","6","1","5","2","1","3","2","5","3","7","6","6","3","5","5","3","6","3","5","3","7","2","5","5","7","7","6","6","3","2","7","3","7","3","5","598900137913221120","张","479","Male","[""坏他"",""好他"",""坏我"",""好我""]","[""弱他"",""强他"",""弱我"",""强我""]","","","","","","","","yes","","","","","","","","","SRET","EW_formal","","key","j","16.68058333333344","758.3333534223067","422.22223340729164","朋友","仗义","Positive","morality","","","","","","","","","","",""
"578","","j","psychophysics","90","248934","0.0-7.0-3.0-0.76","6","5","6","5","5","5","1","4","5","4","5","2","0","0","1","0","2","1","1","5","5","5","5","5","4","4","4","5","5","8","8","6","9","7","8","8","6","9","6","5","5","6","6","3","6","1","5","2","1","3","2","5","3","7","6","6","3","5","5","3","6","3","5","3","7","2","5","5","7","7","6","6","3","2","7","3","7","3","5","598900137913221120","张","479","Male","[""坏他"",""好他"",""坏我"",""好我""]","[""弱他"",""强他"",""弱我"",""强我""]","","","","","","","","yes","","","","","","","","","SRET","EW_formal","","key","j","16.673159574468105","758.3333534223067","422.22223340729164","自己","守信","Positive","morality","","","","","","","","","","",""
"542","","f","psychophysics","91","250480","0.0-7.0-3.0-0.77","6","5","6","5","5","5","1","4","5","4","5","2","0","0","1","0","2","1","1","5","5","5","5","5","4","4","4","5","5","8","8","6","9","7","8","8","6","9","6","5","5","6","6","3","6","1","5","2","1","3","2","5","3","7","6","6","3","5","5","3","6","3","5","3","7","2","5","5","7","7","6","6","3","2","7","3","7","3","5","598900137913221120","张","479","Male","[""坏他"",""好他"",""坏我"",""好我""]","[""弱他"",""强他"",""弱我"",""强我""]","","","","","","","","no","","","","","","","","","SRET","EW_formal","","key","f","16.675318681318657","758.3333534223067","422.22223340729164","自己","迂拙","Negative","ability","","","","","","","","","","",""
"542","","j","psychophysics","92","252027","0.0-7.0-3.0-0.78","6","5","6","5","5","5","1","4","5","4","5","2","0","0","1","0","2","1","1","5","5","5","5","5","4","4","4","5","5","8","8","6","9","7","8","8","6","9","6","5","5","6","6","3","6","1","5","2","1","3","2","5","3","7","6","6","3","5","5","3","6","3","5","3","7","2","5","5","7","7","6","6","3","2","7","3","7","3","5","598900137913221120","张","479","Male","[""坏他"",""好他"",""坏我"",""好我""]","[""弱他"",""强他"",""弱我"",""强我""]","","","","","","","","yes","","","","","","","","","SRET","EW_formal","","key","j","16.671141304347774","758.3333534223067","422.22223340729164","朋友","善心","Positive","morality","","","","","","","","","","",""
"627","","j","psychophysics","93","253665","0.0-7.0-3.0-0.79","6","5","6","5","5","5","1","4","5","4","5","2","0","0","1","0","2","1","1","5","5","5","5","5","4","4","4","5","5","8","8","6","9","7","8","8","6","9","6","5","5","6","6","3","6","1","5","2","1","3","2","5","3","7","6","6","3","5","5","3","6","3","5","3","7","2","5","5","7","7","6","6","3","2","7","3","7","3","5","598900137913221120","张","479","Male","[""坏他"",""好他"",""坏我"",""好我""]","[""弱他"",""强他"",""弱我"",""强我""]","","","","","","","","yes","","","","","","","","","SRET","EW_formal","","key","j","16.671195876288657","758.3333534223067","422.22223340729164","自己","君子","Positive","morality","","","","","","","","","","",""
"665","","f","psychophysics","94","255337","0.0-7.0-3.0-0.80","6","5","6","5","5","5","1","4","5","4","5","2","0","0","1","0","2","1","1","5","5","5","5","5","4","4","4","5","5","8","8","6","9","7","8","8","6","9","6","5","5","6","6","3","6","1","5","2","1","3","2","5","3","7","6","6","3","5","5","3","6","3","5","3","7","2","5","5","7","7","6","6","3","2","7","3","7","3","5","598900137913221120","张","479","Male","[""坏他"",""好他"",""坏我"",""好我""]","[""弱他"",""强他"",""弱我"",""强我""]","","","","","","","","no","","","","","","","","","SRET","EW_formal","","key","f","16.668580000000073","758.3333534223067","422.22223340729164","自己","贪污","Negative","morality","","","","","","","","","","",""
"705","","j","psychophysics","95","257046","0.0-7.0-3.0-0.81","6","5","6","5","5","5","1","4","5","4","5","2","0","0","1","0","2","1","1","5","5","5","5","5","4","4","4","5","5","8","8","6","9","7","8","8","6","9","6","5","5","6","6","3","6","1","5","2","1","3","2","5","3","7","6","6","3","5","5","3","6","3","5","3","7","2","5","5","7","7","6","6","3","2","7","3","7","3","5","598900137913221120","张","479","Male","[""坏他"",""好他"",""坏我"",""好我""]","[""弱他"",""强他"",""弱我"",""强我""]","","","","","","","","yes","","","","","","","","","SRET","EW_formal","","key","j","16.675475247524734","758.3333534223067","422.22223340729164","自己","干练","Positive","ability","","","","","","","","","","",""
"624","","j","psychophysics","96","258680","0.0-7.0-3.0-0.82","6","5","6","5","5","5","1","4","5","4","5","2","0","0","1","0","2","1","1","5","5","5","5","5","4","4","4","5","5","8","8","6","9","7","8","8","6","9","6","5","5","6","6","3","6","1","5","2","1","3","2","5","3","7","6","6","3","5","5","3","6","3","5","3","7","2","5","5","7","7","6","6","3","2","7","3","7","3","5","598900137913221120","张","479","Male","[""坏他"",""好他"",""坏我"",""好我""]","[""弱他"",""强他"",""弱我"",""强我""]","","","","","","","","yes","","","","","","","","","SRET","EW_formal","","key","j","16.674020618556447","758.3333534223067","422.22223340729164","自己","逞能","Negative","ability","","","","","","","","","","",""
"970","","f","psychophysics","97","260666","0.0-7.0-3.0-0.83","6","5","6","5","5","5","1","4","5","4","5","2","0","0","1","0","2","1","1","5","5","5","5","5","4","4","4","5","5","8","8","6","9","7","8","8","6","9","6","5","5","6","6","3","6","1","5","2","1","3","2","5","3","7","6","6","3","5","5","3","6","3","5","3","7","2","5","5","7","7","6","6","3","2","7","3","7","3","5","598900137913221120","张","479","Male","[""坏他"",""好他"",""坏我"",""好我""]","[""弱他"",""强他"",""弱我"",""强我""]","","","","","","","","no","","","","","","","","","SRET","EW_formal","","key","f","16.67385593220326","758.3333534223067","422.22223340729164","朋友","淫乱","Negative","morality","","","","","","","","","","",""
"666","","j","psychophysics","98","262347","0.0-7.0-3.0-0.84","6","5","6","5","5","5","1","4","5","4","5","2","0","0","1","0","2","1","1","5","5","5","5","5","4","4","4","5","5","8","8","6","9","7","8","8","6","9","6","5","5","6","6","3","6","1","5","2","1","3","2","5","3","7","6","6","3","5","5","3","6","3","5","3","7","2","5","5","7","7","6","6","3","2","7","3","7","3","5","598900137913221120","张","479","Male","[""坏他"",""好他"",""坏我"",""好我""]","[""弱他"",""强他"",""弱我"",""强我""]","","","","","","","","yes","","","","","","","","","SRET","EW_formal","","key","j","16.673379999999888","758.3333534223067","422.22223340729164","自己","缓慢","Negative","ability","","","","","","","","","","",""
"819","","f","psychophysics","99","264169","0.0-7.0-3.0-0.85","6","5","6","5","5","5","1","4","5","4","5","2","0","0","1","0","2","1","1","5","5","5","5","5","4","4","4","5","5","8","8","6","9","7","8","8","6","9","6","5","5","6","6","3","6","1","5","2","1","3","2","5","3","7","6","6","3","5","5","3","6","3","5","3","7","2","5","5","7","7","6","6","3","2","7","3","7","3","5","598900137913221120","张","479","Male","[""坏他"",""好他"",""坏我"",""好我""]","[""弱他"",""强他"",""弱我"",""强我""]","","","","","","","","no","","","","","","","","","SRET","EW_formal","","key","f","16.670537037037086","758.3333534223067","422.22223340729164","朋友","低俗","Negative","morality","","","","","","","","","","",""
"689","","j","psychophysics","100","265866","0.0-7.0-3.0-0.86","6","5","6","5","5","5","1","4","5","4","5","2","0","0","1","0","2","1","1","5","5","5","5","5","4","4","4","5","5","8","8","6","9","7","8","8","6","9","6","5","5","6","6","3","6","1","5","2","1","3","2","5","3","7","6","6","3","5","5","3","6","3","5","3","7","2","5","5","7","7","6","6","3","2","7","3","7","3","5","598900137913221120","张","479","Male","[""坏他"",""好他"",""坏我"",""好我""]","[""弱他"",""强他"",""弱我"",""强我""]","","","","","","","","yes","","","","","","","","","SRET","EW_formal","","key","j","16.67605940594066","758.3333534223067","422.22223340729164","朋友","素养","Positive","morality","","","","","","","","","","",""
"603","","j","psychophysics","101","267479","0.0-7.0-3.0-0.87","6","5","6","5","5","5","1","4","5","4","5","2","0","0","1","0","2","1","1","5","5","5","5","5","4","4","4","5","5","8","8","6","9","7","8","8","6","9","6","5","5","6","6","3","6","1","5","2","1","3","2","5","3","7","6","6","3","5","5","3","6","3","5","3","7","2","5","5","7","7","6","6","3","2","7","3","7","3","5","598900137913221120","张","479","Male","[""坏他"",""好他"",""坏我"",""好我""]","[""弱他"",""强他"",""弱我"",""强我""]","","","","","","","","yes","","","","","","","","","SRET","EW_formal","","key","j","16.67022916666671","758.3333534223067","422.22223340729164","自己","主见","Positive","ability","","","","","","","","","","",""
"6175","
    <p><div style='color:white;font-size:35px; line-height:20px;'>计算任务</div></p><br>
    <p><div style='color:red;font-size:25px; line-height:20px;'>接下来，您将看到一些四则运算题，<b>请从键盘选择 0-9 进行反应。</b></div></p>
    <p><div style='color:red;font-size:25px; line-height:20px;'>请尽可能快地进行计算，计算的速度和正确率将影响报酬的发放。</div></p>
    <p><div class='footer' style='color:white;font-size:25px; line-height:20px;'>如果对本实验还有不清楚之处，请立即向实验员咨询。</p><p style='color:white;font-size:25px; line-height:20px;'>如果您明白了规则：</p><p style='color:white;font-size:22px; line-height:20px;'>请按 继续 进入练习</p>
    </div>
    ","0","html-button-response","102","273658","0.0-7.0-4.0","6","5","6","5","5","5","1","4","5","4","5","2","0","0","1","0","2","1","1","5","5","5","5","5","4","4","4","5","5","8","8","6","9","7","8","8","6","9","6","5","5","6","6","3","6","1","5","2","1","3","2","5","3","7","6","6","3","5","5","3","6","3","5","3","7","2","5","5","7","7","6","6","3","2","7","3","7","3","5","598900137913221120","张","479","Male","[""坏他"",""好他"",""坏我"",""好我""]","[""弱他"",""强他"",""弱我"",""强我""]","","","","","","","","","","","","","","","","","SRET_math","math_instructions","Sun Dec 10 2023 13:55:08 GMT+0800 (中国标准时间)","","","","","","","","","","","","","","","","","","","",""
"1848","","7","psychophysics","103","275510","0.0-7.0-5.0-0.0","6","5","6","5","5","5","1","4","5","4","5","2","0","0","1","0","2","1","1","5","5","5","5","5","4","4","4","5","5","8","8","6","9","7","8","8","6","9","6","5","5","6","6","3","6","1","5","2","1","3","2","5","3","7","6","6","3","5","5","3","6","3","5","3","7","2","5","5","7","7","6","6","3","2","7","3","7","3","5","598900137913221120","张","479","Male","[""坏他"",""好他"",""坏我"",""好我""]","[""弱他"",""强他"",""弱我"",""强我""]","","","","","","","","7","","","","","","","","","SRET","SRET_math_calculate","","key","7","16.67580909090942","758.3333534223067","422.22223340729164","","","","","6+1= ?","7","1","","","","","","","",""
"1911","","2","psychophysics","104","277431","0.0-7.0-5.0-0.1","6","5","6","5","5","5","1","4","5","4","5","2","0","0","1","0","2","1","1","5","5","5","5","5","4","4","4","5","5","8","8","6","9","7","8","8","6","9","6","5","5","6","6","3","6","1","5","2","1","3","2","5","3","7","6","6","3","5","5","3","6","3","5","3","7","2","5","5","7","7","6","6","3","2","7","3","7","3","5","598900137913221120","张","479","Male","[""坏他"",""好他"",""坏我"",""好我""]","[""弱他"",""强他"",""弱我"",""强我""]","","","","","","","","2","","","","","","","","","SRET","SRET_math_calculate","","key","2","16.674617391304395","758.3333534223067","422.22223340729164","","","","","19-17= ?","2","1","","","","","","","",""
"2134","","7","psychophysics","105","279572","0.0-7.0-5.0-0.2","6","5","6","5","5","5","1","4","5","4","5","2","0","0","1","0","2","1","1","5","5","5","5","5","4","4","4","5","5","8","8","6","9","7","8","8","6","9","6","5","5","6","6","3","6","1","5","2","1","3","2","5","3","7","6","6","3","5","5","3","6","3","5","3","7","2","5","5","7","7","6","6","3","2","7","3","7","3","5","598900137913221120","张","479","Male","[""坏他"",""好他"",""坏我"",""好我""]","[""弱他"",""强他"",""弱我"",""强我""]","","","","","","","","7","","","","","","","","","SRET","SRET_math_calculate","","key","7","16.674748031495827","758.3333534223067","422.22223340729164","","","","","2+5= ?","7","1","","","","","","","",""
"4100","","9","psychophysics","106","283683","0.0-7.0-5.0-0.3","6","5","6","5","5","5","1","4","5","4","5","2","0","0","1","0","2","1","1","5","5","5","5","5","4","4","4","5","5","8","8","6","9","7","8","8","6","9","6","5","5","6","6","3","6","1","5","2","1","3","2","5","3","7","6","6","3","5","5","3","6","3","5","3","7","2","5","5","7","7","6","6","3","2","7","3","7","3","5","598900137913221120","张","479","Male","[""坏他"",""好他"",""坏我"",""好我""]","[""弱他"",""强他"",""弱我"",""强我""]","","","","","","","","9","","","","","","","","","SRET","SRET_math_calculate","","key","9","16.67239430894303","758.3333534223067","422.22223340729164","","","","","32-23= ?","9","1","","","","","","","",""
"2259","","4","psychophysics","107","285948","0.0-7.0-5.0-0.4","6","5","6","5","5","5","1","4","5","4","5","2","0","0","1","0","2","1","1","5","5","5","5","5","4","4","4","5","5","8","8","6","9","7","8","8","6","9","6","5","5","6","6","3","6","1","5","2","1","3","2","5","3","7","6","6","3","5","5","3","6","3","5","3","7","2","5","5","7","7","6","6","3","2","7","3","7","3","5","598900137913221120","张","479","Male","[""坏他"",""好他"",""坏我"",""好我""]","[""弱他"",""强他"",""弱我"",""强我""]","","","","","","","","4","","","","","","","","","SRET","SRET_math_calculate","","key","4","16.673822222222334","758.3333534223067","422.22223340729164","","","","","4*1= ?","4","1","","","","","","","",""
"1889","","7","psychophysics","108","287840","0.0-7.0-5.0-0.5","6","5","6","5","5","5","1","4","5","4","5","2","0","0","1","0","2","1","1","5","5","5","5","5","4","4","4","5","5","8","8","6","9","7","8","8","6","9","6","5","5","6","6","3","6","1","5","2","1","3","2","5","3","7","6","6","3","5","5","3","6","3","5","3","7","2","5","5","7","7","6","6","3","2","7","3","7","3","5","598900137913221120","张","479","Male","[""坏他"",""好他"",""坏我"",""好我""]","[""弱他"",""强他"",""弱我"",""强我""]","","","","","","","","7","","","","","","","","","SRET","SRET_math_calculate","","key","7","16.675071428571496","758.3333534223067","422.22223340729164","","","","","7*1=  ?","7","1","","","","","","","",""
"1790","","9","psychophysics","109","289655","0.0-7.0-5.0-0.6","6","5","6","5","5","5","1","4","5","4","5","2","0","0","1","0","2","1","1","5","5","5","5","5","4","4","4","5","5","8","8","6","9","7","8","8","6","9","6","5","5","6","6","3","6","1","5","2","1","3","2","5","3","7","6","6","3","5","5","3","6","3","5","3","7","2","5","5","7","7","6","6","3","2","7","3","7","3","5","598900137913221120","张","479","Male","[""坏他"",""好他"",""坏我"",""好我""]","[""弱他"",""强他"",""弱我"",""强我""]","","","","","","","","9","","","","","","","","","SRET","SRET_math_calculate","","key","9","16.676101851852124","758.3333534223067","422.22223340729164","","","","","1*9= ?","9","1","","","","","","","",""
"1969","","6","psychophysics","110","291629","0.0-7.0-5.0-0.7","6","5","6","5","5","5","1","4","5","4","5","2","0","0","1","0","2","1","1","5","5","5","5","5","4","4","4","5","5","8","8","6","9","7","8","8","6","9","6","5","5","6","6","3","6","1","5","2","1","3","2","5","3","7","6","6","3","5","5","3","6","3","5","3","7","2","5","5","7","7","6","6","3","2","7","3","7","3","5","598900137913221120","张","479","Male","[""坏他"",""好他"",""坏我"",""好我""]","[""弱他"",""强他"",""弱我"",""强我""]","","","","","","","","6","","","","","","","","","SRET","SRET_math_calculate","","key","6","16.6736324786325","758.3333534223067","422.22223340729164","","","","","3*2= ?","6","1","","","","","","","",""
"2006","","5","psychophysics","111","293644","0.0-7.0-5.0-0.8","6","5","6","5","5","5","1","4","5","4","5","2","0","0","1","0","2","1","1","5","5","5","5","5","4","4","4","5","5","8","8","6","9","7","8","8","6","9","6","5","5","6","6","3","6","1","5","2","1","3","2","5","3","7","6","6","3","5","5","3","6","3","5","3","7","2","5","5","7","7","6","6","3","2","7","3","7","3","5","598900137913221120","张","479","Male","[""坏他"",""好他"",""坏我"",""好我""]","[""弱他"",""强他"",""弱我"",""强我""]","","","","","","","","5","","","","","","","","","SRET","SRET_math_calculate","","key","5","16.674774999999986","758.3333534223067","422.22223340729164","","","","","8-3= ? ","5","1","","","","","","","",""
"2366","","8","psychophysics","112","296020","0.0-7.0-5.0-0.9","6","5","6","5","5","5","1","4","5","4","5","2","0","0","1","0","2","1","1","5","5","5","5","5","4","4","4","5","5","8","8","6","9","7","8","8","6","9","6","5","5","6","6","3","6","1","5","2","1","3","2","5","3","7","6","6","3","5","5","3","6","3","5","3","7","2","5","5","7","7","6","6","3","2","7","3","7","3","5","598900137913221120","张","479","Male","[""坏他"",""好他"",""坏我"",""好我""]","[""弱他"",""强他"",""弱我"",""强我""]","","","","","","","","8","","","","","","","","","SRET","SRET_math_calculate","","key","8","16.674170212766093","758.3333534223067","422.22223340729164","","","","","50-42= ?","8","1","","","","","","","",""
"2263","","7","psychophysics","113","298294","0.0-7.0-5.0-0.10","6","5","6","5","5","5","1","4","5","4","5","2","0","0","1","0","2","1","1","5","5","5","5","5","4","4","4","5","5","8","8","6","9","7","8","8","6","9","6","5","5","6","6","3","6","1","5","2","1","3","2","5","3","7","6","6","3","5","5","3","6","3","5","3","7","2","5","5","7","7","6","6","3","2","7","3","7","3","5","598900137913221120","张","479","Male","[""坏他"",""好他"",""坏我"",""好我""]","[""弱他"",""强他"",""弱我"",""强我""]","","","","","","","","7","","","","","","","","","SRET","SRET_math_calculate","","key","7","16.67716911764728","758.3333534223067","422.22223340729164","","","","","13-5= ?","8","0","","","","","","","",""
"1989","","7","psychophysics","114","300296","0.0-7.0-5.0-0.11","6","5","6","5","5","5","1","4","5","4","5","2","0","0","1","0","2","1","1","5","5","5","5","5","4","4","4","5","5","8","8","6","9","7","8","8","6","9","6","5","5","6","6","3","6","1","5","2","1","3","2","5","3","7","6","6","3","5","5","3","6","3","5","3","7","2","5","5","7","7","6","6","3","2","7","3","7","3","5","598900137913221120","张","479","Male","[""坏他"",""好他"",""坏我"",""好我""]","[""弱他"",""强他"",""弱我"",""强我""]","","","","","","","","7","","","","","","","","","SRET","SRET_math_calculate","","key","7","16.678739495798474","758.3333534223067","422.22223340729164","","","","","4+3= ?","7","1","","","","","","","",""
"1881","","3","psychophysics","115","302191","0.0-7.0-5.0-0.12","6","5","6","5","5","5","1","4","5","4","5","2","0","0","1","0","2","1","1","5","5","5","5","5","4","4","4","5","5","8","8","6","9","7","8","8","6","9","6","5","5","6","6","3","6","1","5","2","1","3","2","5","3","7","6","6","3","5","5","3","6","3","5","3","7","2","5","5","7","7","6","6","3","2","7","3","7","3","5","598900137913221120","张","479","Male","[""坏他"",""好他"",""坏我"",""好我""]","[""弱他"",""强他"",""弱我"",""强我""]","","","","","","","","3","","","","","","","","","SRET","SRET_math_calculate","","key","3","16.670714285714244","758.3333534223067","422.22223340729164","","","","","1+2= ?","3","1","","","","","","","",""
"2744","","4","psychophysics","116","304943","0.0-7.0-5.0-0.13","6","5","6","5","5","5","1","4","5","4","5","2","0","0","1","0","2","1","1","5","5","5","5","5","4","4","4","5","5","8","8","6","9","7","8","8","6","9","6","5","5","6","6","3","6","1","5","2","1","3","2","5","3","7","6","6","3","5","5","3","6","3","5","3","7","2","5","5","7","7","6","6","3","2","7","3","7","3","5","598900137913221120","张","479","Male","[""坏他"",""好他"",""坏我"",""好我""]","[""弱他"",""强他"",""弱我"",""强我""]","","","","","","","","4","","","","","","","","","SRET","SRET_math_calculate","","key","4","16.67205454545434","758.3333534223067","422.22223340729164","","","","","20/5= ?","4","1","","","","","","","",""
"1904","","8","psychophysics","117","306850","0.0-7.0-5.0-0.14","6","5","6","5","5","5","1","4","5","4","5","2","0","0","1","0","2","1","1","5","5","5","5","5","4","4","4","5","5","8","8","6","9","7","8","8","6","9","6","5","5","6","6","3","6","1","5","2","1","3","2","5","3","7","6","6","3","5","5","3","6","3","5","3","7","2","5","5","7","7","6","6","3","2","7","3","7","3","5","598900137913221120","张","479","Male","[""坏他"",""好他"",""坏我"",""好我""]","[""弱他"",""强他"",""弱我"",""强我""]","","","","","","","","8","","","","","","","","","SRET","SRET_math_calculate","","key","8","16.675309734513252","758.3333534223067","422.22223340729164","","","","","1+7= ?","8","1","","","","","","","",""
"2027","","9","psychophysics","118","308893","0.0-7.0-5.0-0.15","6","5","6","5","5","5","1","4","5","4","5","2","0","0","1","0","2","1","1","5","5","5","5","5","4","4","4","5","5","8","8","6","9","7","8","8","6","9","6","5","5","6","6","3","6","1","5","2","1","3","2","5","3","7","6","6","3","5","5","3","6","3","5","3","7","2","5","5","7","7","6","6","3","2","7","3","7","3","5","598900137913221120","张","479","Male","[""坏他"",""好他"",""坏我"",""好我""]","[""弱他"",""强他"",""弱我"",""强我""]","","","","","","","","9","","","","","","","","","SRET","SRET_math_calculate","","key","9","16.67467213114752","758.3333534223067","422.22223340729164","","","","","2+7= ?","9","1","","","","","","","",""
"2238","","3","psychophysics","119","311135","0.0-7.0-5.0-0.16","6","5","6","5","5","5","1","4","5","4","5","2","0","0","1","0","2","1","1","5","5","5","5","5","4","4","4","5","5","8","8","6","9","7","8","8","6","9","6","5","5","6","6","3","6","1","5","2","1","3","2","5","3","7","6","6","3","5","5","3","6","3","5","3","7","2","5","5","7","7","6","6","3","2","7","3","7","3","5","598900137913221120","张","479","Male","[""坏他"",""好他"",""坏我"",""好我""]","[""弱他"",""强他"",""弱我"",""强我""]","","","","","","","","3","","","","","","","","","SRET","SRET_math_calculate","","key","3","16.676909774435945","758.3333534223067","422.22223340729164","","","","","12/4= ?","3","1","","","","","","","",""
"1947","","3","psychophysics","120","313097","0.0-7.0-5.0-0.17","6","5","6","5","5","5","1","4","5","4","5","2","0","0","1","0","2","1","1","5","5","5","5","5","4","4","4","5","5","8","8","6","9","7","8","8","6","9","6","5","5","6","6","3","6","1","5","2","1","3","2","5","3","7","6","6","3","5","5","3","6","3","5","3","7","2","5","5","7","7","6","6","3","2","7","3","7","3","5","598900137913221120","张","479","Male","[""坏他"",""好他"",""坏我"",""好我""]","[""弱他"",""强他"",""弱我"",""强我""]","","","","","","","","3","","","","","","","","","SRET","SRET_math_calculate","","key","3","16.674581196581006","758.3333534223067","422.22223340729164","","","","","9-6= ?","3","1","","","","","","","",""
"1950","","1","psychophysics","121","315053","0.0-7.0-5.0-0.18","6","5","6","5","5","5","1","4","5","4","5","2","0","0","1","0","2","1","1","5","5","5","5","5","4","4","4","5","5","8","8","6","9","7","8","8","6","9","6","5","5","6","6","3","6","1","5","2","1","3","2","5","3","7","6","6","3","5","5","3","6","3","5","3","7","2","5","5","7","7","6","6","3","2","7","3","7","3","5","598900137913221120","张","479","Male","[""坏他"",""好他"",""坏我"",""好我""]","[""弱他"",""强他"",""弱我"",""强我""]","","","","","","","","1","","","","","","","","","SRET","SRET_math_calculate","","key","1","16.673250000000078","758.3333534223067","422.22223340729164","","","","","30-29= ?","1","1","","","","","","","",""
"2047","","3","psychophysics","122","317102","0.0-7.0-5.0-0.19","6","5","6","5","5","5","1","4","5","4","5","2","0","0","1","0","2","1","1","5","5","5","5","5","4","4","4","5","5","8","8","6","9","7","8","8","6","9","6","5","5","6","6","3","6","1","5","2","1","3","2","5","3","7","6","6","3","5","5","3","6","3","5","3","7","2","5","5","7","7","6","6","3","2","7","3","7","3","5","598900137913221120","张","479","Male","[""坏他"",""好他"",""坏我"",""好我""]","[""弱他"",""强他"",""弱我"",""强我""]","","","","","","","","3","","","","","","","","","SRET","SRET_math_calculate","","key","3","16.676786885245658","758.3333534223067","422.22223340729164","","","","","3*1= ?","3","1","","","","","","","",""
"1909","","5","psychophysics","123","319016","0.0-7.0-5.0-0.20","6","5","6","5","5","5","1","4","5","4","5","2","0","0","1","0","2","1","1","5","5","5","5","5","4","4","4","5","5","8","8","6","9","7","8","8","6","9","6","5","5","6","6","3","6","1","5","2","1","3","2","5","3","7","6","6","3","5","5","3","6","3","5","3","7","2","5","5","7","7","6","6","3","2","7","3","7","3","5","598900137913221120","张","479","Male","[""坏他"",""好他"",""坏我"",""好我""]","[""弱他"",""强他"",""弱我"",""强我""]","","","","","","","","5","","","","","","","","","SRET","SRET_math_calculate","","key","5","16.675754385964595","758.3333534223067","422.22223340729164","","","","","9-4= ?","5","1","","","","","","","",""
"1895","","1","psychophysics","124","320918","0.0-7.0-5.0-0.21","6","5","6","5","5","5","1","4","5","4","5","2","0","0","1","0","2","1","1","5","5","5","5","5","4","4","4","5","5","8","8","6","9","7","8","8","6","9","6","5","5","6","6","3","6","1","5","2","1","3","2","5","3","7","6","6","3","5","5","3","6","3","5","3","7","2","5","5","7","7","6","6","3","2","7","3","7","3","5","598900137913221120","张","479","Male","[""坏他"",""好他"",""坏我"",""好我""]","[""弱他"",""强他"",""弱我"",""强我""]","","","","","","","","1","","","","","","","","","SRET","SRET_math_calculate","","key","1","16.67461061946928","758.3333534223067","422.22223340729164","","","","","10-9= ?","1","1","","","","","","","",""
"4343","","9","psychophysics","125","325266","0.0-7.0-5.0-0.22","6","5","6","5","5","5","1","4","5","4","5","2","0","0","1","0","2","1","1","5","5","5","5","5","4","4","4","5","5","8","8","6","9","7","8","8","6","9","6","5","5","6","6","3","6","1","5","2","1","3","2","5","3","7","6","6","3","5","5","3","6","3","5","3","7","2","5","5","7","7","6","6","3","2","7","3","7","3","5","598900137913221120","张","479","Male","[""坏他"",""好他"",""坏我"",""好我""]","[""弱他"",""强他"",""弱我"",""强我""]","","","","","","","","9","","","","","","","","","SRET","SRET_math_calculate","","key","9","16.67278461538461","758.3333534223067","422.22223340729164","","","","","32-32= ?","0","0","","","","","","","",""
"2223","","8","psychophysics","126","327493","0.0-7.0-5.0-0.23","6","5","6","5","5","5","1","4","5","4","5","2","0","0","1","0","2","1","1","5","5","5","5","5","4","4","4","5","5","8","8","6","9","7","8","8","6","9","6","5","5","6","6","3","6","1","5","2","1","3","2","5","3","7","6","6","3","5","5","3","6","3","5","3","7","2","5","5","7","7","6","6","3","2","7","3","7","3","5","598900137913221120","张","479","Male","[""坏他"",""好他"",""坏我"",""好我""]","[""弱他"",""强他"",""弱我"",""强我""]","","","","","","","","8","","","","","","","","","SRET","SRET_math_calculate","","key","8","16.67458333333365","758.3333534223067","422.22223340729164","","","","","4*2= ?","8","1","","","","","","","",""
"2423","","8","psychophysics","127","329933","0.0-7.0-5.0-0.24","6","5","6","5","5","5","1","4","5","4","5","2","0","0","1","0","2","1","1","5","5","5","5","5","4","4","4","5","5","8","8","6","9","7","8","8","6","9","6","5","5","6","6","3","6","1","5","2","1","3","2","5","3","7","6","6","3","5","5","3","6","3","5","3","7","2","5","5","7","7","6","6","3","2","7","3","7","3","5","598900137913221120","张","479","Male","[""坏他"",""好他"",""坏我"",""好我""]","[""弱他"",""强他"",""弱我"",""强我""]","","","","","","","","8","","","","","","","","","SRET","SRET_math_calculate","","key","8","16.672613793103313","758.3333534223067","422.22223340729164","","","","","4+2= ?","6","0","","","","","","","",""
"2199","","9","psychophysics","128","332143","0.0-7.0-5.0-0.25","6","5","6","5","5","5","1","4","5","4","5","2","0","0","1","0","2","1","1","5","5","5","5","5","4","4","4","5","5","8","8","6","9","7","8","8","6","9","6","5","5","6","6","3","6","1","5","2","1","3","2","5","3","7","6","6","3","5","5","3","6","3","5","3","7","2","5","5","7","7","6","6","3","2","7","3","7","3","5","598900137913221120","张","479","Male","[""坏他"",""好他"",""坏我"",""好我""]","[""弱他"",""强他"",""弱我"",""强我""]","","","","","","","","9","","","","","","","","","SRET","SRET_math_calculate","","key","9","16.673219696969625","758.3333534223067","422.22223340729164","","","","","4+5= ?","9","1","","","","","","","",""
"2781","","3","psychophysics","129","334928","0.0-7.0-5.0-0.26","6","5","6","5","5","5","1","4","5","4","5","2","0","0","1","0","2","1","1","5","5","5","5","5","4","4","4","5","5","8","8","6","9","7","8","8","6","9","6","5","5","6","6","3","6","1","5","2","1","3","2","5","3","7","6","6","3","5","5","3","6","3","5","3","7","2","5","5","7","7","6","6","3","2","7","3","7","3","5","598900137913221120","张","479","Male","[""坏他"",""好他"",""坏我"",""好我""]","[""弱他"",""强他"",""弱我"",""强我""]","","","","","","","","3","","","","","","","","","SRET","SRET_math_calculate","","key","3","16.671391566265065","758.3333534223067","422.22223340729164","","","","","6/2= ?","3","1","","","","","","","",""
"2094","","7","psychophysics","130","337024","0.0-7.0-5.0-0.27","6","5","6","5","5","5","1","4","5","4","5","2","0","0","1","0","2","1","1","5","5","5","5","5","4","4","4","5","5","8","8","6","9","7","8","8","6","9","6","5","5","6","6","3","6","1","5","2","1","3","2","5","3","7","6","6","3","5","5","3","6","3","5","3","7","2","5","5","7","7","6","6","3","2","7","3","7","3","5","598900137913221120","张","479","Male","[""坏他"",""好他"",""坏我"",""好我""]","[""弱他"",""强他"",""弱我"",""强我""]","","","","","","","","7","","","","","","","","","SRET","SRET_math_calculate","","key","7","16.674984000000173","758.3333534223067","422.22223340729164","","","","","1+6= ?","7","1","","","","","","","",""
"2041","","2","psychophysics","131","339073","0.0-7.0-5.0-0.28","6","5","6","5","5","5","1","4","5","4","5","2","0","0","1","0","2","1","1","5","5","5","5","5","4","4","4","5","5","8","8","6","9","7","8","8","6","9","6","5","5","6","6","3","6","1","5","2","1","3","2","5","3","7","6","6","3","5","5","3","6","3","5","3","7","2","5","5","7","7","6","6","3","2","7","3","7","3","5","598900137913221120","张","479","Male","[""坏他"",""好他"",""坏我"",""好我""]","[""弱他"",""强他"",""弱我"",""强我""]","","","","","","","","2","","","","","","","","","SRET","SRET_math_calculate","","key","2","16.674418032786726","758.3333534223067","422.22223340729164","","","","","12/6= ?","2","1","","","","","","","",""
"2313","","3","psychophysics","132","341394","0.0-7.0-5.0-0.29","6","5","6","5","5","5","1","4","5","4","5","2","0","0","1","0","2","1","1","5","5","5","5","5","4","4","4","5","5","8","8","6","9","7","8","8","6","9","6","5","5","6","6","3","6","1","5","2","1","3","2","5","3","7","6","6","3","5","5","3","6","3","5","3","7","2","5","5","7","7","6","6","3","2","7","3","7","3","5","598900137913221120","张","479","Male","[""坏他"",""好他"",""坏我"",""好我""]","[""弱他"",""强他"",""弱我"",""强我""]","","","","","","","","3","","","","","","","","","SRET","SRET_math_calculate","","key","3","16.67415942029017","758.3333534223067","422.22223340729164","","","","","3+0= ?","3","1","","","","","","","",""
"2161","","4","psychophysics","133","343561","0.0-7.0-5.0-0.30","6","5","6","5","5","5","1","4","5","4","5","2","0","0","1","0","2","1","1","5","5","5","5","5","4","4","4","5","5","8","8","6","9","7","8","8","6","9","6","5","5","6","6","3","6","1","5","2","1","3","2","5","3","7","6","6","3","5","5","3","6","3","5","3","7","2","5","5","7","7","6","6","3","2","7","3","7","3","5","598900137913221120","张","479","Male","[""坏他"",""好他"",""坏我"",""好我""]","[""弱他"",""强他"",""弱我"",""强我""]","","","","","","","","4","","","","","","","","","SRET","SRET_math_calculate","","key","4","16.674062015504084","758.3333534223067","422.22223340729164","","","","","2+2= ?","4","1","","","","","","","",""
"1959","","8","psychophysics","134","345526","0.0-7.0-5.0-0.31","6","5","6","5","5","5","1","4","5","4","5","2","0","0","1","0","2","1","1","5","5","5","5","5","4","4","4","5","5","8","8","6","9","7","8","8","6","9","6","5","5","6","6","3","6","1","5","2","1","3","2","5","3","7","6","6","3","5","5","3","6","3","5","3","7","2","5","5","7","7","6","6","3","2","7","3","7","3","5","598900137913221120","张","479","Male","[""坏他"",""好他"",""坏我"",""好我""]","[""弱他"",""强他"",""弱我"",""强我""]","","","","","","","","8","","","","","","","","","SRET","SRET_math_calculate","","key","8","16.675264957264904","758.3333534223067","422.22223340729164","","","","","4+4= ?","8","1","","","","","","","",""
"1957","","3","psychophysics","135","347492","0.0-7.0-5.0-0.32","6","5","6","5","5","5","1","4","5","4","5","2","0","0","1","0","2","1","1","5","5","5","5","5","4","4","4","5","5","8","8","6","9","7","8","8","6","9","6","5","5","6","6","3","6","1","5","2","1","3","2","5","3","7","6","6","3","5","5","3","6","3","5","3","7","2","5","5","7","7","6","6","3","2","7","3","7","3","5","598900137913221120","张","479","Male","[""坏他"",""好他"",""坏我"",""好我""]","[""弱他"",""强他"",""弱我"",""强我""]","","","","","","","","3","","","","","","","","","SRET","SRET_math_calculate","","key","3","16.81888793103431","758.3333534223067","422.22223340729164","","","","","2+1= ?","3","1","","","","","","","",""
"2289","","3","psychophysics","136","349788","0.0-7.0-5.0-0.33","6","5","6","5","5","5","1","4","5","4","5","2","0","0","1","0","2","1","1","5","5","5","5","5","4","4","4","5","5","8","8","6","9","7","8","8","6","9","6","5","5","6","6","3","6","1","5","2","1","3","2","5","3","7","6","6","3","5","5","3","6","3","5","3","7","2","5","5","7","7","6","6","3","2","7","3","7","3","5","598900137913221120","张","479","Male","[""坏他"",""好他"",""坏我"",""好我""]","[""弱他"",""强他"",""弱我"",""强我""]","","","","","","","","3","","","","","","","","","SRET","SRET_math_calculate","","key","3","16.67523529411761","758.3333534223067","422.22223340729164","","","","","9/3= ?","3","1","","","","","","","",""
"3591","","9","psychophysics","137","353394","0.0-7.0-5.0-0.34","6","5","6","5","5","5","1","4","5","4","5","2","0","0","1","0","2","1","1","5","5","5","5","5","4","4","4","5","5","8","8","6","9","7","8","8","6","9","6","5","5","6","6","3","6","1","5","2","1","3","2","5","3","7","6","6","3","5","5","3","6","3","5","3","7","2","5","5","7","7","6","6","3","2","7","3","7","3","5","598900137913221120","张","479","Male","[""坏他"",""好他"",""坏我"",""好我""]","[""弱他"",""强他"",""弱我"",""强我""]","","","","","","","","9","","","","","","","","","SRET","SRET_math_calculate","","key","9","16.674748837209286","758.3333534223067","422.22223340729164","","","","","43-34= ?","9","1","","","","","","","",""
