"rt","stimulus","response","trial_type","trial_index","time_elapsed","internal_node_id","swb_1","swb_2","swb_3","swb_4","swb_5","LOT_1","LOT_2","LOT_3","LOT_4","LOT_5","LOT_6","IPC_1","IPC_2","IPC_3","IPC_4","IPC_5","IPC_6","IPC_7","IPC_8","MorIden_1","MorIden_2","MorIden_3","MorIden_4","MorIden_5","MorIden_6","MorIden_7","MorIden_8","MorIden_9","MorIden_10","moralSeImag_1","moralSeImag_2","moralSeImag_3","moralSeImag_4","moralSeImag_5","moralSeImag_6","moralSeImag_7","moralSeImag_8","moralSeImag_9","sde_1","sde_2","sde_3","sde_4","sde_5","sde_6","sde_7","sde_8","sde_9","sde_10","trap2","sde_11","sde_12","sde_13","sde_14","sde_15","sde_16","sde_17","sde_18","sde_19","sde_20","IM_1","IM_2","IM_3","IM_4","IM_5","IM_6","IM_7","IM_8","IM_9","IM_10","IM_11","IM_12","IM_13","IM_14","IM_15","IM_16","IM_17","IM_18","IM_19","IM_20","subj_idx","friend_name","ParticipantID","Sex","Word","Word2","value","success","timeout","failed_images","failed_audio","failed_video","user_agent","responses","item_order","radio_event_ids","radio_event_times","key_event_times","mouse_event_times","straightlining","zigzagging","honeypot","view_history","response_type","key_press","avg_frame_time","center_x","center_y","correct_response","correct","identity","Image","word","condition","task_id","screen_id","time_stamp","person","valence","domain","math","status","duration","question_order","trap2_item"
"31808","
   <p><div style='color:white; font-size: 25px'>您好，欢迎参加本次实验。</div></p>
   <p><div style='color:white; font-size: 25px'>为充分保障您的权利，请确保您已经知晓并同意《参与实验同意书》以及《数据公开知情同意书》。</div></p>
   <p><div style='color:white; font-size: 25px'>如果您未见过上述内容，请咨询实验员。</div></p>
   <p style='color:white; font-size: 25px'>如果您选择继续实验，则表示您已经清楚两份知情同意书的内容并同意。</p>
   <p><div style = ""color: pink;font-size:30px;"">请确保您记得day0的实验编号，您将在本次实验输入该编号，若您忘记，请咨询实验员后作答。</div></p>
   <p><div style = ""color:lightblue;font-size:25px;"">请您尽可能认真地作答，我们将依据您在各问卷和按键任务中的作答质量发放报酬。</div></p>
   <p> <div style = ""color: green""><按空格键至下页></div> </p>
   "," ","html-keyboard-response","0","31814","0.0-0.0","6","5","6","5","5","5","2","5","4","4","5","1","0","2","1","1","2","1","0","5","4","5","5","5","4","4","5","4","4","6","8","7","7","6","8","8","7","8","6","3","3","7","6","3","5","1","6","3","1","2","1","6","2","5","6","5","2","3","5","2","7","3","3","2","7","2","6","3","7","7","5","6","6","3","7","3","7","3","6","598925018256113664","刘","422","Male","[""好他"",""坏我"",""好我"",""坏他""]","[""强他"",""弱我"",""强我"",""弱他""]","","","","","","","","","","","","","","","","","","","","","","","","","","","","","","","","","","","","","","",""
"","","","call-function","1","31817","0.0-1.0-0.0","6","5","6","5","5","5","2","5","4","4","5","1","0","2","1","1","2","1","0","5","4","5","5","5","4","4","5","4","4","6","8","7","7","6","8","8","7","8","6","3","3","7","6","3","5","1","6","3","1","2","1","6","2","5","6","5","2","3","5","2","7","3","3","2","7","2","6","3","7","7","5","6","6","3","7","3","7","3","6","598925018256113664","刘","422","Male","[""好他"",""坏我"",""好我"",""坏他""]","[""强他"",""弱我"",""强我"",""弱他""]","","","","","","","","","","","","","","","","","","","","","","","","","","","","","","","","","","","","","","",""
"28463","","[{""name"":""Sex"",""value"":""0""},{""name"":""friend_name"",""value"":""刘""},{""name"":""ParticipantID"",""value"":""422""}]","survey-html-form","2","60285","0.0-1.0-1.0","6","5","6","5","5","5","2","5","4","4","5","1","0","2","1","1","2","1","0","5","4","5","5","5","4","4","5","4","4","6","8","7","7","6","8","8","7","8","6","3","3","7","6","3","5","1","6","3","1","2","1","6","2","5","6","5","2","3","5","2","7","3","3","2","7","2","6","3","7","7","5","6","6","3","7","3","7","3","6","598925018256113664","刘","422","Male","[""好他"",""坏我"",""好我"",""坏他""]","[""强他"",""弱我"",""强我"",""弱他""]","","","","","","","","","","","","","","","","","","","","","","","","","","","","","","","","","","","","","","",""
"","","","preload","3","61485","0.0-2.0","6","5","6","5","5","5","2","5","4","4","5","1","0","2","1","1","2","1","0","5","4","5","5","5","4","4","5","4","4","6","8","7","7","6","8","8","7","8","6","3","3","7","6","3","5","1","6","3","1","2","1","6","2","5","6","5","2","3","5","2","7","3","3","2","7","2","6","3","7","7","5","6","6","3","7","3","7","3","6","598925018256113664","刘","422","Male","[""好他"",""坏我"",""好我"",""坏他""]","[""强他"",""弱我"",""强我"",""弱他""]","","true","false","[]","[]","[]","","","","","","","","","","","","","","","","","","","","","","","","","","","","","","","","",""
"","","","fullscreen","4","62678","0.0-3.0","6","5","6","5","5","5","2","5","4","4","5","1","0","2","1","1","2","1","0","5","4","5","5","5","4","4","5","4","4","6","8","7","7","6","8","8","7","8","6","3","3","7","6","3","5","1","6","3","1","2","1","6","2","5","6","5","2","3","5","2","7","3","3","2","7","2","6","3","7","7","5","6","6","3","7","3","7","3","6","598925018256113664","刘","422","Male","[""好他"",""坏我"",""好我"",""坏他""]","[""强他"",""弱我"",""强我"",""弱他""]","","true","","","","","{}","","","","","","","","","","","","","","","","","","","","","","","","","","","","","","","",""
"11190.700000286102","","{""Q01"":""6"",""Q02"":""5"",""Q03"":""6"",""Q04"":""5"",""Q05"":""5""}","survey-template","5","73876","0.0-4.0","6","5","6","5","5","5","2","5","4","4","5","1","0","2","1","1","2","1","0","5","4","5","5","5","4","4","5","4","4","6","8","7","7","6","8","8","7","8","6","3","3","7","6","3","5","1","6","3","1","2","1","6","2","5","6","5","2","3","5","2","7","3","3","2","7","2","6","3","7","7","5","6","6","3","7","3","7","3","6","598925018256113664","刘","422","Male","[""好他"",""坏我"",""好我"",""坏他""]","[""强他"",""弱我"",""强我"",""弱他""]","","","","","","","","{""Q01"":""6"",""Q02"":""5"",""Q03"":""6"",""Q04"":""5"",""Q05"":""5""}","[0,1,2,3,4]","[""Q01"",""Q02"",""Q03"",""Q04"",""Q05""]","[6429.5,7388.700000286102,8380.700000286102,8997.200000286102,10380.800000190735]","[]","[6429.5,7037,7388.700000286102,7941.800000190735,8380.700000286102,8766,8997.200000286102,9820.900000095367,10380.800000190735,11189.5]","0.6","0.75","0","","","","","","","","","","","","","","","","","","","","","","",""
"13369.400000095367","","{""Q01"":""5"",""Q02"":""2"",""Q03"":""5"",""Q04"":""4"",""Q05"":""4"",""Q06"":""5""}","survey-template","6","87251","0.0-5.0","6","5","6","5","5","5","2","5","4","4","5","1","0","2","1","1","2","1","0","5","4","5","5","5","4","4","5","4","4","6","8","7","7","6","8","8","7","8","6","3","3","7","6","3","5","1","6","3","1","2","1","6","2","5","6","5","2","3","5","2","7","3","3","2","7","2","6","3","7","7","5","6","6","3","7","3","7","3","6","598925018256113664","刘","422","Male","[""好他"",""坏我"",""好我"",""坏他""]","[""强他"",""弱我"",""强我"",""弱他""]","","","","","","","","{""Q01"":""5"",""Q02"":""2"",""Q03"":""5"",""Q04"":""4"",""Q05"":""4"",""Q06"":""5""}","[0,1,2,3,4,5]","[""Q01"",""Q02"",""Q03"",""Q04"",""Q05"",""Q06""]","[1728.8000001907349,2648.4000000953674,6184.699999809265,9664.199999809265,10872.400000095367,12728.800000190735]","[]","[1728.8000001907349,2648.4000000953674,6184.699999809265,8712.5,9297.199999809265,9664.199999809265,10872.400000095367,12728.800000190735,13368.5]","0.5","0.4","0","","","","","","","","","","","","","","","","","","","","","","",""
"15419","","{""Q01"":""1"",""Q02"":""0"",""Q03"":""2"",""Q04"":""1"",""Q05"":""1"",""Q06"":""2"",""Q07"":""1"",""Q08"":""0""}","survey-template","7","102676","0.0-6.0","6","5","6","5","5","5","2","5","4","4","5","1","0","2","1","1","2","1","0","5","4","5","5","5","4","4","5","4","4","6","8","7","7","6","8","8","7","8","6","3","3","7","6","3","5","1","6","3","1","2","1","6","2","5","6","5","2","3","5","2","7","3","3","2","7","2","6","3","7","7","5","6","6","3","7","3","7","3","6","598925018256113664","刘","422","Male","[""好他"",""坏我"",""好我"",""坏他""]","[""强他"",""弱我"",""强我"",""弱他""]","","","","","","","","{""Q01"":""1"",""Q02"":""0"",""Q03"":""2"",""Q04"":""1"",""Q05"":""1"",""Q06"":""2"",""Q07"":""1"",""Q08"":""0""}","[0,1,2,3,4,5,6,7]","[""Q01"",""Q02"",""Q03"",""Q04"",""Q05"",""Q06"",""Q07"",""Q08"",""Q08""]","[1322.6999998092651,3762,4683.199999809265,5697.900000095367,8250.099999904633,8963.5,10825.5,13418.199999809265,14634]","[]","[1322.6999998092651,2370.0999999046326,3412.5999999046326,3762,4683.199999809265,5130.199999809265,5417.699999809265,5697.900000095367,6458.300000190735,6930,7594.900000095367,7985.699999809265,8250.099999904633,8618.099999904633,8963.5,10825.5,12642.699999809265,12986.800000190735,13418.199999809265,14634,15417.599999904633]","0.5","0.7142857142857143","0","","","","","","","","","","","","","","","","","","","","","","",""
"2344","","","instructions","8","105025","0.0-7.0","6","5","6","5","5","5","2","5","4","4","5","1","0","2","1","1","2","1","0","5","4","5","5","5","4","4","5","4","4","6","8","7","7","6","8","8","7","8","6","3","3","7","6","3","5","1","6","3","1","2","1","6","2","5","6","5","2","3","5","2","7","3","3","2","7","2","6","3","7","7","5","6","6","3","7","3","7","3","6","598925018256113664","刘","422","Male","[""好他"",""坏我"",""好我"",""坏他""]","[""强他"",""弱我"",""强我"",""弱他""]","","","","","","","","","","","","","","","","","[{""page_index"":0,""viewing_time"":2344}]","","","","","","","","","","","","","","","","","","","","","",""
"48485","","","instructions","9","153513","0.0-8.0-0.0-0.0","6","5","6","5","5","5","2","5","4","4","5","1","0","2","1","1","2","1","0","5","4","5","5","5","4","4","5","4","4","6","8","7","7","6","8","8","7","8","6","3","3","7","6","3","5","1","6","3","1","2","1","6","2","5","6","5","2","3","5","2","7","3","3","2","7","2","6","3","7","7","5","6","6","3","7","3","7","3","6","598925018256113664","刘","422","Male","[""好他"",""坏我"",""好我"",""坏他""]","[""强他"",""弱我"",""强我"",""弱他""]","","","","","","","","","","","","","","","","","[{""page_index"":0,""viewing_time"":12510},{""page_index"":1,""viewing_time"":25607},{""page_index"":2,""viewing_time"":960},{""page_index"":3,""viewing_time"":9408}]","","","","","","","","","","","","","","","","","","","","","",""
"804","","j","psychophysics","10","155338","0.0-8.0-0.0-1.0-0.0-0.0","6","5","6","5","5","5","2","5","4","4","5","1","0","2","1","1","2","1","0","5","4","5","5","5","4","4","5","4","4","6","8","7","7","6","8","8","7","8","6","3","3","7","6","3","5","1","6","3","1","2","1","6","2","5","6","5","2","3","5","2","7","3","3","2","7","2","6","3","7","7","5","6","6","3","7","3","7","3","6","598925018256113664","刘","422","Male","[""好他"",""坏我"",""好我"",""坏他""]","[""强他"",""弱我"",""强我"",""弱他""]","","","","","","","","nonmatch","","","","","","","","","","key","j","16.831467289719665","758.3333534223067","422.22223340729164","j","true","nonmatch","img/trapezoid.png","坏他","好我","prac_ALT2_moral","practice_moral","","","","","","","","",""
"null","<span style='color:GreenYellow; font-size: 70px;'>正确! </span>","null","html-keyboard-response","11","155842","0.0-8.0-0.0-1.0-0.0-1.0","6","5","6","5","5","5","2","5","4","4","5","1","0","2","1","1","2","1","0","5","4","5","5","5","4","4","5","4","4","6","8","7","7","6","8","8","7","8","6","3","3","7","6","3","5","1","6","3","1","2","1","6","2","5","6","5","2","3","5","2","7","3","3","2","7","2","6","3","7","7","5","6","6","3","7","3","7","3","6","598925018256113664","刘","422","Male","[""好他"",""坏我"",""好我"",""坏他""]","[""强他"",""弱我"",""强我"",""弱他""]","","","","","","","","","","","","","","","","","","","","","","","","","","","","","","feedback_test","","","","","","","","",""
"950","","f","psychophysics","12","157795","0.0-8.0-0.0-1.0-0.0-0.1","6","5","6","5","5","5","2","5","4","4","5","1","0","2","1","1","2","1","0","5","4","5","5","5","4","4","5","4","4","6","8","7","7","6","8","8","7","8","6","3","3","7","6","3","5","1","6","3","1","2","1","6","2","5","6","5","2","3","5","2","7","3","3","2","7","2","6","3","7","7","5","6","6","3","7","3","7","3","6","598925018256113664","刘","422","Male","[""好他"",""坏我"",""好我"",""坏他""]","[""强他"",""弱我"",""强我"",""弱他""]","","","","","","","","match","","","","","","","","","","key","f","16.675370689655118","758.3333534223067","422.22223340729164","j","false","nonmatch","img/hexagon.png","坏我","坏他","prac_ALT2_moral","practice_moral","","","","","","","","",""
"null","<span style='color:red; font-size: 70px;'>错误! </span>","null","html-keyboard-response","13","158299","0.0-8.0-0.0-1.0-0.0-1.1","6","5","6","5","5","5","2","5","4","4","5","1","0","2","1","1","2","1","0","5","4","5","5","5","4","4","5","4","4","6","8","7","7","6","8","8","7","8","6","3","3","7","6","3","5","1","6","3","1","2","1","6","2","5","6","5","2","3","5","2","7","3","3","2","7","2","6","3","7","7","5","6","6","3","7","3","7","3","6","598925018256113664","刘","422","Male","[""好他"",""坏我"",""好我"",""坏他""]","[""强他"",""弱我"",""强我"",""弱他""]","","","","","","","","","","","","","","","","","","","","","","","","","","","","","","feedback_test","","","","","","","","",""
"811","","j","psychophysics","14","160113","0.0-8.0-0.0-1.0-0.0-0.2","6","5","6","5","5","5","2","5","4","4","5","1","0","2","1","1","2","1","0","5","4","5","5","5","4","4","5","4","4","6","8","7","7","6","8","8","7","8","6","3","3","7","6","3","5","1","6","3","1","2","1","6","2","5","6","5","2","3","5","2","7","3","3","2","7","2","6","3","7","7","5","6","6","3","7","3","7","3","6","598925018256113664","刘","422","Male","[""好他"",""坏我"",""好我"",""坏他""]","[""强他"",""弱我"",""强我"",""弱他""]","","","","","","","","nonmatch","","","","","","","","","","key","j","16.664878504672828","758.3333534223067","422.22223340729164","f","false","match","img/hexagon.png","坏他","坏他","prac_ALT2_moral","practice_moral","","","","","","","","",""
"null","<span style='color:red; font-size: 70px;'>错误! </span>","null","html-keyboard-response","15","160616","0.0-8.0-0.0-1.0-0.0-1.2","6","5","6","5","5","5","2","5","4","4","5","1","0","2","1","1","2","1","0","5","4","5","5","5","4","4","5","4","4","6","8","7","7","6","8","8","7","8","6","3","3","7","6","3","5","1","6","3","1","2","1","6","2","5","6","5","2","3","5","2","7","3","3","2","7","2","6","3","7","7","5","6","6","3","7","3","7","3","6","598925018256113664","刘","422","Male","[""好他"",""坏我"",""好我"",""坏他""]","[""强他"",""弱我"",""强我"",""弱他""]","","","","","","","","","","","","","","","","","","","","","","","","","","","","","","feedback_test","","","","","","","","",""
"963","","j","psychophysics","16","162585","0.0-8.0-0.0-1.0-0.0-0.3","6","5","6","5","5","5","2","5","4","4","5","1","0","2","1","1","2","1","0","5","4","5","5","5","4","4","5","4","4","6","8","7","7","6","8","8","7","8","6","3","3","7","6","3","5","1","6","3","1","2","1","6","2","5","6","5","2","3","5","2","7","3","3","2","7","2","6","3","7","7","5","6","6","3","7","3","7","3","6","598925018256113664","刘","422","Male","[""好他"",""坏我"",""好我"",""坏他""]","[""强他"",""弱我"",""强我"",""弱他""]","","","","","","","","nonmatch","","","","","","","","","","key","j","16.667163793103477","758.3333534223067","422.22223340729164","f","false","match","img/square.png","好他","好他","prac_ALT2_moral","practice_moral","","","","","","","","",""
"null","<span style='color:red; font-size: 70px;'>错误! </span>","null","html-keyboard-response","17","163095","0.0-8.0-0.0-1.0-0.0-1.3","6","5","6","5","5","5","2","5","4","4","5","1","0","2","1","1","2","1","0","5","4","5","5","5","4","4","5","4","4","6","8","7","7","6","8","8","7","8","6","3","3","7","6","3","5","1","6","3","1","2","1","6","2","5","6","5","2","3","5","2","7","3","3","2","7","2","6","3","7","7","5","6","6","3","7","3","7","3","6","598925018256113664","刘","422","Male","[""好他"",""坏我"",""好我"",""坏他""]","[""强他"",""弱我"",""强我"",""弱他""]","","","","","","","","","","","","","","","","","","","","","","","","","","","","","","feedback_test","","","","","","","","",""
"914","","j","psychophysics","18","165013","0.0-8.0-0.0-1.0-0.0-0.4","6","5","6","5","5","5","2","5","4","4","5","1","0","2","1","1","2","1","0","5","4","5","5","5","4","4","5","4","4","6","8","7","7","6","8","8","7","8","6","3","3","7","6","3","5","1","6","3","1","2","1","6","2","5","6","5","2","3","5","2","7","3","3","2","7","2","6","3","7","7","5","6","6","3","7","3","7","3","6","598925018256113664","刘","422","Male","[""好他"",""坏我"",""好我"",""坏他""]","[""强他"",""弱我"",""强我"",""弱他""]","","","","","","","","nonmatch","","","","","","","","","","key","j","16.675877192982355","758.3333534223067","422.22223340729164","j","true","nonmatch","img/circle.png","坏他","坏我","prac_ALT2_moral","practice_moral","","","","","","","","",""
"null","<span style='color:GreenYellow; font-size: 70px;'>正确! </span>","null","html-keyboard-response","19","165516","0.0-8.0-0.0-1.0-0.0-1.4","6","5","6","5","5","5","2","5","4","4","5","1","0","2","1","1","2","1","0","5","4","5","5","5","4","4","5","4","4","6","8","7","7","6","8","8","7","8","6","3","3","7","6","3","5","1","6","3","1","2","1","6","2","5","6","5","2","3","5","2","7","3","3","2","7","2","6","3","7","7","5","6","6","3","7","3","7","3","6","598925018256113664","刘","422","Male","[""好他"",""坏我"",""好我"",""坏他""]","[""强他"",""弱我"",""强我"",""弱他""]","","","","","","","","","","","","","","","","","","","","","","","","","","","","","","feedback_test","","","","","","","","",""
"876","","j","psychophysics","20","167400","0.0-8.0-0.0-1.0-0.0-0.5","6","5","6","5","5","5","2","5","4","4","5","1","0","2","1","1","2","1","0","5","4","5","5","5","4","4","5","4","4","6","8","7","7","6","8","8","7","8","6","3","3","7","6","3","5","1","6","3","1","2","1","6","2","5","6","5","2","3","5","2","7","3","3","2","7","2","6","3","7","7","5","6","6","3","7","3","7","3","6","598925018256113664","刘","422","Male","[""好他"",""坏我"",""好我"",""坏他""]","[""强他"",""弱我"",""强我"",""弱他""]","","","","","","","","nonmatch","","","","","","","","","","key","j","16.674303571428545","758.3333534223067","422.22223340729164","j","true","nonmatch","img/trapezoid.png","好他","好我","prac_ALT2_moral","practice_moral","","","","","","","","",""
"null","<span style='color:GreenYellow; font-size: 70px;'>正确! </span>","null","html-keyboard-response","21","167901","0.0-8.0-0.0-1.0-0.0-1.5","6","5","6","5","5","5","2","5","4","4","5","1","0","2","1","1","2","1","0","5","4","5","5","5","4","4","5","4","4","6","8","7","7","6","8","8","7","8","6","3","3","7","6","3","5","1","6","3","1","2","1","6","2","5","6","5","2","3","5","2","7","3","3","2","7","2","6","3","7","7","5","6","6","3","7","3","7","3","6","598925018256113664","刘","422","Male","[""好他"",""坏我"",""好我"",""坏他""]","[""强他"",""弱我"",""强我"",""弱他""]","","","","","","","","","","","","","","","","","","","","","","","","","","","","","","feedback_test","","","","","","","","",""
"871","","j","psychophysics","22","169780","0.0-8.0-0.0-1.0-0.0-0.6","6","5","6","5","5","5","2","5","4","4","5","1","0","2","1","1","2","1","0","5","4","5","5","5","4","4","5","4","4","6","8","7","7","6","8","8","7","8","6","3","3","7","6","3","5","1","6","3","1","2","1","6","2","5","6","5","2","3","5","2","7","3","3","2","7","2","6","3","7","7","5","6","6","3","7","3","7","3","6","598925018256113664","刘","422","Male","[""好他"",""坏我"",""好我"",""坏他""]","[""强他"",""弱我"",""强我"",""弱他""]","","","","","","","","nonmatch","","","","","","","","","","key","j","16.674616071428577","758.3333534223067","422.22223340729164","j","true","nonmatch","img/square.png","坏我","好他","prac_ALT2_moral","practice_moral","","","","","","","","",""
"null","<span style='color:GreenYellow; font-size: 70px;'>正确! </span>","null","html-keyboard-response","23","170283","0.0-8.0-0.0-1.0-0.0-1.6","6","5","6","5","5","5","2","5","4","4","5","1","0","2","1","1","2","1","0","5","4","5","5","5","4","4","5","4","4","6","8","7","7","6","8","8","7","8","6","3","3","7","6","3","5","1","6","3","1","2","1","6","2","5","6","5","2","3","5","2","7","3","3","2","7","2","6","3","7","7","5","6","6","3","7","3","7","3","6","598925018256113664","刘","422","Male","[""好他"",""坏我"",""好我"",""坏他""]","[""强他"",""弱我"",""强我"",""弱他""]","","","","","","","","","","","","","","","","","","","","","","","","","","","","","","feedback_test","","","","","","","","",""
"771","","j","psychophysics","24","172065","0.0-8.0-0.0-1.0-0.0-0.7","6","5","6","5","5","5","2","5","4","4","5","1","0","2","1","1","2","1","0","5","4","5","5","5","4","4","5","4","4","6","8","7","7","6","8","8","7","8","6","3","3","7","6","3","5","1","6","3","1","2","1","6","2","5","6","5","2","3","5","2","7","3","3","2","7","2","6","3","7","7","5","6","6","3","7","3","7","3","6","598925018256113664","刘","422","Male","[""好他"",""坏我"",""好我"",""坏他""]","[""强他"",""弱我"",""强我"",""弱他""]","","","","","","","","nonmatch","","","","","","","","","","key","j","16.834990476190466","758.3333534223067","422.22223340729164","f","false","match","img/hexagon.png","坏他","坏他","prac_ALT2_moral","practice_moral","","","","","","","","",""
"null","<span style='color:red; font-size: 70px;'>错误! </span>","null","html-keyboard-response","25","172571","0.0-8.0-0.0-1.0-0.0-1.7","6","5","6","5","5","5","2","5","4","4","5","1","0","2","1","1","2","1","0","5","4","5","5","5","4","4","5","4","4","6","8","7","7","6","8","8","7","8","6","3","3","7","6","3","5","1","6","3","1","2","1","6","2","5","6","5","2","3","5","2","7","3","3","2","7","2","6","3","7","7","5","6","6","3","7","3","7","3","6","598925018256113664","刘","422","Male","[""好他"",""坏我"",""好我"",""坏他""]","[""强他"",""弱我"",""强我"",""弱他""]","","","","","","","","","","","","","","","","","","","","","","","","","","","","","","feedback_test","","","","","","","","",""
"940","","f","psychophysics","26","174529","0.0-8.0-0.0-1.0-0.0-0.8","6","5","6","5","5","5","2","5","4","4","5","1","0","2","1","1","2","1","0","5","4","5","5","5","4","4","5","4","4","6","8","7","7","6","8","8","7","8","6","3","3","7","6","3","5","1","6","3","1","2","1","6","2","5","6","5","2","3","5","2","7","3","3","2","7","2","6","3","7","7","5","6","6","3","7","3","7","3","6","598925018256113664","刘","422","Male","[""好他"",""坏我"",""好我"",""坏他""]","[""强他"",""弱我"",""强我"",""弱他""]","","","","","","","","match","","","","","","","","","","key","f","16.67817241379315","758.3333534223067","422.22223340729164","j","false","nonmatch","img/hexagon.png","好他","坏他","prac_ALT2_moral","practice_moral","","","","","","","","",""
"null","<span style='color:red; font-size: 70px;'>错误! </span>","null","html-keyboard-response","27","175032","0.0-8.0-0.0-1.0-0.0-1.8","6","5","6","5","5","5","2","5","4","4","5","1","0","2","1","1","2","1","0","5","4","5","5","5","4","4","5","4","4","6","8","7","7","6","8","8","7","8","6","3","3","7","6","3","5","1","6","3","1","2","1","6","2","5","6","5","2","3","5","2","7","3","3","2","7","2","6","3","7","7","5","6","6","3","7","3","7","3","6","598925018256113664","刘","422","Male","[""好他"",""坏我"",""好我"",""坏他""]","[""强他"",""弱我"",""强我"",""弱他""]","","","","","","","","","","","","","","","","","","","","","","","","","","","","","","feedback_test","","","","","","","","",""
"933","","f","psychophysics","28","176969","0.0-8.0-0.0-1.0-0.0-0.9","6","5","6","5","5","5","2","5","4","4","5","1","0","2","1","1","2","1","0","5","4","5","5","5","4","4","5","4","4","6","8","7","7","6","8","8","7","8","6","3","3","7","6","3","5","1","6","3","1","2","1","6","2","5","6","5","2","3","5","2","7","3","3","2","7","2","6","3","7","7","5","6","6","3","7","3","7","3","6","598925018256113664","刘","422","Male","[""好他"",""坏我"",""好我"",""坏他""]","[""强他"",""弱我"",""强我"",""弱他""]","","","","","","","","match","","","","","","","","","","key","f","16.6748086956522","758.3333534223067","422.22223340729164","j","false","nonmatch","img/square.png","坏他","好他","prac_ALT2_moral","practice_moral","","","","","","","","",""
"null","<span style='color:red; font-size: 70px;'>错误! </span>","null","html-keyboard-response","29","177472","0.0-8.0-0.0-1.0-0.0-1.9","6","5","6","5","5","5","2","5","4","4","5","1","0","2","1","1","2","1","0","5","4","5","5","5","4","4","5","4","4","6","8","7","7","6","8","8","7","8","6","3","3","7","6","3","5","1","6","3","1","2","1","6","2","5","6","5","2","3","5","2","7","3","3","2","7","2","6","3","7","7","5","6","6","3","7","3","7","3","6","598925018256113664","刘","422","Male","[""好他"",""坏我"",""好我"",""坏他""]","[""强他"",""弱我"",""强我"",""弱他""]","","","","","","","","","","","","","","","","","","","","","","","","","","","","","","feedback_test","","","","","","","","",""
"961","","j","psychophysics","30","179439","0.0-8.0-0.0-1.0-0.0-0.10","6","5","6","5","5","5","2","5","4","4","5","1","0","2","1","1","2","1","0","5","4","5","5","5","4","4","5","4","4","6","8","7","7","6","8","8","7","8","6","3","3","7","6","3","5","1","6","3","1","2","1","6","2","5","6","5","2","3","5","2","7","3","3","2","7","2","6","3","7","7","5","6","6","3","7","3","7","3","6","598925018256113664","刘","422","Male","[""好他"",""坏我"",""好我"",""坏他""]","[""强他"",""弱我"",""强我"",""弱他""]","","","","","","","","nonmatch","","","","","","","","","","key","j","16.674487179487","758.3333534223067","422.22223340729164","f","false","match","img/circle.png","坏我","坏我","prac_ALT2_moral","practice_moral","","","","","","","","",""
"null","<span style='color:red; font-size: 70px;'>错误! </span>","null","html-keyboard-response","31","179943","0.0-8.0-0.0-1.0-0.0-1.10","6","5","6","5","5","5","2","5","4","4","5","1","0","2","1","1","2","1","0","5","4","5","5","5","4","4","5","4","4","6","8","7","7","6","8","8","7","8","6","3","3","7","6","3","5","1","6","3","1","2","1","6","2","5","6","5","2","3","5","2","7","3","3","2","7","2","6","3","7","7","5","6","6","3","7","3","7","3","6","598925018256113664","刘","422","Male","[""好他"",""坏我"",""好我"",""坏他""]","[""强他"",""弱我"",""强我"",""弱他""]","","","","","","","","","","","","","","","","","","","","","","","","","","","","","","feedback_test","","","","","","","","",""
"1020","","f","psychophysics","32","181966","0.0-8.0-0.0-1.0-0.0-0.11","6","5","6","5","5","5","2","5","4","4","5","1","0","2","1","1","2","1","0","5","4","5","5","5","4","4","5","4","4","6","8","7","7","6","8","8","7","8","6","3","3","7","6","3","5","1","6","3","1","2","1","6","2","5","6","5","2","3","5","2","7","3","3","2","7","2","6","3","7","7","5","6","6","3","7","3","7","3","6","598925018256113664","刘","422","Male","[""好他"",""坏我"",""好我"",""坏他""]","[""强他"",""弱我"",""强我"",""弱他""]","","","","","","","","match","","","","","","","","","","key","f","16.673566666666737","758.3333534223067","422.22223340729164","j","false","nonmatch","img/circle.png","好我","坏我","prac_ALT2_moral","practice_moral","","","","","","","","",""
"null","<span style='color:red; font-size: 70px;'>错误! </span>","null","html-keyboard-response","33","182469","0.0-8.0-0.0-1.0-0.0-1.11","6","5","6","5","5","5","2","5","4","4","5","1","0","2","1","1","2","1","0","5","4","5","5","5","4","4","5","4","4","6","8","7","7","6","8","8","7","8","6","3","3","7","6","3","5","1","6","3","1","2","1","6","2","5","6","5","2","3","5","2","7","3","3","2","7","2","6","3","7","7","5","6","6","3","7","3","7","3","6","598925018256113664","刘","422","Male","[""好他"",""坏我"",""好我"",""坏他""]","[""强他"",""弱我"",""强我"",""弱他""]","","","","","","","","","","","","","","","","","","","","","","","","","","","","","","feedback_test","","","","","","","","",""
"857","","j","psychophysics","34","184330","0.0-8.0-0.0-1.0-0.0-0.12","6","5","6","5","5","5","2","5","4","4","5","1","0","2","1","1","2","1","0","5","4","5","5","5","4","4","5","4","4","6","8","7","7","6","8","8","7","8","6","3","3","7","6","3","5","1","6","3","1","2","1","6","2","5","6","5","2","3","5","2","7","3","3","2","7","2","6","3","7","7","5","6","6","3","7","3","7","3","6","598925018256113664","刘","422","Male","[""好他"",""坏我"",""好我"",""坏他""]","[""强他"",""弱我"",""强我"",""弱他""]","","","","","","","","nonmatch","","","","","","","","","","key","j","16.676327272727345","758.3333534223067","422.22223340729164","j","true","nonmatch","img/hexagon.png","好我","坏他","prac_ALT2_moral","practice_moral","","","","","","","","",""
"null","<span style='color:GreenYellow; font-size: 70px;'>正确! </span>","null","html-keyboard-response","35","184836","0.0-8.0-0.0-1.0-0.0-1.12","6","5","6","5","5","5","2","5","4","4","5","1","0","2","1","1","2","1","0","5","4","5","5","5","4","4","5","4","4","6","8","7","7","6","8","8","7","8","6","3","3","7","6","3","5","1","6","3","1","2","1","6","2","5","6","5","2","3","5","2","7","3","3","2","7","2","6","3","7","7","5","6","6","3","7","3","7","3","6","598925018256113664","刘","422","Male","[""好他"",""坏我"",""好我"",""坏他""]","[""强他"",""弱我"",""强我"",""弱他""]","","","","","","","","","","","","","","","","","","","","","","","","","","","","","","feedback_test","","","","","","","","",""
"932","","j","psychophysics","36","186771","0.0-8.0-0.0-1.0-0.0-0.13","6","5","6","5","5","5","2","5","4","4","5","1","0","2","1","1","2","1","0","5","4","5","5","5","4","4","5","4","4","6","8","7","7","6","8","8","7","8","6","3","3","7","6","3","5","1","6","3","1","2","1","6","2","5","6","5","2","3","5","2","7","3","3","2","7","2","6","3","7","7","5","6","6","3","7","3","7","3","6","598925018256113664","刘","422","Male","[""好他"",""坏我"",""好我"",""坏他""]","[""强他"",""弱我"",""强我"",""弱他""]","","","","","","","","nonmatch","","","","","","","","","","key","j","16.67607826086966","758.3333534223067","422.22223340729164","f","false","match","img/trapezoid.png","好我","好我","prac_ALT2_moral","practice_moral","","","","","","","","",""
"null","<span style='color:red; font-size: 70px;'>错误! </span>","null","html-keyboard-response","37","187274","0.0-8.0-0.0-1.0-0.0-1.13","6","5","6","5","5","5","2","5","4","4","5","1","0","2","1","1","2","1","0","5","4","5","5","5","4","4","5","4","4","6","8","7","7","6","8","8","7","8","6","3","3","7","6","3","5","1","6","3","1","2","1","6","2","5","6","5","2","3","5","2","7","3","3","2","7","2","6","3","7","7","5","6","6","3","7","3","7","3","6","598925018256113664","刘","422","Male","[""好他"",""坏我"",""好我"",""坏他""]","[""强他"",""弱我"",""强我"",""弱他""]","","","","","","","","","","","","","","","","","","","","","","","","","","","","","","feedback_test","","","","","","","","",""
"790","","j","psychophysics","38","189068","0.0-8.0-0.0-1.0-0.0-0.14","6","5","6","5","5","5","2","5","4","4","5","1","0","2","1","1","2","1","0","5","4","5","5","5","4","4","5","4","4","6","8","7","7","6","8","8","7","8","6","3","3","7","6","3","5","1","6","3","1","2","1","6","2","5","6","5","2","3","5","2","7","3","3","2","7","2","6","3","7","7","5","6","6","3","7","3","7","3","6","598925018256113664","刘","422","Male","[""好他"",""坏我"",""好我"",""坏他""]","[""强他"",""弱我"",""强我"",""弱他""]","","","","","","","","nonmatch","","","","","","","","","","key","j","16.677485981308497","758.3333534223067","422.22223340729164","j","true","nonmatch","img/trapezoid.png","坏我","好我","prac_ALT2_moral","practice_moral","","","","","","","","",""
"null","<span style='color:GreenYellow; font-size: 70px;'>正确! </span>","null","html-keyboard-response","39","189576","0.0-8.0-0.0-1.0-0.0-1.14","6","5","6","5","5","5","2","5","4","4","5","1","0","2","1","1","2","1","0","5","4","5","5","5","4","4","5","4","4","6","8","7","7","6","8","8","7","8","6","3","3","7","6","3","5","1","6","3","1","2","1","6","2","5","6","5","2","3","5","2","7","3","3","2","7","2","6","3","7","7","5","6","6","3","7","3","7","3","6","598925018256113664","刘","422","Male","[""好他"",""坏我"",""好我"",""坏他""]","[""强他"",""弱我"",""强我"",""弱他""]","","","","","","","","","","","","","","","","","","","","","","","","","","","","","","feedback_test","","","","","","","","",""
"766","","j","psychophysics","40","191357","0.0-8.0-0.0-1.0-0.0-0.15","6","5","6","5","5","5","2","5","4","4","5","1","0","2","1","1","2","1","0","5","4","5","5","5","4","4","5","4","4","6","8","7","7","6","8","8","7","8","6","3","3","7","6","3","5","1","6","3","1","2","1","6","2","5","6","5","2","3","5","2","7","3","3","2","7","2","6","3","7","7","5","6","6","3","7","3","7","3","6","598925018256113664","刘","422","Male","[""好他"",""坏我"",""好我"",""坏他""]","[""强他"",""弱我"",""强我"",""弱他""]","","","","","","","","nonmatch","","","","","","","","","","key","j","16.675018867924766","758.3333534223067","422.22223340729164","f","false","match","img/circle.png","坏我","坏我","prac_ALT2_moral","practice_moral","","","","","","","","",""
"null","<span style='color:red; font-size: 70px;'>错误! </span>","null","html-keyboard-response","41","191860","0.0-8.0-0.0-1.0-0.0-1.15","6","5","6","5","5","5","2","5","4","4","5","1","0","2","1","1","2","1","0","5","4","5","5","5","4","4","5","4","4","6","8","7","7","6","8","8","7","8","6","3","3","7","6","3","5","1","6","3","1","2","1","6","2","5","6","5","2","3","5","2","7","3","3","2","7","2","6","3","7","7","5","6","6","3","7","3","7","3","6","598925018256113664","刘","422","Male","[""好他"",""坏我"",""好我"",""坏他""]","[""强他"",""弱我"",""强我"",""弱他""]","","","","","","","","","","","","","","","","","","","","","","","","","","","","","","feedback_test","","","","","","","","",""
"961","","j","psychophysics","42","193824","0.0-8.0-0.0-1.0-0.0-0.16","6","5","6","5","5","5","2","5","4","4","5","1","0","2","1","1","2","1","0","5","4","5","5","5","4","4","5","4","4","6","8","7","7","6","8","8","7","8","6","3","3","7","6","3","5","1","6","3","1","2","1","6","2","5","6","5","2","3","5","2","7","3","3","2","7","2","6","3","7","7","5","6","6","3","7","3","7","3","6","598925018256113664","刘","422","Male","[""好他"",""坏我"",""好我"",""坏他""]","[""强他"",""弱我"",""强我"",""弱他""]","","","","","","","","nonmatch","","","","","","","","","","key","j","16.675230769230836","758.3333534223067","422.22223340729164","j","true","nonmatch","img/square.png","好我","好他","prac_ALT2_moral","practice_moral","","","","","","","","",""
"null","<span style='color:GreenYellow; font-size: 70px;'>正确! </span>","null","html-keyboard-response","43","194328","0.0-8.0-0.0-1.0-0.0-1.16","6","5","6","5","5","5","2","5","4","4","5","1","0","2","1","1","2","1","0","5","4","5","5","5","4","4","5","4","4","6","8","7","7","6","8","8","7","8","6","3","3","7","6","3","5","1","6","3","1","2","1","6","2","5","6","5","2","3","5","2","7","3","3","2","7","2","6","3","7","7","5","6","6","3","7","3","7","3","6","598925018256113664","刘","422","Male","[""好他"",""坏我"",""好我"",""坏他""]","[""强他"",""弱我"",""强我"",""弱他""]","","","","","","","","","","","","","","","","","","","","","","","","","","","","","","feedback_test","","","","","","","","",""
"983","","j","psychophysics","44","196314","0.0-8.0-0.0-1.0-0.0-0.17","6","5","6","5","5","5","2","5","4","4","5","1","0","2","1","1","2","1","0","5","4","5","5","5","4","4","5","4","4","6","8","7","7","6","8","8","7","8","6","3","3","7","6","3","5","1","6","3","1","2","1","6","2","5","6","5","2","3","5","2","7","3","3","2","7","2","6","3","7","7","5","6","6","3","7","3","7","3","6","598925018256113664","刘","422","Male","[""好他"",""坏我"",""好我"",""坏他""]","[""强他"",""弱我"",""强我"",""弱他""]","","","","","","","","nonmatch","","","","","","","","","","key","j","16.67677118644065","758.3333534223067","422.22223340729164","f","false","match","img/square.png","好他","好他","prac_ALT2_moral","practice_moral","","","","","","","","",""
"null","<span style='color:red; font-size: 70px;'>错误! </span>","null","html-keyboard-response","45","196817","0.0-8.0-0.0-1.0-0.0-1.17","6","5","6","5","5","5","2","5","4","4","5","1","0","2","1","1","2","1","0","5","4","5","5","5","4","4","5","4","4","6","8","7","7","6","8","8","7","8","6","3","3","7","6","3","5","1","6","3","1","2","1","6","2","5","6","5","2","3","5","2","7","3","3","2","7","2","6","3","7","7","5","6","6","3","7","3","7","3","6","598925018256113664","刘","422","Male","[""好他"",""坏我"",""好我"",""坏他""]","[""强他"",""弱我"",""强我"",""弱他""]","","","","","","","","","","","","","","","","","","","","","","","","","","","","","","feedback_test","","","","","","","","",""
"842","","f","psychophysics","46","198664","0.0-8.0-0.0-1.0-0.0-0.18","6","5","6","5","5","5","2","5","4","4","5","1","0","2","1","1","2","1","0","5","4","5","5","5","4","4","5","4","4","6","8","7","7","6","8","8","7","8","6","3","3","7","6","3","5","1","6","3","1","2","1","6","2","5","6","5","2","3","5","2","7","3","3","2","7","2","6","3","7","7","5","6","6","3","7","3","7","3","6","598925018256113664","刘","422","Male","[""好他"",""坏我"",""好我"",""坏他""]","[""强他"",""弱我"",""强我"",""弱他""]","","","","","","","","match","","","","","","","","","","key","f","16.676669724770754","758.3333534223067","422.22223340729164","f","true","match","img/hexagon.png","坏他","坏他","prac_ALT2_moral","practice_moral","","","","","","","","",""
"null","<span style='color:GreenYellow; font-size: 70px;'>正确! </span>","null","html-keyboard-response","47","199168","0.0-8.0-0.0-1.0-0.0-1.18","6","5","6","5","5","5","2","5","4","4","5","1","0","2","1","1","2","1","0","5","4","5","5","5","4","4","5","4","4","6","8","7","7","6","8","8","7","8","6","3","3","7","6","3","5","1","6","3","1","2","1","6","2","5","6","5","2","3","5","2","7","3","3","2","7","2","6","3","7","7","5","6","6","3","7","3","7","3","6","598925018256113664","刘","422","Male","[""好他"",""坏我"",""好我"",""坏他""]","[""强他"",""弱我"",""强我"",""弱他""]","","","","","","","","","","","","","","","","","","","","","","","","","","","","","","feedback_test","","","","","","","","",""
"848","","j","psychophysics","48","201021","0.0-8.0-0.0-1.0-0.0-0.19","6","5","6","5","5","5","2","5","4","4","5","1","0","2","1","1","2","1","0","5","4","5","5","5","4","4","5","4","4","6","8","7","7","6","8","8","7","8","6","3","3","7","6","3","5","1","6","3","1","2","1","6","2","5","6","5","2","3","5","2","7","3","3","2","7","2","6","3","7","7","5","6","6","3","7","3","7","3","6","598925018256113664","刘","422","Male","[""好他"",""坏我"",""好我"",""坏他""]","[""强他"",""弱我"",""强我"",""弱他""]","","","","","","","","nonmatch","","","","","","","","","","key","j","16.67938532110105","758.3333534223067","422.22223340729164","j","true","nonmatch","img/circle.png","好他","坏我","prac_ALT2_moral","practice_moral","","","","","","","","",""
"null","<span style='color:GreenYellow; font-size: 70px;'>正确! </span>","null","html-keyboard-response","49","201524","0.0-8.0-0.0-1.0-0.0-1.19","6","5","6","5","5","5","2","5","4","4","5","1","0","2","1","1","2","1","0","5","4","5","5","5","4","4","5","4","4","6","8","7","7","6","8","8","7","8","6","3","3","7","6","3","5","1","6","3","1","2","1","6","2","5","6","5","2","3","5","2","7","3","3","2","7","2","6","3","7","7","5","6","6","3","7","3","7","3","6","598925018256113664","刘","422","Male","[""好他"",""坏我"",""好我"",""坏他""]","[""强他"",""弱我"",""强我"",""弱他""]","","","","","","","","","","","","","","","","","","","","","","","","","","","","","","feedback_test","","","","","","","","",""
"822","","j","psychophysics","50","203350","0.0-8.0-0.0-1.0-0.0-0.20","6","5","6","5","5","5","2","5","4","4","5","1","0","2","1","1","2","1","0","5","4","5","5","5","4","4","5","4","4","6","8","7","7","6","8","8","7","8","6","3","3","7","6","3","5","1","6","3","1","2","1","6","2","5","6","5","2","3","5","2","7","3","3","2","7","2","6","3","7","7","5","6","6","3","7","3","7","3","6","598925018256113664","刘","422","Male","[""好他"",""坏我"",""好我"",""坏他""]","[""强他"",""弱我"",""强我"",""弱他""]","","","","","","","","nonmatch","","","","","","","","","","key","j","16.674324074074253","758.3333534223067","422.22223340729164","f","false","match","img/circle.png","坏我","坏我","prac_ALT2_moral","practice_moral","","","","","","","","",""
"null","<span style='color:red; font-size: 70px;'>错误! </span>","null","html-keyboard-response","51","203851","0.0-8.0-0.0-1.0-0.0-1.20","6","5","6","5","5","5","2","5","4","4","5","1","0","2","1","1","2","1","0","5","4","5","5","5","4","4","5","4","4","6","8","7","7","6","8","8","7","8","6","3","3","7","6","3","5","1","6","3","1","2","1","6","2","5","6","5","2","3","5","2","7","3","3","2","7","2","6","3","7","7","5","6","6","3","7","3","7","3","6","598925018256113664","刘","422","Male","[""好他"",""坏我"",""好我"",""坏他""]","[""强他"",""弱我"",""强我"",""弱他""]","","","","","","","","","","","","","","","","","","","","","","","","","","","","","","feedback_test","","","","","","","","",""
"809","","f","psychophysics","52","205670","0.0-8.0-0.0-1.0-0.0-0.21","6","5","6","5","5","5","2","5","4","4","5","1","0","2","1","1","2","1","0","5","4","5","5","5","4","4","5","4","4","6","8","7","7","6","8","8","7","8","6","3","3","7","6","3","5","1","6","3","1","2","1","6","2","5","6","5","2","3","5","2","7","3","3","2","7","2","6","3","7","7","5","6","6","3","7","3","7","3","6","598925018256113664","刘","422","Male","[""好他"",""坏我"",""好我"",""坏他""]","[""强他"",""弱我"",""强我"",""弱他""]","","","","","","","","match","","","","","","","","","","key","f","16.675935185185086","758.3333534223067","422.22223340729164","f","true","match","img/trapezoid.png","好我","好我","prac_ALT2_moral","practice_moral","","","","","","","","",""
"null","<span style='color:GreenYellow; font-size: 70px;'>正确! </span>","null","html-keyboard-response","53","206174","0.0-8.0-0.0-1.0-0.0-1.21","6","5","6","5","5","5","2","5","4","4","5","1","0","2","1","1","2","1","0","5","4","5","5","5","4","4","5","4","4","6","8","7","7","6","8","8","7","8","6","3","3","7","6","3","5","1","6","3","1","2","1","6","2","5","6","5","2","3","5","2","7","3","3","2","7","2","6","3","7","7","5","6","6","3","7","3","7","3","6","598925018256113664","刘","422","Male","[""好他"",""坏我"",""好我"",""坏他""]","[""强他"",""弱我"",""强我"",""弱他""]","","","","","","","","","","","","","","","","","","","","","","","","","","","","","","feedback_test","","","","","","","","",""
"928","","f","psychophysics","54","208107","0.0-8.0-0.0-1.0-0.0-0.22","6","5","6","5","5","5","2","5","4","4","5","1","0","2","1","1","2","1","0","5","4","5","5","5","4","4","5","4","4","6","8","7","7","6","8","8","7","8","6","3","3","7","6","3","5","1","6","3","1","2","1","6","2","5","6","5","2","3","5","2","7","3","3","2","7","2","6","3","7","7","5","6","6","3","7","3","7","3","6","598925018256113664","刘","422","Male","[""好他"",""坏我"",""好我"",""坏他""]","[""强他"",""弱我"",""强我"",""弱他""]","","","","","","","","match","","","","","","","","","","key","f","16.67828070175433","758.3333534223067","422.22223340729164","f","true","match","img/square.png","好他","好他","prac_ALT2_moral","practice_moral","","","","","","","","",""
"null","<span style='color:GreenYellow; font-size: 70px;'>正确! </span>","null","html-keyboard-response","55","208610","0.0-8.0-0.0-1.0-0.0-1.22","6","5","6","5","5","5","2","5","4","4","5","1","0","2","1","1","2","1","0","5","4","5","5","5","4","4","5","4","4","6","8","7","7","6","8","8","7","8","6","3","3","7","6","3","5","1","6","3","1","2","1","6","2","5","6","5","2","3","5","2","7","3","3","2","7","2","6","3","7","7","5","6","6","3","7","3","7","3","6","598925018256113664","刘","422","Male","[""好他"",""坏我"",""好我"",""坏他""]","[""强他"",""弱我"",""强我"",""弱他""]","","","","","","","","","","","","","","","","","","","","","","","","","","","","","","feedback_test","","","","","","","","",""
"810","","f","psychophysics","56","210427","0.0-8.0-0.0-1.0-0.0-0.23","6","5","6","5","5","5","2","5","4","4","5","1","0","2","1","1","2","1","0","5","4","5","5","5","4","4","5","4","4","6","8","7","7","6","8","8","7","8","6","3","3","7","6","3","5","1","6","3","1","2","1","6","2","5","6","5","2","3","5","2","7","3","3","2","7","2","6","3","7","7","5","6","6","3","7","3","7","3","6","598925018256113664","刘","422","Male","[""好他"",""坏我"",""好我"",""坏他""]","[""强他"",""弱我"",""强我"",""弱他""]","","","","","","","","match","","","","","","","","","","key","f","16.676629629629637","758.3333534223067","422.22223340729164","f","true","match","img/trapezoid.png","好我","好我","prac_ALT2_moral","practice_moral","","","","","","","","",""
"null","<span style='color:GreenYellow; font-size: 70px;'>正确! </span>","null","html-keyboard-response","57","210932","0.0-8.0-0.0-1.0-0.0-1.23","6","5","6","5","5","5","2","5","4","4","5","1","0","2","1","1","2","1","0","5","4","5","5","5","4","4","5","4","4","6","8","7","7","6","8","8","7","8","6","3","3","7","6","3","5","1","6","3","1","2","1","6","2","5","6","5","2","3","5","2","7","3","3","2","7","2","6","3","7","7","5","6","6","3","7","3","7","3","6","598925018256113664","刘","422","Male","[""好他"",""坏我"",""好我"",""坏他""]","[""强他"",""弱我"",""强我"",""弱他""]","","","","","","","","","","","","","","","","","","","","","","","","","","","","","","feedback_test","","","","","","","","",""
"815","","f","psychophysics","58","212753","0.0-8.0-0.0-1.0-0.0-0.24","6","5","6","5","5","5","2","5","4","4","5","1","0","2","1","1","2","1","0","5","4","5","5","5","4","4","5","4","4","6","8","7","7","6","8","8","7","8","6","3","3","7","6","3","5","1","6","3","1","2","1","6","2","5","6","5","2","3","5","2","7","3","3","2","7","2","6","3","7","7","5","6","6","3","7","3","7","3","6","598925018256113664","刘","422","Male","[""好他"",""坏我"",""好我"",""坏他""]","[""强他"",""弱我"",""强我"",""弱他""]","","","","","","","","match","","","","","","","","","","key","f","16.6754629629628","758.3333534223067","422.22223340729164","f","true","match","img/square.png","好他","好他","prac_ALT2_moral","practice_moral","","","","","","","","",""
"null","<span style='color:GreenYellow; font-size: 70px;'>正确! </span>","null","html-keyboard-response","59","213256","0.0-8.0-0.0-1.0-0.0-1.24","6","5","6","5","5","5","2","5","4","4","5","1","0","2","1","1","2","1","0","5","4","5","5","5","4","4","5","4","4","6","8","7","7","6","8","8","7","8","6","3","3","7","6","3","5","1","6","3","1","2","1","6","2","5","6","5","2","3","5","2","7","3","3","2","7","2","6","3","7","7","5","6","6","3","7","3","7","3","6","598925018256113664","刘","422","Male","[""好他"",""坏我"",""好我"",""坏他""]","[""强他"",""弱我"",""强我"",""弱他""]","","","","","","","","","","","","","","","","","","","","","","","","","","","","","","feedback_test","","","","","","","","",""
"812","","f","psychophysics","60","215080","0.0-8.0-0.0-1.0-0.0-0.25","6","5","6","5","5","5","2","5","4","4","5","1","0","2","1","1","2","1","0","5","4","5","5","5","4","4","5","4","4","6","8","7","7","6","8","8","7","8","6","3","3","7","6","3","5","1","6","3","1","2","1","6","2","5","6","5","2","3","5","2","7","3","3","2","7","2","6","3","7","7","5","6","6","3","7","3","7","3","6","598925018256113664","刘","422","Male","[""好他"",""坏我"",""好我"",""坏他""]","[""强他"",""弱我"",""强我"",""弱他""]","","","","","","","","match","","","","","","","","","","key","f","16.668907407407392","758.3333534223067","422.22223340729164","f","true","match","img/hexagon.png","坏他","坏他","prac_ALT2_moral","practice_moral","","","","","","","","",""
"null","<span style='color:GreenYellow; font-size: 70px;'>正确! </span>","null","html-keyboard-response","61","215583","0.0-8.0-0.0-1.0-0.0-1.25","6","5","6","5","5","5","2","5","4","4","5","1","0","2","1","1","2","1","0","5","4","5","5","5","4","4","5","4","4","6","8","7","7","6","8","8","7","8","6","3","3","7","6","3","5","1","6","3","1","2","1","6","2","5","6","5","2","3","5","2","7","3","3","2","7","2","6","3","7","7","5","6","6","3","7","3","7","3","6","598925018256113664","刘","422","Male","[""好他"",""坏我"",""好我"",""坏他""]","[""强他"",""弱我"",""强我"",""弱他""]","","","","","","","","","","","","","","","","","","","","","","","","","","","","","","feedback_test","","","","","","","","",""
"811","","j","psychophysics","62","217402","0.0-8.0-0.0-1.0-0.0-0.26","6","5","6","5","5","5","2","5","4","4","5","1","0","2","1","1","2","1","0","5","4","5","5","5","4","4","5","4","4","6","8","7","7","6","8","8","7","8","6","3","3","7","6","3","5","1","6","3","1","2","1","6","2","5","6","5","2","3","5","2","7","3","3","2","7","2","6","3","7","7","5","6","6","3","7","3","7","3","6","598925018256113664","刘","422","Male","[""好他"",""坏我"",""好我"",""坏他""]","[""强他"",""弱我"",""强我"",""弱他""]","","","","","","","","nonmatch","","","","","","","","","","key","j","16.674925925926125","758.3333534223067","422.22223340729164","j","true","nonmatch","img/square.png","坏我","好他","prac_ALT2_moral","practice_moral","","","","","","","","",""
"null","<span style='color:GreenYellow; font-size: 70px;'>正确! </span>","null","html-keyboard-response","63","217905","0.0-8.0-0.0-1.0-0.0-1.26","6","5","6","5","5","5","2","5","4","4","5","1","0","2","1","1","2","1","0","5","4","5","5","5","4","4","5","4","4","6","8","7","7","6","8","8","7","8","6","3","3","7","6","3","5","1","6","3","1","2","1","6","2","5","6","5","2","3","5","2","7","3","3","2","7","2","6","3","7","7","5","6","6","3","7","3","7","3","6","598925018256113664","刘","422","Male","[""好他"",""坏我"",""好我"",""坏他""]","[""强他"",""弱我"",""强我"",""弱他""]","","","","","","","","","","","","","","","","","","","","","","","","","","","","","","feedback_test","","","","","","","","",""
"864","","f","psychophysics","64","219772","0.0-8.0-0.0-1.0-0.0-0.27","6","5","6","5","5","5","2","5","4","4","5","1","0","2","1","1","2","1","0","5","4","5","5","5","4","4","5","4","4","6","8","7","7","6","8","8","7","8","6","3","3","7","6","3","5","1","6","3","1","2","1","6","2","5","6","5","2","3","5","2","7","3","3","2","7","2","6","3","7","7","5","6","6","3","7","3","7","3","6","598925018256113664","刘","422","Male","[""好他"",""坏我"",""好我"",""坏他""]","[""强他"",""弱我"",""强我"",""弱他""]","","","","","","","","match","","","","","","","","","","key","f","16.677045045045062","758.3333534223067","422.22223340729164","f","true","match","img/hexagon.png","坏他","坏他","prac_ALT2_moral","practice_moral","","","","","","","","",""
"null","<span style='color:GreenYellow; font-size: 70px;'>正确! </span>","null","html-keyboard-response","65","220274","0.0-8.0-0.0-1.0-0.0-1.27","6","5","6","5","5","5","2","5","4","4","5","1","0","2","1","1","2","1","0","5","4","5","5","5","4","4","5","4","4","6","8","7","7","6","8","8","7","8","6","3","3","7","6","3","5","1","6","3","1","2","1","6","2","5","6","5","2","3","5","2","7","3","3","2","7","2","6","3","7","7","5","6","6","3","7","3","7","3","6","598925018256113664","刘","422","Male","[""好他"",""坏我"",""好我"",""坏他""]","[""强他"",""弱我"",""强我"",""弱他""]","","","","","","","","","","","","","","","","","","","","","","","","","","","","","","feedback_test","","","","","","","","",""
"807","","j","psychophysics","66","222093","0.0-8.0-0.0-1.0-0.0-0.28","6","5","6","5","5","5","2","5","4","4","5","1","0","2","1","1","2","1","0","5","4","5","5","5","4","4","5","4","4","6","8","7","7","6","8","8","7","8","6","3","3","7","6","3","5","1","6","3","1","2","1","6","2","5","6","5","2","3","5","2","7","3","3","2","7","2","6","3","7","7","5","6","6","3","7","3","7","3","6","598925018256113664","刘","422","Male","[""好他"",""坏我"",""好我"",""坏他""]","[""强他"",""弱我"",""强我"",""弱他""]","","","","","","","","nonmatch","","","","","","","","","","key","j","16.67636111111103","758.3333534223067","422.22223340729164","j","true","nonmatch","img/trapezoid.png","坏他","好我","prac_ALT2_moral","practice_moral","","","","","","","","",""
"null","<span style='color:GreenYellow; font-size: 70px;'>正确! </span>","null","html-keyboard-response","67","222596","0.0-8.0-0.0-1.0-0.0-1.28","6","5","6","5","5","5","2","5","4","4","5","1","0","2","1","1","2","1","0","5","4","5","5","5","4","4","5","4","4","6","8","7","7","6","8","8","7","8","6","3","3","7","6","3","5","1","6","3","1","2","1","6","2","5","6","5","2","3","5","2","7","3","3","2","7","2","6","3","7","7","5","6","6","3","7","3","7","3","6","598925018256113664","刘","422","Male","[""好他"",""坏我"",""好我"",""坏他""]","[""强他"",""弱我"",""强我"",""弱他""]","","","","","","","","","","","","","","","","","","","","","","","","","","","","","","feedback_test","","","","","","","","",""
"903","","f","psychophysics","68","224505","0.0-8.0-0.0-1.0-0.0-0.29","6","5","6","5","5","5","2","5","4","4","5","1","0","2","1","1","2","1","0","5","4","5","5","5","4","4","5","4","4","6","8","7","7","6","8","8","7","8","6","3","3","7","6","3","5","1","6","3","1","2","1","6","2","5","6","5","2","3","5","2","7","3","3","2","7","2","6","3","7","7","5","6","6","3","7","3","7","3","6","598925018256113664","刘","422","Male","[""好他"",""坏我"",""好我"",""坏他""]","[""强他"",""弱我"",""强我"",""弱他""]","","","","","","","","match","","","","","","","","","","key","f","16.67699999999994","758.3333534223067","422.22223340729164","f","true","match","img/circle.png","坏我","坏我","prac_ALT2_moral","practice_moral","","","","","","","","",""
"null","<span style='color:GreenYellow; font-size: 70px;'>正确! </span>","null","html-keyboard-response","69","225009","0.0-8.0-0.0-1.0-0.0-1.29","6","5","6","5","5","5","2","5","4","4","5","1","0","2","1","1","2","1","0","5","4","5","5","5","4","4","5","4","4","6","8","7","7","6","8","8","7","8","6","3","3","7","6","3","5","1","6","3","1","2","1","6","2","5","6","5","2","3","5","2","7","3","3","2","7","2","6","3","7","7","5","6","6","3","7","3","7","3","6","598925018256113664","刘","422","Male","[""好他"",""坏我"",""好我"",""坏他""]","[""强他"",""弱我"",""强我"",""弱他""]","","","","","","","","","","","","","","","","","","","","","","","","","","","","","","feedback_test","","","","","","","","",""
"728","","j","psychophysics","70","226740","0.0-8.0-0.0-1.0-0.0-0.30","6","5","6","5","5","5","2","5","4","4","5","1","0","2","1","1","2","1","0","5","4","5","5","5","4","4","5","4","4","6","8","7","7","6","8","8","7","8","6","3","3","7","6","3","5","1","6","3","1","2","1","6","2","5","6","5","2","3","5","2","7","3","3","2","7","2","6","3","7","7","5","6","6","3","7","3","7","3","6","598925018256113664","刘","422","Male","[""好他"",""坏我"",""好我"",""坏他""]","[""强他"",""弱我"",""强我"",""弱他""]","","","","","","","","nonmatch","","","","","","","","","","key","j","16.677834951456408","758.3333534223067","422.22223340729164","j","true","nonmatch","img/circle.png","坏他","坏我","prac_ALT2_moral","practice_moral","","","","","","","","",""
"null","<span style='color:GreenYellow; font-size: 70px;'>正确! </span>","null","html-keyboard-response","71","227243","0.0-8.0-0.0-1.0-0.0-1.30","6","5","6","5","5","5","2","5","4","4","5","1","0","2","1","1","2","1","0","5","4","5","5","5","4","4","5","4","4","6","8","7","7","6","8","8","7","8","6","3","3","7","6","3","5","1","6","3","1","2","1","6","2","5","6","5","2","3","5","2","7","3","3","2","7","2","6","3","7","7","5","6","6","3","7","3","7","3","6","598925018256113664","刘","422","Male","[""好他"",""坏我"",""好我"",""坏他""]","[""强他"",""弱我"",""强我"",""弱他""]","","","","","","","","","","","","","","","","","","","","","","","","","","","","","","feedback_test","","","","","","","","",""
"771","","f","psychophysics","72","229020","0.0-8.0-0.0-1.0-0.0-0.31","6","5","6","5","5","5","2","5","4","4","5","1","0","2","1","1","2","1","0","5","4","5","5","5","4","4","5","4","4","6","8","7","7","6","8","8","7","8","6","3","3","7","6","3","5","1","6","3","1","2","1","6","2","5","6","5","2","3","5","2","7","3","3","2","7","2","6","3","7","7","5","6","6","3","7","3","7","3","6","598925018256113664","刘","422","Male","[""好他"",""坏我"",""好我"",""坏他""]","[""强他"",""弱我"",""强我"",""弱他""]","","","","","","","","match","","","","","","","","","","key","f","16.67610476190485","758.3333534223067","422.22223340729164","f","true","match","img/trapezoid.png","好我","好我","prac_ALT2_moral","practice_moral","","","","","","","","",""
"null","<span style='color:GreenYellow; font-size: 70px;'>正确! </span>","null","html-keyboard-response","73","229522","0.0-8.0-0.0-1.0-0.0-1.31","6","5","6","5","5","5","2","5","4","4","5","1","0","2","1","1","2","1","0","5","4","5","5","5","4","4","5","4","4","6","8","7","7","6","8","8","7","8","6","3","3","7","6","3","5","1","6","3","1","2","1","6","2","5","6","5","2","3","5","2","7","3","3","2","7","2","6","3","7","7","5","6","6","3","7","3","7","3","6","598925018256113664","刘","422","Male","[""好他"",""坏我"",""好我"",""坏他""]","[""强他"",""弱我"",""强我"",""弱他""]","","","","","","","","","","","","","","","","","","","","","","","","","","","","","","feedback_test","","","","","","","","",""
"730","","f","psychophysics","74","231263","0.0-8.0-0.0-1.0-0.0-0.32","6","5","6","5","5","5","2","5","4","4","5","1","0","2","1","1","2","1","0","5","4","5","5","5","4","4","5","4","4","6","8","7","7","6","8","8","7","8","6","3","3","7","6","3","5","1","6","3","1","2","1","6","2","5","6","5","2","3","5","2","7","3","3","2","7","2","6","3","7","7","5","6","6","3","7","3","7","3","6","598925018256113664","刘","422","Male","[""好他"",""坏我"",""好我"",""坏他""]","[""强他"",""弱我"",""强我"",""弱他""]","","","","","","","","match","","","","","","","","","","key","f","16.67511650485448","758.3333534223067","422.22223340729164","f","true","match","img/square.png","好他","好他","prac_ALT2_moral","practice_moral","","","","","","","","",""
"null","<span style='color:GreenYellow; font-size: 70px;'>正确! </span>","null","html-keyboard-response","75","231772","0.0-8.0-0.0-1.0-0.0-1.32","6","5","6","5","5","5","2","5","4","4","5","1","0","2","1","1","2","1","0","5","4","5","5","5","4","4","5","4","4","6","8","7","7","6","8","8","7","8","6","3","3","7","6","3","5","1","6","3","1","2","1","6","2","5","6","5","2","3","5","2","7","3","3","2","7","2","6","3","7","7","5","6","6","3","7","3","7","3","6","598925018256113664","刘","422","Male","[""好他"",""坏我"",""好我"",""坏他""]","[""强他"",""弱我"",""强我"",""弱他""]","","","","","","","","","","","","","","","","","","","","","","","","","","","","","","feedback_test","","","","","","","","",""
"721","","j","psychophysics","76","233501","0.0-8.0-0.0-1.0-0.0-0.33","6","5","6","5","5","5","2","5","4","4","5","1","0","2","1","1","2","1","0","5","4","5","5","5","4","4","5","4","4","6","8","7","7","6","8","8","7","8","6","3","3","7","6","3","5","1","6","3","1","2","1","6","2","5","6","5","2","3","5","2","7","3","3","2","7","2","6","3","7","7","5","6","6","3","7","3","7","3","6","598925018256113664","刘","422","Male","[""好他"",""坏我"",""好我"",""坏他""]","[""强他"",""弱我"",""强我"",""弱他""]","","","","","","","","nonmatch","","","","","","","","","","key","j","16.674294117646973","758.3333534223067","422.22223340729164","f","false","match","img/circle.png","坏我","坏我","prac_ALT2_moral","practice_moral","","","","","","","","",""
"null","<span style='color:red; font-size: 70px;'>错误! </span>","null","html-keyboard-response","77","234004","0.0-8.0-0.0-1.0-0.0-1.33","6","5","6","5","5","5","2","5","4","4","5","1","0","2","1","1","2","1","0","5","4","5","5","5","4","4","5","4","4","6","8","7","7","6","8","8","7","8","6","3","3","7","6","3","5","1","6","3","1","2","1","6","2","5","6","5","2","3","5","2","7","3","3","2","7","2","6","3","7","7","5","6","6","3","7","3","7","3","6","598925018256113664","刘","422","Male","[""好他"",""坏我"",""好我"",""坏他""]","[""强他"",""弱我"",""强我"",""弱他""]","","","","","","","","","","","","","","","","","","","","","","","","","","","","","","feedback_test","","","","","","","","",""
"787","","f","psychophysics","78","235794","0.0-8.0-0.0-1.0-0.0-0.34","6","5","6","5","5","5","2","5","4","4","5","1","0","2","1","1","2","1","0","5","4","5","5","5","4","4","5","4","4","6","8","7","7","6","8","8","7","8","6","3","3","7","6","3","5","1","6","3","1","2","1","6","2","5","6","5","2","3","5","2","7","3","3","2","7","2","6","3","7","7","5","6","6","3","7","3","7","3","6","598925018256113664","刘","422","Male","[""好他"",""坏我"",""好我"",""坏他""]","[""强他"",""弱我"",""强我"",""弱他""]","","","","","","","","match","","","","","","","","","","key","f","16.674990566037728","758.3333534223067","422.22223340729164","f","true","match","img/trapezoid.png","好我","好我","prac_ALT2_moral","practice_moral","","","","","","","","",""
"null","<span style='color:GreenYellow; font-size: 70px;'>正确! </span>","null","html-keyboard-response","79","236298","0.0-8.0-0.0-1.0-0.0-1.34","6","5","6","5","5","5","2","5","4","4","5","1","0","2","1","1","2","1","0","5","4","5","5","5","4","4","5","4","4","6","8","7","7","6","8","8","7","8","6","3","3","7","6","3","5","1","6","3","1","2","1","6","2","5","6","5","2","3","5","2","7","3","3","2","7","2","6","3","7","7","5","6","6","3","7","3","7","3","6","598925018256113664","刘","422","Male","[""好他"",""坏我"",""好我"",""坏他""]","[""强他"",""弱我"",""强我"",""弱他""]","","","","","","","","","","","","","","","","","","","","","","","","","","","","","","feedback_test","","","","","","","","",""
"714","","j","psychophysics","80","238017","0.0-8.0-0.0-1.0-0.0-0.35","6","5","6","5","5","5","2","5","4","4","5","1","0","2","1","1","2","1","0","5","4","5","5","5","4","4","5","4","4","6","8","7","7","6","8","8","7","8","6","3","3","7","6","3","5","1","6","3","1","2","1","6","2","5","6","5","2","3","5","2","7","3","3","2","7","2","6","3","7","7","5","6","6","3","7","3","7","3","6","598925018256113664","刘","422","Male","[""好他"",""坏我"",""好我"",""坏他""]","[""强他"",""弱我"",""强我"",""弱他""]","","","","","","","","nonmatch","","","","","","","","","","key","j","16.67691176470601","758.3333534223067","422.22223340729164","j","true","nonmatch","img/circle.png","好我","坏我","prac_ALT2_moral","practice_moral","","","","","","","","",""
"null","<span style='color:GreenYellow; font-size: 70px;'>正确! </span>","null","html-keyboard-response","81","238520","0.0-8.0-0.0-1.0-0.0-1.35","6","5","6","5","5","5","2","5","4","4","5","1","0","2","1","1","2","1","0","5","4","5","5","5","4","4","5","4","4","6","8","7","7","6","8","8","7","8","6","3","3","7","6","3","5","1","6","3","1","2","1","6","2","5","6","5","2","3","5","2","7","3","3","2","7","2","6","3","7","7","5","6","6","3","7","3","7","3","6","598925018256113664","刘","422","Male","[""好他"",""坏我"",""好我"",""坏他""]","[""强他"",""弱我"",""强我"",""弱他""]","","","","","","","","","","","","","","","","","","","","","","","","","","","","","","feedback_test","","","","","","","","",""
"886","","j","psychophysics","82","240408","0.0-8.0-0.0-1.0-0.0-0.36","6","5","6","5","5","5","2","5","4","4","5","1","0","2","1","1","2","1","0","5","4","5","5","5","4","4","5","4","4","6","8","7","7","6","8","8","7","8","6","3","3","7","6","3","5","1","6","3","1","2","1","6","2","5","6","5","2","3","5","2","7","3","3","2","7","2","6","3","7","7","5","6","6","3","7","3","7","3","6","598925018256113664","刘","422","Male","[""好他"",""坏我"",""好我"",""坏他""]","[""强他"",""弱我"",""强我"",""弱他""]","","","","","","","","nonmatch","","","","","","","","","","key","j","16.674517857142877","758.3333534223067","422.22223340729164","j","true","nonmatch","img/trapezoid.png","坏我","好我","prac_ALT2_moral","practice_moral","","","","","","","","",""
"null","<span style='color:GreenYellow; font-size: 70px;'>正确! </span>","null","html-keyboard-response","83","240909","0.0-8.0-0.0-1.0-0.0-1.36","6","5","6","5","5","5","2","5","4","4","5","1","0","2","1","1","2","1","0","5","4","5","5","5","4","4","5","4","4","6","8","7","7","6","8","8","7","8","6","3","3","7","6","3","5","1","6","3","1","2","1","6","2","5","6","5","2","3","5","2","7","3","3","2","7","2","6","3","7","7","5","6","6","3","7","3","7","3","6","598925018256113664","刘","422","Male","[""好他"",""坏我"",""好我"",""坏他""]","[""强他"",""弱我"",""强我"",""弱他""]","","","","","","","","","","","","","","","","","","","","","","","","","","","","","","feedback_test","","","","","","","","",""
"743","","j","psychophysics","84","242655","0.0-8.0-0.0-1.0-0.0-0.37","6","5","6","5","5","5","2","5","4","4","5","1","0","2","1","1","2","1","0","5","4","5","5","5","4","4","5","4","4","6","8","7","7","6","8","8","7","8","6","3","3","7","6","3","5","1","6","3","1","2","1","6","2","5","6","5","2","3","5","2","7","3","3","2","7","2","6","3","7","7","5","6","6","3","7","3","7","3","6","598925018256113664","刘","422","Male","[""好他"",""坏我"",""好我"",""坏他""]","[""强他"",""弱我"",""强我"",""弱他""]","","","","","","","","nonmatch","","","","","","","","","","key","j","16.676854368931902","758.3333534223067","422.22223340729164","j","true","nonmatch","img/hexagon.png","坏我","坏他","prac_ALT2_moral","practice_moral","","","","","","","","",""
"null","<span style='color:GreenYellow; font-size: 70px;'>正确! </span>","null","html-keyboard-response","85","243168","0.0-8.0-0.0-1.0-0.0-1.37","6","5","6","5","5","5","2","5","4","4","5","1","0","2","1","1","2","1","0","5","4","5","5","5","4","4","5","4","4","6","8","7","7","6","8","8","7","8","6","3","3","7","6","3","5","1","6","3","1","2","1","6","2","5","6","5","2","3","5","2","7","3","3","2","7","2","6","3","7","7","5","6","6","3","7","3","7","3","6","598925018256113664","刘","422","Male","[""好他"",""坏我"",""好我"",""坏他""]","[""强他"",""弱我"",""强我"",""弱他""]","","","","","","","","","","","","","","","","","","","","","","","","","","","","","","feedback_test","","","","","","","","",""
"603","","f","psychophysics","86","244782","0.0-8.0-0.0-1.0-0.0-0.38","6","5","6","5","5","5","2","5","4","4","5","1","0","2","1","1","2","1","0","5","4","5","5","5","4","4","5","4","4","6","8","7","7","6","8","8","7","8","6","3","3","7","6","3","5","1","6","3","1","2","1","6","2","5","6","5","2","3","5","2","7","3","3","2","7","2","6","3","7","7","5","6","6","3","7","3","7","3","6","598925018256113664","刘","422","Male","[""好他"",""坏我"",""好我"",""坏他""]","[""强他"",""弱我"",""强我"",""弱他""]","","","","","","","","match","","","","","","","","","","key","f","16.67499999999988","758.3333534223067","422.22223340729164","f","true","match","img/hexagon.png","坏他","坏他","prac_ALT2_moral","practice_moral","","","","","","","","",""
"null","<span style='color:GreenYellow; font-size: 70px;'>正确! </span>","null","html-keyboard-response","87","245284","0.0-8.0-0.0-1.0-0.0-1.38","6","5","6","5","5","5","2","5","4","4","5","1","0","2","1","1","2","1","0","5","4","5","5","5","4","4","5","4","4","6","8","7","7","6","8","8","7","8","6","3","3","7","6","3","5","1","6","3","1","2","1","6","2","5","6","5","2","3","5","2","7","3","3","2","7","2","6","3","7","7","5","6","6","3","7","3","7","3","6","598925018256113664","刘","422","Male","[""好他"",""坏我"",""好我"",""坏他""]","[""强他"",""弱我"",""强我"",""弱他""]","","","","","","","","","","","","","","","","","","","","","","","","","","","","","","feedback_test","","","","","","","","",""
"791","","j","psychophysics","88","247079","0.0-8.0-0.0-1.0-0.0-0.39","6","5","6","5","5","5","2","5","4","4","5","1","0","2","1","1","2","1","0","5","4","5","5","5","4","4","5","4","4","6","8","7","7","6","8","8","7","8","6","3","3","7","6","3","5","1","6","3","1","2","1","6","2","5","6","5","2","3","5","2","7","3","3","2","7","2","6","3","7","7","5","6","6","3","7","3","7","3","6","598925018256113664","刘","422","Male","[""好他"",""坏我"",""好我"",""坏他""]","[""强他"",""弱我"",""强我"",""弱他""]","","","","","","","","nonmatch","","","","","","","","","","key","j","16.67590654205621","758.3333534223067","422.22223340729164","j","true","nonmatch","img/square.png","好我","好他","prac_ALT2_moral","practice_moral","","","","","","","","",""
"null","<span style='color:GreenYellow; font-size: 70px;'>正确! </span>","null","html-keyboard-response","89","247594","0.0-8.0-0.0-1.0-0.0-1.39","6","5","6","5","5","5","2","5","4","4","5","1","0","2","1","1","2","1","0","5","4","5","5","5","4","4","5","4","4","6","8","7","7","6","8","8","7","8","6","3","3","7","6","3","5","1","6","3","1","2","1","6","2","5","6","5","2","3","5","2","7","3","3","2","7","2","6","3","7","7","5","6","6","3","7","3","7","3","6","598925018256113664","刘","422","Male","[""好他"",""坏我"",""好我"",""坏他""]","[""强他"",""弱我"",""强我"",""弱他""]","","","","","","","","","","","","","","","","","","","","","","","","","","","","","","feedback_test","","","","","","","","",""
"858","","f","psychophysics","90","249456","0.0-8.0-0.0-1.0-0.0-0.40","6","5","6","5","5","5","2","5","4","4","5","1","0","2","1","1","2","1","0","5","4","5","5","5","4","4","5","4","4","6","8","7","7","6","8","8","7","8","6","3","3","7","6","3","5","1","6","3","1","2","1","6","2","5","6","5","2","3","5","2","7","3","3","2","7","2","6","3","7","7","5","6","6","3","7","3","7","3","6","598925018256113664","刘","422","Male","[""好他"",""坏我"",""好我"",""坏他""]","[""强他"",""弱我"",""强我"",""弱他""]","","","","","","","","match","","","","","","","","","","key","f","16.674609090909044","758.3333534223067","422.22223340729164","f","true","match","img/circle.png","坏我","坏我","prac_ALT2_moral","practice_moral","","","","","","","","",""
"null","<span style='color:GreenYellow; font-size: 70px;'>正确! </span>","null","html-keyboard-response","91","249958","0.0-8.0-0.0-1.0-0.0-1.40","6","5","6","5","5","5","2","5","4","4","5","1","0","2","1","1","2","1","0","5","4","5","5","5","4","4","5","4","4","6","8","7","7","6","8","8","7","8","6","3","3","7","6","3","5","1","6","3","1","2","1","6","2","5","6","5","2","3","5","2","7","3","3","2","7","2","6","3","7","7","5","6","6","3","7","3","7","3","6","598925018256113664","刘","422","Male","[""好他"",""坏我"",""好我"",""坏他""]","[""强他"",""弱我"",""强我"",""弱他""]","","","","","","","","","","","","","","","","","","","","","","","","","","","","","","feedback_test","","","","","","","","",""
"926","","f","psychophysics","92","251887","0.0-8.0-0.0-1.0-0.0-0.41","6","5","6","5","5","5","2","5","4","4","5","1","0","2","1","1","2","1","0","5","4","5","5","5","4","4","5","4","4","6","8","7","7","6","8","8","7","8","6","3","3","7","6","3","5","1","6","3","1","2","1","6","2","5","6","5","2","3","5","2","7","3","3","2","7","2","6","3","7","7","5","6","6","3","7","3","7","3","6","598925018256113664","刘","422","Male","[""好他"",""坏我"",""好我"",""坏他""]","[""强他"",""弱我"",""强我"",""弱他""]","","","","","","","","match","","","","","","","","","","key","f","16.677947368420988","758.3333534223067","422.22223340729164","j","false","nonmatch","img/hexagon.png","好他","坏他","prac_ALT2_moral","practice_moral","","","","","","","","",""
"null","<span style='color:red; font-size: 70px;'>错误! </span>","null","html-keyboard-response","93","252397","0.0-8.0-0.0-1.0-0.0-1.41","6","5","6","5","5","5","2","5","4","4","5","1","0","2","1","1","2","1","0","5","4","5","5","5","4","4","5","4","4","6","8","7","7","6","8","8","7","8","6","3","3","7","6","3","5","1","6","3","1","2","1","6","2","5","6","5","2","3","5","2","7","3","3","2","7","2","6","3","7","7","5","6","6","3","7","3","7","3","6","598925018256113664","刘","422","Male","[""好他"",""坏我"",""好我"",""坏他""]","[""强他"",""弱我"",""强我"",""弱他""]","","","","","","","","","","","","","","","","","","","","","","","","","","","","","","feedback_test","","","","","","","","",""
"768","","j","psychophysics","94","254171","0.0-8.0-0.0-1.0-0.0-0.42","6","5","6","5","5","5","2","5","4","4","5","1","0","2","1","1","2","1","0","5","4","5","5","5","4","4","5","4","4","6","8","7","7","6","8","8","7","8","6","3","3","7","6","3","5","1","6","3","1","2","1","6","2","5","6","5","2","3","5","2","7","3","3","2","7","2","6","3","7","7","5","6","6","3","7","3","7","3","6","598925018256113664","刘","422","Male","[""好他"",""坏我"",""好我"",""坏他""]","[""强他"",""弱我"",""强我"",""弱他""]","","","","","","","","nonmatch","","","","","","","","","","key","j","16.67525714285716","758.3333534223067","422.22223340729164","j","true","nonmatch","img/trapezoid.png","好他","好我","prac_ALT2_moral","practice_moral","","","","","","","","",""
"null","<span style='color:GreenYellow; font-size: 70px;'>正确! </span>","null","html-keyboard-response","95","254673","0.0-8.0-0.0-1.0-0.0-1.42","6","5","6","5","5","5","2","5","4","4","5","1","0","2","1","1","2","1","0","5","4","5","5","5","4","4","5","4","4","6","8","7","7","6","8","8","7","8","6","3","3","7","6","3","5","1","6","3","1","2","1","6","2","5","6","5","2","3","5","2","7","3","3","2","7","2","6","3","7","7","5","6","6","3","7","3","7","3","6","598925018256113664","刘","422","Male","[""好他"",""坏我"",""好我"",""坏他""]","[""强他"",""弱我"",""强我"",""弱他""]","","","","","","","","","","","","","","","","","","","","","","","","","","","","","","feedback_test","","","","","","","","",""
"808","","f","psychophysics","96","256485","0.0-8.0-0.0-1.0-0.0-0.43","6","5","6","5","5","5","2","5","4","4","5","1","0","2","1","1","2","1","0","5","4","5","5","5","4","4","5","4","4","6","8","7","7","6","8","8","7","8","6","3","3","7","6","3","5","1","6","3","1","2","1","6","2","5","6","5","2","3","5","2","7","3","3","2","7","2","6","3","7","7","5","6","6","3","7","3","7","3","6","598925018256113664","刘","422","Male","[""好他"",""坏我"",""好我"",""坏他""]","[""强他"",""弱我"",""强我"",""弱他""]","","","","","","","","match","","","","","","","","","","key","f","16.678027777777903","758.3333534223067","422.22223340729164","j","false","nonmatch","img/square.png","坏他","好他","prac_ALT2_moral","practice_moral","","","","","","","","",""
"null","<span style='color:red; font-size: 70px;'>错误! </span>","null","html-keyboard-response","97","256988","0.0-8.0-0.0-1.0-0.0-1.43","6","5","6","5","5","5","2","5","4","4","5","1","0","2","1","1","2","1","0","5","4","5","5","5","4","4","5","4","4","6","8","7","7","6","8","8","7","8","6","3","3","7","6","3","5","1","6","3","1","2","1","6","2","5","6","5","2","3","5","2","7","3","3","2","7","2","6","3","7","7","5","6","6","3","7","3","7","3","6","598925018256113664","刘","422","Male","[""好他"",""坏我"",""好我"",""坏他""]","[""强他"",""弱我"",""强我"",""弱他""]","","","","","","","","","","","","","","","","","","","","","","","","","","","","","","feedback_test","","","","","","","","",""
"876","","j","psychophysics","98","258868","0.0-8.0-0.0-1.0-0.0-0.44","6","5","6","5","5","5","2","5","4","4","5","1","0","2","1","1","2","1","0","5","4","5","5","5","4","4","5","4","4","6","8","7","7","6","8","8","7","8","6","3","3","7","6","3","5","1","6","3","1","2","1","6","2","5","6","5","2","3","5","2","7","3","3","2","7","2","6","3","7","7","5","6","6","3","7","3","7","3","6","598925018256113664","刘","422","Male","[""好他"",""坏我"",""好我"",""坏他""]","[""强他"",""弱我"",""强我"",""弱他""]","","","","","","","","nonmatch","","","","","","","","","","key","j","16.67394642857159","758.3333534223067","422.22223340729164","j","true","nonmatch","img/hexagon.png","好我","坏他","prac_ALT2_moral","practice_moral","","","","","","","","",""
"null","<span style='color:GreenYellow; font-size: 70px;'>正确! </span>","null","html-keyboard-response","99","259369","0.0-8.0-0.0-1.0-0.0-1.44","6","5","6","5","5","5","2","5","4","4","5","1","0","2","1","1","2","1","0","5","4","5","5","5","4","4","5","4","4","6","8","7","7","6","8","8","7","8","6","3","3","7","6","3","5","1","6","3","1","2","1","6","2","5","6","5","2","3","5","2","7","3","3","2","7","2","6","3","7","7","5","6","6","3","7","3","7","3","6","598925018256113664","刘","422","Male","[""好他"",""坏我"",""好我"",""坏他""]","[""强他"",""弱我"",""强我"",""弱他""]","","","","","","","","","","","","","","","","","","","","","","","","","","","","","","feedback_test","","","","","","","","",""
"851","","f","psychophysics","100","261224","0.0-8.0-0.0-1.0-0.0-0.45","6","5","6","5","5","5","2","5","4","4","5","1","0","2","1","1","2","1","0","5","4","5","5","5","4","4","5","4","4","6","8","7","7","6","8","8","7","8","6","3","3","7","6","3","5","1","6","3","1","2","1","6","2","5","6","5","2","3","5","2","7","3","3","2","7","2","6","3","7","7","5","6","6","3","7","3","7","3","6","598925018256113664","刘","422","Male","[""好他"",""坏我"",""好我"",""坏他""]","[""强他"",""弱我"",""强我"",""弱他""]","","","","","","","","match","","","","","","","","","","key","f","16.678918181818286","758.3333534223067","422.22223340729164","f","true","match","img/square.png","好他","好他","prac_ALT2_moral","practice_moral","","","","","","","","",""
"null","<span style='color:GreenYellow; font-size: 70px;'>正确! </span>","null","html-keyboard-response","101","261728","0.0-8.0-0.0-1.0-0.0-1.45","6","5","6","5","5","5","2","5","4","4","5","1","0","2","1","1","2","1","0","5","4","5","5","5","4","4","5","4","4","6","8","7","7","6","8","8","7","8","6","3","3","7","6","3","5","1","6","3","1","2","1","6","2","5","6","5","2","3","5","2","7","3","3","2","7","2","6","3","7","7","5","6","6","3","7","3","7","3","6","598925018256113664","刘","422","Male","[""好他"",""坏我"",""好我"",""坏他""]","[""强他"",""弱我"",""强我"",""弱他""]","","","","","","","","","","","","","","","","","","","","","","","","","","","","","","feedback_test","","","","","","","","",""
"819","","j","psychophysics","102","263553","0.0-8.0-0.0-1.0-0.0-0.46","6","5","6","5","5","5","2","5","4","4","5","1","0","2","1","1","2","1","0","5","4","5","5","5","4","4","5","4","4","6","8","7","7","6","8","8","7","8","6","3","3","7","6","3","5","1","6","3","1","2","1","6","2","5","6","5","2","3","5","2","7","3","3","2","7","2","6","3","7","7","5","6","6","3","7","3","7","3","6","598925018256113664","刘","422","Male","[""好他"",""坏我"",""好我"",""坏他""]","[""强他"",""弱我"",""强我"",""弱他""]","","","","","","","","nonmatch","","","","","","","","","","key","j","16.675899082568897","758.3333534223067","422.22223340729164","j","true","nonmatch","img/circle.png","好他","坏我","prac_ALT2_moral","practice_moral","","","","","","","","",""
"null","<span style='color:GreenYellow; font-size: 70px;'>正确! </span>","null","html-keyboard-response","103","264055","0.0-8.0-0.0-1.0-0.0-1.46","6","5","6","5","5","5","2","5","4","4","5","1","0","2","1","1","2","1","0","5","4","5","5","5","4","4","5","4","4","6","8","7","7","6","8","8","7","8","6","3","3","7","6","3","5","1","6","3","1","2","1","6","2","5","6","5","2","3","5","2","7","3","3","2","7","2","6","3","7","7","5","6","6","3","7","3","7","3","6","598925018256113664","刘","422","Male","[""好他"",""坏我"",""好我"",""坏他""]","[""强他"",""弱我"",""强我"",""弱他""]","","","","","","","","","","","","","","","","","","","","","","","","","","","","","","feedback_test","","","","","","","","",""
"579","","f","psychophysics","104","265638","0.0-8.0-0.0-1.0-0.0-0.47","6","5","6","5","5","5","2","5","4","4","5","1","0","2","1","1","2","1","0","5","4","5","5","5","4","4","5","4","4","6","8","7","7","6","8","8","7","8","6","3","3","7","6","3","5","1","6","3","1","2","1","6","2","5","6","5","2","3","5","2","7","3","3","2","7","2","6","3","7","7","5","6","6","3","7","3","7","3","6","598925018256113664","刘","422","Male","[""好他"",""坏我"",""好我"",""坏他""]","[""强他"",""弱我"",""强我"",""弱他""]","","","","","","","","match","","","","","","","","","","key","f","16.674393617021085","758.3333534223067","422.22223340729164","f","true","match","img/trapezoid.png","好我","好我","prac_ALT2_moral","practice_moral","","","","","","","","",""
"null","<span style='color:GreenYellow; font-size: 70px;'>正确! </span>","null","html-keyboard-response","105","266142","0.0-8.0-0.0-1.0-0.0-1.47","6","5","6","5","5","5","2","5","4","4","5","1","0","2","1","1","2","1","0","5","4","5","5","5","4","4","5","4","4","6","8","7","7","6","8","8","7","8","6","3","3","7","6","3","5","1","6","3","1","2","1","6","2","5","6","5","2","3","5","2","7","3","3","2","7","2","6","3","7","7","5","6","6","3","7","3","7","3","6","598925018256113664","刘","422","Male","[""好他"",""坏我"",""好我"",""坏他""]","[""强他"",""弱我"",""强我"",""弱他""]","","","","","","","","","","","","","","","","","","","","","","","","","","","","","","feedback_test","","","","","","","","",""
"1721","<style>.context{color:white; font-size: 35px; line-height:40px}</style>                            <div><p class='context'>您正确回答了69% 的试次。</p><p class='context'>您的平均反应时为813毫秒。</p><p class='context'>恭喜您完成练习。按空格键进入正式实验。</p><p class='footer' style='font-size: 35px; line-height:40px;'>请在进入正式实验实验之前将您的<span style='color: lightgreen;'>食指</span>放在电脑键盘的相应键位上进行按键。</p>"," ","html-keyboard-response","106","267877","0.0-8.0-0.0-2.0","6","5","6","5","5","5","2","5","4","4","5","1","0","2","1","1","2","1","0","5","4","5","5","5","4","4","5","4","4","6","8","7","7","6","8","8","7","8","6","3","3","7","6","3","5","1","6","3","1","2","1","6","2","5","6","5","2","3","5","2","7","3","3","2","7","2","6","3","7","7","5","6","6","3","7","3","7","3","6","598925018256113664","刘","422","Male","[""好他"",""坏我"",""好我"",""坏他""]","[""强他"",""弱我"",""强我"",""弱他""]","","","","","","","","","","","","","","","","","","","","","","","","","","","","","","","","","","","","","","",""
"2725","
    <p style='color: white; font-size: 22px'>请您将手指放在按键上，准备进入正式的匹配任务。</p>
    <p> <div style = ""color: green""><按空格键进入下一阶段的匹配任务></div></p>
    "," ","html-keyboard-response","107","270612","0.0-8.0-0.0-3.0","6","5","6","5","5","5","2","5","4","4","5","1","0","2","1","1","2","1","0","5","4","5","5","5","4","4","5","4","4","6","8","7","7","6","8","8","7","8","6","3","3","7","6","3","5","1","6","3","1","2","1","6","2","5","6","5","2","3","5","2","7","3","3","2","7","2","6","3","7","7","5","6","6","3","7","3","7","3","6","598925018256113664","刘","422","Male","[""好他"",""坏我"",""好我"",""坏他""]","[""强他"",""弱我"",""强我"",""弱他""]","","","","","","","","","","","","","","","","","","","","","","","","","","","","","","","","","","","","","","",""
"810","","j","psychophysics","108","272427","0.0-8.0-0.0-4.0-0.0-0.0","6","5","6","5","5","5","2","5","4","4","5","1","0","2","1","1","2","1","0","5","4","5","5","5","4","4","5","4","4","6","8","7","7","6","8","8","7","8","6","3","3","7","6","3","5","1","6","3","1","2","1","6","2","5","6","5","2","3","5","2","7","3","3","2","7","2","6","3","7","7","5","6","6","3","7","3","7","3","6","598925018256113664","刘","422","Male","[""好他"",""坏我"",""好我"",""坏他""]","[""强他"",""弱我"",""强我"",""弱他""]","","","","","","","","nonmatch","","","","","","","","","","key","j","16.67759259259253","758.3333534223067","422.22223340729164","j","true","nonmatch","img/square.png","坏他","好他","ALT2","moral","","","","","","","","",""
"null","<span style='color:GreenYellow; font-size: 70px;'>正确! </span>","null","html-keyboard-response","109","272933","0.0-8.0-0.0-4.0-0.0-1.0","6","5","6","5","5","5","2","5","4","4","5","1","0","2","1","1","2","1","0","5","4","5","5","5","4","4","5","4","4","6","8","7","7","6","8","8","7","8","6","3","3","7","6","3","5","1","6","3","1","2","1","6","2","5","6","5","2","3","5","2","7","3","3","2","7","2","6","3","7","7","5","6","6","3","7","3","7","3","6","598925018256113664","刘","422","Male","[""好他"",""坏我"",""好我"",""坏他""]","[""强他"",""弱我"",""强我"",""弱他""]","","","","","","","","","","","","","","","","","","","","","","","","","","","","","","feedback_test","","","","","","","","",""
"853","","j","psychophysics","110","274793","0.0-8.0-0.0-4.0-0.0-0.1","6","5","6","5","5","5","2","5","4","4","5","1","0","2","1","1","2","1","0","5","4","5","5","5","4","4","5","4","4","6","8","7","7","6","8","8","7","8","6","3","3","7","6","3","5","1","6","3","1","2","1","6","2","5","6","5","2","3","5","2","7","3","3","2","7","2","6","3","7","7","5","6","6","3","7","3","7","3","6","598925018256113664","刘","422","Male","[""好他"",""坏我"",""好我"",""坏他""]","[""强他"",""弱我"",""强我"",""弱他""]","","","","","","","","nonmatch","","","","","","","","","","key","j","16.674432432432113","758.3333534223067","422.22223340729164","f","false","match","img/circle.png","坏我","坏我","ALT2","moral","","","","","","","","",""
"null","<span style='color:red; font-size: 70px;'>错误! </span>","null","html-keyboard-response","111","275297","0.0-8.0-0.0-4.0-0.0-1.1","6","5","6","5","5","5","2","5","4","4","5","1","0","2","1","1","2","1","0","5","4","5","5","5","4","4","5","4","4","6","8","7","7","6","8","8","7","8","6","3","3","7","6","3","5","1","6","3","1","2","1","6","2","5","6","5","2","3","5","2","7","3","3","2","7","2","6","3","7","7","5","6","6","3","7","3","7","3","6","598925018256113664","刘","422","Male","[""好他"",""坏我"",""好我"",""坏他""]","[""强他"",""弱我"",""强我"",""弱他""]","","","","","","","","","","","","","","","","","","","","","","","","","","","","","","feedback_test","","","","","","","","",""
"792","","j","psychophysics","112","277093","0.0-8.0-0.0-4.0-0.0-0.2","6","5","6","5","5","5","2","5","4","4","5","1","0","2","1","1","2","1","0","5","4","5","5","5","4","4","5","4","4","6","8","7","7","6","8","8","7","8","6","3","3","7","6","3","5","1","6","3","1","2","1","6","2","5","6","5","2","3","5","2","7","3","3","2","7","2","6","3","7","7","5","6","6","3","7","3","7","3","6","598925018256113664","刘","422","Male","[""好他"",""坏我"",""好我"",""坏他""]","[""强他"",""弱我"",""强我"",""弱他""]","","","","","","","","nonmatch","","","","","","","","","","key","j","16.67475700934546","758.3333534223067","422.22223340729164","j","true","nonmatch","img/circle.png","好他","坏我","ALT2","moral","","","","","","","","",""
"null","<span style='color:GreenYellow; font-size: 70px;'>正确! </span>","null","html-keyboard-response","113","277597","0.0-8.0-0.0-4.0-0.0-1.2","6","5","6","5","5","5","2","5","4","4","5","1","0","2","1","1","2","1","0","5","4","5","5","5","4","4","5","4","4","6","8","7","7","6","8","8","7","8","6","3","3","7","6","3","5","1","6","3","1","2","1","6","2","5","6","5","2","3","5","2","7","3","3","2","7","2","6","3","7","7","5","6","6","3","7","3","7","3","6","598925018256113664","刘","422","Male","[""好他"",""坏我"",""好我"",""坏他""]","[""强他"",""弱我"",""强我"",""弱他""]","","","","","","","","","","","","","","","","","","","","","","","","","","","","","","feedback_test","","","","","","","","",""
"705","","f","psychophysics","114","279307","0.0-8.0-0.0-4.0-0.0-0.3","6","5","6","5","5","5","2","5","4","4","5","1","0","2","1","1","2","1","0","5","4","5","5","5","4","4","5","4","4","6","8","7","7","6","8","8","7","8","6","3","3","7","6","3","5","1","6","3","1","2","1","6","2","5","6","5","2","3","5","2","7","3","3","2","7","2","6","3","7","7","5","6","6","3","7","3","7","3","6","598925018256113664","刘","422","Male","[""好他"",""坏我"",""好我"",""坏他""]","[""强他"",""弱我"",""强我"",""弱他""]","","","","","","","","match","","","","","","","","","","key","f","16.675435643564185","758.3333534223067","422.22223340729164","f","true","match","img/hexagon.png","坏他","坏他","ALT2","moral","","","","","","","","",""
"null","<span style='color:GreenYellow; font-size: 70px;'>正确! </span>","null","html-keyboard-response","115","279811","0.0-8.0-0.0-4.0-0.0-1.3","6","5","6","5","5","5","2","5","4","4","5","1","0","2","1","1","2","1","0","5","4","5","5","5","4","4","5","4","4","6","8","7","7","6","8","8","7","8","6","3","3","7","6","3","5","1","6","3","1","2","1","6","2","5","6","5","2","3","5","2","7","3","3","2","7","2","6","3","7","7","5","6","6","3","7","3","7","3","6","598925018256113664","刘","422","Male","[""好他"",""坏我"",""好我"",""坏他""]","[""强他"",""弱我"",""强我"",""弱他""]","","","","","","","","","","","","","","","","","","","","","","","","","","","","","","feedback_test","","","","","","","","",""
"835","","j","psychophysics","116","281651","0.0-8.0-0.0-4.0-0.0-0.4","6","5","6","5","5","5","2","5","4","4","5","1","0","2","1","1","2","1","0","5","4","5","5","5","4","4","5","4","4","6","8","7","7","6","8","8","7","8","6","3","3","7","6","3","5","1","6","3","1","2","1","6","2","5","6","5","2","3","5","2","7","3","3","2","7","2","6","3","7","7","5","6","6","3","7","3","7","3","6","598925018256113664","刘","422","Male","[""好他"",""坏我"",""好我"",""坏他""]","[""强他"",""弱我"",""强我"",""弱他""]","","","","","","","","nonmatch","","","","","","","","","","key","j","16.675651376146327","758.3333534223067","422.22223340729164","f","false","match","img/square.png","好他","好他","ALT2","moral","","","","","","","","",""
"null","<span style='color:red; font-size: 70px;'>错误! </span>","null","html-keyboard-response","117","282153","0.0-8.0-0.0-4.0-0.0-1.4","6","5","6","5","5","5","2","5","4","4","5","1","0","2","1","1","2","1","0","5","4","5","5","5","4","4","5","4","4","6","8","7","7","6","8","8","7","8","6","3","3","7","6","3","5","1","6","3","1","2","1","6","2","5","6","5","2","3","5","2","7","3","3","2","7","2","6","3","7","7","5","6","6","3","7","3","7","3","6","598925018256113664","刘","422","Male","[""好他"",""坏我"",""好我"",""坏他""]","[""强他"",""弱我"",""强我"",""弱他""]","","","","","","","","","","","","","","","","","","","","","","","","","","","","","","feedback_test","","","","","","","","",""
"951","","j","psychophysics","118","284110","0.0-8.0-0.0-4.0-0.0-0.5","6","5","6","5","5","5","2","5","4","4","5","1","0","2","1","1","2","1","0","5","4","5","5","5","4","4","5","4","4","6","8","7","7","6","8","8","7","8","6","3","3","7","6","3","5","1","6","3","1","2","1","6","2","5","6","5","2","3","5","2","7","3","3","2","7","2","6","3","7","7","5","6","6","3","7","3","7","3","6","598925018256113664","刘","422","Male","[""好他"",""坏我"",""好我"",""坏他""]","[""强他"",""弱我"",""强我"",""弱他""]","","","","","","","","nonmatch","","","","","","","","","","key","j","16.67715384615396","758.3333534223067","422.22223340729164","j","true","nonmatch","img/hexagon.png","好我","坏他","ALT2","moral","","","","","","","","",""
"null","<span style='color:GreenYellow; font-size: 70px;'>正确! </span>","null","html-keyboard-response","119","284615","0.0-8.0-0.0-4.0-0.0-1.5","6","5","6","5","5","5","2","5","4","4","5","1","0","2","1","1","2","1","0","5","4","5","5","5","4","4","5","4","4","6","8","7","7","6","8","8","7","8","6","3","3","7","6","3","5","1","6","3","1","2","1","6","2","5","6","5","2","3","5","2","7","3","3","2","7","2","6","3","7","7","5","6","6","3","7","3","7","3","6","598925018256113664","刘","422","Male","[""好他"",""坏我"",""好我"",""坏他""]","[""强他"",""弱我"",""强我"",""弱他""]","","","","","","","","","","","","","","","","","","","","","","","","","","","","","","feedback_test","","","","","","","","",""
"755","","f","psychophysics","120","286376","0.0-8.0-0.0-4.0-0.0-0.6","6","5","6","5","5","5","2","5","4","4","5","1","0","2","1","1","2","1","0","5","4","5","5","5","4","4","5","4","4","6","8","7","7","6","8","8","7","8","6","3","3","7","6","3","5","1","6","3","1","2","1","6","2","5","6","5","2","3","5","2","7","3","3","2","7","2","6","3","7","7","5","6","6","3","7","3","7","3","6","598925018256113664","刘","422","Male","[""好他"",""坏我"",""好我"",""坏他""]","[""强他"",""弱我"",""强我"",""弱他""]","","","","","","","","match","","","","","","","","","","key","f","16.67441346153814","758.3333534223067","422.22223340729164","f","true","match","img/square.png","好他","好他","ALT2","moral","","","","","","","","",""
"null","<span style='color:GreenYellow; font-size: 70px;'>正确! </span>","null","html-keyboard-response","121","286878","0.0-8.0-0.0-4.0-0.0-1.6","6","5","6","5","5","5","2","5","4","4","5","1","0","2","1","1","2","1","0","5","4","5","5","5","4","4","5","4","4","6","8","7","7","6","8","8","7","8","6","3","3","7","6","3","5","1","6","3","1","2","1","6","2","5","6","5","2","3","5","2","7","3","3","2","7","2","6","3","7","7","5","6","6","3","7","3","7","3","6","598925018256113664","刘","422","Male","[""好他"",""坏我"",""好我"",""坏他""]","[""强他"",""弱我"",""强我"",""弱他""]","","","","","","","","","","","","","","","","","","","","","","","","","","","","","","feedback_test","","","","","","","","",""
"802","","f","psychophysics","122","288685","0.0-8.0-0.0-4.0-0.0-0.7","6","5","6","5","5","5","2","5","4","4","5","1","0","2","1","1","2","1","0","5","4","5","5","5","4","4","5","4","4","6","8","7","7","6","8","8","7","8","6","3","3","7","6","3","5","1","6","3","1","2","1","6","2","5","6","5","2","3","5","2","7","3","3","2","7","2","6","3","7","7","5","6","6","3","7","3","7","3","6","598925018256113664","刘","422","Male","[""好他"",""坏我"",""好我"",""坏他""]","[""强他"",""弱我"",""强我"",""弱他""]","","","","","","","","match","","","","","","","","","","key","f","16.674822429906595","758.3333534223067","422.22223340729164","f","true","match","img/trapezoid.png","好我","好我","ALT2","moral","","","","","","","","",""
"null","<span style='color:GreenYellow; font-size: 70px;'>正确! </span>","null","html-keyboard-response","123","289187","0.0-8.0-0.0-4.0-0.0-1.7","6","5","6","5","5","5","2","5","4","4","5","1","0","2","1","1","2","1","0","5","4","5","5","5","4","4","5","4","4","6","8","7","7","6","8","8","7","8","6","3","3","7","6","3","5","1","6","3","1","2","1","6","2","5","6","5","2","3","5","2","7","3","3","2","7","2","6","3","7","7","5","6","6","3","7","3","7","3","6","598925018256113664","刘","422","Male","[""好他"",""坏我"",""好我"",""坏他""]","[""强他"",""弱我"",""强我"",""弱他""]","","","","","","","","","","","","","","","","","","","","","","","","","","","","","","feedback_test","","","","","","","","",""
"720","","j","psychophysics","124","290910","0.0-8.0-0.0-4.0-0.0-0.8","6","5","6","5","5","5","2","5","4","4","5","1","0","2","1","1","2","1","0","5","4","5","5","5","4","4","5","4","4","6","8","7","7","6","8","8","7","8","6","3","3","7","6","3","5","1","6","3","1","2","1","6","2","5","6","5","2","3","5","2","7","3","3","2","7","2","6","3","7","7","5","6","6","3","7","3","7","3","6","598925018256113664","刘","422","Male","[""好他"",""坏我"",""好我"",""坏他""]","[""强他"",""弱我"",""强我"",""弱他""]","","","","","","","","nonmatch","","","","","","","","","","key","j","16.67528431372564","758.3333534223067","422.22223340729164","j","true","nonmatch","img/trapezoid.png","坏他","好我","ALT2","moral","","","","","","","","",""
"null","<span style='color:GreenYellow; font-size: 70px;'>正确! </span>","null","html-keyboard-response","125","291413","0.0-8.0-0.0-4.0-0.0-1.8","6","5","6","5","5","5","2","5","4","4","5","1","0","2","1","1","2","1","0","5","4","5","5","5","4","4","5","4","4","6","8","7","7","6","8","8","7","8","6","3","3","7","6","3","5","1","6","3","1","2","1","6","2","5","6","5","2","3","5","2","7","3","3","2","7","2","6","3","7","7","5","6","6","3","7","3","7","3","6","598925018256113664","刘","422","Male","[""好他"",""坏我"",""好我"",""坏他""]","[""强他"",""弱我"",""强我"",""弱他""]","","","","","","","","","","","","","","","","","","","","","","","","","","","","","","feedback_test","","","","","","","","",""
"785","","j","psychophysics","126","293203","0.0-8.0-0.0-4.0-0.0-0.9","6","5","6","5","5","5","2","5","4","4","5","1","0","2","1","1","2","1","0","5","4","5","5","5","4","4","5","4","4","6","8","7","7","6","8","8","7","8","6","3","3","7","6","3","5","1","6","3","1","2","1","6","2","5","6","5","2","3","5","2","7","3","3","2","7","2","6","3","7","7","5","6","6","3","7","3","7","3","6","598925018256113664","刘","422","Male","[""好他"",""坏我"",""好我"",""坏他""]","[""强他"",""弱我"",""强我"",""弱他""]","","","","","","","","nonmatch","","","","","","","","","","key","j","16.6807264150944","758.3333534223067","422.22223340729164","j","true","nonmatch","img/hexagon.png","坏我","坏他","ALT2","moral","","","","","","","","",""
"null","<span style='color:GreenYellow; font-size: 70px;'>正确! </span>","null","html-keyboard-response","127","293706","0.0-8.0-0.0-4.0-0.0-1.9","6","5","6","5","5","5","2","5","4","4","5","1","0","2","1","1","2","1","0","5","4","5","5","5","4","4","5","4","4","6","8","7","7","6","8","8","7","8","6","3","3","7","6","3","5","1","6","3","1","2","1","6","2","5","6","5","2","3","5","2","7","3","3","2","7","2","6","3","7","7","5","6","6","3","7","3","7","3","6","598925018256113664","刘","422","Male","[""好他"",""坏我"",""好我"",""坏他""]","[""强他"",""弱我"",""强我"",""弱他""]","","","","","","","","","","","","","","","","","","","","","","","","","","","","","","feedback_test","","","","","","","","",""
"759","","j","psychophysics","128","295469","0.0-8.0-0.0-4.0-0.0-0.10","6","5","6","5","5","5","2","5","4","4","5","1","0","2","1","1","2","1","0","5","4","5","5","5","4","4","5","4","4","6","8","7","7","6","8","8","7","8","6","3","3","7","6","3","5","1","6","3","1","2","1","6","2","5","6","5","2","3","5","2","7","3","3","2","7","2","6","3","7","7","5","6","6","3","7","3","7","3","6","598925018256113664","刘","422","Male","[""好他"",""坏我"",""好我"",""坏他""]","[""强他"",""弱我"",""强我"",""弱他""]","","","","","","","","nonmatch","","","","","","","","","","key","j","16.674895238095253","758.3333534223067","422.22223340729164","j","true","nonmatch","img/square.png","好我","好他","ALT2","moral","","","","","","","","",""
"null","<span style='color:GreenYellow; font-size: 70px;'>正确! </span>","null","html-keyboard-response","129","295973","0.0-8.0-0.0-4.0-0.0-1.10","6","5","6","5","5","5","2","5","4","4","5","1","0","2","1","1","2","1","0","5","4","5","5","5","4","4","5","4","4","6","8","7","7","6","8","8","7","8","6","3","3","7","6","3","5","1","6","3","1","2","1","6","2","5","6","5","2","3","5","2","7","3","3","2","7","2","6","3","7","7","5","6","6","3","7","3","7","3","6","598925018256113664","刘","422","Male","[""好他"",""坏我"",""好我"",""坏他""]","[""强他"",""弱我"",""强我"",""弱他""]","","","","","","","","","","","","","","","","","","","","","","","","","","","","","","feedback_test","","","","","","","","",""
"892","","j","psychophysics","130","297876","0.0-8.0-0.0-4.0-0.0-0.11","6","5","6","5","5","5","2","5","4","4","5","1","0","2","1","1","2","1","0","5","4","5","5","5","4","4","5","4","4","6","8","7","7","6","8","8","7","8","6","3","3","7","6","3","5","1","6","3","1","2","1","6","2","5","6","5","2","3","5","2","7","3","3","2","7","2","6","3","7","7","5","6","6","3","7","3","7","3","6","598925018256113664","刘","422","Male","[""好他"",""坏我"",""好我"",""坏他""]","[""强他"",""弱我"",""强我"",""弱他""]","","","","","","","","nonmatch","","","","","","","","","","key","j","16.6744690265489","758.3333534223067","422.22223340729164","j","true","nonmatch","img/circle.png","好我","坏我","ALT2","moral","","","","","","","","",""
"null","<span style='color:GreenYellow; font-size: 70px;'>正确! </span>","null","html-keyboard-response","131","298380","0.0-8.0-0.0-4.0-0.0-1.11","6","5","6","5","5","5","2","5","4","4","5","1","0","2","1","1","2","1","0","5","4","5","5","5","4","4","5","4","4","6","8","7","7","6","8","8","7","8","6","3","3","7","6","3","5","1","6","3","1","2","1","6","2","5","6","5","2","3","5","2","7","3","3","2","7","2","6","3","7","7","5","6","6","3","7","3","7","3","6","598925018256113664","刘","422","Male","[""好他"",""坏我"",""好我"",""坏他""]","[""强他"",""弱我"",""强我"",""弱他""]","","","","","","","","","","","","","","","","","","","","","","","","","","","","","","feedback_test","","","","","","","","",""
"732","","f","psychophysics","132","300117","0.0-8.0-0.0-4.0-0.0-0.12","6","5","6","5","5","5","2","5","4","4","5","1","0","2","1","1","2","1","0","5","4","5","5","5","4","4","5","4","4","6","8","7","7","6","8","8","7","8","6","3","3","7","6","3","5","1","6","3","1","2","1","6","2","5","6","5","2","3","5","2","7","3","3","2","7","2","6","3","7","7","5","6","6","3","7","3","7","3","6","598925018256113664","刘","422","Male","[""好他"",""坏我"",""好我"",""坏他""]","[""强他"",""弱我"",""强我"",""弱他""]","","","","","","","","match","","","","","","","","","","key","f","16.677411764706076","758.3333534223067","422.22223340729164","f","true","match","img/trapezoid.png","好我","好我","ALT2","moral","","","","","","","","",""
"null","<span style='color:GreenYellow; font-size: 70px;'>正确! </span>","null","html-keyboard-response","133","300623","0.0-8.0-0.0-4.0-0.0-1.12","6","5","6","5","5","5","2","5","4","4","5","1","0","2","1","1","2","1","0","5","4","5","5","5","4","4","5","4","4","6","8","7","7","6","8","8","7","8","6","3","3","7","6","3","5","1","6","3","1","2","1","6","2","5","6","5","2","3","5","2","7","3","3","2","7","2","6","3","7","7","5","6","6","3","7","3","7","3","6","598925018256113664","刘","422","Male","[""好他"",""坏我"",""好我"",""坏他""]","[""强他"",""弱我"",""强我"",""弱他""]","","","","","","","","","","","","","","","","","","","","","","","","","","","","","","feedback_test","","","","","","","","",""
"827","","f","psychophysics","134","302454","0.0-8.0-0.0-4.0-0.0-0.13","6","5","6","5","5","5","2","5","4","4","5","1","0","2","1","1","2","1","0","5","4","5","5","5","4","4","5","4","4","6","8","7","7","6","8","8","7","8","6","3","3","7","6","3","5","1","6","3","1","2","1","6","2","5","6","5","2","3","5","2","7","3","3","2","7","2","6","3","7","7","5","6","6","3","7","3","7","3","6","598925018256113664","刘","422","Male","[""好他"",""坏我"",""好我"",""坏他""]","[""强他"",""弱我"",""强我"",""弱他""]","","","","","","","","match","","","","","","","","","","key","f","16.67455045871571","758.3333534223067","422.22223340729164","f","true","match","img/circle.png","坏我","坏我","ALT2","moral","","","","","","","","",""
"null","<span style='color:GreenYellow; font-size: 70px;'>正确! </span>","null","html-keyboard-response","135","302956","0.0-8.0-0.0-4.0-0.0-1.13","6","5","6","5","5","5","2","5","4","4","5","1","0","2","1","1","2","1","0","5","4","5","5","5","4","4","5","4","4","6","8","7","7","6","8","8","7","8","6","3","3","7","6","3","5","1","6","3","1","2","1","6","2","5","6","5","2","3","5","2","7","3","3","2","7","2","6","3","7","7","5","6","6","3","7","3","7","3","6","598925018256113664","刘","422","Male","[""好他"",""坏我"",""好我"",""坏他""]","[""强他"",""弱我"",""强我"",""弱他""]","","","","","","","","","","","","","","","","","","","","","","","","","","","","","","feedback_test","","","","","","","","",""
