"rt","stimulus","response","trial_type","trial_index","time_elapsed","internal_node_id","swb_1","swb_2","swb_3","swb_4","swb_5","LOT_1","LOT_2","LOT_3","LOT_4","LOT_5","LOT_6","IPC_1","IPC_2","IPC_3","IPC_4","IPC_5","IPC_6","IPC_7","IPC_8","MorIden_1","MorIden_2","MorIden_3","MorIden_4","MorIden_5","MorIden_6","MorIden_7","MorIden_8","MorIden_9","MorIden_10","moralSeImag_1","moralSeImag_2","moralSeImag_3","moralSeImag_4","moralSeImag_5","moralSeImag_6","moralSeImag_7","moralSeImag_8","moralSeImag_9","sde_1","sde_2","sde_3","sde_4","sde_5","sde_6","sde_7","sde_8","sde_9","sde_10","trap2","sde_11","sde_12","sde_13","sde_14","sde_15","sde_16","sde_17","sde_18","sde_19","sde_20","IM_1","IM_2","IM_3","IM_4","IM_5","IM_6","IM_7","IM_8","IM_9","IM_10","IM_11","IM_12","IM_13","IM_14","IM_15","IM_16","IM_17","IM_18","IM_19","IM_20","subj_idx","friend_name","ParticipantID","Sex","Word","Word2","value","success","timeout","failed_images","failed_audio","failed_video","user_agent","responses","item_order","radio_event_ids","radio_event_times","key_event_times","mouse_event_times","straightlining","zigzagging","honeypot","task_id","screen_id","time_stamp","response_type","key_press","avg_frame_time","center_x","center_y","person","word","valence","domain","math","correct_response","correct","status","identity","view_history","duration","Image","condition","question_order","trap2_item"
"18388","
   <p><div style='color:white; font-size: 25px'>您好，欢迎参加本次实验。</div></p>
   <p><div style='color:white; font-size: 25px'>为充分保障您的权利，请确保您已经知晓并同意《参与实验同意书》以及《数据公开知情同意书》。</div></p>
   <p><div style='color:white; font-size: 25px'>如果您未见过上述内容，请咨询实验员。</div></p>
   <p style='color:white; font-size: 25px'>如果您选择继续实验，则表示您已经清楚两份知情同意书的内容并同意。</p>
   <p><div style = ""color: pink;font-size:30px;"">请确保您记得day0的实验编号，您将在本次实验输入该编号，若您忘记，请咨询实验员后作答。</div></p>
   <p><div style = ""color:lightblue;font-size:25px;"">请您尽可能认真地作答，我们将依据您在各问卷和按键任务中的作答质量发放报酬。</div></p>
   <p> <div style = ""color: green""><按空格键至下页></div> </p>
   "," ","html-keyboard-response","0","18391","0.0-0.0","6","5","6","6","5","4","3","4","5","5","4","1","0","0","0","0","1","1","1","5","5","5","5","4","3","4","4","5","4","6","7","6","6","5","7","7","8","8","4","7","5","6","5","3","4","1","6","5","1","5","2","4","3","4","7","5","4","4","5","5","5","6","1","6","5","4","7","7","7","4","2","4","7","4","7","2","7","3","7","758958446577192962","练","446","Female","[""好她"",""坏我"",""好我"",""坏她""]","[""强她"",""弱我"",""强我"",""弱她""]","","","","","","","","","","","","","","","","","","","","","","","","","","","","","","","","","","","","","","",""
"","","","call-function","1","18392","0.0-1.0-0.0","6","5","6","6","5","4","3","4","5","5","4","1","0","0","0","0","1","1","1","5","5","5","5","4","3","4","4","5","4","6","7","6","6","5","7","7","8","8","4","7","5","6","5","3","4","1","6","5","1","5","2","4","3","4","7","5","4","4","5","5","5","6","1","6","5","4","7","7","7","4","2","4","7","4","7","2","7","3","7","758958446577192962","练","446","Female","[""好她"",""坏我"",""好我"",""坏她""]","[""强她"",""弱我"",""强我"",""弱她""]","","","","","","","","","","","","","","","","","","","","","","","","","","","","","","","","","","","","","","",""
"15819","","[{""name"":""Sex"",""value"":""1""},{""name"":""friend_name"",""value"":""练""},{""name"":""ParticipantID"",""value"":""446""}]","survey-html-form","2","34213","0.0-1.0-1.0","6","5","6","6","5","4","3","4","5","5","4","1","0","0","0","0","1","1","1","5","5","5","5","4","3","4","4","5","4","6","7","6","6","5","7","7","8","8","4","7","5","6","5","3","4","1","6","5","1","5","2","4","3","4","7","5","4","4","5","5","5","6","1","6","5","4","7","7","7","4","2","4","7","4","7","2","7","3","7","758958446577192962","练","446","Female","[""好她"",""坏我"",""好我"",""坏她""]","[""强她"",""弱我"",""强我"",""弱她""]","","","","","","","","","","","","","","","","","","","","","","","","","","","","","","","","","","","","","","",""
"","","","preload","3","34488","0.0-2.0","6","5","6","6","5","4","3","4","5","5","4","1","0","0","0","0","1","1","1","5","5","5","5","4","3","4","4","5","4","6","7","6","6","5","7","7","8","8","4","7","5","6","5","3","4","1","6","5","1","5","2","4","3","4","7","5","4","4","5","5","5","6","1","6","5","4","7","7","7","4","2","4","7","4","7","2","7","3","7","758958446577192962","练","446","Female","[""好她"",""坏我"",""好我"",""坏她""]","[""强她"",""弱我"",""强我"",""弱她""]","","true","false","[]","[]","[]","","","","","","","","","","","","","","","","","","","","","","","","","","","","","","","","",""
"","","","fullscreen","4","40194","0.0-3.0","6","5","6","6","5","4","3","4","5","5","4","1","0","0","0","0","1","1","1","5","5","5","5","4","3","4","4","5","4","6","7","6","6","5","7","7","8","8","4","7","5","6","5","3","4","1","6","5","1","5","2","4","3","4","7","5","4","4","5","5","5","6","1","6","5","4","7","7","7","4","2","4","7","4","7","2","7","3","7","758958446577192962","练","446","Female","[""好她"",""坏我"",""好我"",""坏她""]","[""强她"",""弱我"",""强我"",""弱她""]","","true","","","","","{}","","","","","","","","","","","","","","","","","","","","","","","","","","","","","","","",""
"19186.100000023842","","{""Q01"":""6"",""Q02"":""5"",""Q03"":""6"",""Q04"":""6"",""Q05"":""5""}","survey-template","5","59382","0.0-4.0","6","5","6","6","5","4","3","4","5","5","4","1","0","0","0","0","1","1","1","5","5","5","5","4","3","4","4","5","4","6","7","6","6","5","7","7","8","8","4","7","5","6","5","3","4","1","6","5","1","5","2","4","3","4","7","5","4","4","5","5","5","6","1","6","5","4","7","7","7","4","2","4","7","4","7","2","7","3","7","758958446577192962","练","446","Female","[""好她"",""坏我"",""好我"",""坏她""]","[""强她"",""弱我"",""强我"",""弱她""]","","","","","","","","{""Q01"":""6"",""Q02"":""5"",""Q03"":""6"",""Q04"":""6"",""Q05"":""5""}","[0,1,2,3,4]","[""Q01"",""Q01"",""Q02"",""Q02"",""Q03"",""Q04"",""Q05""]","[7024.900000035763,7912.700000047684,8576.700000047684,10336.5,11408.900000035763,15336.600000023842,16252.400000035763]","[]","[7024.900000035763,7912.700000047684,8576.700000047684,10336.5,11408.900000035763,15336.600000023842,16252.400000035763,19185]","0.6","0.75","0","","","","","","","","","","","","","","","","","","","","","","",""
"23172","","{""Q01"":""4"",""Q02"":""3"",""Q03"":""4"",""Q04"":""5"",""Q05"":""5"",""Q06"":""4""}","survey-template","6","82558","0.0-5.0","6","5","6","6","5","4","3","4","5","5","4","1","0","0","0","0","1","1","1","5","5","5","5","4","3","4","4","5","4","6","7","6","6","5","7","7","8","8","4","7","5","6","5","3","4","1","6","5","1","5","2","4","3","4","7","5","4","4","5","5","5","6","1","6","5","4","7","7","7","4","2","4","7","4","7","2","7","3","7","758958446577192962","练","446","Female","[""好她"",""坏我"",""好我"",""坏她""]","[""强她"",""弱我"",""强我"",""弱她""]","","","","","","","","{""Q01"":""4"",""Q02"":""3"",""Q03"":""4"",""Q04"":""5"",""Q05"":""5"",""Q06"":""4""}","[0,1,2,3,4,5]","[""Q01"",""Q02"",""Q03"",""Q04"",""Q05"",""Q06""]","[7852.200000047684,9227.600000023842,11626.5,15691.400000035763,16538.80000001192,21819.700000047684]","[]","[7852.200000047684,9227.600000023842,11626.5,15691.400000035763,16538.80000001192,21819.700000047684,23171.30000001192]","0.5","0.4","0","","","","","","","","","","","","","","","","","","","","","","",""
"31484.900000035763","","{""Q01"":""1"",""Q02"":""0"",""Q03"":""0"",""Q04"":""0"",""Q05"":""0"",""Q06"":""1"",""Q07"":""1"",""Q08"":""1""}","survey-template","7","114046","0.0-6.0","6","5","6","6","5","4","3","4","5","5","4","1","0","0","0","0","1","1","1","5","5","5","5","4","3","4","4","5","4","6","7","6","6","5","7","7","8","8","4","7","5","6","5","3","4","1","6","5","1","5","2","4","3","4","7","5","4","4","5","5","5","6","1","6","5","4","7","7","7","4","2","4","7","4","7","2","7","3","7","758958446577192962","练","446","Female","[""好她"",""坏我"",""好我"",""坏她""]","[""强她"",""弱我"",""强我"",""弱她""]","","","","","","","","{""Q01"":""1"",""Q02"":""0"",""Q03"":""0"",""Q04"":""0"",""Q05"":""0"",""Q06"":""1"",""Q07"":""1"",""Q08"":""1""}","[0,1,2,3,4,5,6,7]","[""Q01"",""Q02"",""Q03"",""Q02"",""Q04"",""Q06"",""Q05"",""Q07"",""Q08""]","[5292.199999988079,9582.5,10765.600000023842,12027.800000011921,15926.900000035763,22516,24640.100000023842,26859.69999998808,29092.19999998808]","[]","[5292.199999988079,9582.5,10765.600000023842,12027.800000011921,15926.900000035763,22516,24640.100000023842,26859.69999998808,28275.900000035763,29092.19999998808,31483.900000035763]","0.5","0.2857142857142857","0","","","","","","","","","","","","","","","","","","","","","","",""
"24709","
    <p><div style='color:white;font-size:35px; line-height:20px;'>词汇评估任务</div></p><br>
    <p><div style='color:white;font-size:25px; line-height:20px;'>请再次回忆该亲密的朋友，你们至少2年前就认识了，并且最近2年经常见面。</div></p>
    <p><div style='color:white;font-size:25px; line-height:20px;'>在本实验中，您将会看到一些形容词。</div></p>
    <p><div style='color:yellow;font-size:25px; line-height:20px;'>您的任务是判断这些形容词是否符合对您自己或您的朋友的描述。</div></p><p style='font-size:35px'>符合按<span style=""color:lightgreen""> f 键</span>，不符合按<span style=""color:red""> j 键</span></p>","0","html-button-response","8","138757","0.0-7.0-0.0","6","5","6","6","5","4","3","4","5","5","4","1","0","0","0","0","1","1","1","5","5","5","5","4","3","4","4","5","4","6","7","6","6","5","7","7","8","8","4","7","5","6","5","3","4","1","6","5","1","5","2","4","3","4","7","5","4","4","5","5","5","6","1","6","5","4","7","7","7","4","2","4","7","4","7","2","7","3","7","758958446577192962","练","446","Female","[""好她"",""坏我"",""好我"",""坏她""]","[""强她"",""弱我"",""强我"",""弱她""]","","","","","","","","","","","","","","","","","SRET_EW","EW_instructions","Mon Dec 11 2023 18:43:07 GMT+0800 (中国标准时间)","","","","","","","","","","","","","","","","","","","",""
"1790","","f","psychophysics","9","141550","0.0-7.0-1.0-0.0","6","5","6","6","5","4","3","4","5","5","4","1","0","0","0","0","1","1","1","5","5","5","5","4","3","4","4","5","4","6","7","6","6","5","7","7","8","8","4","7","5","6","5","3","4","1","6","5","1","5","2","4","3","4","7","5","4","4","5","5","5","6","1","6","5","4","7","7","7","4","2","4","7","4","7","2","7","3","7","758958446577192962","练","446","Female","[""好她"",""坏我"",""好我"",""坏她""]","[""强她"",""弱我"",""强我"",""弱她""]","","","","","","","","yes","","","","","","","","","SRET_EW","EW_practice","","key","f","16.566666666666563","960","536","自己","严谨","Positive","ability","","","","","","","","","","",""
"711","","j","psychophysics","10","143263","0.0-7.0-1.0-0.1","6","5","6","6","5","4","3","4","5","5","4","1","0","0","0","0","1","1","1","5","5","5","5","4","3","4","4","5","4","6","7","6","6","5","7","7","8","8","4","7","5","6","5","3","4","1","6","5","1","5","2","4","3","4","7","5","4","4","5","5","5","6","1","6","5","4","7","7","7","4","2","4","7","4","7","2","7","3","7","758958446577192962","练","446","Female","[""好她"",""坏我"",""好我"",""坏她""]","[""强她"",""弱我"",""强我"",""弱她""]","","","","","","","","no","","","","","","","","","SRET_EW","EW_practice","","key","j","16.665686274509746","960","536","朋友","徇私","Negative","morality","","","","","","","","","","",""
"604","","j","psychophysics","11","144868","0.0-7.0-1.0-0.2","6","5","6","6","5","4","3","4","5","5","4","1","0","0","0","0","1","1","1","5","5","5","5","4","3","4","4","5","4","6","7","6","6","5","7","7","8","8","4","7","5","6","5","3","4","1","6","5","1","5","2","4","3","4","7","5","4","4","5","5","5","6","1","6","5","4","7","7","7","4","2","4","7","4","7","2","7","3","7","758958446577192962","练","446","Female","[""好她"",""坏我"",""好我"",""坏她""]","[""强她"",""弱我"",""强我"",""弱她""]","","","","","","","","no","","","","","","","","","SRET_EW","EW_practice","","key","j","16.666315789473867","960","536","朋友","忠实","Positive","morality","","","","","","","","","","",""
"616","","f","psychophysics","12","146486","0.0-7.0-1.0-0.3","6","5","6","6","5","4","3","4","5","5","4","1","0","0","0","0","1","1","1","5","5","5","5","4","3","4","4","5","4","6","7","6","6","5","7","7","8","8","4","7","5","6","5","3","4","1","6","5","1","5","2","4","3","4","7","5","4","4","5","5","5","6","1","6","5","4","7","7","7","4","2","4","7","4","7","2","7","3","7","758958446577192962","练","446","Female","[""好她"",""坏我"",""好我"",""坏她""]","[""强她"",""弱我"",""强我"",""弱她""]","","","","","","","","yes","","","","","","","","","SRET_EW","EW_practice","","key","f","16.66979166666685","960","536","自己","刻板","Negative","ability","","","","","","","","","","",""
"30313","
    <p><div style='color:white;font-size:35px; line-height:20px;'>请您再次阅读实验要求</div></p><br>
    <p><div style='color:white;font-size:25px; line-height:20px;'>请回忆某一个亲密的朋友，你们至少2年前就认识了，并且最近2年经常见面。</div></p>
    <p><div style='color:white;font-size:25px; line-height:20px;'>在本实验中，您将会看到一些形容词。</div></p>
    <p><div style='color:yellow;font-size:25px; line-height:20px;'>您的任务是判断这些形容词是否符合对您自己或您的朋友的描述。</div></p>
    <p><div class='footer' style='font-size:25px; line-height:20px;'>如果对本实验还有不清楚之处，请立即向实验员咨询。</p><p style='font-size:25px; line-height:20px;'>如果您明白了规则：</p><p style='font-size:22px; line-height:20px;'>请按 继续 进入正式实验</p>
    </div>
    <p style='font-size:35px'>符合按<span style=""color:lightgreen""> f 键</span>，不符合按<span style=""color:red""> j 键</span></p>","0","html-button-response","13","176799","0.0-7.0-2.0","6","5","6","6","5","4","3","4","5","5","4","1","0","0","0","0","1","1","1","5","5","5","5","4","3","4","4","5","4","6","7","6","6","5","7","7","8","8","4","7","5","6","5","3","4","1","6","5","1","5","2","4","3","4","7","5","4","4","5","5","5","6","1","6","5","4","7","7","7","4","2","4","7","4","7","2","7","3","7","758958446577192962","练","446","Female","[""好她"",""坏我"",""好我"",""坏她""]","[""强她"",""弱我"",""强我"",""弱她""]","","","","","","","","","","","","","","","","","SRET_EW","prac_instructions","Mon Dec 11 2023 18:43:07 GMT+0800 (中国标准时间)","","","","","","","","","","","","","","","","","","","",""
"null","","null","psychophysics","14","179803","0.0-7.0-3.0-0.0","6","5","6","6","5","4","3","4","5","5","4","1","0","0","0","0","1","1","1","5","5","5","5","4","3","4","4","5","4","6","7","6","6","5","7","7","8","8","4","7","5","6","5","3","4","1","6","5","1","5","2","4","3","4","7","5","4","4","5","5","5","6","1","6","5","4","7","7","7","4","2","4","7","4","7","2","7","3","7","758958446577192962","练","446","Female","[""好她"",""坏我"",""好我"",""坏她""]","[""强她"",""弱我"",""强我"",""弱她""]","","","","","","","","","","","","","","","","","SRET","EW_formal","","key","null","16.667222222222254","960","536","朋友","迷糊","Negative","ability","","","","","","","","","","",""
"1044","","f","psychophysics","15","181848","0.0-7.0-3.0-0.1","6","5","6","6","5","4","3","4","5","5","4","1","0","0","0","0","1","1","1","5","5","5","5","4","3","4","4","5","4","6","7","6","6","5","7","7","8","8","4","7","5","6","5","3","4","1","6","5","1","5","2","4","3","4","7","5","4","4","5","5","5","6","1","6","5","4","7","7","7","4","2","4","7","4","7","2","7","3","7","758958446577192962","练","446","Female","[""好她"",""坏我"",""好我"",""坏她""]","[""强她"",""弱我"",""强我"",""弱她""]","","","","","","","","yes","","","","","","","","","SRET","EW_formal","","key","f","16.669672131147397","960","536","朋友","务实","Positive","ability","","","","","","","","","","",""
"742","","f","psychophysics","16","183592","0.0-7.0-3.0-0.2","6","5","6","6","5","4","3","4","5","5","4","1","0","0","0","0","1","1","1","5","5","5","5","4","3","4","4","5","4","6","7","6","6","5","7","7","8","8","4","7","5","6","5","3","4","1","6","5","1","5","2","4","3","4","7","5","4","4","5","5","5","6","1","6","5","4","7","7","7","4","2","4","7","4","7","2","7","3","7","758958446577192962","练","446","Female","[""好她"",""坏我"",""好我"",""坏她""]","[""强她"",""弱我"",""强我"",""弱她""]","","","","","","","","yes","","","","","","","","","SRET","EW_formal","","key","f","16.666990291261968","960","536","自己","坚贞","Positive","morality","","","","","","","","","","",""
"627","","j","psychophysics","17","185221","0.0-7.0-3.0-0.3","6","5","6","6","5","4","3","4","5","5","4","1","0","0","0","0","1","1","1","5","5","5","5","4","3","4","4","5","4","6","7","6","6","5","7","7","8","8","4","7","5","6","5","3","4","1","6","5","1","5","2","4","3","4","7","5","4","4","5","5","5","6","1","6","5","4","7","7","7","4","2","4","7","4","7","2","7","3","7","758958446577192962","练","446","Female","[""好她"",""坏我"",""好我"",""坏她""]","[""强她"",""弱我"",""强我"",""弱她""]","","","","","","","","no","","","","","","","","","SRET","EW_formal","","key","j","16.670103092783506","960","536","自己","说谎","Negative","morality","","","","","","","","","","",""
"736","","f","psychophysics","18","186958","0.0-7.0-3.0-0.4","6","5","6","6","5","4","3","4","5","5","4","1","0","0","0","0","1","1","1","5","5","5","5","4","3","4","4","5","4","6","7","6","6","5","7","7","8","8","4","7","5","6","5","3","4","1","6","5","1","5","2","4","3","4","7","5","4","4","5","5","5","6","1","6","5","4","7","7","7","4","2","4","7","4","7","2","7","3","7","758958446577192962","练","446","Female","[""好她"",""坏我"",""好我"",""坏她""]","[""强她"",""弱我"",""强我"",""弱她""]","","","","","","","","yes","","","","","","","","","SRET","EW_formal","","key","f","16.66699029126225","960","536","朋友","博识","Positive","ability","","","","","","","","","","",""
"813","","f","psychophysics","19","188772","0.0-7.0-3.0-0.5","6","5","6","6","5","4","3","4","5","5","4","1","0","0","0","0","1","1","1","5","5","5","5","4","3","4","4","5","4","6","7","6","6","5","7","7","8","8","4","7","5","6","5","3","4","1","6","5","1","5","2","4","3","4","7","5","4","4","5","5","5","6","1","6","5","4","7","7","7","4","2","4","7","4","7","2","7","3","7","758958446577192962","练","446","Female","[""好她"",""坏我"",""好我"",""坏她""]","[""强她"",""弱我"",""强我"",""弱她""]","","","","","","","","yes","","","","","","","","","SRET","EW_formal","","key","f","16.665740740740958","960","536","自己","虚假","Negative","morality","","","","","","","","","","",""
"791","","j","psychophysics","20","190564","0.0-7.0-3.0-0.6","6","5","6","6","5","4","3","4","5","5","4","1","0","0","0","0","1","1","1","5","5","5","5","4","3","4","4","5","4","6","7","6","6","5","7","7","8","8","4","7","5","6","5","3","4","1","6","5","1","5","2","4","3","4","7","5","4","4","5","5","5","6","1","6","5","4","7","7","7","4","2","4","7","4","7","2","7","3","7","758958446577192962","练","446","Female","[""好她"",""坏我"",""好我"",""坏她""]","[""强她"",""弱我"",""强我"",""弱她""]","","","","","","","","no","","","","","","","","","SRET","EW_formal","","key","j","16.66635514018708","960","536","自己","迂拙","Negative","ability","","","","","","","","","","",""
"644","","f","psychophysics","21","192209","0.0-7.0-3.0-0.7","6","5","6","6","5","4","3","4","5","5","4","1","0","0","0","0","1","1","1","5","5","5","5","4","3","4","4","5","4","6","7","6","6","5","7","7","8","8","4","7","5","6","5","3","4","1","6","5","1","5","2","4","3","4","7","5","4","4","5","5","5","6","1","6","5","4","7","7","7","4","2","4","7","4","7","2","7","3","7","758958446577192962","练","446","Female","[""好她"",""坏我"",""好我"",""坏她""]","[""强她"",""弱我"",""强我"",""弱她""]","","","","","","","","yes","","","","","","","","","SRET","EW_formal","","key","f","16.66597938144336","960","536","自己","守信","Positive","morality","","","","","","","","","","",""
"1061","","f","psychophysics","22","194270","0.0-7.0-3.0-0.8","6","5","6","6","5","4","3","4","5","5","4","1","0","0","0","0","1","1","1","5","5","5","5","4","3","4","4","5","4","6","7","6","6","5","7","7","8","8","4","7","5","6","5","3","4","1","6","5","1","5","2","4","3","4","7","5","4","4","5","5","5","6","1","6","5","4","7","7","7","4","2","4","7","4","7","2","7","3","7","758958446577192962","练","446","Female","[""好她"",""坏我"",""好我"",""坏她""]","[""强她"",""弱我"",""强我"",""弱她""]","","","","","","","","yes","","","","","","","","","SRET","EW_formal","","key","f","16.668292682926925","960","536","朋友","廉明","Positive","morality","","","","","","","","","","",""
"750","","j","psychophysics","23","196021","0.0-7.0-3.0-0.9","6","5","6","6","5","4","3","4","5","5","4","1","0","0","0","0","1","1","1","5","5","5","5","4","3","4","4","5","4","6","7","6","6","5","7","7","8","8","4","7","5","6","5","3","4","1","6","5","1","5","2","4","3","4","7","5","4","4","5","5","5","6","1","6","5","4","7","7","7","4","2","4","7","4","7","2","7","3","7","758958446577192962","练","446","Female","[""好她"",""坏我"",""好我"",""坏她""]","[""强她"",""弱我"",""强我"",""弱她""]","","","","","","","","no","","","","","","","","","SRET","EW_formal","","key","j","16.667307692307638","960","536","朋友","不仁","Negative","morality","","","","","","","","","","",""
"710","","j","psychophysics","24","197733","0.0-7.0-3.0-0.10","6","5","6","6","5","4","3","4","5","5","4","1","0","0","0","0","1","1","1","5","5","5","5","4","3","4","4","5","4","6","7","6","6","5","7","7","8","8","4","7","5","6","5","3","4","1","6","5","1","5","2","4","3","4","7","5","4","4","5","5","5","6","1","6","5","4","7","7","7","4","2","4","7","4","7","2","7","3","7","758958446577192962","练","446","Female","[""好她"",""坏我"",""好我"",""坏她""]","[""强她"",""弱我"",""强我"",""弱她""]","","","","","","","","no","","","","","","","","","SRET","EW_formal","","key","j","16.667647058823587","960","536","朋友","恶劣","Negative","morality","","","","","","","","","","",""
"693","","j","psychophysics","25","199428","0.0-7.0-3.0-0.11","6","5","6","6","5","4","3","4","5","5","4","1","0","0","0","0","1","1","1","5","5","5","5","4","3","4","4","5","4","6","7","6","6","5","7","7","8","8","4","7","5","6","5","3","4","1","6","5","1","5","2","4","3","4","7","5","4","4","5","5","5","6","1","6","5","4","7","7","7","4","2","4","7","4","7","2","7","3","7","758958446577192962","练","446","Female","[""好她"",""坏我"",""好我"",""坏她""]","[""强她"",""弱我"",""强我"",""弱她""]","","","","","","","","no","","","","","","","","","SRET","EW_formal","","key","j","16.666336633663253","960","536","朋友","下流","Negative","morality","","","","","","","","","","",""
"775","","j","psychophysics","26","201205","0.0-7.0-3.0-0.12","6","5","6","6","5","4","3","4","5","5","4","1","0","0","0","0","1","1","1","5","5","5","5","4","3","4","4","5","4","6","7","6","6","5","7","7","8","8","4","7","5","6","5","3","4","1","6","5","1","5","2","4","3","4","7","5","4","4","5","5","5","6","1","6","5","4","7","7","7","4","2","4","7","4","7","2","7","3","7","758958446577192962","练","446","Female","[""好她"",""坏我"",""好我"",""坏她""]","[""强她"",""弱我"",""强我"",""弱她""]","","","","","","","","no","","","","","","","","","SRET","EW_formal","","key","j","16.6676190476191","960","536","自己","刻薄","Negative","morality","","","","","","","","","","",""
"639","","j","psychophysics","27","202849","0.0-7.0-3.0-0.13","6","5","6","6","5","4","3","4","5","5","4","1","0","0","0","0","1","1","1","5","5","5","5","4","3","4","4","5","4","6","7","6","6","5","7","7","8","8","4","7","5","6","5","3","4","1","6","5","1","5","2","4","3","4","7","5","4","4","5","5","5","6","1","6","5","4","7","7","7","4","2","4","7","4","7","2","7","3","7","758958446577192962","练","446","Female","[""好她"",""坏我"",""好我"",""坏她""]","[""强她"",""弱我"",""强我"",""弱她""]","","","","","","","","no","","","","","","","","","SRET","EW_formal","","key","j","16.666326530612423","960","536","朋友","拖延","Negative","ability","","","","","","","","","","",""
"1067","","f","psychophysics","28","204917","0.0-7.0-3.0-0.14","6","5","6","6","5","4","3","4","5","5","4","1","0","0","0","0","1","1","1","5","5","5","5","4","3","4","4","5","4","6","7","6","6","5","7","7","8","8","4","7","5","6","5","3","4","1","6","5","1","5","2","4","3","4","7","5","4","4","5","5","5","6","1","6","5","4","7","7","7","4","2","4","7","4","7","2","7","3","7","758958446577192962","练","446","Female","[""好她"",""坏我"",""好我"",""坏她""]","[""强她"",""弱我"",""强我"",""弱她""]","","","","","","","","yes","","","","","","","","","SRET","EW_formal","","key","f","16.665853658536538","960","536","朋友","守法","Positive","morality","","","","","","","","","","",""
"625","","j","psychophysics","29","206542","0.0-7.0-3.0-0.15","6","5","6","6","5","4","3","4","5","5","4","1","0","0","0","0","1","1","1","5","5","5","5","4","3","4","4","5","4","6","7","6","6","5","7","7","8","8","4","7","5","6","5","3","4","1","6","5","1","5","2","4","3","4","7","5","4","4","5","5","5","6","1","6","5","4","7","7","7","4","2","4","7","4","7","2","7","3","7","758958446577192962","练","446","Female","[""好她"",""坏我"",""好我"",""坏她""]","[""强她"",""弱我"",""强我"",""弱她""]","","","","","","","","no","","","","","","","","","SRET","EW_formal","","key","j","16.66875000000012","960","536","朋友","狡诈","Negative","morality","","","","","","","","","","",""
"918","","j","psychophysics","30","208462","0.0-7.0-3.0-0.16","6","5","6","6","5","4","3","4","5","5","4","1","0","0","0","0","1","1","1","5","5","5","5","4","3","4","4","5","4","6","7","6","6","5","7","7","8","8","4","7","5","6","5","3","4","1","6","5","1","5","2","4","3","4","7","5","4","4","5","5","5","6","1","6","5","4","7","7","7","4","2","4","7","4","7","2","7","3","7","758958446577192962","练","446","Female","[""好她"",""坏我"",""好我"",""坏她""]","[""强她"",""弱我"",""强我"",""弱她""]","","","","","","","","no","","","","","","","","","SRET","EW_formal","","key","j","16.668695652173863","960","536","朋友","才尽","Negative","ability","","","","","","","","","","",""
"772","","j","psychophysics","31","210236","0.0-7.0-3.0-0.17","6","5","6","6","5","4","3","4","5","5","4","1","0","0","0","0","1","1","1","5","5","5","5","4","3","4","4","5","4","6","7","6","6","5","7","7","8","8","4","7","5","6","5","3","4","1","6","5","1","5","2","4","3","4","7","5","4","4","5","5","5","6","1","6","5","4","7","7","7","4","2","4","7","4","7","2","7","3","7","758958446577192962","练","446","Female","[""好她"",""坏我"",""好我"",""坏她""]","[""强她"",""弱我"",""强我"",""弱她""]","","","","","","","","no","","","","","","","","","SRET","EW_formal","","key","j","16.6676190476191","960","536","朋友","逞能","Negative","ability","","","","","","","","","","",""
"746","","j","psychophysics","32","211984","0.0-7.0-3.0-0.18","6","5","6","6","5","4","3","4","5","5","4","1","0","0","0","0","1","1","1","5","5","5","5","4","3","4","4","5","4","6","7","6","6","5","7","7","8","8","4","7","5","6","5","3","4","1","6","5","1","5","2","4","3","4","7","5","4","4","5","5","5","6","1","6","5","4","7","7","7","4","2","4","7","4","7","2","7","3","7","758958446577192962","练","446","Female","[""好她"",""坏我"",""好我"",""坏她""]","[""强她"",""弱我"",""强我"",""弱她""]","","","","","","","","no","","","","","","","","","SRET","EW_formal","","key","j","16.645192307692362","960","536","朋友","不良","Negative","morality","","","","","","","","","","",""
"892","","f","psychophysics","33","213877","0.0-7.0-3.0-0.19","6","5","6","6","5","4","3","4","5","5","4","1","0","0","0","0","1","1","1","5","5","5","5","4","3","4","4","5","4","6","7","6","6","5","7","7","8","8","4","7","5","6","5","3","4","1","6","5","1","5","2","4","3","4","7","5","4","4","5","5","5","6","1","6","5","4","7","7","7","4","2","4","7","4","7","2","7","3","7","758958446577192962","练","446","Female","[""好她"",""坏我"",""好我"",""坏她""]","[""强她"",""弱我"",""强我"",""弱她""]","","","","","","","","yes","","","","","","","","","SRET","EW_formal","","key","f","16.655752212389434","960","536","朋友","文明","Positive","morality","","","","","","","","","","",""
"690","","f","psychophysics","34","215569","0.0-7.0-3.0-0.20","6","5","6","6","5","4","3","4","5","5","4","1","0","0","0","0","1","1","1","5","5","5","5","4","3","4","4","5","4","6","7","6","6","5","7","7","8","8","4","7","5","6","5","3","4","1","6","5","1","5","2","4","3","4","7","5","4","4","5","5","5","6","1","6","5","4","7","7","7","4","2","4","7","4","7","2","7","3","7","758958446577192962","练","446","Female","[""好她"",""坏我"",""好我"",""坏她""]","[""强她"",""弱我"",""强我"",""弱她""]","","","","","","","","yes","","","","","","","","","SRET","EW_formal","","key","f","16.67","960","536","自己","热心","Positive","morality","","","","","","","","","","",""
"629","","j","psychophysics","35","217198","0.0-7.0-3.0-0.21","6","5","6","6","5","4","3","4","5","5","4","1","0","0","0","0","1","1","1","5","5","5","5","4","3","4","4","5","4","6","7","6","6","5","7","7","8","8","4","7","5","6","5","3","4","1","6","5","1","5","2","4","3","4","7","5","4","4","5","5","5","6","1","6","5","4","7","7","7","4","2","4","7","4","7","2","7","3","7","758958446577192962","练","446","Female","[""好她"",""坏我"",""好我"",""坏她""]","[""强她"",""弱我"",""强我"",""弱她""]","","","","","","","","no","","","","","","","","","SRET","EW_formal","","key","j","16.66701030927847","960","536","朋友","诡诈","Negative","morality","","","","","","","","","","",""
"766","","f","psychophysics","36","218966","0.0-7.0-3.0-0.22","6","5","6","6","5","4","3","4","5","5","4","1","0","0","0","0","1","1","1","5","5","5","5","4","3","4","4","5","4","6","7","6","6","5","7","7","8","8","4","7","5","6","5","3","4","1","6","5","1","5","2","4","3","4","7","5","4","4","5","5","5","6","1","6","5","4","7","7","7","4","2","4","7","4","7","2","7","3","7","758958446577192962","练","446","Female","[""好她"",""坏我"",""好我"",""坏她""]","[""强她"",""弱我"",""强我"",""弱她""]","","","","","","","","yes","","","","","","","","","SRET","EW_formal","","key","f","16.66380952380936","960","536","自己","毅力","Positive","ability","","","","","","","","","","",""
"629","","j","psychophysics","37","220597","0.0-7.0-3.0-0.23","6","5","6","6","5","4","3","4","5","5","4","1","0","0","0","0","1","1","1","5","5","5","5","4","3","4","4","5","4","6","7","6","6","5","7","7","8","8","4","7","5","6","5","3","4","1","6","5","1","5","2","4","3","4","7","5","4","4","5","5","5","6","1","6","5","4","7","7","7","4","2","4","7","4","7","2","7","3","7","758958446577192962","练","446","Female","[""好她"",""坏我"",""好我"",""坏她""]","[""强她"",""弱我"",""强我"",""弱她""]","","","","","","","","no","","","","","","","","","SRET","EW_formal","","key","j","16.66701030927847","960","536","朋友","短视","Negative","ability","","","","","","","","","","",""
"630","","f","psychophysics","38","222229","0.0-7.0-3.0-0.24","6","5","6","6","5","4","3","4","5","5","4","1","0","0","0","0","1","1","1","5","5","5","5","4","3","4","4","5","4","6","7","6","6","5","7","7","8","8","4","7","5","6","5","3","4","1","6","5","1","5","2","4","3","4","7","5","4","4","5","5","5","6","1","6","5","4","7","7","7","4","2","4","7","4","7","2","7","3","7","758958446577192962","练","446","Female","[""好她"",""坏我"",""好我"",""坏她""]","[""强她"",""弱我"",""强我"",""弱她""]","","","","","","","","yes","","","","","","","","","SRET","EW_formal","","key","f","16.663917525773137","960","536","朋友","智慧","Positive","ability","","","","","","","","","","",""
"530","","j","psychophysics","39","223760","0.0-7.0-3.0-0.25","6","5","6","6","5","4","3","4","5","5","4","1","0","0","0","0","1","1","1","5","5","5","5","4","3","4","4","5","4","6","7","6","6","5","7","7","8","8","4","7","5","6","5","3","4","1","6","5","1","5","2","4","3","4","7","5","4","4","5","5","5","6","1","6","5","4","7","7","7","4","2","4","7","4","7","2","7","3","7","758958446577192962","练","446","Female","[""好她"",""坏我"",""好我"",""坏她""]","[""强她"",""弱我"",""强我"",""弱她""]","","","","","","","","no","","","","","","","","","SRET","EW_formal","","key","j","16.66593406593381","960","536","自己","邪恶","Negative","morality","","","","","","","","","","",""
"635","","f","psychophysics","40","225397","0.0-7.0-3.0-0.26","6","5","6","6","5","4","3","4","5","5","4","1","0","0","0","0","1","1","1","5","5","5","5","4","3","4","4","5","4","6","7","6","6","5","7","7","8","8","4","7","5","6","5","3","4","1","6","5","1","5","2","4","3","4","7","5","4","4","5","5","5","6","1","6","5","4","7","7","7","4","2","4","7","4","7","2","7","3","7","758958446577192962","练","446","Female","[""好她"",""坏我"",""好我"",""坏她""]","[""强她"",""弱我"",""强我"",""弱她""]","","","","","","","","yes","","","","","","","","","SRET","EW_formal","","key","f","16.664948453608247","960","536","朋友","正气","Positive","morality","","","","","","","","","","",""
"585","","f","psychophysics","41","226988","0.0-7.0-3.0-0.27","6","5","6","6","5","4","3","4","5","5","4","1","0","0","0","0","1","1","1","5","5","5","5","4","3","4","4","5","4","6","7","6","6","5","7","7","8","8","4","7","5","6","5","3","4","1","6","5","1","5","2","4","3","4","7","5","4","4","5","5","5","6","1","6","5","4","7","7","7","4","2","4","7","4","7","2","7","3","7","758958446577192962","练","446","Female","[""好她"",""坏我"",""好我"",""坏她""]","[""强她"",""弱我"",""强我"",""弱她""]","","","","","","","","yes","","","","","","","","","SRET","EW_formal","","key","f","16.667021276595868","960","536","自己","能干","Positive","ability","","","","","","","","","","",""
"664","","f","psychophysics","42","228652","0.0-7.0-3.0-0.28","6","5","6","6","5","4","3","4","5","5","4","1","0","0","0","0","1","1","1","5","5","5","5","4","3","4","4","5","4","6","7","6","6","5","7","7","8","8","4","7","5","6","5","3","4","1","6","5","1","5","2","4","3","4","7","5","4","4","5","5","5","6","1","6","5","4","7","7","7","4","2","4","7","4","7","2","7","3","7","758958446577192962","练","446","Female","[""好她"",""坏我"",""好我"",""坏她""]","[""强她"",""弱我"",""强我"",""弱她""]","","","","","","","","yes","","","","","","","","","SRET","EW_formal","","key","f","16.65555555555579","960","536","自己","仗义","Positive","morality","","","","","","","","","","",""
"535","","f","psychophysics","43","230188","0.0-7.0-3.0-0.29","6","5","6","6","5","4","3","4","5","5","4","1","0","0","0","0","1","1","1","5","5","5","5","4","3","4","4","5","4","6","7","6","6","5","7","7","8","8","4","7","5","6","5","3","4","1","6","5","1","5","2","4","3","4","7","5","4","4","5","5","5","6","1","6","5","4","7","7","7","4","2","4","7","4","7","2","7","3","7","758958446577192962","练","446","Female","[""好她"",""坏我"",""好我"",""坏她""]","[""强她"",""弱我"",""强我"",""弱她""]","","","","","","","","yes","","","","","","","","","SRET","EW_formal","","key","f","16.667032967033094","960","536","自己","聪明","Positive","ability","","","","","","","","","","",""
"526","","f","psychophysics","44","231716","0.0-7.0-3.0-0.30","6","5","6","6","5","4","3","4","5","5","4","1","0","0","0","0","1","1","1","5","5","5","5","4","3","4","4","5","4","6","7","6","6","5","7","7","8","8","4","7","5","6","5","3","4","1","6","5","1","5","2","4","3","4","7","5","4","4","5","5","5","6","1","6","5","4","7","7","7","4","2","4","7","4","7","2","7","3","7","758958446577192962","练","446","Female","[""好她"",""坏我"",""好我"",""坏她""]","[""强她"",""弱我"",""强我"",""弱她""]","","","","","","","","yes","","","","","","","","","SRET","EW_formal","","key","f","16.636263736263672","960","536","自己","刚正","Positive","morality","","","","","","","","","","",""
"679","","j","psychophysics","45","233397","0.0-7.0-3.0-0.31","6","5","6","6","5","4","3","4","5","5","4","1","0","0","0","0","1","1","1","5","5","5","5","4","3","4","4","5","4","6","7","6","6","5","7","7","8","8","4","7","5","6","5","3","4","1","6","5","1","5","2","4","3","4","7","5","4","4","5","5","5","6","1","6","5","4","7","7","7","4","2","4","7","4","7","2","7","3","7","758958446577192962","练","446","Female","[""好她"",""坏我"",""好我"",""坏她""]","[""强她"",""弱我"",""强我"",""弱她""]","","","","","","","","no","","","","","","","","","SRET","EW_formal","","key","j","16.665","960","536","自己","庸碌","Negative","ability","","","","","","","","","","",""
"611","","j","psychophysics","46","235021","0.0-7.0-3.0-0.32","6","5","6","6","5","4","3","4","5","5","4","1","0","0","0","0","1","1","1","5","5","5","5","4","3","4","4","5","4","6","7","6","6","5","7","7","8","8","4","7","5","6","5","3","4","1","6","5","1","5","2","4","3","4","7","5","4","4","5","5","5","6","1","6","5","4","7","7","7","4","2","4","7","4","7","2","7","3","7","758958446577192962","练","446","Female","[""好她"",""坏我"",""好我"",""坏她""]","[""强她"",""弱我"",""强我"",""弱她""]","","","","","","","","no","","","","","","","","","SRET","EW_formal","","key","j","16.666666666666668","960","536","朋友","黑心","Negative","morality","","","","","","","","","","",""
"734","","f","psychophysics","47","236756","0.0-7.0-3.0-0.33","6","5","6","6","5","4","3","4","5","5","4","1","0","0","0","0","1","1","1","5","5","5","5","4","3","4","4","5","4","6","7","6","6","5","7","7","8","8","4","7","5","6","5","3","4","1","6","5","1","5","2","4","3","4","7","5","4","4","5","5","5","6","1","6","5","4","7","7","7","4","2","4","7","4","7","2","7","3","7","758958446577192962","练","446","Female","[""好她"",""坏我"",""好我"",""坏她""]","[""强她"",""弱我"",""强我"",""弱她""]","","","","","","","","yes","","","","","","","","","SRET","EW_formal","","key","f","16.66699029126225","960","536","朋友","娴熟","Positive","ability","","","","","","","","","","",""
"592","","f","psychophysics","48","238349","0.0-7.0-3.0-0.34","6","5","6","6","5","4","3","4","5","5","4","1","0","0","0","0","1","1","1","5","5","5","5","4","3","4","4","5","4","6","7","6","6","5","7","7","8","8","4","7","5","6","5","3","4","1","6","5","1","5","2","4","3","4","7","5","4","4","5","5","5","6","1","6","5","4","7","7","7","4","2","4","7","4","7","2","7","3","7","758958446577192962","练","446","Female","[""好她"",""坏我"",""好我"",""坏她""]","[""强她"",""弱我"",""强我"",""弱她""]","","","","","","","","yes","","","","","","","","","SRET","EW_formal","","key","f","16.654736842105386","960","536","朋友","仁厚","Positive","morality","","","","","","","","","","",""
"687","","f","psychophysics","49","240037","0.0-7.0-3.0-0.35","6","5","6","6","5","4","3","4","5","5","4","1","0","0","0","0","1","1","1","5","5","5","5","4","3","4","4","5","4","6","7","6","6","5","7","7","8","8","4","7","5","6","5","3","4","1","6","5","1","5","2","4","3","4","7","5","4","4","5","5","5","6","1","6","5","4","7","7","7","4","2","4","7","4","7","2","7","3","7","758958446577192962","练","446","Female","[""好她"",""坏我"",""好我"",""坏她""]","[""强她"",""弱我"",""强我"",""弱她""]","","","","","","","","yes","","","","","","","","","SRET","EW_formal","","key","f","16.667000000000115","960","536","朋友","远见","Positive","ability","","","","","","","","","","",""
"641","","j","psychophysics","50","241679","0.0-7.0-3.0-0.36","6","5","6","6","5","4","3","4","5","5","4","1","0","0","0","0","1","1","1","5","5","5","5","4","3","4","4","5","4","6","7","6","6","5","7","7","8","8","4","7","5","6","5","3","4","1","6","5","1","5","2","4","3","4","7","5","4","4","5","5","5","6","1","6","5","4","7","7","7","4","2","4","7","4","7","2","7","3","7","758958446577192962","练","446","Female","[""好她"",""坏我"",""好我"",""坏她""]","[""强她"",""弱我"",""强我"",""弱她""]","","","","","","","","no","","","","","","","","","SRET","EW_formal","","key","j","16.667346938775452","960","536","朋友","淫乱","Negative","morality","","","","","","","","","","",""
"901","","j","psychophysics","51","243581","0.0-7.0-3.0-0.37","6","5","6","6","5","4","3","4","5","5","4","1","0","0","0","0","1","1","1","5","5","5","5","4","3","4","4","5","4","6","7","6","6","5","7","7","8","8","4","7","5","6","5","3","4","1","6","5","1","5","2","4","3","4","7","5","4","4","5","5","5","6","1","6","5","4","7","7","7","4","2","4","7","4","7","2","7","3","7","758958446577192962","练","446","Female","[""好她"",""坏我"",""好我"",""坏她""]","[""强她"",""弱我"",""强我"",""弱她""]","","","","","","","","no","","","","","","","","","SRET","EW_formal","","key","j","16.666371681416084","960","536","自己","罪恶","Negative","morality","","","","","","","","","","",""
"704","","f","psychophysics","52","245286","0.0-7.0-3.0-0.38","6","5","6","6","5","4","3","4","5","5","4","1","0","0","0","0","1","1","1","5","5","5","5","4","3","4","4","5","4","6","7","6","6","5","7","7","8","8","4","7","5","6","5","3","4","1","6","5","1","5","2","4","3","4","7","5","4","4","5","5","5","6","1","6","5","4","7","7","7","4","2","4","7","4","7","2","7","3","7","758958446577192962","练","446","Female","[""好她"",""坏我"",""好我"",""坏她""]","[""强她"",""弱我"",""强我"",""弱她""]","","","","","","","","yes","","","","","","","","","SRET","EW_formal","","key","f","16.66633663366354","960","536","朋友","忠义","Positive","morality","","","","","","","","","","",""
"617","","j","psychophysics","53","246904","0.0-7.0-3.0-0.39","6","5","6","6","5","4","3","4","5","5","4","1","0","0","0","0","1","1","1","5","5","5","5","4","3","4","4","5","4","6","7","6","6","5","7","7","8","8","4","7","5","6","5","3","4","1","6","5","1","5","2","4","3","4","7","5","4","4","5","5","5","6","1","6","5","4","7","7","7","4","2","4","7","4","7","2","7","3","7","758958446577192962","练","446","Female","[""好她"",""坏我"",""好我"",""坏她""]","[""强她"",""弱我"",""强我"",""弱她""]","","","","","","","","no","","","","","","","","","SRET","EW_formal","","key","j","16.664583333333212","960","536","自己","昏庸","Negative","ability","","","","","","","","","","",""
"731","","f","psychophysics","54","248636","0.0-7.0-3.0-0.40","6","5","6","6","5","4","3","4","5","5","4","1","0","0","0","0","1","1","1","5","5","5","5","4","3","4","4","5","4","6","7","6","6","5","7","7","8","8","4","7","5","6","5","3","4","1","6","5","1","5","2","4","3","4","7","5","4","4","5","5","5","6","1","6","5","4","7","7","7","4","2","4","7","4","7","2","7","3","7","758958446577192962","练","446","Female","[""好她"",""坏我"",""好我"",""坏她""]","[""强她"",""弱我"",""强我"",""弱她""]","","","","","","","","yes","","","","","","","","","SRET","EW_formal","","key","f","16.66699029126225","960","536","自己","利落","Positive","ability","","","","","","","","","","",""
"599","","j","psychophysics","55","250236","0.0-7.0-3.0-0.41","6","5","6","6","5","4","3","4","5","5","4","1","0","0","0","0","1","1","1","5","5","5","5","4","3","4","4","5","4","6","7","6","6","5","7","7","8","8","4","7","5","6","5","3","4","1","6","5","1","5","2","4","3","4","7","5","4","4","5","5","5","6","1","6","5","4","7","7","7","4","2","4","7","4","7","2","7","3","7","758958446577192962","练","446","Female","[""好她"",""坏我"",""好我"",""坏她""]","[""强她"",""弱我"",""强我"",""弱她""]","","","","","","","","no","","","","","","","","","SRET","EW_formal","","key","j","16.66947368421028","960","536","自己","无能","Negative","ability","","","","","","","","","","",""
"1329","","j","psychophysics","56","252566","0.0-7.0-3.0-0.42","6","5","6","6","5","4","3","4","5","5","4","1","0","0","0","0","1","1","1","5","5","5","5","4","3","4","4","5","4","6","7","6","6","5","7","7","8","8","4","7","5","6","5","3","4","1","6","5","1","5","2","4","3","4","7","5","4","4","5","5","5","6","1","6","5","4","7","7","7","4","2","4","7","4","7","2","7","3","7","758958446577192962","练","446","Female","[""好她"",""坏我"",""好我"",""坏她""]","[""强她"",""弱我"",""强我"",""弱她""]","","","","","","","","no","","","","","","","","","SRET","EW_formal","","key","j","16.66762589928049","960","536","自己","业余","Negative","ability","","","","","","","","","","",""
"740","","f","psychophysics","57","254308","0.0-7.0-3.0-0.43","6","5","6","6","5","4","3","4","5","5","4","1","0","0","0","0","1","1","1","5","5","5","5","4","3","4","4","5","4","6","7","6","6","5","7","7","8","8","4","7","5","6","5","3","4","1","6","5","1","5","2","4","3","4","7","5","4","4","5","5","5","6","1","6","5","4","7","7","7","4","2","4","7","4","7","2","7","3","7","758958446577192962","练","446","Female","[""好她"",""坏我"",""好我"",""坏她""]","[""强她"",""弱我"",""强我"",""弱她""]","","","","","","","","yes","","","","","","","","","SRET","EW_formal","","key","f","16.66990291262136","960","536","朋友","依靠","Negative","ability","","","","","","","","","","",""
"569","","f","psychophysics","58","255878","0.0-7.0-3.0-0.44","6","5","6","6","5","4","3","4","5","5","4","1","0","0","0","0","1","1","1","5","5","5","5","4","3","4","4","5","4","6","7","6","6","5","7","7","8","8","4","7","5","6","5","3","4","1","6","5","1","5","2","4","3","4","7","5","4","4","5","5","5","6","1","6","5","4","7","7","7","4","2","4","7","4","7","2","7","3","7","758958446577192962","练","446","Female","[""好她"",""坏我"",""好我"",""坏她""]","[""强她"",""弱我"",""强我"",""弱她""]","","","","","","","","yes","","","","","","","","","SRET","EW_formal","","key","f","16.665957446808573","960","536","朋友","周到","Positive","ability","","","","","","","","","","",""
"646","","j","psychophysics","59","257525","0.0-7.0-3.0-0.45","6","5","6","6","5","4","3","4","5","5","4","1","0","0","0","0","1","1","1","5","5","5","5","4","3","4","4","5","4","6","7","6","6","5","7","7","8","8","4","7","5","6","5","3","4","1","6","5","1","5","2","4","3","4","7","5","4","4","5","5","5","6","1","6","5","4","7","7","7","4","2","4","7","4","7","2","7","3","7","758958446577192962","练","446","Female","[""好她"",""坏我"",""好我"",""坏她""]","[""强她"",""弱我"",""强我"",""弱她""]","","","","","","","","no","","","","","","","","","SRET","EW_formal","","key","j","16.66701030927817","960","536","自己","势利","Negative","morality","","","","","","","","","","",""
"605","","j","psychophysics","60","259132","0.0-7.0-3.0-0.46","6","5","6","6","5","4","3","4","5","5","4","1","0","0","0","0","1","1","1","5","5","5","5","4","3","4","4","5","4","6","7","6","6","5","7","7","8","8","4","7","5","6","5","3","4","1","6","5","1","5","2","4","3","4","7","5","4","4","5","5","5","6","1","6","5","4","7","7","7","4","2","4","7","4","7","2","7","3","7","758958446577192962","练","446","Female","[""好她"",""坏我"",""好我"",""坏她""]","[""强她"",""弱我"",""强我"",""弱她""]","","","","","","","","no","","","","","","","","","SRET","EW_formal","","key","j","16.666666666666668","960","536","自己","低劣","Negative","morality","","","","","","","","","","",""
"767","","j","psychophysics","61","260900","0.0-7.0-3.0-0.47","6","5","6","6","5","4","3","4","5","5","4","1","0","0","0","0","1","1","1","5","5","5","5","4","3","4","4","5","4","6","7","6","6","5","7","7","8","8","4","7","5","6","5","3","4","1","6","5","1","5","2","4","3","4","7","5","4","4","5","5","5","6","1","6","5","4","7","7","7","4","2","4","7","4","7","2","7","3","7","758958446577192962","练","446","Female","[""好她"",""坏我"",""好我"",""坏她""]","[""强她"",""弱我"",""强我"",""弱她""]","","","","","","","","no","","","","","","","","","SRET","EW_formal","","key","j","16.667619047618825","960","536","自己","差生","Negative","ability","","","","","","","","","","",""
"575","","f","psychophysics","62","262477","0.0-7.0-3.0-0.48","6","5","6","6","5","4","3","4","5","5","4","1","0","0","0","0","1","1","1","5","5","5","5","4","3","4","4","5","4","6","7","6","6","5","7","7","8","8","4","7","5","6","5","3","4","1","6","5","1","5","2","4","3","4","7","5","4","4","5","5","5","6","1","6","5","4","7","7","7","4","2","4","7","4","7","2","7","3","7","758958446577192962","练","446","Female","[""好她"",""坏我"",""好我"",""坏她""]","[""强她"",""弱我"",""强我"",""弱她""]","","","","","","","","yes","","","","","","","","","SRET","EW_formal","","key","f","16.668085106383163","960","536","自己","廉正","Positive","morality","","","","","","","","","","",""
"650","","j","psychophysics","63","264129","0.0-7.0-3.0-0.49","6","5","6","6","5","4","3","4","5","5","4","1","0","0","0","0","1","1","1","5","5","5","5","4","3","4","4","5","4","6","7","6","6","5","7","7","8","8","4","7","5","6","5","3","4","1","6","5","1","5","2","4","3","4","7","5","4","4","5","5","5","6","1","6","5","4","7","7","7","4","2","4","7","4","7","2","7","3","7","758958446577192962","练","446","Female","[""好她"",""坏我"",""好我"",""坏她""]","[""强她"",""弱我"",""强我"",""弱她""]","","","","","","","","no","","","","","","","","","SRET","EW_formal","","key","j","16.666326530612125","960","536","朋友","愚钝","Negative","ability","","","","","","","","","","",""
"702","","f","psychophysics","64","265834","0.0-7.0-3.0-0.50","6","5","6","6","5","4","3","4","5","5","4","1","0","0","0","0","1","1","1","5","5","5","5","4","3","4","4","5","4","6","7","6","6","5","7","7","8","8","4","7","5","6","5","3","4","1","6","5","1","5","2","4","3","4","7","5","4","4","5","5","5","6","1","6","5","4","7","7","7","4","2","4","7","4","7","2","7","3","7","758958446577192962","练","446","Female","[""好她"",""坏我"",""好我"",""坏她""]","[""强她"",""弱我"",""强我"",""弱她""]","","","","","","","","yes","","","","","","","","","SRET","EW_formal","","key","f","16.670297029703086","960","536","朋友","专注","Positive","ability","","","","","","","","","","",""
"745","","j","psychophysics","65","267580","0.0-7.0-3.0-0.51","6","5","6","6","5","4","3","4","5","5","4","1","0","0","0","0","1","1","1","5","5","5","5","4","3","4","4","5","4","6","7","6","6","5","7","7","8","8","4","7","5","6","5","3","4","1","6","5","1","5","2","4","3","4","7","5","4","4","5","5","5","6","1","6","5","4","7","7","7","4","2","4","7","4","7","2","7","3","7","758958446577192962","练","446","Female","[""好她"",""坏我"",""好我"",""坏她""]","[""强她"",""弱我"",""强我"",""弱她""]","","","","","","","","no","","","","","","","","","SRET","EW_formal","","key","j","16.665384615384166","960","536","自己","利己","Negative","morality","","","","","","","","","","",""
"874","","j","psychophysics","66","269456","0.0-7.0-3.0-0.52","6","5","6","6","5","4","3","4","5","5","4","1","0","0","0","0","1","1","1","5","5","5","5","4","3","4","4","5","4","6","7","6","6","5","7","7","8","8","4","7","5","6","5","3","4","1","6","5","1","5","2","4","3","4","7","5","4","4","5","5","5","6","1","6","5","4","7","7","7","4","2","4","7","4","7","2","7","3","7","758958446577192962","练","446","Female","[""好她"",""坏我"",""好我"",""坏她""]","[""强她"",""弱我"",""强我"",""弱她""]","","","","","","","","no","","","","","","","","","SRET","EW_formal","","key","j","16.666666666666668","960","536","自己","缺德","Negative","morality","","","","","","","","","","",""
"607","","f","psychophysics","67","271064","0.0-7.0-3.0-0.53","6","5","6","6","5","4","3","4","5","5","4","1","0","0","0","0","1","1","1","5","5","5","5","4","3","4","4","5","4","6","7","6","6","5","7","7","8","8","4","7","5","6","5","3","4","1","6","5","1","5","2","4","3","4","7","5","4","4","5","5","5","6","1","6","5","4","7","7","7","4","2","4","7","4","7","2","7","3","7","758958446577192962","练","446","Female","[""好她"",""坏我"",""好我"",""坏她""]","[""强她"",""弱我"",""强我"",""弱她""]","","","","","","","","yes","","","","","","","","","SRET","EW_formal","","key","f","16.665625000000244","960","536","自己","厚道","Positive","morality","","","","","","","","","","",""
"651","","f","psychophysics","68","272718","0.0-7.0-3.0-0.54","6","5","6","6","5","4","3","4","5","5","4","1","0","0","0","0","1","1","1","5","5","5","5","4","3","4","4","5","4","6","7","6","6","5","7","7","8","8","4","7","5","6","5","3","4","1","6","5","1","5","2","4","3","4","7","5","4","4","5","5","5","6","1","6","5","4","7","7","7","4","2","4","7","4","7","2","7","3","7","758958446577192962","练","446","Female","[""好她"",""坏我"",""好我"",""坏她""]","[""强她"",""弱我"",""强我"",""弱她""]","","","","","","","","yes","","","","","","","","","SRET","EW_formal","","key","f","16.666326530612125","960","536","朋友","高效","Positive","ability","","","","","","","","","","",""
"1349","","j","psychophysics","69","275068","0.0-7.0-3.0-0.55","6","5","6","6","5","4","3","4","5","5","4","1","0","0","0","0","1","1","1","5","5","5","5","4","3","4","4","5","4","6","7","6","6","5","7","7","8","8","4","7","5","6","5","3","4","1","6","5","1","5","2","4","3","4","7","5","4","4","5","5","5","6","1","6","5","4","7","7","7","4","2","4","7","4","7","2","7","3","7","758958446577192962","练","446","Female","[""好她"",""坏我"",""好我"",""坏她""]","[""强她"",""弱我"",""强我"",""弱她""]","","","","","","","","no","","","","","","","","","SRET","EW_formal","","key","j","16.667142857143023","960","536","朋友","屈才","Negative","ability","","","","","","","","","","",""
"591","","f","psychophysics","70","276660","0.0-7.0-3.0-0.56","6","5","6","6","5","4","3","4","5","5","4","1","0","0","0","0","1","1","1","5","5","5","5","4","3","4","4","5","4","6","7","6","6","5","7","7","8","8","4","7","5","6","5","3","4","1","6","5","1","5","2","4","3","4","7","5","4","4","5","5","5","6","1","6","5","4","7","7","7","4","2","4","7","4","7","2","7","3","7","758958446577192962","练","446","Female","[""好她"",""坏我"",""好我"",""坏她""]","[""强她"",""弱我"",""强我"",""弱她""]","","","","","","","","yes","","","","","","","","","SRET","EW_formal","","key","f","16.66631578947356","960","536","自己","谦逊","Positive","morality","","","","","","","","","","",""
"545","","f","psychophysics","71","278206","0.0-7.0-3.0-0.57","6","5","6","6","5","4","3","4","5","5","4","1","0","0","0","0","1","1","1","5","5","5","5","4","3","4","4","5","4","6","7","6","6","5","7","7","8","8","4","7","5","6","5","3","4","1","6","5","1","5","2","4","3","4","7","5","4","4","5","5","5","6","1","6","5","4","7","7","7","4","2","4","7","4","7","2","7","3","7","758958446577192962","练","446","Female","[""好她"",""坏我"",""好我"",""坏她""]","[""强她"",""弱我"",""强我"",""弱她""]","","","","","","","","yes","","","","","","","","","SRET","EW_formal","","key","f","16.66593406593381","960","536","自己","博学","Positive","ability","","","","","","","","","","",""
"625","","f","psychophysics","72","279833","0.0-7.0-3.0-0.58","6","5","6","6","5","4","3","4","5","5","4","1","0","0","0","0","1","1","1","5","5","5","5","4","3","4","4","5","4","6","7","6","6","5","7","7","8","8","4","7","5","6","5","3","4","1","6","5","1","5","2","4","3","4","7","5","4","4","5","5","5","6","1","6","5","4","7","7","7","4","2","4","7","4","7","2","7","3","7","758958446577192962","练","446","Female","[""好她"",""坏我"",""好我"",""坏她""]","[""强她"",""弱我"",""强我"",""弱她""]","","","","","","","","yes","","","","","","","","","SRET","EW_formal","","key","f","16.668041237113282","960","536","自己","懂行","Positive","ability","","","","","","","","","","",""
"578","","f","psychophysics","73","281412","0.0-7.0-3.0-0.59","6","5","6","6","5","4","3","4","5","5","4","1","0","0","0","0","1","1","1","5","5","5","5","4","3","4","4","5","4","6","7","6","6","5","7","7","8","8","4","7","5","6","5","3","4","1","6","5","1","5","2","4","3","4","7","5","4","4","5","5","5","6","1","6","5","4","7","7","7","4","2","4","7","4","7","2","7","3","7","758958446577192962","练","446","Female","[""好她"",""坏我"",""好我"",""坏她""]","[""强她"",""弱我"",""强我"",""弱她""]","","","","","","","","yes","","","","","","","","","SRET","EW_formal","","key","f","16.670212765957448","960","536","朋友","仁爱","Positive","morality","","","","","","","","","","",""
"622","","f","psychophysics","74","283036","0.0-7.0-3.0-0.60","6","5","6","6","5","4","3","4","5","5","4","1","0","0","0","0","1","1","1","5","5","5","5","4","3","4","4","5","4","6","7","6","6","5","7","7","8","8","4","7","5","6","5","3","4","1","6","5","1","5","2","4","3","4","7","5","4","4","5","5","5","6","1","6","5","4","7","7","7","4","2","4","7","4","7","2","7","3","7","758958446577192962","练","446","Female","[""好她"",""坏我"",""好我"",""坏她""]","[""强她"",""弱我"",""强我"",""弱她""]","","","","","","","","yes","","","","","","","","","SRET","EW_formal","","key","f","16.666666666666668","960","536","自己","宽容","Positive","morality","","","","","","","","","","",""
"522","","f","psychophysics","75","284560","0.0-7.0-3.0-0.61","6","5","6","6","5","4","3","4","5","5","4","1","0","0","0","0","1","1","1","5","5","5","5","4","3","4","4","5","4","6","7","6","6","5","7","7","8","8","4","7","5","6","5","3","4","1","6","5","1","5","2","4","3","4","7","5","4","4","5","5","5","6","1","6","5","4","7","7","7","4","2","4","7","4","7","2","7","3","7","758958446577192962","练","446","Female","[""好她"",""坏我"",""好我"",""坏她""]","[""强她"",""弱我"",""强我"",""弱她""]","","","","","","","","yes","","","","","","","","","SRET","EW_formal","","key","f","16.66593406593381","960","536","朋友","孝顺","Positive","morality","","","","","","","","","","",""
"586","","f","psychophysics","76","286148","0.0-7.0-3.0-0.62","6","5","6","6","5","4","3","4","5","5","4","1","0","0","0","0","1","1","1","5","5","5","5","4","3","4","4","5","4","6","7","6","6","5","7","7","8","8","4","7","5","6","5","3","4","1","6","5","1","5","2","4","3","4","7","5","4","4","5","5","5","6","1","6","5","4","7","7","7","4","2","4","7","4","7","2","7","3","7","758958446577192962","练","446","Female","[""好她"",""坏我"",""好我"",""坏她""]","[""强她"",""弱我"",""强我"",""弱她""]","","","","","","","","yes","","","","","","","","","SRET","EW_formal","","key","f","16.665957446808264","960","536","朋友","忠良","Positive","morality","","","","","","","","","","",""
"632","","j","psychophysics","77","287781","0.0-7.0-3.0-0.63","6","5","6","6","5","4","3","4","5","5","4","1","0","0","0","0","1","1","1","5","5","5","5","4","3","4","4","5","4","6","7","6","6","5","7","7","8","8","4","7","5","6","5","3","4","1","6","5","1","5","2","4","3","4","7","5","4","4","5","5","5","6","1","6","5","4","7","7","7","4","2","4","7","4","7","2","7","3","7","758958446577192962","练","446","Female","[""好她"",""坏我"",""好我"",""坏她""]","[""强她"",""弱我"",""强我"",""弱她""]","","","","","","","","no","","","","","","","","","SRET","EW_formal","","key","j","16.66701030927847","960","536","自己","废物","Negative","ability","","","","","","","","","","",""
"653","","f","psychophysics","78","289436","0.0-7.0-3.0-0.64","6","5","6","6","5","4","3","4","5","5","4","1","0","0","0","0","1","1","1","5","5","5","5","4","3","4","4","5","4","6","7","6","6","5","7","7","8","8","4","7","5","6","5","3","4","1","6","5","1","5","2","4","3","4","7","5","4","4","5","5","5","6","1","6","5","4","7","7","7","4","2","4","7","4","7","2","7","3","7","758958446577192962","练","446","Female","[""好她"",""坏我"",""好我"",""坏她""]","[""强她"",""弱我"",""强我"",""弱她""]","","","","","","","","yes","","","","","","","","","SRET","EW_formal","","key","f","16.667346938775154","960","536","朋友","坚持","Positive","ability","","","","","","","","","","",""
"593","","f","psychophysics","79","291029","0.0-7.0-3.0-0.65","6","5","6","6","5","4","3","4","5","5","4","1","0","0","0","0","1","1","1","5","5","5","5","4","3","4","4","5","4","6","7","6","6","5","7","7","8","8","4","7","5","6","5","3","4","1","6","5","1","5","2","4","3","4","7","5","4","4","5","5","5","6","1","6","5","4","7","7","7","4","2","4","7","4","7","2","7","3","7","758958446577192962","练","446","Female","[""好她"",""坏我"",""好我"",""坏她""]","[""强她"",""弱我"",""强我"",""弱她""]","","","","","","","","yes","","","","","","","","","SRET","EW_formal","","key","f","16.66842105263158","960","536","自己","好心","Positive","morality","","","","","","","","","","",""
"599","","j","psychophysics","80","292629","0.0-7.0-3.0-0.66","6","5","6","6","5","4","3","4","5","5","4","1","0","0","0","0","1","1","1","5","5","5","5","4","3","4","4","5","4","6","7","6","6","5","7","7","8","8","4","7","5","6","5","3","4","1","6","5","1","5","2","4","3","4","7","5","4","4","5","5","5","6","1","6","5","4","7","7","7","4","2","4","7","4","7","2","7","3","7","758958446577192962","练","446","Female","[""好她"",""坏我"",""好我"",""坏她""]","[""强她"",""弱我"",""强我"",""弱她""]","","","","","","","","no","","","","","","","","","SRET","EW_formal","","key","j","16.667368421052878","960","536","自己","马虎","Negative","ability","","","","","","","","","","",""
"781","","j","psychophysics","81","294412","0.0-7.0-3.0-0.67","6","5","6","6","5","4","3","4","5","5","4","1","0","0","0","0","1","1","1","5","5","5","5","4","3","4","4","5","4","6","7","6","6","5","7","7","8","8","4","7","5","6","5","3","4","1","6","5","1","5","2","4","3","4","7","5","4","4","5","5","5","6","1","6","5","4","7","7","7","4","2","4","7","4","7","2","7","3","7","758958446577192962","练","446","Female","[""好她"",""坏我"",""好我"",""坏她""]","[""强她"",""弱我"",""强我"",""弱她""]","","","","","","","","no","","","","","","","","","SRET","EW_formal","","key","j","16.666981132075033","960","536","朋友","逞强","Negative","ability","","","","","","","","","","",""
"589","","f","psychophysics","82","296004","0.0-7.0-3.0-0.68","6","5","6","6","5","4","3","4","5","5","4","1","0","0","0","0","1","1","1","5","5","5","5","4","3","4","4","5","4","6","7","6","6","5","7","7","8","8","4","7","5","6","5","3","4","1","6","5","1","5","2","4","3","4","7","5","4","4","5","5","5","6","1","6","5","4","7","7","7","4","2","4","7","4","7","2","7","3","7","758958446577192962","练","446","Female","[""好她"",""坏我"",""好我"",""坏她""]","[""强她"",""弱我"",""强我"",""弱她""]","","","","","","","","yes","","","","","","","","","SRET","EW_formal","","key","f","16.667021276595868","960","536","自己","肯干","Positive","ability","","","","","","","","","","",""
"679","","j","psychophysics","83","297685","0.0-7.0-3.0-0.69","6","5","6","6","5","4","3","4","5","5","4","1","0","0","0","0","1","1","1","5","5","5","5","4","3","4","4","5","4","6","7","6","6","5","7","7","8","8","4","7","5","6","5","3","4","1","6","5","1","5","2","4","3","4","7","5","4","4","5","5","5","6","1","6","5","4","7","7","7","4","2","4","7","4","7","2","7","3","7","758958446577192962","练","446","Female","[""好她"",""坏我"",""好我"",""坏她""]","[""强她"",""弱我"",""强我"",""弱她""]","","","","","","","","no","","","","","","","","","SRET","EW_formal","","key","j","16.55100000000035","960","536","自己","偏私","Negative","morality","","","","","","","","","","",""
"685","","f","psychophysics","84","299372","0.0-7.0-3.0-0.70","6","5","6","6","5","4","3","4","5","5","4","1","0","0","0","0","1","1","1","5","5","5","5","4","3","4","4","5","4","6","7","6","6","5","7","7","8","8","4","7","5","6","5","3","4","1","6","5","1","5","2","4","3","4","7","5","4","4","5","5","5","6","1","6","5","4","7","7","7","4","2","4","7","4","7","2","7","3","7","758958446577192962","练","446","Female","[""好她"",""坏我"",""好我"",""坏她""]","[""强她"",""弱我"",""强我"",""弱她""]","","","","","","","","yes","","","","","","","","","SRET","EW_formal","","key","f","16.665999999999766","960","536","朋友","有力","Positive","ability","","","","","","","","","","",""
"591","","f","psychophysics","85","300964","0.0-7.0-3.0-0.71","6","5","6","6","5","4","3","4","5","5","4","1","0","0","0","0","1","1","1","5","5","5","5","4","3","4","4","5","4","6","7","6","6","5","7","7","8","8","4","7","5","6","5","3","4","1","6","5","1","5","2","4","3","4","7","5","4","4","5","5","5","6","1","6","5","4","7","7","7","4","2","4","7","4","7","2","7","3","7","758958446577192962","练","446","Female","[""好她"",""坏我"",""好我"",""坏她""]","[""强她"",""弱我"",""强我"",""弱她""]","","","","","","","","yes","","","","","","","","","SRET","EW_formal","","key","f","16.66842105263158","960","536","自己","扎实","Positive","ability","","","","","","","","","","",""
"648","","j","psychophysics","86","302612","0.0-7.0-3.0-0.72","6","5","6","6","5","4","3","4","5","5","4","1","0","0","0","0","1","1","1","5","5","5","5","4","3","4","4","5","4","6","7","6","6","5","7","7","8","8","4","7","5","6","5","3","4","1","6","5","1","5","2","4","3","4","7","5","4","4","5","5","5","6","1","6","5","4","7","7","7","4","2","4","7","4","7","2","7","3","7","758958446577192962","练","446","Female","[""好她"",""坏我"",""好我"",""坏她""]","[""强她"",""弱我"",""强我"",""弱她""]","","","","","","","","no","","","","","","","","","SRET","EW_formal","","key","j","16.6653061224491","960","536","自己","拖拉","Negative","ability","","","","","","","","","","",""
"854","","f","psychophysics","87","304468","0.0-7.0-3.0-0.73","6","5","6","6","5","4","3","4","5","5","4","1","0","0","0","0","1","1","1","5","5","5","5","4","3","4","4","5","4","6","7","6","6","5","7","7","8","8","4","7","5","6","5","3","4","1","6","5","1","5","2","4","3","4","7","5","4","4","5","5","5","6","1","6","5","4","7","7","7","4","2","4","7","4","7","2","7","3","7","758958446577192962","练","446","Female","[""好她"",""坏我"",""好我"",""坏她""]","[""强她"",""弱我"",""强我"",""弱她""]","","","","","","","","yes","","","","","","","","","SRET","EW_formal","","key","f","16.66636363636353","960","536","朋友","骁勇","Positive","ability","","","","","","","","","","",""
"689","","f","psychophysics","88","306158","0.0-7.0-3.0-0.74","6","5","6","6","5","4","3","4","5","5","4","1","0","0","0","0","1","1","1","5","5","5","5","4","3","4","4","5","4","6","7","6","6","5","7","7","8","8","4","7","5","6","5","3","4","1","6","5","1","5","2","4","3","4","7","5","4","4","5","5","5","6","1","6","5","4","7","7","7","4","2","4","7","4","7","2","7","3","7","758958446577192962","练","446","Female","[""好她"",""坏我"",""好我"",""坏她""]","[""强她"",""弱我"",""强我"",""弱她""]","","","","","","","","yes","","","","","","","","","SRET","EW_formal","","key","f","16.664000000000232","960","536","自己","慈悲","Positive","morality","","","","","","","","","","",""
"678","","j","psychophysics","89","307837","0.0-7.0-3.0-0.75","6","5","6","6","5","4","3","4","5","5","4","1","0","0","0","0","1","1","1","5","5","5","5","4","3","4","4","5","4","6","7","6","6","5","7","7","8","8","4","7","5","6","5","3","4","1","6","5","1","5","2","4","3","4","7","5","4","4","5","5","5","6","1","6","5","4","7","7","7","4","2","4","7","4","7","2","7","3","7","758958446577192962","练","446","Female","[""好她"",""坏我"",""好我"",""坏她""]","[""强她"",""弱我"",""强我"",""弱她""]","","","","","","","","no","","","","","","","","","SRET","EW_formal","","key","j","16.667000000000115","960","536","自己","拜金","Negative","morality","","","","","","","","","","",""
"692","","f","psychophysics","90","309532","0.0-7.0-3.0-0.76","6","5","6","6","5","4","3","4","5","5","4","1","0","0","0","0","1","1","1","5","5","5","5","4","3","4","4","5","4","6","7","6","6","5","7","7","8","8","4","7","5","6","5","3","4","1","6","5","1","5","2","4","3","4","7","5","4","4","5","5","5","6","1","6","5","4","7","7","7","4","2","4","7","4","7","2","7","3","7","758958446577192962","练","446","Female","[""好她"",""坏我"",""好我"",""坏她""]","[""强她"",""弱我"",""强我"",""弱她""]","","","","","","","","yes","","","","","","","","","SRET","EW_formal","","key","f","16.667326732672922","960","536","朋友","礼貌","Positive","morality","","","","","","","","","","",""
"687","","j","psychophysics","91","311220","0.0-7.0-3.0-0.77","6","5","6","6","5","4","3","4","5","5","4","1","0","0","0","0","1","1","1","5","5","5","5","4","3","4","4","5","4","6","7","6","6","5","7","7","8","8","4","7","5","6","5","3","4","1","6","5","1","5","2","4","3","4","7","5","4","4","5","5","5","6","1","6","5","4","7","7","7","4","2","4","7","4","7","2","7","3","7","758958446577192962","练","446","Female","[""好她"",""坏我"",""好我"",""坏她""]","[""强她"",""弱我"",""强我"",""弱她""]","","","","","","","","no","","","","","","","","","SRET","EW_formal","","key","j","16.668000000000465","960","536","朋友","卑鄙","Negative","morality","","","","","","","","","","",""
"688","","j","psychophysics","92","312909","0.0-7.0-3.0-0.78","6","5","6","6","5","4","3","4","5","5","4","1","0","0","0","0","1","1","1","5","5","5","5","4","3","4","4","5","4","6","7","6","6","5","7","7","8","8","4","7","5","6","5","3","4","1","6","5","1","5","2","4","3","4","7","5","4","4","5","5","5","6","1","6","5","4","7","7","7","4","2","4","7","4","7","2","7","3","7","758958446577192962","练","446","Female","[""好她"",""坏我"",""好我"",""坏她""]","[""强她"",""弱我"",""强我"",""弱她""]","","","","","","","","no","","","","","","","","","SRET","EW_formal","","key","j","16.657000000000117","960","536","朋友","笨蛋","Negative","ability","","","","","","","","","","",""
"558","","f","psychophysics","93","314468","0.0-7.0-3.0-0.79","6","5","6","6","5","4","3","4","5","5","4","1","0","0","0","0","1","1","1","5","5","5","5","4","3","4","4","5","4","6","7","6","6","5","7","7","8","8","4","7","5","6","5","3","4","1","6","5","1","5","2","4","3","4","7","5","4","4","5","5","5","6","1","6","5","4","7","7","7","4","2","4","7","4","7","2","7","3","7","758958446577192962","练","446","Female","[""好她"",""坏我"",""好我"",""坏她""]","[""强她"",""弱我"",""强我"",""弱她""]","","","","","","","","yes","","","","","","","","","SRET","EW_formal","","key","f","16.6688172043012","960","536","自己","精干","Positive","ability","","","","","","","","","","",""
"615","","j","psychophysics","94","316084","0.0-7.0-3.0-0.80","6","5","6","6","5","4","3","4","5","5","4","1","0","0","0","0","1","1","1","5","5","5","5","4","3","4","4","5","4","6","7","6","6","5","7","7","8","8","4","7","5","6","5","3","4","1","6","5","1","5","2","4","3","4","7","5","4","4","5","5","5","6","1","6","5","4","7","7","7","4","2","4","7","4","7","2","7","3","7","758958446577192962","练","446","Female","[""好她"",""坏我"",""好我"",""坏她""]","[""强她"",""弱我"",""强我"",""弱她""]","","","","","","","","no","","","","","","","","","SRET","EW_formal","","key","j","16.666666666666668","960","536","朋友","腐败","Negative","morality","","","","","","","","","","",""
"792","","j","psychophysics","95","317877","0.0-7.0-3.0-0.81","6","5","6","6","5","4","3","4","5","5","4","1","0","0","0","0","1","1","1","5","5","5","5","4","3","4","4","5","4","6","7","6","6","5","7","7","8","8","4","7","5","6","5","3","4","1","6","5","1","5","2","4","3","4","7","5","4","4","5","5","5","6","1","6","5","4","7","7","7","4","2","4","7","4","7","2","7","3","7","758958446577192962","练","446","Female","[""好她"",""坏我"",""好我"",""坏她""]","[""强她"",""弱我"",""强我"",""弱她""]","","","","","","","","no","","","","","","","","","SRET","EW_formal","","key","j","16.666355140186806","960","536","朋友","外行","Negative","ability","","","","","","","","","","",""
"719","","j","psychophysics","96","319597","0.0-7.0-3.0-0.82","6","5","6","6","5","4","3","4","5","5","4","1","0","0","0","0","1","1","1","5","5","5","5","4","3","4","4","5","4","6","7","6","6","5","7","7","8","8","4","7","5","6","5","3","4","1","6","5","1","5","2","4","3","4","7","5","4","4","5","5","5","6","1","6","5","4","7","7","7","4","2","4","7","4","7","2","7","3","7","758958446577192962","练","446","Female","[""好她"",""坏我"",""好我"",""坏她""]","[""强她"",""弱我"",""强我"",""弱她""]","","","","","","","","no","","","","","","","","","SRET","EW_formal","","key","j","16.664705882352827","960","536","自己","窝囊","Negative","ability","","","","","","","","","","",""
"702","","f","psychophysics","97","321300","0.0-7.0-3.0-0.83","6","5","6","6","5","4","3","4","5","5","4","1","0","0","0","0","1","1","1","5","5","5","5","4","3","4","4","5","4","6","7","6","6","5","7","7","8","8","4","7","5","6","5","3","4","1","6","5","1","5","2","4","3","4","7","5","4","4","5","5","5","6","1","6","5","4","7","7","7","4","2","4","7","4","7","2","7","3","7","758958446577192962","练","446","Female","[""好她"",""坏我"",""好我"",""坏她""]","[""强她"",""弱我"",""强我"",""弱她""]","","","","","","","","yes","","","","","","","","","SRET","EW_formal","","key","f","16.667326732673498","960","536","自己","变通","Positive","ability","","","","","","","","","","",""
"832","","j","psychophysics","98","323132","0.0-7.0-3.0-0.84","6","5","6","6","5","4","3","4","5","5","4","1","0","0","0","0","1","1","1","5","5","5","5","4","3","4","4","5","4","6","7","6","6","5","7","7","8","8","4","7","5","6","5","3","4","1","6","5","1","5","2","4","3","4","7","5","4","4","5","5","5","6","1","6","5","4","7","7","7","4","2","4","7","4","7","2","7","3","7","758958446577192962","练","446","Female","[""好她"",""坏我"",""好我"",""坏她""]","[""强她"",""弱我"",""强我"",""弱她""]","","","","","","","","no","","","","","","","","","SRET","EW_formal","","key","j","16.65871559633017","960","536","自己","缓慢","Negative","ability","","","","","","","","","","",""
"560","","f","psychophysics","99","324694","0.0-7.0-3.0-0.85","6","5","6","6","5","4","3","4","5","5","4","1","0","0","0","0","1","1","1","5","5","5","5","4","3","4","4","5","4","6","7","6","6","5","7","7","8","8","4","7","5","6","5","3","4","1","6","5","1","5","2","4","3","4","7","5","4","4","5","5","5","6","1","6","5","4","7","7","7","4","2","4","7","4","7","2","7","3","7","758958446577192962","练","446","Female","[""好她"",""坏我"",""好我"",""坏她""]","[""强她"",""弱我"",""强我"",""弱她""]","","","","","","","","yes","","","","","","","","","SRET","EW_formal","","key","f","16.666666666666668","960","536","自己","主见","Positive","ability","","","","","","","","","","",""
"588","","f","psychophysics","100","326284","0.0-7.0-3.0-0.86","6","5","6","6","5","4","3","4","5","5","4","1","0","0","0","0","1","1","1","5","5","5","5","4","3","4","4","5","4","6","7","6","6","5","7","7","8","8","4","7","5","6","5","3","4","1","6","5","1","5","2","4","3","4","7","5","4","4","5","5","5","6","1","6","5","4","7","7","7","4","2","4","7","4","7","2","7","3","7","758958446577192962","练","446","Female","[""好她"",""坏我"",""好我"",""坏她""]","[""强她"",""弱我"",""强我"",""弱她""]","","","","","","","","yes","","","","","","","","","SRET","EW_formal","","key","f","16.66914893616984","960","536","朋友","素养","Positive","morality","","","","","","","","","","",""
"592","","j","psychophysics","101","327877","0.0-7.0-3.0-0.87","6","5","6","6","5","4","3","4","5","5","4","1","0","0","0","0","1","1","1","5","5","5","5","4","3","4","4","5","4","6","7","6","6","5","7","7","8","8","4","7","5","6","5","3","4","1","6","5","1","5","2","4","3","4","7","5","4","4","5","5","5","6","1","6","5","4","7","7","7","4","2","4","7","4","7","2","7","3","7","758958446577192962","练","446","Female","[""好她"",""坏我"",""好我"",""坏她""]","[""强她"",""弱我"",""强我"",""弱她""]","","","","","","","","no","","","","","","","","","SRET","EW_formal","","key","j","16.66631578947356","960","536","朋友","低俗","Negative","morality","","","","","","","","","","",""
"130007","
    <p><div style='color:white;font-size:35px; line-height:20px;'>计算任务</div></p><br>
    <p><div style='color:red;font-size:25px; line-height:20px;'>接下来，您将看到一些四则运算题，<b>请从键盘选择 0-9 进行反应。</b></div></p>
    <p><div style='color:red;font-size:25px; line-height:20px;'>请尽可能快地进行计算，计算的速度和正确率将影响报酬的发放。</div></p>
    <p><div class='footer' style='color:white;font-size:25px; line-height:20px;'>如果对本实验还有不清楚之处，请立即向实验员咨询。</p><p style='color:white;font-size:25px; line-height:20px;'>如果您明白了规则：</p><p style='color:white;font-size:22px; line-height:20px;'>请按 继续 进入练习</p>
    </div>
    ","0","html-button-response","102","457885","0.0-7.0-4.0","6","5","6","6","5","4","3","4","5","5","4","1","0","0","0","0","1","1","1","5","5","5","5","4","3","4","4","5","4","6","7","6","6","5","7","7","8","8","4","7","5","6","5","3","4","1","6","5","1","5","2","4","3","4","7","5","4","4","5","5","5","6","1","6","5","4","7","7","7","4","2","4","7","4","7","2","7","3","7","758958446577192962","练","446","Female","[""好她"",""坏我"",""好我"",""坏她""]","[""强她"",""弱我"",""强我"",""弱她""]","","","","","","","","","","","","","","","","","SRET_math","math_instructions","Mon Dec 11 2023 18:43:07 GMT+0800 (中国标准时间)","","","","","","","","","","","","","","","","","","","",""
"2317","","6","psychophysics","103","460205","0.0-7.0-5.0-0.0","6","5","6","6","5","4","3","4","5","5","4","1","0","0","0","0","1","1","1","5","5","5","5","4","3","4","4","5","4","6","7","6","6","5","7","7","8","8","4","7","5","6","5","3","4","1","6","5","1","5","2","4","3","4","7","5","4","4","5","5","5","6","1","6","5","4","7","7","7","4","2","4","7","4","7","2","7","3","7","758958446577192962","练","446","Female","[""好她"",""坏我"",""好我"",""坏她""]","[""强她"",""弱我"",""强我"",""弱她""]","","","","","","","","6","","","","","","","","","SRET","SRET_math_calculate","","key","6","16.666906474820227","960","536","","","","","2+4= ?","6","1","","","","","","","",""
"2487","","7","psychophysics","104","462693","0.0-7.0-5.0-0.1","6","5","6","6","5","4","3","4","5","5","4","1","0","0","0","0","1","1","1","5","5","5","5","4","3","4","4","5","4","6","7","6","6","5","7","7","8","8","4","7","5","6","5","3","4","1","6","5","1","5","2","4","3","4","7","5","4","4","5","5","5","6","1","6","5","4","7","7","7","4","2","4","7","4","7","2","7","3","7","758958446577192962","练","446","Female","[""好她"",""坏我"",""好我"",""坏她""]","[""强她"",""弱我"",""强我"",""弱她""]","","","","","","","","7","","","","","","","","","SRET","SRET_math_calculate","","key","7","16.652702702702545","960","536","","","","","49/7 = ?","7","1","","","","","","","",""
"2116","","1","psychophysics","105","464813","0.0-7.0-5.0-0.2","6","5","6","6","5","4","3","4","5","5","4","1","0","0","0","0","1","1","1","5","5","5","5","4","3","4","4","5","4","6","7","6","6","5","7","7","8","8","4","7","5","6","5","3","4","1","6","5","1","5","2","4","3","4","7","5","4","4","5","5","5","6","1","6","5","4","7","7","7","4","2","4","7","4","7","2","7","3","7","758958446577192962","练","446","Female","[""好她"",""坏我"",""好我"",""坏她""]","[""强她"",""弱我"",""强我"",""弱她""]","","","","","","","","1","","","","","","","","","SRET","SRET_math_calculate","","key","1","16.666929133857902","960","536","","","","","4/4= ?","1","1","","","","","","","",""
"2184","","2","psychophysics","106","466998","0.0-7.0-5.0-0.3","6","5","6","6","5","4","3","4","5","5","4","1","0","0","0","0","1","1","1","5","5","5","5","4","3","4","4","5","4","6","7","6","6","5","7","7","8","8","4","7","5","6","5","3","4","1","6","5","1","5","2","4","3","4","7","5","4","4","5","5","5","6","1","6","5","4","7","7","7","4","2","4","7","4","7","2","7","3","7","758958446577192962","练","446","Female","[""好她"",""坏我"",""好我"",""坏她""]","[""强她"",""弱我"",""强我"",""弱她""]","","","","","","","","2","","","","","","","","","SRET","SRET_math_calculate","","key","2","16.664615384615562","960","536","","","","","29-27= ?","2","1","","","","","","","",""
"1942","","5","psychophysics","107","468941","0.0-7.0-5.0-0.4","6","5","6","6","5","4","3","4","5","5","4","1","0","0","0","0","1","1","1","5","5","5","5","4","3","4","4","5","4","6","7","6","6","5","7","7","8","8","4","7","5","6","5","3","4","1","6","5","1","5","2","4","3","4","7","5","4","4","5","5","5","6","1","6","5","4","7","7","7","4","2","4","7","4","7","2","7","3","7","758958446577192962","练","446","Female","[""好她"",""坏我"",""好我"",""坏她""]","[""强她"",""弱我"",""强我"",""弱她""]","","","","","","","","5","","","","","","","","","SRET","SRET_math_calculate","","key","5","16.666086956522044","960","536","","","","","8-3= ? ","5","1","","","","","","","",""
"1859","","5","psychophysics","108","470801","0.0-7.0-5.0-0.5","6","5","6","6","5","4","3","4","5","5","4","1","0","0","0","0","1","1","1","5","5","5","5","4","3","4","4","5","4","6","7","6","6","5","7","7","8","8","4","7","5","6","5","3","4","1","6","5","1","5","2","4","3","4","7","5","4","4","5","5","5","6","1","6","5","4","7","7","7","4","2","4","7","4","7","2","7","3","7","758958446577192962","练","446","Female","[""好她"",""坏我"",""好我"",""坏她""]","[""强她"",""弱我"",""强我"",""弱她""]","","","","","","","","5","","","","","","","","","SRET","SRET_math_calculate","","key","5","16.667567567567357","960","536","","","","","12-7= ?","5","1","","","","","","","",""
"2347","","5","psychophysics","109","473150","0.0-7.0-5.0-0.6","6","5","6","6","5","4","3","4","5","5","4","1","0","0","0","0","1","1","1","5","5","5","5","4","3","4","4","5","4","6","7","6","6","5","7","7","8","8","4","7","5","6","5","3","4","1","6","5","1","5","2","4","3","4","7","5","4","4","5","5","5","6","1","6","5","4","7","7","7","4","2","4","7","4","7","2","7","3","7","758958446577192962","练","446","Female","[""好她"",""坏我"",""好我"",""坏她""]","[""强她"",""弱我"",""强我"",""弱她""]","","","","","","","","5","","","","","","","","","SRET","SRET_math_calculate","","key","5","16.6692857142858","960","536","","","","","14-9= ?","5","1","","","","","","","",""
"1893","","1","psychophysics","110","475045","0.0-7.0-5.0-0.7","6","5","6","6","5","4","3","4","5","5","4","1","0","0","0","0","1","1","1","5","5","5","5","4","3","4","4","5","4","6","7","6","6","5","7","7","8","8","4","7","5","6","5","3","4","1","6","5","1","5","2","4","3","4","7","5","4","4","5","5","5","6","1","6","5","4","7","7","7","4","2","4","7","4","7","2","7","3","7","758958446577192962","练","446","Female","[""好她"",""坏我"",""好我"",""坏她""]","[""强她"",""弱我"",""强我"",""弱她""]","","","","","","","","1","","","","","","","","","SRET","SRET_math_calculate","","key","1","16.667256637168347","960","536","","","","","10-9= ?","1","1","","","","","","","",""
"1959","","9","psychophysics","111","477005","0.0-7.0-5.0-0.8","6","5","6","6","5","4","3","4","5","5","4","1","0","0","0","0","1","1","1","5","5","5","5","4","3","4","4","5","4","6","7","6","6","5","7","7","8","8","4","7","5","6","5","3","4","1","6","5","1","5","2","4","3","4","7","5","4","4","5","5","5","6","1","6","5","4","7","7","7","4","2","4","7","4","7","2","7","3","7","758958446577192962","练","446","Female","[""好她"",""坏我"",""好我"",""坏她""]","[""强她"",""弱我"",""强我"",""弱她""]","","","","","","","","9","","","","","","","","","SRET","SRET_math_calculate","","key","9","16.666379310345228","960","536","","","","","1+8= ?","9","1","","","","","","","",""
"2353","","9","psychophysics","112","479359","0.0-7.0-5.0-0.9","6","5","6","6","5","4","3","4","5","5","4","1","0","0","0","0","1","1","1","5","5","5","5","4","3","4","4","5","4","6","7","6","6","5","7","7","8","8","4","7","5","6","5","3","4","1","6","5","1","5","2","4","3","4","7","5","4","4","5","5","5","6","1","6","5","4","7","7","7","4","2","4","7","4","7","2","7","3","7","758958446577192962","练","446","Female","[""好她"",""坏我"",""好我"",""坏她""]","[""强她"",""弱我"",""强我"",""弱她""]","","","","","","","","9","","","","","","","","","SRET","SRET_math_calculate","","key","9","16.667142857143023","960","536","","","","","81/9= ?","9","1","","","","","","","",""
"1988","","4","psychophysics","113","481349","0.0-7.0-5.0-0.10","6","5","6","6","5","4","3","4","5","5","4","1","0","0","0","0","1","1","1","5","5","5","5","4","3","4","4","5","4","6","7","6","6","5","7","7","8","8","4","7","5","6","5","3","4","1","6","5","1","5","2","4","3","4","7","5","4","4","5","5","5","6","1","6","5","4","7","7","7","4","2","4","7","4","7","2","7","3","7","758958446577192962","练","446","Female","[""好她"",""坏我"",""好我"",""坏她""]","[""强她"",""弱我"",""强我"",""弱她""]","","","","","","","","4","","","","","","","","","SRET","SRET_math_calculate","","key","4","16.66638655462224","960","536","","","","","9-5= ?","4","1","","","","","","","",""
"2008","","0","psychophysics","114","483358","0.0-7.0-5.0-0.11","6","5","6","6","5","4","3","4","5","5","4","1","0","0","0","0","1","1","1","5","5","5","5","4","3","4","4","5","4","6","7","6","6","5","7","7","8","8","4","7","5","6","5","3","4","1","6","5","1","5","2","4","3","4","7","5","4","4","5","5","5","6","1","6","5","4","7","7","7","4","2","4","7","4","7","2","7","3","7","758958446577192962","练","446","Female","[""好她"",""坏我"",""好我"",""坏她""]","[""强她"",""弱我"",""强我"",""弱她""]","","","","","","","","0","","","","","","","","","SRET","SRET_math_calculate","","key","0","16.666386554621752","960","536","","","","","9-9= ?","0","1","","","","","","","",""
"3014","","9","psychophysics","115","486373","0.0-7.0-5.0-0.12","6","5","6","6","5","4","3","4","5","5","4","1","0","0","0","0","1","1","1","5","5","5","5","4","3","4","4","5","4","6","7","6","6","5","7","7","8","8","4","7","5","6","5","3","4","1","6","5","1","5","2","4","3","4","7","5","4","4","5","5","5","6","1","6","5","4","7","7","7","4","2","4","7","4","7","2","7","3","7","758958446577192962","练","446","Female","[""好她"",""坏我"",""好我"",""坏她""]","[""强她"",""弱我"",""强我"",""弱她""]","","","","","","","","9","","","","","","","","","SRET","SRET_math_calculate","","key","9","16.667222222222417","960","536","","","","","18/2= ?","9","1","","","","","","","",""
"2303","","3","psychophysics","116","488677","0.0-7.0-5.0-0.13","6","5","6","6","5","4","3","4","5","5","4","1","0","0","0","0","1","1","1","5","5","5","5","4","3","4","4","5","4","6","7","6","6","5","7","7","8","8","4","7","5","6","5","3","4","1","6","5","1","5","2","4","3","4","7","5","4","4","5","5","5","6","1","6","5","4","7","7","7","4","2","4","7","4","7","2","7","3","7","758958446577192962","练","446","Female","[""好她"",""坏我"",""好我"",""坏她""]","[""强她"",""弱我"",""强我"",""弱她""]","","","","","","","","3","","","","","","","","","SRET","SRET_math_calculate","","key","3","16.645985401459853","960","536","","","","","9-6= ?","3","1","","","","","","","",""
"2153","","7","psychophysics","117","490832","0.0-7.0-5.0-0.14","6","5","6","6","5","4","3","4","5","5","4","1","0","0","0","0","1","1","1","5","5","5","5","4","3","4","4","5","4","6","7","6","6","5","7","7","8","8","4","7","5","6","5","3","4","1","6","5","1","5","2","4","3","4","7","5","4","4","5","5","5","6","1","6","5","4","7","7","7","4","2","4","7","4","7","2","7","3","7","758958446577192962","练","446","Female","[""好她"",""坏我"",""好我"",""坏她""]","[""强她"",""弱我"",""强我"",""弱她""]","","","","","","","","7","","","","","","","","","SRET","SRET_math_calculate","","key","7","16.667441860465388","960","536","","","","","7*1=  ?","7","1","","","","","","","",""
"1893","","3","psychophysics","118","492726","0.0-7.0-5.0-0.15","6","5","6","6","5","4","3","4","5","5","4","1","0","0","0","0","1","1","1","5","5","5","5","4","3","4","4","5","4","6","7","6","6","5","7","7","8","8","4","7","5","6","5","3","4","1","6","5","1","5","2","4","3","4","7","5","4","4","5","5","5","6","1","6","5","4","7","7","7","4","2","4","7","4","7","2","7","3","7","758958446577192962","练","446","Female","[""好她"",""坏我"",""好我"",""坏她""]","[""强她"",""弱我"",""强我"",""弱她""]","","","","","","","","3","","","","","","","","","SRET","SRET_math_calculate","","key","3","16.66607142857122","960","536","","","","","8-5= ?","3","1","","","","","","","",""
"2030","","8","psychophysics","119","494757","0.0-7.0-5.0-0.16","6","5","6","6","5","4","3","4","5","5","4","1","0","0","0","0","1","1","1","5","5","5","5","4","3","4","4","5","4","6","7","6","6","5","7","7","8","8","4","7","5","6","5","3","4","1","6","5","1","5","2","4","3","4","7","5","4","4","5","5","5","6","1","6","5","4","7","7","7","4","2","4","7","4","7","2","7","3","7","758958446577192962","练","446","Female","[""好她"",""坏我"",""好我"",""坏她""]","[""强她"",""弱我"",""强我"",""弱她""]","","","","","","","","8","","","","","","","","","SRET","SRET_math_calculate","","key","8","16.666942148760427","960","536","","","","","4*2= ?","8","1","","","","","","","",""
"2423","","2","psychophysics","120","497182","0.0-7.0-5.0-0.17","6","5","6","6","5","4","3","4","5","5","4","1","0","0","0","0","1","1","1","5","5","5","5","4","3","4","4","5","4","6","7","6","6","5","7","7","8","8","4","7","5","6","5","3","4","1","6","5","1","5","2","4","3","4","7","5","4","4","5","5","5","6","1","6","5","4","7","7","7","4","2","4","7","4","7","2","7","3","7","758958446577192962","练","446","Female","[""好她"",""坏我"",""好我"",""坏她""]","[""强她"",""弱我"",""强我"",""弱她""]","","","","","","","","2","","","","","","","","","SRET","SRET_math_calculate","","key","2","16.66758620689687","960","536","","","","","22/11= ?","2","1","","","","","","","",""
"1862","","7","psychophysics","121","499045","0.0-7.0-5.0-0.18","6","5","6","6","5","4","3","4","5","5","4","1","0","0","0","0","1","1","1","5","5","5","5","4","3","4","4","5","4","6","7","6","6","5","7","7","8","8","4","7","5","6","5","3","4","1","6","5","1","5","2","4","3","4","7","5","4","4","5","5","5","6","1","6","5","4","7","7","7","4","2","4","7","4","7","2","7","3","7","758958446577192962","练","446","Female","[""好她"",""坏我"",""好我"",""坏她""]","[""强她"",""弱我"",""强我"",""弱她""]","","","","","","","","7","","","","","","","","","SRET","SRET_math_calculate","","key","7","16.666666666666668","960","536","","","","","6+1= ?","7","1","","","","","","","",""
"1847","","5","psychophysics","122","500893","0.0-7.0-5.0-0.19","6","5","6","6","5","4","3","4","5","5","4","1","0","0","0","0","1","1","1","5","5","5","5","4","3","4","4","5","4","6","7","6","6","5","7","7","8","8","4","7","5","6","5","3","4","1","6","5","1","5","2","4","3","4","7","5","4","4","5","5","5","6","1","6","5","4","7","7","7","4","2","4","7","4","7","2","7","3","7","758958446577192962","练","446","Female","[""好她"",""坏我"",""好我"",""坏她""]","[""强她"",""弱我"",""强我"",""弱她""]","","","","","","","","5","","","","","","","","","SRET","SRET_math_calculate","","key","5","16.666055045871346","960","536","","","","","15-10= ?","5","1","","","","","","","",""
"1846","","3","psychophysics","123","502742","0.0-7.0-5.0-0.20","6","5","6","6","5","4","3","4","5","5","4","1","0","0","0","0","1","1","1","5","5","5","5","4","3","4","4","5","4","6","7","6","6","5","7","7","8","8","4","7","5","6","5","3","4","1","6","5","1","5","2","4","3","4","7","5","4","4","5","5","5","6","1","6","5","4","7","7","7","4","2","4","7","4","7","2","7","3","7","758958446577192962","练","446","Female","[""好她"",""坏我"",""好我"",""坏她""]","[""强她"",""弱我"",""强我"",""弱她""]","","","","","","","","3","","","","","","","","","SRET","SRET_math_calculate","","key","3","16.66636363636353","960","536","","","","","3+0= ?","3","1","","","","","","","",""
"1844","","2","psychophysics","124","504589","0.0-7.0-5.0-0.21","6","5","6","6","5","4","3","4","5","5","4","1","0","0","0","0","1","1","1","5","5","5","5","4","3","4","4","5","4","6","7","6","6","5","7","7","8","8","4","7","5","6","5","3","4","1","6","5","1","5","2","4","3","4","7","5","4","4","5","5","5","6","1","6","5","4","7","7","7","4","2","4","7","4","7","2","7","3","7","758958446577192962","练","446","Female","[""好她"",""坏我"",""好我"",""坏她""]","[""强她"",""弱我"",""强我"",""弱她""]","","","","","","","","2","","","","","","","","","SRET","SRET_math_calculate","","key","2","16.667272727272938","960","536","","","","","8-6= ?","2","1","","","","","","","",""
"2039","","2","psychophysics","125","506629","0.0-7.0-5.0-0.22","6","5","6","6","5","4","3","4","5","5","4","1","0","0","0","0","1","1","1","5","5","5","5","4","3","4","4","5","4","6","7","6","6","5","7","7","8","8","4","7","5","6","5","3","4","1","6","5","1","5","2","4","3","4","7","5","4","4","5","5","5","6","1","6","5","4","7","7","7","4","2","4","7","4","7","2","7","3","7","758958446577192962","练","446","Female","[""好她"",""坏我"",""好我"",""坏她""]","[""强她"",""弱我"",""强我"",""弱她""]","","","","","","","","2","","","","","","","","","SRET","SRET_math_calculate","","key","2","16.666393442622855","960","536","","","","","9-7= ?","2","1","","","","","","","",""
"1846","","8","psychophysics","126","508477","0.0-7.0-5.0-0.23","6","5","6","6","5","4","3","4","5","5","4","1","0","0","0","0","1","1","1","5","5","5","5","4","3","4","4","5","4","6","7","6","6","5","7","7","8","8","4","7","5","6","5","3","4","1","6","5","1","5","2","4","3","4","7","5","4","4","5","5","5","6","1","6","5","4","7","7","7","4","2","4","7","4","7","2","7","3","7","758958446577192962","练","446","Female","[""好她"",""坏我"",""好我"",""坏她""]","[""强她"",""弱我"",""强我"",""弱她""]","","","","","","","","8","","","","","","","","","SRET","SRET_math_calculate","","key","8","16.666972477064327","960","536","","","","","11-3= ?","8","1","","","","","","","",""
"2063","","5","psychophysics","127","510542","0.0-7.0-5.0-0.24","6","5","6","6","5","4","3","4","5","5","4","1","0","0","0","0","1","1","1","5","5","5","5","4","3","4","4","5","4","6","7","6","6","5","7","7","8","8","4","7","5","6","5","3","4","1","6","5","1","5","2","4","3","4","7","5","4","4","5","5","5","6","1","6","5","4","7","7","7","4","2","4","7","4","7","2","7","3","7","758958446577192962","练","446","Female","[""好她"",""坏我"",""好我"",""坏她""]","[""强她"",""弱我"",""强我"",""弱她""]","","","","","","","","5","","","","","","","","","SRET","SRET_math_calculate","","key","5","16.667479674797033","960","536","","","","","5/1= ?","5","1","","","","","","","",""
"1806","","8","psychophysics","128","512349","0.0-7.0-5.0-0.25","6","5","6","6","5","4","3","4","5","5","4","1","0","0","0","0","1","1","1","5","5","5","5","4","3","4","4","5","4","6","7","6","6","5","7","7","8","8","4","7","5","6","5","3","4","1","6","5","1","5","2","4","3","4","7","5","4","4","5","5","5","6","1","6","5","4","7","7","7","4","2","4","7","4","7","2","7","3","7","758958446577192962","练","446","Female","[""好她"",""坏我"",""好我"",""坏她""]","[""强她"",""弱我"",""强我"",""弱她""]","","","","","","","","8","","","","","","","","","SRET","SRET_math_calculate","","key","8","16.666666666666668","960","536","","","","","9-1= ?","8","1","","","","","","","",""
"1831","","4","psychophysics","129","514181","0.0-7.0-5.0-0.26","6","5","6","6","5","4","3","4","5","5","4","1","0","0","0","0","1","1","1","5","5","5","5","4","3","4","4","5","4","6","7","6","6","5","7","7","8","8","4","7","5","6","5","3","4","1","6","5","1","5","2","4","3","4","7","5","4","4","5","5","5","6","1","6","5","4","7","7","7","4","2","4","7","4","7","2","7","3","7","758958446577192962","练","446","Female","[""好她"",""坏我"",""好我"",""坏她""]","[""强她"",""弱我"",""强我"",""弱她""]","","","","","","","","4","","","","","","","","","SRET","SRET_math_calculate","","key","4","16.666972477064327","960","536","","","","","8-4= ?","4","1","","","","","","","",""
"1911","","8","psychophysics","130","516093","0.0-7.0-5.0-0.27","6","5","6","6","5","4","3","4","5","5","4","1","0","0","0","0","1","1","1","5","5","5","5","4","3","4","4","5","4","6","7","6","6","5","7","7","8","8","4","7","5","6","5","3","4","1","6","5","1","5","2","4","3","4","7","5","4","4","5","5","5","6","1","6","5","4","7","7","7","4","2","4","7","4","7","2","7","3","7","758958446577192962","练","446","Female","[""好她"",""坏我"",""好我"",""坏她""]","[""强她"",""弱我"",""强我"",""弱她""]","","","","","","","","8","","","","","","","","","SRET","SRET_math_calculate","","key","8","16.668141592920353","960","536","","","","","8*1= ?","8","1","","","","","","","",""
"2943","","8","psychophysics","131","519040","0.0-7.0-5.0-0.28","6","5","6","6","5","4","3","4","5","5","4","1","0","0","0","0","1","1","1","5","5","5","5","4","3","4","4","5","4","6","7","6","6","5","7","7","8","8","4","7","5","6","5","3","4","1","6","5","1","5","2","4","3","4","7","5","4","4","5","5","5","6","1","6","5","4","7","7","7","4","2","4","7","4","7","2","7","3","7","758958446577192962","练","446","Female","[""好她"",""坏我"",""好我"",""坏她""]","[""强她"",""弱我"",""强我"",""弱她""]","","","","","","","","8","","","","","","","","","SRET","SRET_math_calculate","","key","8","16.666477272727537","960","536","","","","","72/9= ?","8","1","","","","","","","",""
"1757","","5","psychophysics","132","520798","0.0-7.0-5.0-0.29","6","5","6","6","5","4","3","4","5","5","4","1","0","0","0","0","1","1","1","5","5","5","5","4","3","4","4","5","4","6","7","6","6","5","7","7","8","8","4","7","5","6","5","3","4","1","6","5","1","5","2","4","3","4","7","5","4","4","5","5","5","6","1","6","5","4","7","7","7","4","2","4","7","4","7","2","7","3","7","758958446577192962","练","446","Female","[""好她"",""坏我"",""好我"",""坏她""]","[""强她"",""弱我"",""强我"",""弱她""]","","","","","","","","5","","","","","","","","","SRET","SRET_math_calculate","","key","5","16.667619047618825","960","536","","","","","4+1= ?","5","1","","","","","","","",""
"1833","","3","psychophysics","133","522631","0.0-7.0-5.0-0.30","6","5","6","6","5","4","3","4","5","5","4","1","0","0","0","0","1","1","1","5","5","5","5","4","3","4","4","5","4","6","7","6","6","5","7","7","8","8","4","7","5","6","5","3","4","1","6","5","1","5","2","4","3","4","7","5","4","4","5","5","5","6","1","6","5","4","7","7","7","4","2","4","7","4","7","2","7","3","7","758958446577192962","练","446","Female","[""好她"",""坏我"",""好我"",""坏她""]","[""强她"",""弱我"",""强我"",""弱她""]","","","","","","","","3","","","","","","","","","SRET","SRET_math_calculate","","key","3","16.666972477064327","960","536","","","","","1+2= ?","3","1","","","","","","","",""
"2221","","8","psychophysics","134","524854","0.0-7.0-5.0-0.31","6","5","6","6","5","4","3","4","5","5","4","1","0","0","0","0","1","1","1","5","5","5","5","4","3","4","4","5","4","6","7","6","6","5","7","7","8","8","4","7","5","6","5","3","4","1","6","5","1","5","2","4","3","4","7","5","4","4","5","5","5","6","1","6","5","4","7","7","7","4","2","4","7","4","7","2","7","3","7","758958446577192962","练","446","Female","[""好她"",""坏我"",""好我"",""坏她""]","[""强她"",""弱我"",""强我"",""弱她""]","","","","","","","","8","","","","","","","","","SRET","SRET_math_calculate","","key","8","16.666666666666668","960","536","","","","","50-42= ?","8","1","","","","","","","",""
"1887","","5","psychophysics","135","526741","0.0-7.0-5.0-0.32","6","5","6","6","5","4","3","4","5","5","4","1","0","0","0","0","1","1","1","5","5","5","5","4","3","4","4","5","4","6","7","6","6","5","7","7","8","8","4","7","5","6","5","3","4","1","6","5","1","5","2","4","3","4","7","5","4","4","5","5","5","6","1","6","5","4","7","7","7","4","2","4","7","4","7","2","7","3","7","758958446577192962","练","446","Female","[""好她"",""坏我"",""好我"",""坏她""]","[""强她"",""弱我"",""强我"",""弱她""]","","","","","","","","5","","","","","","","","","SRET","SRET_math_calculate","","key","5","16.66607142857122","960","536","","","","","10-5= ?","5","1","","","","","","","",""
"1894","","7","psychophysics","136","528637","0.0-7.0-5.0-0.33","6","5","6","6","5","4","3","4","5","5","4","1","0","0","0","0","1","1","1","5","5","5","5","4","3","4","4","5","4","6","7","6","6","5","7","7","8","8","4","7","5","6","5","3","4","1","6","5","1","5","2","4","3","4","7","5","4","4","5","5","5","6","1","6","5","4","7","7","7","4","2","4","7","4","7","2","7","3","7","758958446577192962","练","446","Female","[""好她"",""坏我"",""好我"",""坏她""]","[""强她"",""弱我"",""强我"",""弱她""]","","","","","","","","7","","","","","","","","","SRET","SRET_math_calculate","","key","7","16.561946902654867","960","536","","","","","9-2= ?","7","1","","","","","","","",""
"1824","","8","psychophysics","137","530461","0.0-7.0-5.0-0.34","6","5","6","6","5","4","3","4","5","5","4","1","0","0","0","0","1","1","1","5","5","5","5","4","3","4","4","5","4","6","7","6","6","5","7","7","8","8","4","7","5","6","5","3","4","1","6","5","1","5","2","4","3","4","7","5","4","4","5","5","5","6","1","6","5","4","7","7","7","4","2","4","7","4","7","2","7","3","7","758958446577192962","练","446","Female","[""好她"",""坏我"",""好我"",""坏她""]","[""强她"",""弱我"",""强我"",""弱她""]","","","","","","","","8","","","","","","","","","SRET","SRET_math_calculate","","key","8","16.667889908257308","960","536","","","","","2+6= ?","8","1","","","","","","","",""
"1727","","8","psychophysics","138","532189","0.0-7.0-5.0-0.35","6","5","6","6","5","4","3","4","5","5","4","1","0","0","0","0","1","1","1","5","5","5","5","4","3","4","4","5","4","6","7","6","6","5","7","7","8","8","4","7","5","6","5","3","4","1","6","5","1","5","2","4","3","4","7","5","4","4","5","5","5","6","1","6","5","4","7","7","7","4","2","4","7","4","7","2","7","3","7","758958446577192962","练","446","Female","[""好她"",""坏我"",""好我"",""坏她""]","[""强她"",""弱我"",""强我"",""弱她""]","","","","","","","","8","","","","","","","","","SRET","SRET_math_calculate","","key","8","16.666666666666668","960","536","","","","","3+5= ?","8","1","","","","","","","",""
"1814","","4","psychophysics","139","534005","0.0-7.0-5.0-0.36","6","5","6","6","5","4","3","4","5","5","4","1","0","0","0","0","1","1","1","5","5","5","5","4","3","4","4","5","4","6","7","6","6","5","7","7","8","8","4","7","5","6","5","3","4","1","6","5","1","5","2","4","3","4","7","5","4","4","5","5","5","6","1","6","5","4","7","7","7","4","2","4","7","4","7","2","7","3","7","758958446577192962","练","446","Female","[""好她"",""坏我"",""好我"",""坏她""]","[""强她"",""弱我"",""强我"",""弱她""]","","","","","","","","4","","","","","","","","","SRET","SRET_math_calculate","","key","4","16.667592592592378","960","536","","","","","4*1= ?","4","1","","","","","","","",""
"1855","","7","psychophysics","140","535861","0.0-7.0-5.0-0.37","6","5","6","6","5","4","3","4","5","5","4","1","0","0","0","0","1","1","1","5","5","5","5","4","3","4","4","5","4","6","7","6","6","5","7","7","8","8","4","7","5","6","5","3","4","1","6","5","1","5","2","4","3","4","7","5","4","4","5","5","5","6","1","6","5","4","7","7","7","4","2","4","7","4","7","2","7","3","7","758958446577192962","练","446","Female","[""好她"",""坏我"",""好我"",""坏她""]","[""强她"",""弱我"",""强我"",""弱她""]","","","","","","","","7","","","","","","","","","SRET","SRET_math_calculate","","key","7","16.64954954955039","960","536","","","","","8-1= ?","7","1","","","","","","","",""
"1922","","7","psychophysics","141","537785","0.0-7.0-5.0-0.38","6","5","6","6","5","4","3","4","5","5","4","1","0","0","0","0","1","1","1","5","5","5","5","4","3","4","4","5","4","6","7","6","6","5","7","7","8","8","4","7","5","6","5","3","4","1","6","5","1","5","2","4","3","4","7","5","4","4","5","5","5","6","1","6","5","4","7","7","7","4","2","4","7","4","7","2","7","3","7","758958446577192962","练","446","Female","[""好她"",""坏我"",""好我"",""坏她""]","[""强她"",""弱我"",""强我"",""弱她""]","","","","","","","","7","","","","","","","","","SRET","SRET_math_calculate","","key","7","16.669298245613422","960","536","","","","","13-6= ?","7","1","","","","","","","",""
"2027","","2","psychophysics","142","539813","0.0-7.0-5.0-0.39","6","5","6","6","5","4","3","4","5","5","4","1","0","0","0","0","1","1","1","5","5","5","5","4","3","4","4","5","4","6","7","6","6","5","7","7","8","8","4","7","5","6","5","3","4","1","6","5","1","5","2","4","3","4","7","5","4","4","5","5","5","6","1","6","5","4","7","7","7","4","2","4","7","4","7","2","7","3","7","758958446577192962","练","446","Female","[""好她"",""坏我"",""好我"",""坏她""]","[""强她"",""弱我"",""强我"",""弱她""]","","","","","","","","2","","","","","","","","","SRET","SRET_math_calculate","","key","2","16.665289256198346","960","536","","","","","8/4= ?","2","1","","","","","","","",""
