"rt","stimulus","response","trial_type","trial_index","time_elapsed","internal_node_id","swb_1","swb_2","swb_3","swb_4","swb_5","LOT_1","LOT_2","LOT_3","LOT_4","LOT_5","LOT_6","IPC_1","IPC_2","IPC_3","IPC_4","IPC_5","IPC_6","IPC_7","IPC_8","MorIden_1","MorIden_2","MorIden_3","MorIden_4","MorIden_5","MorIden_6","MorIden_7","MorIden_8","MorIden_9","MorIden_10","moralSeImag_1","moralSeImag_2","moralSeImag_3","moralSeImag_4","moralSeImag_5","moralSeImag_6","moralSeImag_7","moralSeImag_8","moralSeImag_9","sde_1","sde_2","sde_3","sde_4","sde_5","sde_6","sde_7","sde_8","sde_9","sde_10","trap2","sde_11","sde_12","sde_13","sde_14","sde_15","sde_16","sde_17","sde_18","sde_19","sde_20","IM_1","IM_2","IM_3","IM_4","IM_5","IM_6","IM_7","IM_8","IM_9","IM_10","IM_11","IM_12","IM_13","IM_14","IM_15","IM_16","IM_17","IM_18","IM_19","IM_20","subj_idx","friend_name","ParticipantID","Sex","Word","Word2","value","success","timeout","failed_images","failed_audio","failed_video","user_agent","responses","item_order","radio_event_ids","radio_event_times","key_event_times","mouse_event_times","straightlining","zigzagging","honeypot","task_id","screen_id","time_stamp","response_type","key_press","avg_frame_time","center_x","center_y","person","word","valence","domain","math","correct_response","correct","status","view_history","identity","duration","Image","condition","question_order","trap2_item"
"14623","
   <p><div style='color:white; font-size: 25px'>您好，欢迎参加本次实验。</div></p>
   <p><div style='color:white; font-size: 25px'>为充分保障您的权利，请确保您已经知晓并同意《参与实验同意书》以及《数据公开知情同意书》。</div></p>
   <p><div style='color:white; font-size: 25px'>如果您未见过上述内容，请咨询实验员。</div></p>
   <p style='color:white; font-size: 25px'>如果您选择继续实验，则表示您已经清楚两份知情同意书的内容并同意。</p>
   <p><div style = ""color: pink;font-size:30px;"">请确保您记得day0的实验编号，您将在本次实验输入该编号，若您忘记，请咨询实验员后作答。</div></p>
   <p><div style = ""color:lightblue;font-size:25px;"">请您尽可能认真地作答，我们将依据您在各问卷和按键任务中的作答质量发放报酬。</div></p>
   <p> <div style = ""color: green""><按空格键至下页></div> </p>
   "," ","html-keyboard-response","0","14625","0.0-0.0","6","3","3","5","2","4","1","3","5","5","4","0","1","0","1","-2","-1","1","1","5","4","5","4","3","4","4","4","4","3","4","7","3","7","4","5","7","7","8","4","3","6","2","3","2","6","1","4","2","1","5","2","4","4","2","5","4","4","2","3","2","3","4","2","2","3","2","6","6","6","7","5","7","7","4","7","1","2","2","2","730025585505734658","陈","349","Female","[""好她"",""好我"",""坏她"",""坏我""]","[""强她"",""强我"",""弱她"",""弱我""]","","","","","","","","","","","","","","","","","","","","","","","","","","","","","","","","","","","","","","",""
"","","","call-function","1","14626","0.0-1.0-0.0","6","3","3","5","2","4","1","3","5","5","4","0","1","0","1","-2","-1","1","1","5","4","5","4","3","4","4","4","4","3","4","7","3","7","4","5","7","7","8","4","3","6","2","3","2","6","1","4","2","1","5","2","4","4","2","5","4","4","2","3","2","3","4","2","2","3","2","6","6","6","7","5","7","7","4","7","1","2","2","2","730025585505734658","陈","349","Female","[""好她"",""好我"",""坏她"",""坏我""]","[""强她"",""强我"",""弱她"",""弱我""]","","","","","","","","","","","","","","","","","","","","","","","","","","","","","","","","","","","","","","",""
"17196","","[{""name"":""Sex"",""value"":""1""},{""name"":""friend_name"",""value"":""陈""},{""name"":""ParticipantID"",""value"":""349""}]","survey-html-form","2","31823","0.0-1.0-1.0","6","3","3","5","2","4","1","3","5","5","4","0","1","0","1","-2","-1","1","1","5","4","5","4","3","4","4","4","4","3","4","7","3","7","4","5","7","7","8","4","3","6","2","3","2","6","1","4","2","1","5","2","4","4","2","5","4","4","2","3","2","3","4","2","2","3","2","6","6","6","7","5","7","7","4","7","1","2","2","2","730025585505734658","陈","349","Female","[""好她"",""好我"",""坏她"",""坏我""]","[""强她"",""强我"",""弱她"",""弱我""]","","","","","","","","","","","","","","","","","","","","","","","","","","","","","","","","","","","","","","",""
"","","","preload","3","32113","0.0-2.0","6","3","3","5","2","4","1","3","5","5","4","0","1","0","1","-2","-1","1","1","5","4","5","4","3","4","4","4","4","3","4","7","3","7","4","5","7","7","8","4","3","6","2","3","2","6","1","4","2","1","5","2","4","4","2","5","4","4","2","3","2","3","4","2","2","3","2","6","6","6","7","5","7","7","4","7","1","2","2","2","730025585505734658","陈","349","Female","[""好她"",""好我"",""坏她"",""坏我""]","[""强她"",""强我"",""弱她"",""弱我""]","","true","false","[]","[]","[]","","","","","","","","","","","","","","","","","","","","","","","","","","","","","","","","",""
"","","","fullscreen","4","47206","0.0-3.0","6","3","3","5","2","4","1","3","5","5","4","0","1","0","1","-2","-1","1","1","5","4","5","4","3","4","4","4","4","3","4","7","3","7","4","5","7","7","8","4","3","6","2","3","2","6","1","4","2","1","5","2","4","4","2","5","4","4","2","3","2","3","4","2","2","3","2","6","6","6","7","5","7","7","4","7","1","2","2","2","730025585505734658","陈","349","Female","[""好她"",""好我"",""坏她"",""坏我""]","[""强她"",""强我"",""弱她"",""弱我""]","","true","","","","","{}","","","","","","","","","","","","","","","","","","","","","","","","","","","","","","","",""
"18295.599999904633","","{""Q01"":""6"",""Q02"":""3"",""Q03"":""3"",""Q04"":""5"",""Q05"":""2""}","survey-template","5","65505","0.0-4.0","6","3","3","5","2","4","1","3","5","5","4","0","1","0","1","-2","-1","1","1","5","4","5","4","3","4","4","4","4","3","4","7","3","7","4","5","7","7","8","4","3","6","2","3","2","6","1","4","2","1","5","2","4","4","2","5","4","4","2","3","2","3","4","2","2","3","2","6","6","6","7","5","7","7","4","7","1","2","2","2","730025585505734658","陈","349","Female","[""好她"",""好我"",""坏她"",""坏我""]","[""强她"",""强我"",""弱她"",""弱我""]","","","","","","","","{""Q01"":""6"",""Q02"":""3"",""Q03"":""3"",""Q04"":""5"",""Q05"":""2""}","[0,1,2,3,4]","[""Q01"",""Q02"",""Q03"",""Q04"",""Q05""]","[5176.700000047684,8349.599999904633,10179.5,13298.700000047684,16238.700000047684]","[]","[5176.700000047684,8349.599999904633,10179.5,13298.700000047684,16238.700000047684,18294.200000047684]","0.4","0","0","","","","","","","","","","","","","","","","","","","","","","",""
"23633.800000190735","","{""Q01"":""4"",""Q02"":""1"",""Q03"":""3"",""Q04"":""5"",""Q05"":""5"",""Q06"":""4""}","survey-template","6","89144","0.0-5.0","6","3","3","5","2","4","1","3","5","5","4","0","1","0","1","-2","-1","1","1","5","4","5","4","3","4","4","4","4","3","4","7","3","7","4","5","7","7","8","4","3","6","2","3","2","6","1","4","2","1","5","2","4","4","2","5","4","4","2","3","2","3","4","2","2","3","2","6","6","6","7","5","7","7","4","7","1","2","2","2","730025585505734658","陈","349","Female","[""好她"",""好我"",""坏她"",""坏我""]","[""强她"",""强我"",""弱她"",""弱我""]","","","","","","","","{""Q01"":""4"",""Q02"":""1"",""Q03"":""3"",""Q04"":""5"",""Q05"":""5"",""Q06"":""4""}","[0,1,2,3,4,5]","[""Q01"",""Q02"",""Q03"",""Q04"",""Q05"",""Q06""]","[3427.4000000953674,9344.800000190735,11670.700000047684,16680.10000014305,18803,21614.900000095367]","[]","[3427.4000000953674,9344.800000190735,11670.700000047684,16680.10000014305,18803,21614.900000095367,23632.900000095367]","0.3333333333333333","0.2","0","","","","","","","","","","","","","","","","","","","","","","",""
"26215.10000014305","","{""Q01"":""0"",""Q02"":""1"",""Q03"":""0"",""Q04"":""1"",""Q05"":""-2"",""Q06"":""-1"",""Q07"":""1"",""Q08"":""1""}","survey-template","7","115364","0.0-6.0","6","3","3","5","2","4","1","3","5","5","4","0","1","0","1","-2","-1","1","1","5","4","5","4","3","4","4","4","4","3","4","7","3","7","4","5","7","7","8","4","3","6","2","3","2","6","1","4","2","1","5","2","4","4","2","5","4","4","2","3","2","3","4","2","2","3","2","6","6","6","7","5","7","7","4","7","1","2","2","2","730025585505734658","陈","349","Female","[""好她"",""好我"",""坏她"",""坏我""]","[""强她"",""强我"",""弱她"",""弱我""]","","","","","","","","{""Q01"":""0"",""Q02"":""1"",""Q03"":""0"",""Q04"":""1"",""Q05"":""-2"",""Q06"":""-1"",""Q07"":""1"",""Q08"":""1""}","[0,1,2,3,4,5,6,7]","[""Q01"",""Q02"",""Q03"",""Q04"",""Q05"",""Q06"",""Q07"",""Q08""]","[5206.5,10793.600000143051,12496.700000047684,15391.5,17274.5,19855,23387.200000047684,25246.900000095367]","[]","[5206.5,10793.600000143051,12496.700000047684,15391.5,17274.5,19855,23387.200000047684,25246.900000095367,26214.200000047684]","0.5","0.5714285714285714","0","","","","","","","","","","","","","","","","","","","","","","",""
"26869","
    <p><div style='color:white;font-size:35px; line-height:20px;'>词汇评估任务</div></p><br>
    <p><div style='color:white;font-size:25px; line-height:20px;'>请再次回忆该亲密的朋友，你们至少2年前就认识了，并且最近2年经常见面。</div></p>
    <p><div style='color:white;font-size:25px; line-height:20px;'>在本实验中，您将会看到一些形容词。</div></p>
    <p><div style='color:yellow;font-size:25px; line-height:20px;'>您的任务是判断这些形容词是否符合对您自己或您的朋友的描述。</div></p><p style='font-size:35px'>符合按<span style=""color:lightgreen""> j 键</span>，不符合按<span style=""color:red""> f 键</span></p>","0","html-button-response","8","142237","0.0-7.0-0.0","6","3","3","5","2","4","1","3","5","5","4","0","1","0","1","-2","-1","1","1","5","4","5","4","3","4","4","4","4","3","4","7","3","7","4","5","7","7","8","4","3","6","2","3","2","6","1","4","2","1","5","2","4","4","2","5","4","4","2","3","2","3","4","2","2","3","2","6","6","6","7","5","7","7","4","7","1","2","2","2","730025585505734658","陈","349","Female","[""好她"",""好我"",""坏她"",""坏我""]","[""强她"",""强我"",""弱她"",""弱我""]","","","","","","","","","","","","","","","","","SRET_EW","EW_instructions","Tue Dec 12 2023 13:27:57 GMT+0800 (中国标准时间)","","","","","","","","","","","","","","","","","","","",""
"1681","","j","psychophysics","9","144925","0.0-7.0-1.0-0.0","6","3","3","5","2","4","1","3","5","5","4","0","1","0","1","-2","-1","1","1","5","4","5","4","3","4","4","4","4","3","4","7","3","7","4","5","7","7","8","4","3","6","2","3","2","6","1","4","2","1","5","2","4","4","2","5","4","4","2","3","2","3","4","2","2","3","2","6","6","6","7","5","7","7","4","7","1","2","2","2","730025585505734658","陈","349","Female","[""好她"",""好我"",""坏她"",""坏我""]","[""强她"",""强我"",""弱她"",""弱我""]","","","","","","","","yes","","","","","","","","","SRET_EW","EW_practice","","key","j","16.665838509316842","599.999976158143","395.8333176043305","自己","严谨","Positive","ability","","","","","","","","","","",""
"1131","","j","psychophysics","10","147058","0.0-7.0-1.0-0.1","6","3","3","5","2","4","1","3","5","5","4","0","1","0","1","-2","-1","1","1","5","4","5","4","3","4","4","4","4","3","4","7","3","7","4","5","7","7","8","4","3","6","2","3","2","6","1","4","2","1","5","2","4","4","2","5","4","4","2","3","2","3","4","2","2","3","2","6","6","6","7","5","7","7","4","7","1","2","2","2","730025585505734658","陈","349","Female","[""好她"",""好我"",""坏她"",""坏我""]","[""强她"",""强我"",""弱她"",""弱我""]","","","","","","","","yes","","","","","","","","","SRET_EW","EW_practice","","key","j","16.664566929134043","599.999976158143","395.8333176043305","朋友","忠实","Positive","morality","","","","","","","","","","",""
"1136","","f","psychophysics","11","149196","0.0-7.0-1.0-0.2","6","3","3","5","2","4","1","3","5","5","4","0","1","0","1","-2","-1","1","1","5","4","5","4","3","4","4","4","4","3","4","7","3","7","4","5","7","7","8","4","3","6","2","3","2","6","1","4","2","1","5","2","4","4","2","5","4","4","2","3","2","3","4","2","2","3","2","6","6","6","7","5","7","7","4","7","1","2","2","2","730025585505734658","陈","349","Female","[""好她"",""好我"",""坏她"",""坏我""]","[""强她"",""强我"",""弱她"",""弱我""]","","","","","","","","no","","","","","","","","","SRET_EW","EW_practice","","key","f","16.66692913385836","599.999976158143","395.8333176043305","朋友","徇私","Negative","morality","","","","","","","","","","",""
"966","","f","psychophysics","12","151163","0.0-7.0-1.0-0.3","6","3","3","5","2","4","1","3","5","5","4","0","1","0","1","-2","-1","1","1","5","4","5","4","3","4","4","4","4","3","4","7","3","7","4","5","7","7","8","4","3","6","2","3","2","6","1","4","2","1","5","2","4","4","2","5","4","4","2","3","2","3","4","2","2","3","2","6","6","6","7","5","7","7","4","7","1","2","2","2","730025585505734658","陈","349","Female","[""好她"",""好我"",""坏她"",""坏我""]","[""强她"",""强我"",""弱她"",""弱我""]","","","","","","","","no","","","","","","","","","SRET_EW","EW_practice","","key","f","16.664957264957415","599.999976158143","395.8333176043305","自己","刻板","Negative","ability","","","","","","","","","","",""
"11084","
    <p><div style='color:white;font-size:35px; line-height:20px;'>请您再次阅读实验要求</div></p><br>
    <p><div style='color:white;font-size:25px; line-height:20px;'>请回忆某一个亲密的朋友，你们至少2年前就认识了，并且最近2年经常见面。</div></p>
    <p><div style='color:white;font-size:25px; line-height:20px;'>在本实验中，您将会看到一些形容词。</div></p>
    <p><div style='color:yellow;font-size:25px; line-height:20px;'>您的任务是判断这些形容词是否符合对您自己或您的朋友的描述。</div></p>
    <p><div class='footer' style='font-size:25px; line-height:20px;'>如果对本实验还有不清楚之处，请立即向实验员咨询。</p><p style='font-size:25px; line-height:20px;'>如果您明白了规则：</p><p style='font-size:22px; line-height:20px;'>请按 继续 进入正式实验</p>
    </div>
    <p style='font-size:35px'>符合按<span style=""color:lightgreen""> j 键</span>，不符合按<span style=""color:red""> f 键</span></p>","0","html-button-response","13","162249","0.0-7.0-2.0","6","3","3","5","2","4","1","3","5","5","4","0","1","0","1","-2","-1","1","1","5","4","5","4","3","4","4","4","4","3","4","7","3","7","4","5","7","7","8","4","3","6","2","3","2","6","1","4","2","1","5","2","4","4","2","5","4","4","2","3","2","3","4","2","2","3","2","6","6","6","7","5","7","7","4","7","1","2","2","2","730025585505734658","陈","349","Female","[""好她"",""好我"",""坏她"",""坏我""]","[""强她"",""强我"",""弱她"",""弱我""]","","","","","","","","","","","","","","","","","SRET_EW","prac_instructions","Tue Dec 12 2023 13:27:57 GMT+0800 (中国标准时间)","","","","","","","","","","","","","","","","","","","",""
"895","","f","psychophysics","14","164148","0.0-7.0-3.0-0.0","6","3","3","5","2","4","1","3","5","5","4","0","1","0","1","-2","-1","1","1","5","4","5","4","3","4","4","4","4","3","4","7","3","7","4","5","7","7","8","4","3","6","2","3","2","6","1","4","2","1","5","2","4","4","2","5","4","4","2","3","2","3","4","2","2","3","2","6","6","6","7","5","7","7","4","7","1","2","2","2","730025585505734658","陈","349","Female","[""好她"",""好我"",""坏她"",""坏我""]","[""强她"",""强我"",""弱她"",""弱我""]","","","","","","","","no","","","","","","","","","SRET","EW_formal","","key","f","16.517543859649123","599.999976158143","395.8333176043305","自己","坚贞","Positive","morality","","","","","","","","","","",""
"1215","","f","psychophysics","15","166365","0.0-7.0-3.0-0.1","6","3","3","5","2","4","1","3","5","5","4","0","1","0","1","-2","-1","1","1","5","4","5","4","3","4","4","4","4","3","4","7","3","7","4","5","7","7","8","4","3","6","2","3","2","6","1","4","2","1","5","2","4","4","2","5","4","4","2","3","2","3","4","2","2","3","2","6","6","6","7","5","7","7","4","7","1","2","2","2","730025585505734658","陈","349","Female","[""好她"",""好我"",""坏她"",""坏我""]","[""强她"",""强我"",""弱她"",""弱我""]","","","","","","","","no","","","","","","","","","SRET","EW_formal","","key","f","16.665909090909267","599.999976158143","395.8333176043305","朋友","迷糊","Negative","ability","","","","","","","","","","",""
"957","","f","psychophysics","16","168323","0.0-7.0-3.0-0.2","6","3","3","5","2","4","1","3","5","5","4","0","1","0","1","-2","-1","1","1","5","4","5","4","3","4","4","4","4","3","4","7","3","7","4","5","7","7","8","4","3","6","2","3","2","6","1","4","2","1","5","2","4","4","2","5","4","4","2","3","2","3","4","2","2","3","2","6","6","6","7","5","7","7","4","7","1","2","2","2","730025585505734658","陈","349","Female","[""好她"",""好我"",""坏她"",""坏我""]","[""强她"",""强我"",""弱她"",""弱我""]","","","","","","","","no","","","","","","","","","SRET","EW_formal","","key","f","16.669230769230918","599.999976158143","395.8333176043305","自己","说谎","Negative","morality","","","","","","","","","","",""
"809","","j","psychophysics","17","170133","0.0-7.0-3.0-0.3","6","3","3","5","2","4","1","3","5","5","4","0","1","0","1","-2","-1","1","1","5","4","5","4","3","4","4","4","4","3","4","7","3","7","4","5","7","7","8","4","3","6","2","3","2","6","1","4","2","1","5","2","4","4","2","5","4","4","2","3","2","3","4","2","2","3","2","6","6","6","7","5","7","7","4","7","1","2","2","2","730025585505734658","陈","349","Female","[""好她"",""好我"",""坏她"",""坏我""]","[""强她"",""强我"",""弱她"",""弱我""]","","","","","","","","yes","","","","","","","","","SRET","EW_formal","","key","j","16.664485981308466","599.999976158143","395.8333176043305","朋友","务实","Positive","ability","","","","","","","","","","",""
"795","","f","psychophysics","18","171930","0.0-7.0-3.0-0.4","6","3","3","5","2","4","1","3","5","5","4","0","1","0","1","-2","-1","1","1","5","4","5","4","3","4","4","4","4","3","4","7","3","7","4","5","7","7","8","4","3","6","2","3","2","6","1","4","2","1","5","2","4","4","2","5","4","4","2","3","2","3","4","2","2","3","2","6","6","6","7","5","7","7","4","7","1","2","2","2","730025585505734658","陈","349","Female","[""好她"",""好我"",""坏她"",""坏我""]","[""强她"",""强我"",""弱她"",""弱我""]","","","","","","","","no","","","","","","","","","SRET","EW_formal","","key","f","16.608411214953325","599.999976158143","395.8333176043305","朋友","卑鄙","Negative","morality","","","","","","","","","","",""
"1151","","j","psychophysics","19","174083","0.0-7.0-3.0-0.5","6","3","3","5","2","4","1","3","5","5","4","0","1","0","1","-2","-1","1","1","5","4","5","4","3","4","4","4","4","3","4","7","3","7","4","5","7","7","8","4","3","6","2","3","2","6","1","4","2","1","5","2","4","4","2","5","4","4","2","3","2","3","4","2","2","3","2","6","6","6","7","5","7","7","4","7","1","2","2","2","730025585505734658","陈","349","Female","[""好她"",""好我"",""坏她"",""坏我""]","[""强她"",""强我"",""弱她"",""弱我""]","","","","","","","","yes","","","","","","","","","SRET","EW_formal","","key","j","16.64296874999991","599.999976158143","395.8333176043305","自己","顶事","Positive","ability","","","","","","","","","","",""
"608","","j","psychophysics","20","175693","0.0-7.0-3.0-0.6","6","3","3","5","2","4","1","3","5","5","4","0","1","0","1","-2","-1","1","1","5","4","5","4","3","4","4","4","4","3","4","7","3","7","4","5","7","7","8","4","3","6","2","3","2","6","1","4","2","1","5","2","4","4","2","5","4","4","2","3","2","3","4","2","2","3","2","6","6","6","7","5","7","7","4","7","1","2","2","2","730025585505734658","陈","349","Female","[""好她"",""好我"",""坏她"",""坏我""]","[""强她"",""强我"",""弱她"",""弱我""]","","","","","","","","yes","","","","","","","","","SRET","EW_formal","","key","j","16.667708333333394","599.999976158143","395.8333176043305","自己","勤奋","Positive","ability","","","","","","","","","","",""
"579","","j","psychophysics","21","177273","0.0-7.0-3.0-0.7","6","3","3","5","2","4","1","3","5","5","4","0","1","0","1","-2","-1","1","1","5","4","5","4","3","4","4","4","4","3","4","7","3","7","4","5","7","7","8","4","3","6","2","3","2","6","1","4","2","1","5","2","4","4","2","5","4","4","2","3","2","3","4","2","2","3","2","6","6","6","7","5","7","7","4","7","1","2","2","2","730025585505734658","陈","349","Female","[""好她"",""好我"",""坏她"",""坏我""]","[""强她"",""强我"",""弱她"",""弱我""]","","","","","","","","yes","","","","","","","","","SRET","EW_formal","","key","j","16.668085106382854","599.999976158143","395.8333176043305","朋友","热心","Positive","morality","","","","","","","","","","",""
"479","","j","psychophysics","22","178754","0.0-7.0-3.0-0.8","6","3","3","5","2","4","1","3","5","5","4","0","1","0","1","-2","-1","1","1","5","4","5","4","3","4","4","4","4","3","4","7","3","7","4","5","7","7","8","4","3","6","2","3","2","6","1","4","2","1","5","2","4","4","2","5","4","4","2","3","2","3","4","2","2","3","2","6","6","6","7","5","7","7","4","7","1","2","2","2","730025585505734658","陈","349","Female","[""好她"",""好我"",""坏她"",""坏我""]","[""强她"",""强我"",""弱她"",""弱我""]","","","","","","","","yes","","","","","","","","","SRET","EW_formal","","key","j","16.671590909090643","599.999976158143","395.8333176043305","朋友","努力","Positive","ability","","","","","","","","","","",""
"821","","j","psychophysics","23","180580","0.0-7.0-3.0-0.9","6","3","3","5","2","4","1","3","5","5","4","0","1","0","1","-2","-1","1","1","5","4","5","4","3","4","4","4","4","3","4","7","3","7","4","5","7","7","8","4","3","6","2","3","2","6","1","4","2","1","5","2","4","4","2","5","4","4","2","3","2","3","4","2","2","3","2","6","6","6","7","5","7","7","4","7","1","2","2","2","730025585505734658","陈","349","Female","[""好她"",""好我"",""坏她"",""坏我""]","[""强她"",""强我"",""弱她"",""弱我""]","","","","","","","","yes","","","","","","","","","SRET","EW_formal","","key","j","16.670370370370318","599.999976158143","395.8333176043305","自己","聪明","Positive","ability","","","","","","","","","","",""
"1372","","j","psychophysics","24","182953","0.0-7.0-3.0-0.10","6","3","3","5","2","4","1","3","5","5","4","0","1","0","1","-2","-1","1","1","5","4","5","4","3","4","4","4","4","3","4","7","3","7","4","5","7","7","8","4","3","6","2","3","2","6","1","4","2","1","5","2","4","4","2","5","4","4","2","3","2","3","4","2","2","3","2","6","6","6","7","5","7","7","4","7","1","2","2","2","730025585505734658","陈","349","Female","[""好她"",""好我"",""坏她"",""坏我""]","[""强她"",""强我"",""弱她"",""弱我""]","","","","","","","","yes","","","","","","","","","SRET","EW_formal","","key","j","16.66549295774648","599.999976158143","395.8333176043305","朋友","廉正","Positive","morality","","","","","","","","","","",""
"1172","","j","psychophysics","25","185127","0.0-7.0-3.0-0.11","6","3","3","5","2","4","1","3","5","5","4","0","1","0","1","-2","-1","1","1","5","4","5","4","3","4","4","4","4","3","4","7","3","7","4","5","7","7","8","4","3","6","2","3","2","6","1","4","2","1","5","2","4","4","2","5","4","4","2","3","2","3","4","2","2","3","2","6","6","6","7","5","7","7","4","7","1","2","2","2","730025585505734658","陈","349","Female","[""好她"",""好我"",""坏她"",""坏我""]","[""强她"",""强我"",""弱她"",""弱我""]","","","","","","","","yes","","","","","","","","","SRET","EW_formal","","key","j","16.666666666666668","599.999976158143","395.8333176043305","朋友","干练","Positive","ability","","","","","","","","","","",""
"1195","","f","psychophysics","26","187323","0.0-7.0-3.0-0.12","6","3","3","5","2","4","1","3","5","5","4","0","1","0","1","-2","-1","1","1","5","4","5","4","3","4","4","4","4","3","4","7","3","7","4","5","7","7","8","4","3","6","2","3","2","6","1","4","2","1","5","2","4","4","2","5","4","4","2","3","2","3","4","2","2","3","2","6","6","6","7","5","7","7","4","7","1","2","2","2","730025585505734658","陈","349","Female","[""好她"",""好我"",""坏她"",""坏我""]","[""强她"",""强我"",""弱她"",""弱我""]","","","","","","","","no","","","","","","","","","SRET","EW_formal","","key","f","16.64809160305339","599.999976158143","395.8333176043305","朋友","怠惰","Negative","ability","","","","","","","","","","",""
"1463","","j","psychophysics","27","189788","0.0-7.0-3.0-0.13","6","3","3","5","2","4","1","3","5","5","4","0","1","0","1","-2","-1","1","1","5","4","5","4","3","4","4","4","4","3","4","7","3","7","4","5","7","7","8","4","3","6","2","3","2","6","1","4","2","1","5","2","4","4","2","5","4","4","2","3","2","3","4","2","2","3","2","6","6","6","7","5","7","7","4","7","1","2","2","2","730025585505734658","陈","349","Female","[""好她"",""好我"",""坏她"",""坏我""]","[""强她"",""强我"",""弱她"",""弱我""]","","","","","","","","yes","","","","","","","","","SRET","EW_formal","","key","j","16.668027210884237","599.999976158143","395.8333176043305","朋友","正气","Positive","morality","","","","","","","","","","",""
"1255","","j","psychophysics","28","192046","0.0-7.0-3.0-0.14","6","3","3","5","2","4","1","3","5","5","4","0","1","0","1","-2","-1","1","1","5","4","5","4","3","4","4","4","4","3","4","7","3","7","4","5","7","7","8","4","3","6","2","3","2","6","1","4","2","1","5","2","4","4","2","5","4","4","2","3","2","3","4","2","2","3","2","6","6","6","7","5","7","7","4","7","1","2","2","2","730025585505734658","陈","349","Female","[""好她"",""好我"",""坏她"",""坏我""]","[""强她"",""强我"",""弱她"",""弱我""]","","","","","","","","yes","","","","","","","","","SRET","EW_formal","","key","j","16.667910447761194","599.999976158143","395.8333176043305","朋友","肯干","Positive","ability","","","","","","","","","","",""
"1313","","f","psychophysics","29","194360","0.0-7.0-3.0-0.15","6","3","3","5","2","4","1","3","5","5","4","0","1","0","1","-2","-1","1","1","5","4","5","4","3","4","4","4","4","3","4","7","3","7","4","5","7","7","8","4","3","6","2","3","2","6","1","4","2","1","5","2","4","4","2","5","4","4","2","3","2","3","4","2","2","3","2","6","6","6","7","5","7","7","4","7","1","2","2","2","730025585505734658","陈","349","Female","[""好她"",""好我"",""坏她"",""坏我""]","[""强她"",""强我"",""弱她"",""弱我""]","","","","","","","","no","","","","","","","","","SRET","EW_formal","","key","f","16.666666666666668","599.999976158143","395.8333176043305","自己","短浅","Negative","ability","","","","","","","","","","",""
"1483","","f","psychophysics","30","196845","0.0-7.0-3.0-0.16","6","3","3","5","2","4","1","3","5","5","4","0","1","0","1","-2","-1","1","1","5","4","5","4","3","4","4","4","4","3","4","7","3","7","4","5","7","7","8","4","3","6","2","3","2","6","1","4","2","1","5","2","4","4","2","5","4","4","2","3","2","3","4","2","2","3","2","6","6","6","7","5","7","7","4","7","1","2","2","2","730025585505734658","陈","349","Female","[""好她"",""好我"",""坏她"",""坏我""]","[""强她"",""强我"",""弱她"",""弱我""]","","","","","","","","no","","","","","","","","","SRET","EW_formal","","key","f","16.666216216216256","599.999976158143","395.8333176043305","朋友","背叛","Negative","morality","","","","","","","","","","",""
"1200","","j","psychophysics","31","199047","0.0-7.0-3.0-0.17","6","3","3","5","2","4","1","3","5","5","4","0","1","0","1","-2","-1","1","1","5","4","5","4","3","4","4","4","4","3","4","7","3","7","4","5","7","7","8","4","3","6","2","3","2","6","1","4","2","1","5","2","4","4","2","5","4","4","2","3","2","3","4","2","2","3","2","6","6","6","7","5","7","7","4","7","1","2","2","2","730025585505734658","陈","349","Female","[""好她"",""好我"",""坏她"",""坏我""]","[""强她"",""强我"",""弱她"",""弱我""]","","","","","","","","yes","","","","","","","","","SRET","EW_formal","","key","j","16.66870229007638","599.999976158143","395.8333176043305","自己","宽容","Positive","morality","","","","","","","","","","",""
"1505","","f","psychophysics","32","201554","0.0-7.0-3.0-0.18","6","3","3","5","2","4","1","3","5","5","4","0","1","0","1","-2","-1","1","1","5","4","5","4","3","4","4","4","4","3","4","7","3","7","4","5","7","7","8","4","3","6","2","3","2","6","1","4","2","1","5","2","4","4","2","5","4","4","2","3","2","3","4","2","2","3","2","6","6","6","7","5","7","7","4","7","1","2","2","2","730025585505734658","陈","349","Female","[""好她"",""好我"",""坏她"",""坏我""]","[""强她"",""强我"",""弱她"",""弱我""]","","","","","","","","no","","","","","","","","","SRET","EW_formal","","key","f","16.666666666666668","599.999976158143","395.8333176043305","自己","愚痴","Negative","ability","","","","","","","","","","",""
"1243","","f","psychophysics","33","203799","0.0-7.0-3.0-0.19","6","3","3","5","2","4","1","3","5","5","4","0","1","0","1","-2","-1","1","1","5","4","5","4","3","4","4","4","4","3","4","7","3","7","4","5","7","7","8","4","3","6","2","3","2","6","1","4","2","1","5","2","4","4","2","5","4","4","2","3","2","3","4","2","2","3","2","6","6","6","7","5","7","7","4","7","1","2","2","2","730025585505734658","陈","349","Female","[""好她"",""好我"",""坏她"",""坏我""]","[""强她"",""强我"",""弱她"",""弱我""]","","","","","","","","no","","","","","","","","","SRET","EW_formal","","key","f","16.666917293232952","599.999976158143","395.8333176043305","自己","毛糙","Negative","ability","","","","","","","","","","",""
"1276","","j","psychophysics","34","206076","0.0-7.0-3.0-0.20","6","3","3","5","2","4","1","3","5","5","4","0","1","0","1","-2","-1","1","1","5","4","5","4","3","4","4","4","4","3","4","7","3","7","4","5","7","7","8","4","3","6","2","3","2","6","1","4","2","1","5","2","4","4","2","5","4","4","2","3","2","3","4","2","2","3","2","6","6","6","7","5","7","7","4","7","1","2","2","2","730025585505734658","陈","349","Female","[""好她"",""好我"",""坏她"",""坏我""]","[""强她"",""强我"",""弱她"",""弱我""]","","","","","","","","yes","","","","","","","","","SRET","EW_formal","","key","j","16.607352941176515","599.999976158143","395.8333176043305","朋友","无知","Negative","ability","","","","","","","","","","",""
"1591","","j","psychophysics","35","208670","0.0-7.0-3.0-0.21","6","3","3","5","2","4","1","3","5","5","4","0","1","0","1","-2","-1","1","1","5","4","5","4","3","4","4","4","4","3","4","7","3","7","4","5","7","7","8","4","3","6","2","3","2","6","1","4","2","1","5","2","4","4","2","5","4","4","2","3","2","3","4","2","2","3","2","6","6","6","7","5","7","7","4","7","1","2","2","2","730025585505734658","陈","349","Female","[""好她"",""好我"",""坏她"",""坏我""]","[""强她"",""强我"",""弱她"",""弱我""]","","","","","","","","yes","","","","","","","","","SRET","EW_formal","","key","j","16.64516129032258","599.999976158143","395.8333176043305","自己","草率","Negative","ability","","","","","","","","","","",""
"916","","j","psychophysics","36","210589","0.0-7.0-3.0-0.22","6","3","3","5","2","4","1","3","5","5","4","0","1","0","1","-2","-1","1","1","5","4","5","4","3","4","4","4","4","3","4","7","3","7","4","5","7","7","8","4","3","6","2","3","2","6","1","4","2","1","5","2","4","4","2","5","4","4","2","3","2","3","4","2","2","3","2","6","6","6","7","5","7","7","4","7","1","2","2","2","730025585505734658","陈","349","Female","[""好她"",""好我"",""坏她"",""坏我""]","[""强她"",""强我"",""弱她"",""弱我""]","","","","","","","","yes","","","","","","","","","SRET","EW_formal","","key","j","16.663157894736894","599.999976158143","395.8333176043305","朋友","娴熟","Positive","ability","","","","","","","","","","",""
"1186","","j","psychophysics","37","212777","0.0-7.0-3.0-0.23","6","3","3","5","2","4","1","3","5","5","4","0","1","0","1","-2","-1","1","1","5","4","5","4","3","4","4","4","4","3","4","7","3","7","4","5","7","7","8","4","3","6","2","3","2","6","1","4","2","1","5","2","4","4","2","5","4","4","2","3","2","3","4","2","2","3","2","6","6","6","7","5","7","7","4","7","1","2","2","2","730025585505734658","陈","349","Female","[""好她"",""好我"",""坏她"",""坏我""]","[""强她"",""强我"",""弱她"",""弱我""]","","","","","","","","yes","","","","","","","","","SRET","EW_formal","","key","j","16.668461538461493","599.999976158143","395.8333176043305","朋友","高尚","Positive","morality","","","","","","","","","","",""
"1033","","f","psychophysics","38","214811","0.0-7.0-3.0-0.24","6","3","3","5","2","4","1","3","5","5","4","0","1","0","1","-2","-1","1","1","5","4","5","4","3","4","4","4","4","3","4","7","3","7","4","5","7","7","8","4","3","6","2","3","2","6","1","4","2","1","5","2","4","4","2","5","4","4","2","3","2","3","4","2","2","3","2","6","6","6","7","5","7","7","4","7","1","2","2","2","730025585505734658","陈","349","Female","[""好她"",""好我"",""坏她"",""坏我""]","[""强她"",""强我"",""弱她"",""弱我""]","","","","","","","","no","","","","","","","","","SRET","EW_formal","","key","f","16.666942148760427","599.999976158143","395.8333176043305","朋友","歹毒","Negative","morality","","","","","","","","","","",""
"1413","","j","psychophysics","39","217226","0.0-7.0-3.0-0.25","6","3","3","5","2","4","1","3","5","5","4","0","1","0","1","-2","-1","1","1","5","4","5","4","3","4","4","4","4","3","4","7","3","7","4","5","7","7","8","4","3","6","2","3","2","6","1","4","2","1","5","2","4","4","2","5","4","4","2","3","2","3","4","2","2","3","2","6","6","6","7","5","7","7","4","7","1","2","2","2","730025585505734658","陈","349","Female","[""好她"",""好我"",""坏她"",""坏我""]","[""强她"",""强我"",""弱她"",""弱我""]","","","","","","","","yes","","","","","","","","","SRET","EW_formal","","key","j","16.667361111111152","599.999976158143","395.8333176043305","自己","畏难","Negative","ability","","","","","","","","","","",""
"990","","f","psychophysics","40","219217","0.0-7.0-3.0-0.26","6","3","3","5","2","4","1","3","5","5","4","0","1","0","1","-2","-1","1","1","5","4","5","4","3","4","4","4","4","3","4","7","3","7","4","5","7","7","8","4","3","6","2","3","2","6","1","4","2","1","5","2","4","4","2","5","4","4","2","3","2","3","4","2","2","3","2","6","6","6","7","5","7","7","4","7","1","2","2","2","730025585505734658","陈","349","Female","[""好她"",""好我"",""坏她"",""坏我""]","[""强她"",""强我"",""弱她"",""弱我""]","","","","","","","","no","","","","","","","","","SRET","EW_formal","","key","f","16.666949152542472","599.999976158143","395.8333176043305","朋友","龌龊","Negative","morality","","","","","","","","","","",""
"1089","","j","psychophysics","41","221310","0.0-7.0-3.0-0.27","6","3","3","5","2","4","1","3","5","5","4","0","1","0","1","-2","-1","1","1","5","4","5","4","3","4","4","4","4","3","4","7","3","7","4","5","7","7","8","4","3","6","2","3","2","6","1","4","2","1","5","2","4","4","2","5","4","4","2","3","2","3","4","2","2","3","2","6","6","6","7","5","7","7","4","7","1","2","2","2","730025585505734658","陈","349","Female","[""好她"",""好我"",""坏她"",""坏我""]","[""强她"",""强我"",""弱她"",""弱我""]","","","","","","","","yes","","","","","","","","","SRET","EW_formal","","key","j","16.668","599.999976158143","395.8333176043305","自己","有力","Positive","ability","","","","","","","","","","",""
"957","","f","psychophysics","42","223275","0.0-7.0-3.0-0.28","6","3","3","5","2","4","1","3","5","5","4","0","1","0","1","-2","-1","1","1","5","4","5","4","3","4","4","4","4","3","4","7","3","7","4","5","7","7","8","4","3","6","2","3","2","6","1","4","2","1","5","2","4","4","2","5","4","4","2","3","2","3","4","2","2","3","2","6","6","6","7","5","7","7","4","7","1","2","2","2","730025585505734658","陈","349","Female","[""好她"",""好我"",""坏她"",""坏我""]","[""强她"",""强我"",""弱她"",""弱我""]","","","","","","","","no","","","","","","","","","SRET","EW_formal","","key","f","16.667521367521417","599.999976158143","395.8333176043305","朋友","小人","Negative","morality","","","","","","","","","","",""
"960","","j","psychophysics","43","225237","0.0-7.0-3.0-0.29","6","3","3","5","2","4","1","3","5","5","4","0","1","0","1","-2","-1","1","1","5","4","5","4","3","4","4","4","4","3","4","7","3","7","4","5","7","7","8","4","3","6","2","3","2","6","1","4","2","1","5","2","4","4","2","5","4","4","2","3","2","3","4","2","2","3","2","6","6","6","7","5","7","7","4","7","1","2","2","2","730025585505734658","陈","349","Female","[""好她"",""好我"",""坏她"",""坏我""]","[""强她"",""强我"",""弱她"",""弱我""]","","","","","","","","yes","","","","","","","","","SRET","EW_formal","","key","j","16.666666666666668","599.999976158143","395.8333176043305","自己","清廉","Positive","morality","","","","","","","","","","",""
"935","","j","psychophysics","44","227175","0.0-7.0-3.0-0.30","6","3","3","5","2","4","1","3","5","5","4","0","1","0","1","-2","-1","1","1","5","4","5","4","3","4","4","4","4","3","4","7","3","7","4","5","7","7","8","4","3","6","2","3","2","6","1","4","2","1","5","2","4","4","2","5","4","4","2","3","2","3","4","2","2","3","2","6","6","6","7","5","7","7","4","7","1","2","2","2","730025585505734658","陈","349","Female","[""好她"",""好我"",""坏她"",""坏我""]","[""强她"",""强我"",""弱她"",""弱我""]","","","","","","","","yes","","","","","","","","","SRET","EW_formal","","key","j","16.668695652174115","599.999976158143","395.8333176043305","自己","诚信","Positive","morality","","","","","","","","","","",""
"1098","","f","psychophysics","45","229274","0.0-7.0-3.0-0.31","6","3","3","5","2","4","1","3","5","5","4","0","1","0","1","-2","-1","1","1","5","4","5","4","3","4","4","4","4","3","4","7","3","7","4","5","7","7","8","4","3","6","2","3","2","6","1","4","2","1","5","2","4","4","2","5","4","4","2","3","2","3","4","2","2","3","2","6","6","6","7","5","7","7","4","7","1","2","2","2","730025585505734658","陈","349","Female","[""好她"",""好我"",""坏她"",""坏我""]","[""强她"",""强我"",""弱她"",""弱我""]","","","","","","","","no","","","","","","","","","SRET","EW_formal","","key","f","16.664800000000046","599.999976158143","395.8333176043305","自己","拜金","Negative","morality","","","","","","","","","","",""
"980","","j","psychophysics","46","231256","0.0-7.0-3.0-0.32","6","3","3","5","2","4","1","3","5","5","4","0","1","0","1","-2","-1","1","1","5","4","5","4","3","4","4","4","4","3","4","7","3","7","4","5","7","7","8","4","3","6","2","3","2","6","1","4","2","1","5","2","4","4","2","5","4","4","2","3","2","3","4","2","2","3","2","6","6","6","7","5","7","7","4","7","1","2","2","2","730025585505734658","陈","349","Female","[""好她"",""好我"",""坏她"",""坏我""]","[""强她"",""强我"",""弱她"",""弱我""]","","","","","","","","yes","","","","","","","","","SRET","EW_formal","","key","j","16.666949152542227","599.999976158143","395.8333176043305","自己","君子","Positive","morality","","","","","","","","","","",""
"1025","","f","psychophysics","47","233282","0.0-7.0-3.0-0.33","6","3","3","5","2","4","1","3","5","5","4","0","1","0","1","-2","-1","1","1","5","4","5","4","3","4","4","4","4","3","4","7","3","7","4","5","7","7","8","4","3","6","2","3","2","6","1","4","2","1","5","2","4","4","2","5","4","4","2","3","2","3","4","2","2","3","2","6","6","6","7","5","7","7","4","7","1","2","2","2","730025585505734658","陈","349","Female","[""好她"",""好我"",""坏她"",""坏我""]","[""强她"",""强我"",""弱她"",""弱我""]","","","","","","","","no","","","","","","","","","SRET","EW_formal","","key","f","16.669999999999952","599.999976158143","395.8333176043305","自己","贪腐","Negative","morality","","","","","","","","","","",""
"1050","","j","psychophysics","48","235333","0.0-7.0-3.0-0.34","6","3","3","5","2","4","1","3","5","5","4","0","1","0","1","-2","-1","1","1","5","4","5","4","3","4","4","4","4","3","4","7","3","7","4","5","7","7","8","4","3","6","2","3","2","6","1","4","2","1","5","2","4","4","2","5","4","4","2","3","2","3","4","2","2","3","2","6","6","6","7","5","7","7","4","7","1","2","2","2","730025585505734658","陈","349","Female","[""好她"",""好我"",""坏她"",""坏我""]","[""强她"",""强我"",""弱她"",""弱我""]","","","","","","","","yes","","","","","","","","","SRET","EW_formal","","key","j","16.666393442622855","599.999976158143","395.8333176043305","自己","无赖","Negative","morality","","","","","","","","","","",""
"1360","","f","psychophysics","49","237694","0.0-7.0-3.0-0.35","6","3","3","5","2","4","1","3","5","5","4","0","1","0","1","-2","-1","1","1","5","4","5","4","3","4","4","4","4","3","4","7","3","7","4","5","7","7","8","4","3","6","2","3","2","6","1","4","2","1","5","2","4","4","2","5","4","4","2","3","2","3","4","2","2","3","2","6","6","6","7","5","7","7","4","7","1","2","2","2","730025585505734658","陈","349","Female","[""好她"",""好我"",""坏她"",""坏我""]","[""强她"",""强我"",""弱她"",""弱我""]","","","","","","","","no","","","","","","","","","SRET","EW_formal","","key","f","16.667375886524862","599.999976158143","395.8333176043305","朋友","低劣","Negative","morality","","","","","","","","","","",""
"1514","","j","psychophysics","50","240208","0.0-7.0-3.0-0.36","6","3","3","5","2","4","1","3","5","5","4","0","1","0","1","-2","-1","1","1","5","4","5","4","3","4","4","4","4","3","4","7","3","7","4","5","7","7","8","4","3","6","2","3","2","6","1","4","2","1","5","2","4","4","2","5","4","4","2","3","2","3","4","2","2","3","2","6","6","6","7","5","7","7","4","7","1","2","2","2","730025585505734658","陈","349","Female","[""好她"",""好我"",""坏她"",""坏我""]","[""强她"",""强我"",""弱她"",""弱我""]","","","","","","","","yes","","","","","","","","","SRET","EW_formal","","key","j","16.662666666666627","599.999976158143","395.8333176043305","朋友","勤恳","Positive","morality","","","","","","","","","","",""
"989","","f","psychophysics","51","242199","0.0-7.0-3.0-0.37","6","3","3","5","2","4","1","3","5","5","4","0","1","0","1","-2","-1","1","1","5","4","5","4","3","4","4","4","4","3","4","7","3","7","4","5","7","7","8","4","3","6","2","3","2","6","1","4","2","1","5","2","4","4","2","5","4","4","2","3","2","3","4","2","2","3","2","6","6","6","7","5","7","7","4","7","1","2","2","2","730025585505734658","陈","349","Female","[""好她"",""好我"",""坏她"",""坏我""]","[""强她"",""强我"",""弱她"",""弱我""]","","","","","","","","no","","","","","","","","","SRET","EW_formal","","key","f","16.654237288135445","599.999976158143","395.8333176043305","自己","淫乱","Negative","morality","","","","","","","","","","",""
"1663","","f","psychophysics","52","244864","0.0-7.0-3.0-0.38","6","3","3","5","2","4","1","3","5","5","4","0","1","0","1","-2","-1","1","1","5","4","5","4","3","4","4","4","4","3","4","7","3","7","4","5","7","7","8","4","3","6","2","3","2","6","1","4","2","1","5","2","4","4","2","5","4","4","2","3","2","3","4","2","2","3","2","6","6","6","7","5","7","7","4","7","1","2","2","2","730025585505734658","陈","349","Female","[""好她"",""好我"",""坏她"",""坏我""]","[""强她"",""强我"",""弱她"",""弱我""]","","","","","","","","no","","","","","","","","","SRET","EW_formal","","key","f","16.65534591194976","599.999976158143","395.8333176043305","自己","独断","Negative","ability","","","","","","","","","","",""
"1043","","j","psychophysics","53","246909","0.0-7.0-3.0-0.39","6","3","3","5","2","4","1","3","5","5","4","0","1","0","1","-2","-1","1","1","5","4","5","4","3","4","4","4","4","3","4","7","3","7","4","5","7","7","8","4","3","6","2","3","2","6","1","4","2","1","5","2","4","4","2","5","4","4","2","3","2","3","4","2","2","3","2","6","6","6","7","5","7","7","4","7","1","2","2","2","730025585505734658","陈","349","Female","[""好她"",""好我"",""坏她"",""坏我""]","[""强她"",""强我"",""弱她"",""弱我""]","","","","","","","","yes","","","","","","","","","SRET","EW_formal","","key","j","16.6655737704919","599.999976158143","395.8333176043305","自己","爱国","Positive","morality","","","","","","","","","","",""
"886","","f","psychophysics","54","248796","0.0-7.0-3.0-0.40","6","3","3","5","2","4","1","3","5","5","4","0","1","0","1","-2","-1","1","1","5","4","5","4","3","4","4","4","4","3","4","7","3","7","4","5","7","7","8","4","3","6","2","3","2","6","1","4","2","1","5","2","4","4","2","5","4","4","2","3","2","3","4","2","2","3","2","6","6","6","7","5","7","7","4","7","1","2","2","2","730025585505734658","陈","349","Female","[""好她"",""好我"",""坏她"",""坏我""]","[""强她"",""强我"",""弱她"",""弱我""]","","","","","","","","no","","","","","","","","","SRET","EW_formal","","key","f","16.665178571428573","599.999976158143","395.8333176043305","朋友","缺德","Negative","morality","","","","","","","","","","",""
"1073","","j","psychophysics","55","250870","0.0-7.0-3.0-0.41","6","3","3","5","2","4","1","3","5","5","4","0","1","0","1","-2","-1","1","1","5","4","5","4","3","4","4","4","4","3","4","7","3","7","4","5","7","7","8","4","3","6","2","3","2","6","1","4","2","1","5","2","4","4","2","5","4","4","2","3","2","3","4","2","2","3","2","6","6","6","7","5","7","7","4","7","1","2","2","2","730025585505734658","陈","349","Female","[""好她"",""好我"",""坏她"",""坏我""]","[""强她"",""强我"",""弱她"",""弱我""]","","","","","","","","yes","","","","","","","","","SRET","EW_formal","","key","j","16.669354838709676","599.999976158143","395.8333176043305","朋友","守法","Positive","morality","","","","","","","","","","",""
"747","","j","psychophysics","56","252620","0.0-7.0-3.0-0.42","6","3","3","5","2","4","1","3","5","5","4","0","1","0","1","-2","-1","1","1","5","4","5","4","3","4","4","4","4","3","4","7","3","7","4","5","7","7","8","4","3","6","2","3","2","6","1","4","2","1","5","2","4","4","2","5","4","4","2","3","2","3","4","2","2","3","2","6","6","6","7","5","7","7","4","7","1","2","2","2","730025585505734658","陈","349","Female","[""好她"",""好我"",""坏她"",""坏我""]","[""强她"",""强我"",""弱她"",""弱我""]","","","","","","","","yes","","","","","","","","","SRET","EW_formal","","key","j","16.669230769230545","599.999976158143","395.8333176043305","朋友","上进","Positive","ability","","","","","","","","","","",""
"833","","f","psychophysics","57","254456","0.0-7.0-3.0-0.43","6","3","3","5","2","4","1","3","5","5","4","0","1","0","1","-2","-1","1","1","5","4","5","4","3","4","4","4","4","3","4","7","3","7","4","5","7","7","8","4","3","6","2","3","2","6","1","4","2","1","5","2","4","4","2","5","4","4","2","3","2","3","4","2","2","3","2","6","6","6","7","5","7","7","4","7","1","2","2","2","730025585505734658","陈","349","Female","[""好她"",""好我"",""坏她"",""坏我""]","[""强她"",""强我"",""弱她"",""弱我""]","","","","","","","","no","","","","","","","","","SRET","EW_formal","","key","f","16.664220183486453","599.999976158143","395.8333176043305","朋友","自私","Negative","morality","","","","","","","","","","",""
"1078","","j","psychophysics","58","256536","0.0-7.0-3.0-0.44","6","3","3","5","2","4","1","3","5","5","4","0","1","0","1","-2","-1","1","1","5","4","5","4","3","4","4","4","4","3","4","7","3","7","4","5","7","7","8","4","3","6","2","3","2","6","1","4","2","1","5","2","4","4","2","5","4","4","2","3","2","3","4","2","2","3","2","6","6","6","7","5","7","7","4","7","1","2","2","2","730025585505734658","陈","349","Female","[""好她"",""好我"",""坏她"",""坏我""]","[""强她"",""强我"",""弱她"",""弱我""]","","","","","","","","yes","","","","","","","","","SRET","EW_formal","","key","j","16.66693548387106","599.999976158143","395.8333176043305","朋友","愚蠢","Negative","ability","","","","","","","","","","",""
"1312","","f","psychophysics","59","258850","0.0-7.0-3.0-0.45","6","3","3","5","2","4","1","3","5","5","4","0","1","0","1","-2","-1","1","1","5","4","5","4","3","4","4","4","4","3","4","7","3","7","4","5","7","7","8","4","3","6","2","3","2","6","1","4","2","1","5","2","4","4","2","5","4","4","2","3","2","3","4","2","2","3","2","6","6","6","7","5","7","7","4","7","1","2","2","2","730025585505734658","陈","349","Female","[""好她"",""好我"",""坏她"",""坏我""]","[""强她"",""强我"",""弱她"",""弱我""]","","","","","","","","no","","","","","","","","","SRET","EW_formal","","key","f","16.666423357664147","599.999976158143","395.8333176043305","自己","失信","Negative","morality","","","","","","","","","","",""
"1496","","j","psychophysics","60","261347","0.0-7.0-3.0-0.46","6","3","3","5","2","4","1","3","5","5","4","0","1","0","1","-2","-1","1","1","5","4","5","4","3","4","4","4","4","3","4","7","3","7","4","5","7","7","8","4","3","6","2","3","2","6","1","4","2","1","5","2","4","4","2","5","4","4","2","3","2","3","4","2","2","3","2","6","6","6","7","5","7","7","4","7","1","2","2","2","730025585505734658","陈","349","Female","[""好她"",""好我"",""坏她"",""坏我""]","[""强她"",""强我"",""弱她"",""弱我""]","","","","","","","","yes","","","","","","","","","SRET","EW_formal","","key","j","16.667785234899135","599.999976158143","395.8333176043305","自己","逞能","Negative","ability","","","","","","","","","","",""
"1531","","j","psychophysics","61","263878","0.0-7.0-3.0-0.47","6","3","3","5","2","4","1","3","5","5","4","0","1","0","1","-2","-1","1","1","5","4","5","4","3","4","4","4","4","3","4","7","3","7","4","5","7","7","8","4","3","6","2","3","2","6","1","4","2","1","5","2","4","4","2","5","4","4","2","3","2","3","4","2","2","3","2","6","6","6","7","5","7","7","4","7","1","2","2","2","730025585505734658","陈","349","Female","[""好她"",""好我"",""坏她"",""坏我""]","[""强她"",""强我"",""弱她"",""弱我""]","","","","","","","","yes","","","","","","","","","SRET","EW_formal","","key","j","16.6715231788081","599.999976158143","395.8333176043305","自己","守信","Positive","morality","","","","","","","","","","",""
"843","","j","psychophysics","62","265723","0.0-7.0-3.0-0.48","6","3","3","5","2","4","1","3","5","5","4","0","1","0","1","-2","-1","1","1","5","4","5","4","3","4","4","4","4","3","4","7","3","7","4","5","7","7","8","4","3","6","2","3","2","6","1","4","2","1","5","2","4","4","2","5","4","4","2","3","2","3","4","2","2","3","2","6","6","6","7","5","7","7","4","7","1","2","2","2","730025585505734658","陈","349","Female","[""好她"",""好我"",""坏她"",""坏我""]","[""强她"",""强我"",""弱她"",""弱我""]","","","","","","","","yes","","","","","","","","","SRET","EW_formal","","key","j","16.670909090908985","599.999976158143","395.8333176043305","朋友","能干","Positive","ability","","","","","","","","","","",""
"1399","","j","psychophysics","63","268123","0.0-7.0-3.0-0.49","6","3","3","5","2","4","1","3","5","5","4","0","1","0","1","-2","-1","1","1","5","4","5","4","3","4","4","4","4","3","4","7","3","7","4","5","7","7","8","4","3","6","2","3","2","6","1","4","2","1","5","2","4","4","2","5","4","4","2","3","2","3","4","2","2","3","2","6","6","6","7","5","7","7","4","7","1","2","2","2","730025585505734658","陈","349","Female","[""好她"",""好我"",""坏她"",""坏我""]","[""强她"",""强我"",""弱她"",""弱我""]","","","","","","","","yes","","","","","","","","","SRET","EW_formal","","key","j","16.665734265734347","599.999976158143","395.8333176043305","朋友","犹豫","Negative","ability","","","","","","","","","","",""
"1328","","j","psychophysics","64","270453","0.0-7.0-3.0-0.50","6","3","3","5","2","4","1","3","5","5","4","0","1","0","1","-2","-1","1","1","5","4","5","4","3","4","4","4","4","3","4","7","3","7","4","5","7","7","8","4","3","6","2","3","2","6","1","4","2","1","5","2","4","4","2","5","4","4","2","3","2","3","4","2","2","3","2","6","6","6","7","5","7","7","4","7","1","2","2","2","730025585505734658","陈","349","Female","[""好她"",""好我"",""坏她"",""坏我""]","[""强她"",""强我"",""弱她"",""弱我""]","","","","","","","","yes","","","","","","","","","SRET","EW_formal","","key","j","16.66762589928049","599.999976158143","395.8333176043305","自己","变通","Positive","ability","","","","","","","","","","",""
"1385","","f","psychophysics","65","272839","0.0-7.0-3.0-0.51","6","3","3","5","2","4","1","3","5","5","4","0","1","0","1","-2","-1","1","1","5","4","5","4","3","4","4","4","4","3","4","7","3","7","4","5","7","7","8","4","3","6","2","3","2","6","1","4","2","1","5","2","4","4","2","5","4","4","2","3","2","3","4","2","2","3","2","6","6","6","7","5","7","7","4","7","1","2","2","2","730025585505734658","陈","349","Female","[""好她"",""好我"",""坏她"",""坏我""]","[""强她"",""强我"",""弱她"",""弱我""]","","","","","","","","no","","","","","","","","","SRET","EW_formal","","key","f","16.66549295774648","599.999976158143","395.8333176043305","自己","博学","Positive","ability","","","","","","","","","","",""
"1741","","f","psychophysics","66","275582","0.0-7.0-3.0-0.52","6","3","3","5","2","4","1","3","5","5","4","0","1","0","1","-2","-1","1","1","5","4","5","4","3","4","4","4","4","3","4","7","3","7","4","5","7","7","8","4","3","6","2","3","2","6","1","4","2","1","5","2","4","4","2","5","4","4","2","3","2","3","4","2","2","3","2","6","6","6","7","5","7","7","4","7","1","2","2","2","730025585505734658","陈","349","Female","[""好她"",""好我"",""坏她"",""坏我""]","[""强她"",""强我"",""弱她"",""弱我""]","","","","","","","","no","","","","","","","","","SRET","EW_formal","","key","f","16.66625766871187","599.999976158143","395.8333176043305","自己","下流","Negative","morality","","","","","","","","","","",""
"915","","f","psychophysics","67","277498","0.0-7.0-3.0-0.53","6","3","3","5","2","4","1","3","5","5","4","0","1","0","1","-2","-1","1","1","5","4","5","4","3","4","4","4","4","3","4","7","3","7","4","5","7","7","8","4","3","6","2","3","2","6","1","4","2","1","5","2","4","4","2","5","4","4","2","3","2","3","4","2","2","3","2","6","6","6","7","5","7","7","4","7","1","2","2","2","730025585505734658","陈","349","Female","[""好她"",""好我"",""坏她"",""坏我""]","[""强她"",""强我"",""弱她"",""弱我""]","","","","","","","","no","","","","","","","","","SRET","EW_formal","","key","f","16.668421052631682","599.999976158143","395.8333176043305","自己","偏私","Negative","morality","","","","","","","","","","",""
"1332","","f","psychophysics","68","279831","0.0-7.0-3.0-0.54","6","3","3","5","2","4","1","3","5","5","4","0","1","0","1","-2","-1","1","1","5","4","5","4","3","4","4","4","4","3","4","7","3","7","4","5","7","7","8","4","3","6","2","3","2","6","1","4","2","1","5","2","4","4","2","5","4","4","2","3","2","3","4","2","2","3","2","6","6","6","7","5","7","7","4","7","1","2","2","2","730025585505734658","陈","349","Female","[""好她"",""好我"",""坏她"",""坏我""]","[""强她"",""强我"",""弱她"",""弱我""]","","","","","","","","no","","","","","","","","","SRET","EW_formal","","key","f","16.671223021583067","599.999976158143","395.8333176043305","自己","无敌","Positive","ability","","","","","","","","","","",""
"977","","j","psychophysics","69","281808","0.0-7.0-3.0-0.55","6","3","3","5","2","4","1","3","5","5","4","0","1","0","1","-2","-1","1","1","5","4","5","4","3","4","4","4","4","3","4","7","3","7","4","5","7","7","8","4","3","6","2","3","2","6","1","4","2","1","5","2","4","4","2","5","4","4","2","3","2","3","4","2","2","3","2","6","6","6","7","5","7","7","4","7","1","2","2","2","730025585505734658","陈","349","Female","[""好她"",""好我"",""坏她"",""坏我""]","[""强她"",""强我"",""弱她"",""弱我""]","","","","","","","","yes","","","","","","","","","SRET","EW_formal","","key","j","16.66949152542373","599.999976158143","395.8333176043305","朋友","高明","Positive","ability","","","","","","","","","","",""
"1148","","f","psychophysics","70","283958","0.0-7.0-3.0-0.56","6","3","3","5","2","4","1","3","5","5","4","0","1","0","1","-2","-1","1","1","5","4","5","4","3","4","4","4","4","3","4","7","3","7","4","5","7","7","8","4","3","6","2","3","2","6","1","4","2","1","5","2","4","4","2","5","4","4","2","3","2","3","4","2","2","3","2","6","6","6","7","5","7","7","4","7","1","2","2","2","730025585505734658","陈","349","Female","[""好她"",""好我"",""坏她"",""坏我""]","[""强她"",""强我"",""弱她"",""弱我""]","","","","","","","","no","","","","","","","","","SRET","EW_formal","","key","f","16.671875","599.999976158143","395.8333176043305","朋友","窝囊","Negative","ability","","","","","","","","","","",""
"1255","","f","psychophysics","71","286213","0.0-7.0-3.0-0.57","6","3","3","5","2","4","1","3","5","5","4","0","1","0","1","-2","-1","1","1","5","4","5","4","3","4","4","4","4","3","4","7","3","7","4","5","7","7","8","4","3","6","2","3","2","6","1","4","2","1","5","2","4","4","2","5","4","4","2","3","2","3","4","2","2","3","2","6","6","6","7","5","7","7","4","7","1","2","2","2","730025585505734658","陈","349","Female","[""好她"",""好我"",""坏她"",""坏我""]","[""强她"",""强我"",""弱她"",""弱我""]","","","","","","","","no","","","","","","","","","SRET","EW_formal","","key","f","16.655223880596928","599.999976158143","395.8333176043305","自己","腐败","Negative","morality","","","","","","","","","","",""
"925","","f","psychophysics","72","288139","0.0-7.0-3.0-0.58","6","3","3","5","2","4","1","3","5","5","4","0","1","0","1","-2","-1","1","1","5","4","5","4","3","4","4","4","4","3","4","7","3","7","4","5","7","7","8","4","3","6","2","3","2","6","1","4","2","1","5","2","4","4","2","5","4","4","2","3","2","3","4","2","2","3","2","6","6","6","7","5","7","7","4","7","1","2","2","2","730025585505734658","陈","349","Female","[""好她"",""好我"",""坏她"",""坏我""]","[""强她"",""强我"",""弱她"",""弱我""]","","","","","","","","no","","","","","","","","","SRET","EW_formal","","key","f","16.66695652173923","599.999976158143","395.8333176043305","朋友","逞强","Negative","ability","","","","","","","","","","",""
"979","","j","psychophysics","73","290121","0.0-7.0-3.0-0.59","6","3","3","5","2","4","1","3","5","5","4","0","1","0","1","-2","-1","1","1","5","4","5","4","3","4","4","4","4","3","4","7","3","7","4","5","7","7","8","4","3","6","2","3","2","6","1","4","2","1","5","2","4","4","2","5","4","4","2","3","2","3","4","2","2","3","2","6","6","6","7","5","7","7","4","7","1","2","2","2","730025585505734658","陈","349","Female","[""好她"",""好我"",""坏她"",""坏我""]","[""强她"",""强我"",""弱她"",""弱我""]","","","","","","","","yes","","","","","","","","","SRET","EW_formal","","key","j","16.66440677966072","599.999976158143","395.8333176043305","自己","侠义","Positive","morality","","","","","","","","","","",""
"750","","j","psychophysics","74","291872","0.0-7.0-3.0-0.60","6","3","3","5","2","4","1","3","5","5","4","0","1","0","1","-2","-1","1","1","5","4","5","4","3","4","4","4","4","3","4","7","3","7","4","5","7","7","8","4","3","6","2","3","2","6","1","4","2","1","5","2","4","4","2","5","4","4","2","3","2","3","4","2","2","3","2","6","6","6","7","5","7","7","4","7","1","2","2","2","730025585505734658","陈","349","Female","[""好她"",""好我"",""坏她"",""坏我""]","[""强她"",""强我"",""弱她"",""弱我""]","","","","","","","","yes","","","","","","","","","SRET","EW_formal","","key","j","16.671153846153736","599.999976158143","395.8333176043305","自己","好心","Positive","morality","","","","","","","","","","",""
"767","","f","psychophysics","75","293641","0.0-7.0-3.0-0.61","6","3","3","5","2","4","1","3","5","5","4","0","1","0","1","-2","-1","1","1","5","4","5","4","3","4","4","4","4","3","4","7","3","7","4","5","7","7","8","4","3","6","2","3","2","6","1","4","2","1","5","2","4","4","2","5","4","4","2","3","2","3","4","2","2","3","2","6","6","6","7","5","7","7","4","7","1","2","2","2","730025585505734658","陈","349","Female","[""好她"",""好我"",""坏她"",""坏我""]","[""强她"",""强我"",""弱她"",""弱我""]","","","","","","","","no","","","","","","","","","SRET","EW_formal","","key","f","16.665714285714508","599.999976158143","395.8333176043305","自己","废物","Negative","ability","","","","","","","","","","",""
"734","","f","psychophysics","76","295376","0.0-7.0-3.0-0.62","6","3","3","5","2","4","1","3","5","5","4","0","1","0","1","-2","-1","1","1","5","4","5","4","3","4","4","4","4","3","4","7","3","7","4","5","7","7","8","4","3","6","2","3","2","6","1","4","2","1","5","2","4","4","2","5","4","4","2","3","2","3","4","2","2","3","2","6","6","6","7","5","7","7","4","7","1","2","2","2","730025585505734658","陈","349","Female","[""好她"",""好我"",""坏她"",""坏我""]","[""强她"",""强我"",""弱她"",""弱我""]","","","","","","","","no","","","","","","","","","SRET","EW_formal","","key","f","16.667961165048432","599.999976158143","395.8333176043305","朋友","浅薄","Negative","ability","","","","","","","","","","",""
"677","","f","psychophysics","77","297055","0.0-7.0-3.0-0.63","6","3","3","5","2","4","1","3","5","5","4","0","1","0","1","-2","-1","1","1","5","4","5","4","3","4","4","4","4","3","4","7","3","7","4","5","7","7","8","4","3","6","2","3","2","6","1","4","2","1","5","2","4","4","2","5","4","4","2","3","2","3","4","2","2","3","2","6","6","6","7","5","7","7","4","7","1","2","2","2","730025585505734658","陈","349","Female","[""好她"",""好我"",""坏她"",""坏我""]","[""强她"",""强我"",""弱她"",""弱我""]","","","","","","","","no","","","","","","","","","SRET","EW_formal","","key","f","16.666999999999533","599.999976158143","395.8333176043305","朋友","昏庸","Negative","ability","","","","","","","","","","",""
"799","","j","psychophysics","78","298855","0.0-7.0-3.0-0.64","6","3","3","5","2","4","1","3","5","5","4","0","1","0","1","-2","-1","1","1","5","4","5","4","3","4","4","4","4","3","4","7","3","7","4","5","7","7","8","4","3","6","2","3","2","6","1","4","2","1","5","2","4","4","2","5","4","4","2","3","2","3","4","2","2","3","2","6","6","6","7","5","7","7","4","7","1","2","2","2","730025585505734658","陈","349","Female","[""好她"",""好我"",""坏她"",""坏我""]","[""强她"",""强我"",""弱她"",""弱我""]","","","","","","","","yes","","","","","","","","","SRET","EW_formal","","key","j","16.664485981308736","599.999976158143","395.8333176043305","朋友","廉明","Positive","morality","","","","","","","","","","",""
"749","","j","psychophysics","79","300605","0.0-7.0-3.0-0.65","6","3","3","5","2","4","1","3","5","5","4","0","1","0","1","-2","-1","1","1","5","4","5","4","3","4","4","4","4","3","4","7","3","7","4","5","7","7","8","4","3","6","2","3","2","6","1","4","2","1","5","2","4","4","2","5","4","4","2","3","2","3","4","2","2","3","2","6","6","6","7","5","7","7","4","7","1","2","2","2","730025585505734658","陈","349","Female","[""好她"",""好我"",""坏她"",""坏我""]","[""强她"",""强我"",""弱她"",""弱我""]","","","","","","","","yes","","","","","","","","","SRET","EW_formal","","key","j","16.667307692307357","599.999976158143","395.8333176043305","自己","扎实","Positive","ability","","","","","","","","","","",""
"786","","f","psychophysics","80","302392","0.0-7.0-3.0-0.66","6","3","3","5","2","4","1","3","5","5","4","0","1","0","1","-2","-1","1","1","5","4","5","4","3","4","4","4","4","3","4","7","3","7","4","5","7","7","8","4","3","6","2","3","2","6","1","4","2","1","5","2","4","4","2","5","4","4","2","3","2","3","4","2","2","3","2","6","6","6","7","5","7","7","4","7","1","2","2","2","730025585505734658","陈","349","Female","[""好她"",""好我"",""坏她"",""坏我""]","[""强她"",""强我"",""弱她"",""弱我""]","","","","","","","","no","","","","","","","","","SRET","EW_formal","","key","f","16.663207547170252","599.999976158143","395.8333176043305","朋友","邪恶","Negative","morality","","","","","","","","","","",""
"1235","","j","psychophysics","81","304638","0.0-7.0-3.0-0.67","6","3","3","5","2","4","1","3","5","5","4","0","1","0","1","-2","-1","1","1","5","4","5","4","3","4","4","4","4","3","4","7","3","7","4","5","7","7","8","4","3","6","2","3","2","6","1","4","2","1","5","2","4","4","2","5","4","4","2","3","2","3","4","2","2","3","2","6","6","6","7","5","7","7","4","7","1","2","2","2","730025585505734658","陈","349","Female","[""好她"",""好我"",""坏她"",""坏我""]","[""强她"",""强我"",""弱她"",""弱我""]","","","","","","","","yes","","","","","","","","","SRET","EW_formal","","key","j","16.666417910448107","599.999976158143","395.8333176043305","朋友","利落","Positive","ability","","","","","","","","","","",""
"753","","j","psychophysics","82","306394","0.0-7.0-3.0-0.68","6","3","3","5","2","4","1","3","5","5","4","0","1","0","1","-2","-1","1","1","5","4","5","4","3","4","4","4","4","3","4","7","3","7","4","5","7","7","8","4","3","6","2","3","2","6","1","4","2","1","5","2","4","4","2","5","4","4","2","3","2","3","4","2","2","3","2","6","6","6","7","5","7","7","4","7","1","2","2","2","730025585505734658","陈","349","Female","[""好她"",""好我"",""坏她"",""坏我""]","[""强她"",""强我"",""弱她"",""弱我""]","","","","","","","","yes","","","","","","","","","SRET","EW_formal","","key","j","16.66442307692285","599.999976158143","395.8333176043305","朋友","依靠","Negative","ability","","","","","","","","","","",""
"858","","j","psychophysics","83","308253","0.0-7.0-3.0-0.69","6","3","3","5","2","4","1","3","5","5","4","0","1","0","1","-2","-1","1","1","5","4","5","4","3","4","4","4","4","3","4","7","3","7","4","5","7","7","8","4","3","6","2","3","2","6","1","4","2","1","5","2","4","4","2","5","4","4","2","3","2","3","4","2","2","3","2","6","6","6","7","5","7","7","4","7","1","2","2","2","730025585505734658","陈","349","Female","[""好她"",""好我"",""坏她"",""坏我""]","[""强她"",""强我"",""弱她"",""弱我""]","","","","","","","","yes","","","","","","","","","SRET","EW_formal","","key","j","16.666666666666668","599.999976158143","395.8333176043305","朋友","无私","Positive","morality","","","","","","","","","","",""
"723","","f","psychophysics","84","309989","0.0-7.0-3.0-0.70","6","3","3","5","2","4","1","3","5","5","4","0","1","0","1","-2","-1","1","1","5","4","5","4","3","4","4","4","4","3","4","7","3","7","4","5","7","7","8","4","3","6","2","3","2","6","1","4","2","1","5","2","4","4","2","5","4","4","2","3","2","3","4","2","2","3","2","6","6","6","7","5","7","7","4","7","1","2","2","2","730025585505734658","陈","349","Female","[""好她"",""好我"",""坏她"",""坏我""]","[""强她"",""强我"",""弱她"",""弱我""]","","","","","","","","no","","","","","","","","","SRET","EW_formal","","key","f","16.66699029126225","599.999976158143","395.8333176043305","自己","蛇蝎","Negative","morality","","","","","","","","","","",""
"1613","","f","psychophysics","85","312604","0.0-7.0-3.0-0.71","6","3","3","5","2","4","1","3","5","5","4","0","1","0","1","-2","-1","1","1","5","4","5","4","3","4","4","4","4","3","4","7","3","7","4","5","7","7","8","4","3","6","2","3","2","6","1","4","2","1","5","2","4","4","2","5","4","4","2","3","2","3","4","2","2","3","2","6","6","6","7","5","7","7","4","7","1","2","2","2","730025585505734658","陈","349","Female","[""好她"",""好我"",""坏她"",""坏我""]","[""强她"",""强我"",""弱她"",""弱我""]","","","","","","","","no","","","","","","","","","SRET","EW_formal","","key","f","16.667307692307915","599.999976158143","395.8333176043305","朋友","势利","Negative","morality","","","","","","","","","","",""
"975","","f","psychophysics","86","314580","0.0-7.0-3.0-0.72","6","3","3","5","2","4","1","3","5","5","4","0","1","0","1","-2","-1","1","1","5","4","5","4","3","4","4","4","4","3","4","7","3","7","4","5","7","7","8","4","3","6","2","3","2","6","1","4","2","1","5","2","4","4","2","5","4","4","2","3","2","3","4","2","2","3","2","6","6","6","7","5","7","7","4","7","1","2","2","2","730025585505734658","陈","349","Female","[""好她"",""好我"",""坏她"",""坏我""]","[""强她"",""强我"",""弱她"",""弱我""]","","","","","","","","no","","","","","","","","","SRET","EW_formal","","key","f","16.66837606837617","599.999976158143","395.8333176043305","朋友","盲目","Negative","ability","","","","","","","","","","",""
"986","","j","psychophysics","87","316567","0.0-7.0-3.0-0.73","6","3","3","5","2","4","1","3","5","5","4","0","1","0","1","-2","-1","1","1","5","4","5","4","3","4","4","4","4","3","4","7","3","7","4","5","7","7","8","4","3","6","2","3","2","6","1","4","2","1","5","2","4","4","2","5","4","4","2","3","2","3","4","2","2","3","2","6","6","6","7","5","7","7","4","7","1","2","2","2","730025585505734658","陈","349","Female","[""好她"",""好我"",""坏她"",""坏我""]","[""强她"",""强我"",""弱她"",""弱我""]","","","","","","","","yes","","","","","","","","","SRET","EW_formal","","key","j","16.665546218487492","599.999976158143","395.8333176043305","自己","精干","Positive","ability","","","","","","","","","","",""
"890","","j","psychophysics","88","318460","0.0-7.0-3.0-0.74","6","3","3","5","2","4","1","3","5","5","4","0","1","0","1","-2","-1","1","1","5","4","5","4","3","4","4","4","4","3","4","7","3","7","4","5","7","7","8","4","3","6","2","3","2","6","1","4","2","1","5","2","4","4","2","5","4","4","2","3","2","3","4","2","2","3","2","6","6","6","7","5","7","7","4","7","1","2","2","2","730025585505734658","陈","349","Female","[""好她"",""好我"",""坏她"",""坏我""]","[""强她"",""强我"",""弱她"",""弱我""]","","","","","","","","yes","","","","","","","","","SRET","EW_formal","","key","j","16.663392857143272","599.999976158143","395.8333176043305","自己","淡泊","Positive","morality","","","","","","","","","","",""
"847","","j","psychophysics","89","320308","0.0-7.0-3.0-0.75","6","3","3","5","2","4","1","3","5","5","4","0","1","0","1","-2","-1","1","1","5","4","5","4","3","4","4","4","4","3","4","7","3","7","4","5","7","7","8","4","3","6","2","3","2","6","1","4","2","1","5","2","4","4","2","5","4","4","2","3","2","3","4","2","2","3","2","6","6","6","7","5","7","7","4","7","1","2","2","2","730025585505734658","陈","349","Female","[""好她"",""好我"",""坏她"",""坏我""]","[""强她"",""强我"",""弱她"",""弱我""]","","","","","","","","yes","","","","","","","","","SRET","EW_formal","","key","j","16.664545454545244","599.999976158143","395.8333176043305","朋友","忠义","Positive","morality","","","","","","","","","","",""
"786","","j","psychophysics","90","322095","0.0-7.0-3.0-0.76","6","3","3","5","2","4","1","3","5","5","4","0","1","0","1","-2","-1","1","1","5","4","5","4","3","4","4","4","4","3","4","7","3","7","4","5","7","7","8","4","3","6","2","3","2","6","1","4","2","1","5","2","4","4","2","5","4","4","2","3","2","3","4","2","2","3","2","6","6","6","7","5","7","7","4","7","1","2","2","2","730025585505734658","陈","349","Female","[""好她"",""好我"",""坏她"",""坏我""]","[""强她"",""强我"",""弱她"",""弱我""]","","","","","","","","yes","","","","","","","","","SRET","EW_formal","","key","j","16.66698113207558","599.999976158143","395.8333176043305","自己","礼貌","Positive","morality","","","","","","","","","","",""
"1037","","f","psychophysics","91","324133","0.0-7.0-3.0-0.77","6","3","3","5","2","4","1","3","5","5","4","0","1","0","1","-2","-1","1","1","5","4","5","4","3","4","4","4","4","3","4","7","3","7","4","5","7","7","8","4","3","6","2","3","2","6","1","4","2","1","5","2","4","4","2","5","4","4","2","3","2","3","4","2","2","3","2","6","6","6","7","5","7","7","4","7","1","2","2","2","730025585505734658","陈","349","Female","[""好她"",""好我"",""坏她"",""坏我""]","[""强她"",""强我"",""弱她"",""弱我""]","","","","","","","","no","","","","","","","","","SRET","EW_formal","","key","f","16.601639344262487","599.999976158143","395.8333176043305","自己","无为","Negative","ability","","","","","","","","","","",""
"936","","j","psychophysics","92","326071","0.0-7.0-3.0-0.78","6","3","3","5","2","4","1","3","5","5","4","0","1","0","1","-2","-1","1","1","5","4","5","4","3","4","4","4","4","3","4","7","3","7","4","5","7","7","8","4","3","6","2","3","2","6","1","4","2","1","5","2","4","4","2","5","4","4","2","3","2","3","4","2","2","3","2","6","6","6","7","5","7","7","4","7","1","2","2","2","730025585505734658","陈","349","Female","[""好她"",""好我"",""坏她"",""坏我""]","[""强她"",""强我"",""弱她"",""弱我""]","","","","","","","","yes","","","","","","","","","SRET","EW_formal","","key","j","16.673043478260567","599.999976158143","395.8333176043305","自己","周到","Positive","ability","","","","","","","","","","",""
"1194","","j","psychophysics","93","328267","0.0-7.0-3.0-0.79","6","3","3","5","2","4","1","3","5","5","4","0","1","0","1","-2","-1","1","1","5","4","5","4","3","4","4","4","4","3","4","7","3","7","4","5","7","7","8","4","3","6","2","3","2","6","1","4","2","1","5","2","4","4","2","5","4","4","2","3","2","3","4","2","2","3","2","6","6","6","7","5","7","7","4","7","1","2","2","2","730025585505734658","陈","349","Female","[""好她"",""好我"",""坏她"",""坏我""]","[""强她"",""强我"",""弱她"",""弱我""]","","","","","","","","yes","","","","","","","","","SRET","EW_formal","","key","j","16.66641221374037","599.999976158143","395.8333176043305","朋友","远见","Positive","ability","","","","","","","","","","",""
"743","","j","psychophysics","94","330014","0.0-7.0-3.0-0.80","6","3","3","5","2","4","1","3","5","5","4","0","1","0","1","-2","-1","1","1","5","4","5","4","3","4","4","4","4","3","4","7","3","7","4","5","7","7","8","4","3","6","2","3","2","6","1","4","2","1","5","2","4","4","2","5","4","4","2","3","2","3","4","2","2","3","2","6","6","6","7","5","7","7","4","7","1","2","2","2","730025585505734658","陈","349","Female","[""好她"",""好我"",""坏她"",""坏我""]","[""强她"",""强我"",""弱她"",""弱我""]","","","","","","","","yes","","","","","","","","","SRET","EW_formal","","key","j","16.66407766990314","599.999976158143","395.8333176043305","朋友","自律","Positive","ability","","","","","","","","","","",""
"912","","j","psychophysics","95","331927","0.0-7.0-3.0-0.81","6","3","3","5","2","4","1","3","5","5","4","0","1","0","1","-2","-1","1","1","5","4","5","4","3","4","4","4","4","3","4","7","3","7","4","5","7","7","8","4","3","6","2","3","2","6","1","4","2","1","5","2","4","4","2","5","4","4","2","3","2","3","4","2","2","3","2","6","6","6","7","5","7","7","4","7","1","2","2","2","730025585505734658","陈","349","Female","[""好她"",""好我"",""坏她"",""坏我""]","[""强她"",""强我"",""弱她"",""弱我""]","","","","","","","","yes","","","","","","","","","SRET","EW_formal","","key","j","16.666666666666668","599.999976158143","395.8333176043305","朋友","孝顺","Positive","morality","","","","","","","","","","",""
"937","","f","psychophysics","96","333864","0.0-7.0-3.0-0.82","6","3","3","5","2","4","1","3","5","5","4","0","1","0","1","-2","-1","1","1","5","4","5","4","3","4","4","4","4","3","4","7","3","7","4","5","7","7","8","4","3","6","2","3","2","6","1","4","2","1","5","2","4","4","2","5","4","4","2","3","2","3","4","2","2","3","2","6","6","6","7","5","7","7","4","7","1","2","2","2","730025585505734658","陈","349","Female","[""好她"",""好我"",""坏她"",""坏我""]","[""强她"",""强我"",""弱她"",""弱我""]","","","","","","","","no","","","","","","","","","SRET","EW_formal","","key","f","16.66869565217361","599.999976158143","395.8333176043305","自己","屈才","Negative","ability","","","","","","","","","","",""
"1138","","f","psychophysics","97","336003","0.0-7.0-3.0-0.83","6","3","3","5","2","4","1","3","5","5","4","0","1","0","1","-2","-1","1","1","5","4","5","4","3","4","4","4","4","3","4","7","3","7","4","5","7","7","8","4","3","6","2","3","2","6","1","4","2","1","5","2","4","4","2","5","4","4","2","3","2","3","4","2","2","3","2","6","6","6","7","5","7","7","4","7","1","2","2","2","730025585505734658","陈","349","Female","[""好她"",""好我"",""坏她"",""坏我""]","[""强她"",""强我"",""弱她"",""弱我""]","","","","","","","","no","","","","","","","","","SRET","EW_formal","","key","f","16.66796875","599.999976158143","395.8333176043305","自己","混账","Negative","morality","","","","","","","","","","",""
"1084","","j","psychophysics","98","338089","0.0-7.0-3.0-0.84","6","3","3","5","2","4","1","3","5","5","4","0","1","0","1","-2","-1","1","1","5","4","5","4","3","4","4","4","4","3","4","7","3","7","4","5","7","7","8","4","3","6","2","3","2","6","1","4","2","1","5","2","4","4","2","5","4","4","2","3","2","3","4","2","2","3","2","6","6","6","7","5","7","7","4","7","1","2","2","2","730025585505734658","陈","349","Female","[""好她"",""好我"",""坏她"",""坏我""]","[""强她"",""强我"",""弱她"",""弱我""]","","","","","","","","yes","","","","","","","","","SRET","EW_formal","","key","j","16.66774193548378","599.999976158143","395.8333176043305","朋友","素养","Positive","morality","","","","","","","","","","",""
"982","","f","psychophysics","99","340073","0.0-7.0-3.0-0.85","6","3","3","5","2","4","1","3","5","5","4","0","1","0","1","-2","-1","1","1","5","4","5","4","3","4","4","4","4","3","4","7","3","7","4","5","7","7","8","4","3","6","2","3","2","6","1","4","2","1","5","2","4","4","2","5","4","4","2","3","2","3","4","2","2","3","2","6","6","6","7","5","7","7","4","7","1","2","2","2","730025585505734658","陈","349","Female","[""好她"",""好我"",""坏她"",""坏我""]","[""强她"",""强我"",""弱她"",""弱我""]","","","","","","","","no","","","","","","","","","SRET","EW_formal","","key","f","16.66949152542373","599.999976158143","395.8333176043305","朋友","低俗","Negative","morality","","","","","","","","","","",""
"831","","j","psychophysics","100","341905","0.0-7.0-3.0-0.86","6","3","3","5","2","4","1","3","5","5","4","0","1","0","1","-2","-1","1","1","5","4","5","4","3","4","4","4","4","3","4","7","3","7","4","5","7","7","8","4","3","6","2","3","2","6","1","4","2","1","5","2","4","4","2","5","4","4","2","3","2","3","4","2","2","3","2","6","6","6","7","5","7","7","4","7","1","2","2","2","730025585505734658","陈","349","Female","[""好她"",""好我"",""坏她"",""坏我""]","[""强她"",""强我"",""弱她"",""弱我""]","","","","","","","","yes","","","","","","","","","SRET","EW_formal","","key","j","16.654128440366865","599.999976158143","395.8333176043305","自己","主见","Positive","ability","","","","","","","","","","",""
"1184","","f","psychophysics","101","344090","0.0-7.0-3.0-0.87","6","3","3","5","2","4","1","3","5","5","4","0","1","0","1","-2","-1","1","1","5","4","5","4","3","4","4","4","4","3","4","7","3","7","4","5","7","7","8","4","3","6","2","3","2","6","1","4","2","1","5","2","4","4","2","5","4","4","2","3","2","3","4","2","2","3","2","6","6","6","7","5","7","7","4","7","1","2","2","2","730025585505734658","陈","349","Female","[""好她"",""好我"",""坏她"",""坏我""]","[""强她"",""强我"",""弱她"",""弱我""]","","","","","","","","no","","","","","","","","","SRET","EW_formal","","key","f","16.666923076922718","599.999976158143","395.8333176043305","自己","缓慢","Negative","ability","","","","","","","","","","",""
"7057","
    <p><div style='color:white;font-size:35px; line-height:20px;'>计算任务</div></p><br>
    <p><div style='color:red;font-size:25px; line-height:20px;'>接下来，您将看到一些四则运算题，<b>请从键盘选择 0-9 进行反应。</b></div></p>
    <p><div style='color:red;font-size:25px; line-height:20px;'>请尽可能快地进行计算，计算的速度和正确率将影响报酬的发放。</div></p>
    <p><div class='footer' style='color:white;font-size:25px; line-height:20px;'>如果对本实验还有不清楚之处，请立即向实验员咨询。</p><p style='color:white;font-size:25px; line-height:20px;'>如果您明白了规则：</p><p style='color:white;font-size:22px; line-height:20px;'>请按 继续 进入练习</p>
    </div>
    ","0","html-button-response","102","351148","0.0-7.0-4.0","6","3","3","5","2","4","1","3","5","5","4","0","1","0","1","-2","-1","1","1","5","4","5","4","3","4","4","4","4","3","4","7","3","7","4","5","7","7","8","4","3","6","2","3","2","6","1","4","2","1","5","2","4","4","2","5","4","4","2","3","2","3","4","2","2","3","2","6","6","6","7","5","7","7","4","7","1","2","2","2","730025585505734658","陈","349","Female","[""好她"",""好我"",""坏她"",""坏我""]","[""强她"",""强我"",""弱她"",""弱我""]","","","","","","","","","","","","","","","","","SRET_math","math_instructions","Tue Dec 12 2023 13:27:57 GMT+0800 (中国标准时间)","","","","","","","","","","","","","","","","","","","",""
"2107","","3","psychophysics","103","353257","0.0-7.0-5.0-0.0","6","3","3","5","2","4","1","3","5","5","4","0","1","0","1","-2","-1","1","1","5","4","5","4","3","4","4","4","4","3","4","7","3","7","4","5","7","7","8","4","3","6","2","3","2","6","1","4","2","1","5","2","4","4","2","5","4","4","2","3","2","3","4","2","2","3","2","6","6","6","7","5","7","7","4","7","1","2","2","2","730025585505734658","陈","349","Female","[""好她"",""好我"",""坏她"",""坏我""]","[""强她"",""强我"",""弱她"",""弱我""]","","","","","","","","3","","","","","","","","","SRET","SRET_math_calculate","","key","3","16.667460317460133","599.999976158143","395.8333176043305","","","","","3+0= ?","3","1","","","","","","","",""
"1928","","4","psychophysics","104","355186","0.0-7.0-5.0-0.1","6","3","3","5","2","4","1","3","5","5","4","0","1","0","1","-2","-1","1","1","5","4","5","4","3","4","4","4","4","3","4","7","3","7","4","5","7","7","8","4","3","6","2","3","2","6","1","4","2","1","5","2","4","4","2","5","4","4","2","3","2","3","4","2","2","3","2","6","6","6","7","5","7","7","4","7","1","2","2","2","730025585505734658","陈","349","Female","[""好她"",""好我"",""坏她"",""坏我""]","[""强她"",""强我"",""弱她"",""弱我""]","","","","","","","","4","","","","","","","","","SRET","SRET_math_calculate","","key","4","16.641739130434683","599.999976158143","395.8333176043305","","","","","2+2= ?","4","1","","","","","","","",""
"2041","","5","psychophysics","105","357229","0.0-7.0-5.0-0.2","6","3","3","5","2","4","1","3","5","5","4","0","1","0","1","-2","-1","1","1","5","4","5","4","3","4","4","4","4","3","4","7","3","7","4","5","7","7","8","4","3","6","2","3","2","6","1","4","2","1","5","2","4","4","2","5","4","4","2","3","2","3","4","2","2","3","2","6","6","6","7","5","7","7","4","7","1","2","2","2","730025585505734658","陈","349","Female","[""好她"",""好我"",""坏她"",""坏我""]","[""强她"",""强我"",""弱她"",""弱我""]","","","","","","","","5","","","","","","","","","SRET","SRET_math_calculate","","key","5","16.664462809917065","599.999976158143","395.8333176043305","","","","","8-3= ? ","5","1","","","","","","","",""
"2111","","8","psychophysics","106","359340","0.0-7.0-5.0-0.3","6","3","3","5","2","4","1","3","5","5","4","0","1","0","1","-2","-1","1","1","5","4","5","4","3","4","4","4","4","3","4","7","3","7","4","5","7","7","8","4","3","6","2","3","2","6","1","4","2","1","5","2","4","4","2","5","4","4","2","3","2","3","4","2","2","3","2","6","6","6","7","5","7","7","4","7","1","2","2","2","730025585505734658","陈","349","Female","[""好她"",""好我"",""坏她"",""坏我""]","[""强她"",""强我"",""弱她"",""弱我""]","","","","","","","","8","","","","","","","","","SRET","SRET_math_calculate","","key","8","16.663492063492342","599.999976158143","395.8333176043305","","","","","4+4= ?","8","1","","","","","","","",""
"1889","","8","psychophysics","107","361230","0.0-7.0-5.0-0.4","6","3","3","5","2","4","1","3","5","5","4","0","1","0","1","-2","-1","1","1","5","4","5","4","3","4","4","4","4","3","4","7","3","7","4","5","7","7","8","4","3","6","2","3","2","6","1","4","2","1","5","2","4","4","2","5","4","4","2","3","2","3","4","2","2","3","2","6","6","6","7","5","7","7","4","7","1","2","2","2","730025585505734658","陈","349","Female","[""好她"",""好我"",""坏她"",""坏我""]","[""强她"",""强我"",""弱她"",""弱我""]","","","","","","","","8","","","","","","","","","SRET","SRET_math_calculate","","key","8","16.66607142857122","599.999976158143","395.8333176043305","","","","","6+2= ?","8","1","","","","","","","",""
"2051","","8","psychophysics","108","363282","0.0-7.0-5.0-0.5","6","3","3","5","2","4","1","3","5","5","4","0","1","0","1","-2","-1","1","1","5","4","5","4","3","4","4","4","4","3","4","7","3","7","4","5","7","7","8","4","3","6","2","3","2","6","1","4","2","1","5","2","4","4","2","5","4","4","2","3","2","3","4","2","2","3","2","6","6","6","7","5","7","7","4","7","1","2","2","2","730025585505734658","陈","349","Female","[""好她"",""好我"",""坏她"",""坏我""]","[""强她"",""强我"",""弱她"",""弱我""]","","","","","","","","8","","","","","","","","","SRET","SRET_math_calculate","","key","8","16.635772357723198","599.999976158143","395.8333176043305","","","","","4*2= ?","8","1","","","","","","","",""
"2935","","9","psychophysics","109","366220","0.0-7.0-5.0-0.6","6","3","3","5","2","4","1","3","5","5","4","0","1","0","1","-2","-1","1","1","5","4","5","4","3","4","4","4","4","3","4","7","3","7","4","5","7","7","8","4","3","6","2","3","2","6","1","4","2","1","5","2","4","4","2","5","4","4","2","3","2","3","4","2","2","3","2","6","6","6","7","5","7","7","4","7","1","2","2","2","730025585505734658","陈","349","Female","[""好她"",""好我"",""坏她"",""坏我""]","[""强她"",""强我"",""弱她"",""弱我""]","","","","","","","","9","","","","","","","","","SRET","SRET_math_calculate","","key","9","16.667428571428506","599.999976158143","395.8333176043305","","","","","32-23= ?","9","1","","","","","","","",""
"2140","","7","psychophysics","110","368361","0.0-7.0-5.0-0.7","6","3","3","5","2","4","1","3","5","5","4","0","1","0","1","-2","-1","1","1","5","4","5","4","3","4","4","4","4","3","4","7","3","7","4","5","7","7","8","4","3","6","2","3","2","6","1","4","2","1","5","2","4","4","2","5","4","4","2","3","2","3","4","2","2","3","2","6","6","6","7","5","7","7","4","7","1","2","2","2","730025585505734658","陈","349","Female","[""好她"",""好我"",""坏她"",""坏我""]","[""强她"",""强我"",""弱她"",""弱我""]","","","","","","","","7","","","","","","","","","SRET","SRET_math_calculate","","key","7","16.6685039370076","599.999976158143","395.8333176043305","","","","","12-5= ?","7","1","","","","","","","",""
"1882","","8","psychophysics","111","370243","0.0-7.0-5.0-0.8","6","3","3","5","2","4","1","3","5","5","4","0","1","0","1","-2","-1","1","1","5","4","5","4","3","4","4","4","4","3","4","7","3","7","4","5","7","7","8","4","3","6","2","3","2","6","1","4","2","1","5","2","4","4","2","5","4","4","2","3","2","3","4","2","2","3","2","6","6","6","7","5","7","7","4","7","1","2","2","2","730025585505734658","陈","349","Female","[""好她"",""好我"",""坏她"",""坏我""]","[""强她"",""强我"",""弱她"",""弱我""]","","","","","","","","8","","","","","","","","","SRET","SRET_math_calculate","","key","8","16.66607142857122","599.999976158143","395.8333176043305","","","","","3+5= ?","8","1","","","","","","","",""
"2194","","7","psychophysics","112","372439","0.0-7.0-5.0-0.9","6","3","3","5","2","4","1","3","5","5","4","0","1","0","1","-2","-1","1","1","5","4","5","4","3","4","4","4","4","3","4","7","3","7","4","5","7","7","8","4","3","6","2","3","2","6","1","4","2","1","5","2","4","4","2","5","4","4","2","3","2","3","4","2","2","3","2","6","6","6","7","5","7","7","4","7","1","2","2","2","730025585505734658","陈","349","Female","[""好她"",""好我"",""坏她"",""坏我""]","[""强她"",""强我"",""弱她"",""弱我""]","","","","","","","","7","","","","","","","","","SRET","SRET_math_calculate","","key","7","16.667175572519263","599.999976158143","395.8333176043305","","","","","11-4= ?","7","1","","","","","","","",""
"2273","","2","psychophysics","113","374713","0.0-7.0-5.0-0.10","6","3","3","5","2","4","1","3","5","5","4","0","1","0","1","-2","-1","1","1","5","4","5","4","3","4","4","4","4","3","4","7","3","7","4","5","7","7","8","4","3","6","2","3","2","6","1","4","2","1","5","2","4","4","2","5","4","4","2","3","2","3","4","2","2","3","2","6","6","6","7","5","7","7","4","7","1","2","2","2","730025585505734658","陈","349","Female","[""好她"",""好我"",""坏她"",""坏我""]","[""强她"",""强我"",""弱她"",""弱我""]","","","","","","","","2","","","","","","","","","SRET","SRET_math_calculate","","key","2","16.667407407407236","599.999976158143","395.8333176043305","","","","","90/45= ?","2","1","","","","","","","",""
"1947","","5","psychophysics","114","376661","0.0-7.0-5.0-0.11","6","3","3","5","2","4","1","3","5","5","4","0","1","0","1","-2","-1","1","1","5","4","5","4","3","4","4","4","4","3","4","7","3","7","4","5","7","7","8","4","3","6","2","3","2","6","1","4","2","1","5","2","4","4","2","5","4","4","2","3","2","3","4","2","2","3","2","6","6","6","7","5","7","7","4","7","1","2","2","2","730025585505734658","陈","349","Female","[""好她"",""好我"",""坏她"",""坏我""]","[""强她"",""强我"",""弱她"",""弱我""]","","","","","","","","5","","","","","","","","","SRET","SRET_math_calculate","","key","5","16.63448275862049","599.999976158143","395.8333176043305","","","","","12-7= ?","5","1","","","","","","","",""
"1934","","7","psychophysics","115","378597","0.0-7.0-5.0-0.12","6","3","3","5","2","4","1","3","5","5","4","0","1","0","1","-2","-1","1","1","5","4","5","4","3","4","4","4","4","3","4","7","3","7","4","5","7","7","8","4","3","6","2","3","2","6","1","4","2","1","5","2","4","4","2","5","4","4","2","3","2","3","4","2","2","3","2","6","6","6","7","5","7","7","4","7","1","2","2","2","730025585505734658","陈","349","Female","[""好她"",""好我"",""坏她"",""坏我""]","[""强她"",""强我"",""弱她"",""弱我""]","","","","","","","","7","","","","","","","","","SRET","SRET_math_calculate","","key","7","16.602608695652073","599.999976158143","395.8333176043305","","","","","8-1= ?","7","1","","","","","","","",""
"2107","","1","psychophysics","116","380705","0.0-7.0-5.0-0.13","6","3","3","5","2","4","1","3","5","5","4","0","1","0","1","-2","-1","1","1","5","4","5","4","3","4","4","4","4","3","4","7","3","7","4","5","7","7","8","4","3","6","2","3","2","6","1","4","2","1","5","2","4","4","2","5","4","4","2","3","2","3","4","2","2","3","2","6","6","6","7","5","7","7","4","7","1","2","2","2","730025585505734658","陈","349","Female","[""好她"",""好我"",""坏她"",""坏我""]","[""强她"",""强我"",""弱她"",""弱我""]","","","","","","","","1","","","","","","","","","SRET","SRET_math_calculate","","key","1","16.668253968253598","599.999976158143","395.8333176043305","","","","","12/12= ?","1","1","","","","","","","",""
"2019","","4","psychophysics","117","382725","0.0-7.0-5.0-0.14","6","3","3","5","2","4","1","3","5","5","4","0","1","0","1","-2","-1","1","1","5","4","5","4","3","4","4","4","4","3","4","7","3","7","4","5","7","7","8","4","3","6","2","3","2","6","1","4","2","1","5","2","4","4","2","5","4","4","2","3","2","3","4","2","2","3","2","6","6","6","7","5","7","7","4","7","1","2","2","2","730025585505734658","陈","349","Female","[""好她"",""好我"",""坏她"",""坏我""]","[""强她"",""强我"",""弱她"",""弱我""]","","","","","","","","4","","","","","","","","","SRET","SRET_math_calculate","","key","4","16.6625","599.999976158143","395.8333176043305","","","","","3+1= ?","4","1","","","","","","","",""
"2253","","0","psychophysics","118","384979","0.0-7.0-5.0-0.15","6","3","3","5","2","4","1","3","5","5","4","0","1","0","1","-2","-1","1","1","5","4","5","4","3","4","4","4","4","3","4","7","3","7","4","5","7","7","8","4","3","6","2","3","2","6","1","4","2","1","5","2","4","4","2","5","4","4","2","3","2","3","4","2","2","3","2","6","6","6","7","5","7","7","4","7","1","2","2","2","730025585505734658","陈","349","Female","[""好她"",""好我"",""坏她"",""坏我""]","[""强她"",""强我"",""弱她"",""弱我""]","","","","","","","","0","","","","","","","","","SRET","SRET_math_calculate","","key","0","16.668656716417736","599.999976158143","395.8333176043305","","","","","6*0= ?","0","1","","","","","","","",""
"2074","","5","psychophysics","119","387054","0.0-7.0-5.0-0.16","6","3","3","5","2","4","1","3","5","5","4","0","1","0","1","-2","-1","1","1","5","4","5","4","3","4","4","4","4","3","4","7","3","7","4","5","7","7","8","4","3","6","2","3","2","6","1","4","2","1","5","2","4","4","2","5","4","4","2","3","2","3","4","2","2","3","2","6","6","6","7","5","7","7","4","7","1","2","2","2","730025585505734658","陈","349","Female","[""好她"",""好我"",""坏她"",""坏我""]","[""强她"",""强我"",""弱她"",""弱我""]","","","","","","","","5","","","","","","","","","SRET","SRET_math_calculate","","key","5","16.668548387096962","599.999976158143","395.8333176043305","","","","","5/1= ?","5","1","","","","","","","",""
"2124","","3","psychophysics","120","389178","0.0-7.0-5.0-0.17","6","3","3","5","2","4","1","3","5","5","4","0","1","0","1","-2","-1","1","1","5","4","5","4","3","4","4","4","4","3","4","7","3","7","4","5","7","7","8","4","3","6","2","3","2","6","1","4","2","1","5","2","4","4","2","5","4","4","2","3","2","3","4","2","2","3","2","6","6","6","7","5","7","7","4","7","1","2","2","2","730025585505734658","陈","349","Female","[""好她"",""好我"",""坏她"",""坏我""]","[""强她"",""强我"",""弱她"",""弱我""]","","","","","","","","3","","","","","","","","","SRET","SRET_math_calculate","","key","3","16.671428571428386","599.999976158143","395.8333176043305","","","","","9-6= ?","3","1","","","","","","","",""
"1934","","5","psychophysics","121","391113","0.0-7.0-5.0-0.18","6","3","3","5","2","4","1","3","5","5","4","0","1","0","1","-2","-1","1","1","5","4","5","4","3","4","4","4","4","3","4","7","3","7","4","5","7","7","8","4","3","6","2","3","2","6","1","4","2","1","5","2","4","4","2","5","4","4","2","3","2","3","4","2","2","3","2","6","6","6","7","5","7","7","4","7","1","2","2","2","730025585505734658","陈","349","Female","[""好她"",""好我"",""坏她"",""坏我""]","[""强她"",""强我"",""弱她"",""弱我""]","","","","","","","","5","","","","","","","","","SRET","SRET_math_calculate","","key","5","16.670434782608492","599.999976158143","395.8333176043305","","","","","15-10= ?","5","1","","","","","","","",""
"1886","","1","psychophysics","122","393001","0.0-7.0-5.0-0.19","6","3","3","5","2","4","1","3","5","5","4","0","1","0","1","-2","-1","1","1","5","4","5","4","3","4","4","4","4","3","4","7","3","7","4","5","7","7","8","4","3","6","2","3","2","6","1","4","2","1","5","2","4","4","2","5","4","4","2","3","2","3","4","2","2","3","2","6","6","6","7","5","7","7","4","7","1","2","2","2","730025585505734658","陈","349","Female","[""好她"",""好我"",""坏她"",""坏我""]","[""强她"",""强我"",""弱她"",""弱我""]","","","","","","","","1","","","","","","","","","SRET","SRET_math_calculate","","key","1","16.66696428571439","599.999976158143","395.8333176043305","","","","","10-9= ?","1","1","","","","","","","",""
"2072","","4","psychophysics","123","395076","0.0-7.0-5.0-0.20","6","3","3","5","2","4","1","3","5","5","4","0","1","0","1","-2","-1","1","1","5","4","5","4","3","4","4","4","4","3","4","7","3","7","4","5","7","7","8","4","3","6","2","3","2","6","1","4","2","1","5","2","4","4","2","5","4","4","2","3","2","3","4","2","2","3","2","6","6","6","7","5","7","7","4","7","1","2","2","2","730025585505734658","陈","349","Female","[""好她"",""好我"",""坏她"",""坏我""]","[""强她"",""强我"",""弱她"",""弱我""]","","","","","","","","4","","","","","","","","","SRET","SRET_math_calculate","","key","4","16.666129032258347","599.999976158143","395.8333176043305","","","","","20/5= ?","4","1","","","","","","","",""
"1952","","8","psychophysics","124","397029","0.0-7.0-5.0-0.21","6","3","3","5","2","4","1","3","5","5","4","0","1","0","1","-2","-1","1","1","5","4","5","4","3","4","4","4","4","3","4","7","3","7","4","5","7","7","8","4","3","6","2","3","2","6","1","4","2","1","5","2","4","4","2","5","4","4","2","3","2","3","4","2","2","3","2","6","6","6","7","5","7","7","4","7","1","2","2","2","730025585505734658","陈","349","Female","[""好她"",""好我"",""坏她"",""坏我""]","[""强她"",""强我"",""弱她"",""弱我""]","","","","","","","","8","","","","","","","","","SRET","SRET_math_calculate","","key","8","16.667241379310546","599.999976158143","395.8333176043305","","","","","2*4= ?","8","1","","","","","","","",""
"2425","","9","psychophysics","125","399454","0.0-7.0-5.0-0.22","6","3","3","5","2","4","1","3","5","5","4","0","1","0","1","-2","-1","1","1","5","4","5","4","3","4","4","4","4","3","4","7","3","7","4","5","7","7","8","4","3","6","2","3","2","6","1","4","2","1","5","2","4","4","2","5","4","4","2","3","2","3","4","2","2","3","2","6","6","6","7","5","7","7","4","7","1","2","2","2","730025585505734658","陈","349","Female","[""好她"",""好我"",""坏她"",""坏我""]","[""强她"",""强我"",""弱她"",""弱我""]","","","","","","","","9","","","","","","","","","SRET","SRET_math_calculate","","key","9","16.666206896551564","599.999976158143","395.8333176043305","","","","","43-34= ?","9","1","","","","","","","",""
"2026","","7","psychophysics","126","401481","0.0-7.0-5.0-0.23","6","3","3","5","2","4","1","3","5","5","4","0","1","0","1","-2","-1","1","1","5","4","5","4","3","4","4","4","4","3","4","7","3","7","4","5","7","7","8","4","3","6","2","3","2","6","1","4","2","1","5","2","4","4","2","5","4","4","2","3","2","3","4","2","2","3","2","6","6","6","7","5","7","7","4","7","1","2","2","2","730025585505734658","陈","349","Female","[""好她"",""好我"",""坏她"",""坏我""]","[""强她"",""强我"",""弱她"",""弱我""]","","","","","","","","7","","","","","","","","","SRET","SRET_math_calculate","","key","7","16.66115702479339","599.999976158143","395.8333176043305","","","","","9-2= ?","7","1","","","","","","","",""
"2139","","1","psychophysics","127","403623","0.0-7.0-5.0-0.24","6","3","3","5","2","4","1","3","5","5","4","0","1","0","1","-2","-1","1","1","5","4","5","4","3","4","4","4","4","3","4","7","3","7","4","5","7","7","8","4","3","6","2","3","2","6","1","4","2","1","5","2","4","4","2","5","4","4","2","3","2","3","4","2","2","3","2","6","6","6","7","5","7","7","4","7","1","2","2","2","730025585505734658","陈","349","Female","[""好她"",""好我"",""坏她"",""坏我""]","[""强她"",""强我"",""弱她"",""弱我""]","","","","","","","","1","","","","","","","","","SRET","SRET_math_calculate","","key","1","16.669291338582678","599.999976158143","395.8333176043305","","","","","4/4= ?","1","1","","","","","","","",""
"2198","","0","psychophysics","128","405822","0.0-7.0-5.0-0.25","6","3","3","5","2","4","1","3","5","5","4","0","1","0","1","-2","-1","1","1","5","4","5","4","3","4","4","4","4","3","4","7","3","7","4","5","7","7","8","4","3","6","2","3","2","6","1","4","2","1","5","2","4","4","2","5","4","4","2","3","2","3","4","2","2","3","2","6","6","6","7","5","7","7","4","7","1","2","2","2","730025585505734658","陈","349","Female","[""好她"",""好我"",""坏她"",""坏我""]","[""强她"",""强我"",""弱她"",""弱我""]","","","","","","","","0","","","","","","","","","SRET","SRET_math_calculate","","key","0","16.66641221374037","599.999976158143","395.8333176043305","","","","","22-22= ?","0","1","","","","","","","",""
"1848","","7","psychophysics","129","407671","0.0-7.0-5.0-0.26","6","3","3","5","2","4","1","3","5","5","4","0","1","0","1","-2","-1","1","1","5","4","5","4","3","4","4","4","4","3","4","7","3","7","4","5","7","7","8","4","3","6","2","3","2","6","1","4","2","1","5","2","4","4","2","5","4","4","2","3","2","3","4","2","2","3","2","6","6","6","7","5","7","7","4","7","1","2","2","2","730025585505734658","陈","349","Female","[""好她"",""好我"",""坏她"",""坏我""]","[""强她"",""强我"",""弱她"",""弱我""]","","","","","","","","7","","","","","","","","","SRET","SRET_math_calculate","","key","7","16.668181818181818","599.999976158143","395.8333176043305","","","","","2+5= ?","7","1","","","","","","","",""
"1997","","3","psychophysics","130","409669","0.0-7.0-5.0-0.27","6","3","3","5","2","4","1","3","5","5","4","0","1","0","1","-2","-1","1","1","5","4","5","4","3","4","4","4","4","3","4","7","3","7","4","5","7","7","8","4","3","6","2","3","2","6","1","4","2","1","5","2","4","4","2","5","4","4","2","3","2","3","4","2","2","3","2","6","6","6","7","5","7","7","4","7","1","2","2","2","730025585505734658","陈","349","Female","[""好她"",""好我"",""坏她"",""坏我""]","[""强她"",""强我"",""弱她"",""弱我""]","","","","","","","","3","","","","","","","","","SRET","SRET_math_calculate","","key","3","16.661344537815225","599.999976158143","395.8333176043305","","","","","8-5= ?","3","1","","","","","","","",""
"1753","","3","psychophysics","131","411423","0.0-7.0-5.0-0.28","6","3","3","5","2","4","1","3","5","5","4","0","1","0","1","-2","-1","1","1","5","4","5","4","3","4","4","4","4","3","4","7","3","7","4","5","7","7","8","4","3","6","2","3","2","6","1","4","2","1","5","2","4","4","2","5","4","4","2","3","2","3","4","2","2","3","2","6","6","6","7","5","7","7","4","7","1","2","2","2","730025585505734658","陈","349","Female","[""好她"",""好我"",""坏她"",""坏我""]","[""强她"",""强我"",""弱她"",""弱我""]","","","","","","","","3","","","","","","","","","SRET","SRET_math_calculate","","key","3","16.667307692307915","599.999976158143","395.8333176043305","","","","","2+1= ?","3","1","","","","","","","",""
"2060","","9","psychophysics","132","413484","0.0-7.0-5.0-0.29","6","3","3","5","2","4","1","3","5","5","4","0","1","0","1","-2","-1","1","1","5","4","5","4","3","4","4","4","4","3","4","7","3","7","4","5","7","7","8","4","3","6","2","3","2","6","1","4","2","1","5","2","4","4","2","5","4","4","2","3","2","3","4","2","2","3","2","6","6","6","7","5","7","7","4","7","1","2","2","2","730025585505734658","陈","349","Female","[""好她"",""好我"",""坏她"",""坏我""]","[""强她"",""强我"",""弱她"",""弱我""]","","","","","","","","9","","","","","","","","","SRET","SRET_math_calculate","","key","9","16.66747967479656","599.999976158143","395.8333176043305","","","","","6+3= ?","9","1","","","","","","","",""
"1818","","8","psychophysics","133","415306","0.0-7.0-5.0-0.30","6","3","3","5","2","4","1","3","5","5","4","0","1","0","1","-2","-1","1","1","5","4","5","4","3","4","4","4","4","3","4","7","3","7","4","5","7","7","8","4","3","6","2","3","2","6","1","4","2","1","5","2","4","4","2","5","4","4","2","3","2","3","4","2","2","3","2","6","6","6","7","5","7","7","4","7","1","2","2","2","730025585505734658","陈","349","Female","[""好她"",""好我"",""坏她"",""坏我""]","[""强她"",""强我"",""弱她"",""弱我""]","","","","","","","","8","","","","","","","","","SRET","SRET_math_calculate","","key","8","16.667592592592378","599.999976158143","395.8333176043305","","","","","1*8= ?","8","1","","","","","","","",""
"1828","","7","psychophysics","134","417134","0.0-7.0-5.0-0.31","6","3","3","5","2","4","1","3","5","5","4","0","1","0","1","-2","-1","1","1","5","4","5","4","3","4","4","4","4","3","4","7","3","7","4","5","7","7","8","4","3","6","2","3","2","6","1","4","2","1","5","2","4","4","2","5","4","4","2","3","2","3","4","2","2","3","2","6","6","6","7","5","7","7","4","7","1","2","2","2","730025585505734658","陈","349","Female","[""好她"",""好我"",""坏她"",""坏我""]","[""强她"",""强我"",""弱她"",""弱我""]","","","","","","","","7","","","","","","","","","SRET","SRET_math_calculate","","key","7","16.666055045871346","599.999976158143","395.8333176043305","","","","","1+6= ?","7","1","","","","","","","",""
"1981","","5","psychophysics","135","419119","0.0-7.0-5.0-0.32","6","3","3","5","2","4","1","3","5","5","4","0","1","0","1","-2","-1","1","1","5","4","5","4","3","4","4","4","4","3","4","7","3","7","4","5","7","7","8","4","3","6","2","3","2","6","1","4","2","1","5","2","4","4","2","5","4","4","2","3","2","3","4","2","2","3","2","6","6","6","7","5","7","7","4","7","1","2","2","2","730025585505734658","陈","349","Female","[""好她"",""好我"",""坏她"",""坏我""]","[""强她"",""强我"",""弱她"",""弱我""]","","","","","","","","5","","","","","","","","","SRET","SRET_math_calculate","","key","5","16.666949152542472","599.999976158143","395.8333176043305","","","","","4+1= ?","5","1","","","","","","","",""
"1869","","7","psychophysics","136","420989","0.0-7.0-5.0-0.33","6","3","3","5","2","4","1","3","5","5","4","0","1","0","1","-2","-1","1","1","5","4","5","4","3","4","4","4","4","3","4","7","3","7","4","5","7","7","8","4","3","6","2","3","2","6","1","4","2","1","5","2","4","4","2","5","4","4","2","3","2","3","4","2","2","3","2","6","6","6","7","5","7","7","4","7","1","2","2","2","730025585505734658","陈","349","Female","[""好她"",""好我"",""坏她"",""坏我""]","[""强她"",""强我"",""弱她"",""弱我""]","","","","","","","","7","","","","","","","","","SRET","SRET_math_calculate","","key","7","16.667567567567357","599.999976158143","395.8333176043305","","","","","9-3= ?","6","0","","","","","","","",""
"2302","","7","psychophysics","137","423292","0.0-7.0-5.0-0.34","6","3","3","5","2","4","1","3","5","5","4","0","1","0","1","-2","-1","1","1","5","4","5","4","3","4","4","4","4","3","4","7","3","7","4","5","7","7","8","4","3","6","2","3","2","6","1","4","2","1","5","2","4","4","2","5","4","4","2","3","2","3","4","2","2","3","2","6","6","6","7","5","7","7","4","7","1","2","2","2","730025585505734658","陈","349","Female","[""好她"",""好我"",""坏她"",""坏我""]","[""强她"",""强我"",""弱她"",""弱我""]","","","","","","","","7","","","","","","","","","SRET","SRET_math_calculate","","key","7","16.663503649635206","599.999976158143","395.8333176043305","","","","","56/7= ?","8","0","","","","","","","",""
