"rt","stimulus","response","trial_type","trial_index","time_elapsed","internal_node_id","swb_1","swb_2","swb_3","swb_4","swb_5","LOT_1","LOT_2","LOT_3","LOT_4","LOT_5","LOT_6","IPC_1","IPC_2","IPC_3","IPC_4","IPC_5","IPC_6","IPC_7","IPC_8","MorIden_1","MorIden_2","MorIden_3","MorIden_4","MorIden_5","MorIden_6","MorIden_7","MorIden_8","MorIden_9","MorIden_10","moralSeImag_1","moralSeImag_2","moralSeImag_3","moralSeImag_4","moralSeImag_5","moralSeImag_6","moralSeImag_7","moralSeImag_8","moralSeImag_9","sde_1","sde_2","sde_3","sde_4","sde_5","sde_6","sde_7","sde_8","sde_9","sde_10","trap2","sde_11","sde_12","sde_13","sde_14","sde_15","sde_16","sde_17","sde_18","sde_19","sde_20","IM_1","IM_2","IM_3","IM_4","IM_5","IM_6","IM_7","IM_8","IM_9","IM_10","IM_11","IM_12","IM_13","IM_14","IM_15","IM_16","IM_17","IM_18","IM_19","IM_20","subj_idx","friend_name","ParticipantID","Sex","Word","Word2","value","success","timeout","failed_images","failed_audio","failed_video","user_agent","responses","item_order","radio_event_ids","radio_event_times","key_event_times","mouse_event_times","straightlining","zigzagging","honeypot","view_history","response_type","key_press","avg_frame_time","center_x","center_y","correct_response","correct","identity","Image","word","condition","task_id","screen_id","time_stamp","person","valence","domain","math","status","duration","question_order","trap2_item"
"6897","
   <p><div style='color:white; font-size: 25px'>您好，欢迎参加本次实验。</div></p>
   <p><div style='color:white; font-size: 25px'>为充分保障您的权利，请确保您已经知晓并同意《参与实验同意书》以及《数据公开知情同意书》。</div></p>
   <p><div style='color:white; font-size: 25px'>如果您未见过上述内容，请咨询实验员。</div></p>
   <p style='color:white; font-size: 25px'>如果您选择继续实验，则表示您已经清楚两份知情同意书的内容并同意。</p>
   <p><div style = ""color: pink;font-size:30px;"">请确保您记得day0的实验编号，您将在本次实验输入该编号，若您忘记，请咨询实验员后作答。</div></p>
   <p><div style = ""color:lightblue;font-size:25px;"">请您尽可能认真地作答，我们将依据您在各问卷和按键任务中的作答质量发放报酬。</div></p>
   <p> <div style = ""color: green""><按空格键至下页></div> </p>
   "," ","html-keyboard-response","0","6898","0.0-0.0","6","7","7","7","6","4","3","5","5","5","5","2","1","2","2","2","1","2","2","5","4","5","5","5","4","5","5","4","5","9","8","8","7","8","8","9","8","8","7","7","1","7","6","6","6","7","7","7","1","6","7","6","1","7","7","7","7","1","6","6","5","6","5","7","7","6","6","7","6","7","6","7","7","6","7","7","7","7","6","558332507964047360","刘","447","Male","[""好他"",""坏我"",""坏他"",""好我""]","[""强他"",""弱我"",""弱他"",""强我""]","","","","","","","","","","","","","","","","","","","","","","","","","","","","","","","","","","","","","","",""
"","","","call-function","1","6899","0.0-1.0-0.0","6","7","7","7","6","4","3","5","5","5","5","2","1","2","2","2","1","2","2","5","4","5","5","5","4","5","5","4","5","9","8","8","7","8","8","9","8","8","7","7","1","7","6","6","6","7","7","7","1","6","7","6","1","7","7","7","7","1","6","6","5","6","5","7","7","6","6","7","6","7","6","7","7","6","7","7","7","7","6","558332507964047360","刘","447","Male","[""好他"",""坏我"",""坏他"",""好我""]","[""强他"",""弱我"",""弱他"",""强我""]","","","","","","","","","","","","","","","","","","","","","","","","","","","","","","","","","","","","","","",""
"13546","","[{""name"":""Sex"",""value"":""0""},{""name"":""friend_name"",""value"":""刘""},{""name"":""ParticipantID"",""value"":""447""}]","survey-html-form","2","20446","0.0-1.0-1.0","6","7","7","7","6","4","3","5","5","5","5","2","1","2","2","2","1","2","2","5","4","5","5","5","4","5","5","4","5","9","8","8","7","8","8","9","8","8","7","7","1","7","6","6","6","7","7","7","1","6","7","6","1","7","7","7","7","1","6","6","5","6","5","7","7","6","6","7","6","7","6","7","7","6","7","7","7","7","6","558332507964047360","刘","447","Male","[""好他"",""坏我"",""坏他"",""好我""]","[""强他"",""弱我"",""弱他"",""强我""]","","","","","","","","","","","","","","","","","","","","","","","","","","","","","","","","","","","","","","",""
"","","","preload","3","20890","0.0-2.0","6","7","7","7","6","4","3","5","5","5","5","2","1","2","2","2","1","2","2","5","4","5","5","5","4","5","5","4","5","9","8","8","7","8","8","9","8","8","7","7","1","7","6","6","6","7","7","7","1","6","7","6","1","7","7","7","7","1","6","6","5","6","5","7","7","6","6","7","6","7","6","7","7","6","7","7","7","7","6","558332507964047360","刘","447","Male","[""好他"",""坏我"",""坏他"",""好我""]","[""强他"",""弱我"",""弱他"",""强我""]","","true","false","[]","[]","[]","","","","","","","","","","","","","","","","","","","","","","","","","","","","","","","","",""
"","","","fullscreen","4","54637","0.0-3.0","6","7","7","7","6","4","3","5","5","5","5","2","1","2","2","2","1","2","2","5","4","5","5","5","4","5","5","4","5","9","8","8","7","8","8","9","8","8","7","7","1","7","6","6","6","7","7","7","1","6","7","6","1","7","7","7","7","1","6","6","5","6","5","7","7","6","6","7","6","7","6","7","7","6","7","7","7","7","6","558332507964047360","刘","447","Male","[""好他"",""坏我"",""坏他"",""好我""]","[""强他"",""弱我"",""弱他"",""强我""]","","true","","","","","{}","","","","","","","","","","","","","","","","","","","","","","","","","","","","","","","",""
"20609.400000000373","","{""Q01"":""6"",""Q02"":""7"",""Q03"":""7"",""Q04"":""7"",""Q05"":""6""}","survey-template","5","75248","0.0-4.0","6","7","7","7","6","4","3","5","5","5","5","2","1","2","2","2","1","2","2","5","4","5","5","5","4","5","5","4","5","9","8","8","7","8","8","9","8","8","7","7","1","7","6","6","6","7","7","7","1","6","7","6","1","7","7","7","7","1","6","6","5","6","5","7","7","6","6","7","6","7","6","7","7","6","7","7","7","7","6","558332507964047360","刘","447","Male","[""好他"",""坏我"",""坏他"",""好我""]","[""强他"",""弱我"",""弱他"",""强我""]","","","","","","","","{""Q01"":""6"",""Q02"":""7"",""Q03"":""7"",""Q04"":""7"",""Q05"":""6""}","[0,1,2,3,4]","[""Q01"",""Q02"",""Q03"",""Q04"",""Q05""]","[2417.7000000001863,3179,4386.100000000559,16277.700000000186,18692.700000000186]","[]","[2417.7000000001863,3179,4386.100000000559,16277.700000000186,18692.700000000186,20608.60000000056]","0.6","0.5","0","","","","","","","","","","","","","","","","","","","","","","",""
"163731.2999999998","","{""Q01"":""4"",""Q02"":""3"",""Q03"":""5"",""Q04"":""5"",""Q05"":""5"",""Q06"":""5""}","survey-template","6","238983","0.0-5.0","6","7","7","7","6","4","3","5","5","5","5","2","1","2","2","2","1","2","2","5","4","5","5","5","4","5","5","4","5","9","8","8","7","8","8","9","8","8","7","7","1","7","6","6","6","7","7","7","1","6","7","6","1","7","7","7","7","1","6","6","5","6","5","7","7","6","6","7","6","7","6","7","7","6","7","7","7","7","6","558332507964047360","刘","447","Male","[""好他"",""坏我"",""坏他"",""好我""]","[""强他"",""弱我"",""弱他"",""强我""]","","","","","","","","{""Q01"":""4"",""Q02"":""3"",""Q03"":""5"",""Q04"":""5"",""Q05"":""5"",""Q06"":""5""}","[0,1,2,3,4,5]","[""Q01"",""Q02"",""Q03"",""Q04"",""Q05"",""Q06""]","[20516,25320.200000000186,155952.2000000002,158559.7000000002,159679.5,163179.7999999998]","[]","[20516,25320.200000000186,155952.2000000002,158559.7000000002,159679.5,163179.7999999998,163730.90000000037]","0.3333333333333333","0.6","0","","","","","","","","","","","","","","","","","","","","","","",""
"73367.89999999944","","{""Q01"":""2"",""Q02"":""1"",""Q03"":""2"",""Q04"":""2"",""Q05"":""2"",""Q06"":""1"",""Q07"":""2"",""Q08"":""2""}","survey-template","7","312353","0.0-6.0","6","7","7","7","6","4","3","5","5","5","5","2","1","2","2","2","1","2","2","5","4","5","5","5","4","5","5","4","5","9","8","8","7","8","8","9","8","8","7","7","1","7","6","6","6","7","7","7","1","6","7","6","1","7","7","7","7","1","6","6","5","6","5","7","7","6","6","7","6","7","6","7","7","6","7","7","7","7","6","558332507964047360","刘","447","Male","[""好他"",""坏我"",""坏他"",""好我""]","[""强他"",""弱我"",""弱他"",""强我""]","","","","","","","","{""Q01"":""2"",""Q02"":""1"",""Q03"":""2"",""Q04"":""2"",""Q05"":""2"",""Q06"":""1"",""Q07"":""2"",""Q08"":""2""}","[0,1,2,3,4,5,6,7]","[""Q01"",""Q02"",""Q03"",""Q04"",""Q05"",""Q06"",""Q07"",""Q08""]","[57529.89999999944,62333.699999999255,64179.699999999255,64888.5,67198.59999999963,68484.89999999944,69797.19999999925,70856]","[]","[57529.89999999944,62333.699999999255,64179.699999999255,64888.5,67198.59999999963,68484.89999999944,69797.19999999925,70856,73367.19999999925]","0.75","0.5714285714285714","0","","","","","","","","","","","","","","","","","","","","","","",""
"127927","","","instructions","8","440281","0.0-7.0","6","7","7","7","6","4","3","5","5","5","5","2","1","2","2","2","1","2","2","5","4","5","5","5","4","5","5","4","5","9","8","8","7","8","8","9","8","8","7","7","1","7","6","6","6","7","7","7","1","6","7","6","1","7","7","7","7","1","6","6","5","6","5","7","7","6","6","7","6","7","6","7","7","6","7","7","7","7","6","558332507964047360","刘","447","Male","[""好他"",""坏我"",""坏他"",""好我""]","[""强他"",""弱我"",""弱他"",""强我""]","","","","","","","","","","","","","","","","","[{""page_index"":0,""viewing_time"":127926}]","","","","","","","","","","","","","","","","","","","","","",""
"142303","","","instructions","9","582585","0.0-8.0-1.0-0.0","6","7","7","7","6","4","3","5","5","5","5","2","1","2","2","2","1","2","2","5","4","5","5","5","4","5","5","4","5","9","8","8","7","8","8","9","8","8","7","7","1","7","6","6","6","7","7","7","1","6","7","6","1","7","7","7","7","1","6","6","5","6","5","7","7","6","6","7","6","7","6","7","7","6","7","7","7","7","6","558332507964047360","刘","447","Male","[""好他"",""坏我"",""坏他"",""好我""]","[""强他"",""弱我"",""弱他"",""强我""]","","","","","","","","","","","","","","","","","[{""page_index"":0,""viewing_time"":19494},{""page_index"":1,""viewing_time"":117654},{""page_index"":2,""viewing_time"":3520},{""page_index"":3,""viewing_time"":1636}]","","","","","","","","","","","","","","","","","","","","","",""
"753","","j","psychophysics","10","584341","0.0-8.0-1.0-1.0-0.0-0.0","6","7","7","7","6","4","3","5","5","5","5","2","1","2","2","2","1","2","2","5","4","5","5","5","4","5","5","4","5","9","8","8","7","8","8","9","8","8","7","7","1","7","6","6","6","7","7","7","1","6","7","6","1","7","7","7","7","1","6","6","5","6","5","7","7","6","6","7","6","7","6","7","7","6","7","7","7","7","6","558332507964047360","刘","447","Male","[""好他"",""坏我"",""坏他"",""好我""]","[""强他"",""弱我"",""弱他"",""强我""]","","","","","","","","match","","","","","","","","","","key","j","16.669644230769617","634.7107237914937","353.3884186109931","f","false","nonmatch","img/square.png","弱我","弱他","prac_ALT2_ability","practice_ability","","","","","","","","",""
"null","<span style='color:red; font-size: 70px;'>错误! </span>","null","html-keyboard-response","11","584842","0.0-8.0-1.0-1.0-0.0-1.0","6","7","7","7","6","4","3","5","5","5","5","2","1","2","2","2","1","2","2","5","4","5","5","5","4","5","5","4","5","9","8","8","7","8","8","9","8","8","7","7","1","7","6","6","6","7","7","7","1","6","7","6","1","7","7","7","7","1","6","6","5","6","5","7","7","6","6","7","6","7","6","7","7","6","7","7","7","7","6","558332507964047360","刘","447","Male","[""好他"",""坏我"",""坏他"",""好我""]","[""强他"",""弱我"",""弱他"",""强我""]","","","","","","","","","","","","","","","","","","","","","","","","","","","","","","feedback_test","","","","","","","","",""
"785","","j","psychophysics","12","586628","0.0-8.0-1.0-1.0-0.0-0.1","6","7","7","7","6","4","3","5","5","5","5","2","1","2","2","2","1","2","2","5","4","5","5","5","4","5","5","4","5","9","8","8","7","8","8","9","8","8","7","7","1","7","6","6","6","7","7","7","1","6","7","6","1","7","7","7","7","1","6","6","5","6","5","7","7","6","6","7","6","7","6","7","7","6","7","7","7","7","6","558332507964047360","刘","447","Male","[""好他"",""坏我"",""坏他"",""好我""]","[""强他"",""弱我"",""弱他"",""强我""]","","","","","","","","match","","","","","","","","","","key","j","16.663886792452583","634.7107237914937","353.3884186109931","j","true","match","img/diamond.png","强我","强我","prac_ALT2_ability","practice_ability","","","","","","","","",""
"null","<span style='color:GreenYellow; font-size: 70px;'>正确! </span>","null","html-keyboard-response","13","587129","0.0-8.0-1.0-1.0-0.0-1.1","6","7","7","7","6","4","3","5","5","5","5","2","1","2","2","2","1","2","2","5","4","5","5","5","4","5","5","4","5","9","8","8","7","8","8","9","8","8","7","7","1","7","6","6","6","7","7","7","1","6","7","6","1","7","7","7","7","1","6","6","5","6","5","7","7","6","6","7","6","7","6","7","7","6","7","7","7","7","6","558332507964047360","刘","447","Male","[""好他"",""坏我"",""坏他"",""好我""]","[""强他"",""弱我"",""弱他"",""强我""]","","","","","","","","","","","","","","","","","","","","","","","","","","","","","","feedback_test","","","","","","","","",""
"686","","j","psychophysics","14","588816","0.0-8.0-1.0-1.0-0.0-0.2","6","7","7","7","6","4","3","5","5","5","5","2","1","2","2","2","1","2","2","5","4","5","5","5","4","5","5","4","5","9","8","8","7","8","8","9","8","8","7","7","1","7","6","6","6","7","7","7","1","6","7","6","1","7","7","7","7","1","6","6","5","6","5","7","7","6","6","7","6","7","6","7","7","6","7","7","7","7","6","558332507964047360","刘","447","Male","[""好他"",""坏我"",""坏他"",""好我""]","[""强他"",""弱我"",""弱他"",""强我""]","","","","","","","","match","","","","","","","","","","key","j","16.66563000000082","634.7107237914937","353.3884186109931","f","false","nonmatch","img/square.png","强他","弱他","prac_ALT2_ability","practice_ability","","","","","","","","",""
"null","<span style='color:red; font-size: 70px;'>错误! </span>","null","html-keyboard-response","15","589316","0.0-8.0-1.0-1.0-0.0-1.2","6","7","7","7","6","4","3","5","5","5","5","2","1","2","2","2","1","2","2","5","4","5","5","5","4","5","5","4","5","9","8","8","7","8","8","9","8","8","7","7","1","7","6","6","6","7","7","7","1","6","7","6","1","7","7","7","7","1","6","6","5","6","5","7","7","6","6","7","6","7","6","7","7","6","7","7","7","7","6","558332507964047360","刘","447","Male","[""好他"",""坏我"",""坏他"",""好我""]","[""强他"",""弱我"",""弱他"",""强我""]","","","","","","","","","","","","","","","","","","","","","","","","","","","","","","feedback_test","","","","","","","","",""
"1008","","f","psychophysics","16","591326","0.0-8.0-1.0-1.0-0.0-0.3","6","7","7","7","6","4","3","5","5","5","5","2","1","2","2","2","1","2","2","5","4","5","5","5","4","5","5","4","5","9","8","8","7","8","8","9","8","8","7","7","1","7","6","6","6","7","7","7","1","6","7","6","1","7","7","7","7","1","6","6","5","6","5","7","7","6","6","7","6","7","6","7","7","6","7","7","7","7","6","558332507964047360","刘","447","Male","[""好他"",""坏我"",""坏他"",""好我""]","[""强他"",""弱我"",""弱他"",""强我""]","","","","","","","","nonmatch","","","","","","","","","","key","f","16.66589166666672","634.7107237914937","353.3884186109931","f","true","nonmatch","img/diamond.png","强他","强我","prac_ALT2_ability","practice_ability","","","","","","","","",""
"null","<span style='color:GreenYellow; font-size: 70px;'>正确! </span>","null","html-keyboard-response","17","591827","0.0-8.0-1.0-1.0-0.0-1.3","6","7","7","7","6","4","3","5","5","5","5","2","1","2","2","2","1","2","2","5","4","5","5","5","4","5","5","4","5","9","8","8","7","8","8","9","8","8","7","7","1","7","6","6","6","7","7","7","1","6","7","6","1","7","7","7","7","1","6","6","5","6","5","7","7","6","6","7","6","7","6","7","7","6","7","7","7","7","6","558332507964047360","刘","447","Male","[""好他"",""坏我"",""坏他"",""好我""]","[""强他"",""弱我"",""弱他"",""强我""]","","","","","","","","","","","","","","","","","","","","","","","","","","","","","","feedback_test","","","","","","","","",""
"1064","","j","psychophysics","18","593892","0.0-8.0-1.0-1.0-0.0-0.4","6","7","7","7","6","4","3","5","5","5","5","2","1","2","2","2","1","2","2","5","4","5","5","5","4","5","5","4","5","9","8","8","7","8","8","9","8","8","7","7","1","7","6","6","6","7","7","7","1","6","7","6","1","7","7","7","7","1","6","6","5","6","5","7","7","6","6","7","6","7","6","7","7","6","7","7","7","7","6","558332507964047360","刘","447","Male","[""好他"",""坏我"",""坏他"",""好我""]","[""强他"",""弱我"",""弱他"",""强我""]","","","","","","","","match","","","","","","","","","","key","j","16.66500813008108","634.7107237914937","353.3884186109931","j","true","match","img/diamond.png","强我","强我","prac_ALT2_ability","practice_ability","","","","","","","","",""
"null","<span style='color:GreenYellow; font-size: 70px;'>正确! </span>","null","html-keyboard-response","19","594394","0.0-8.0-1.0-1.0-0.0-1.4","6","7","7","7","6","4","3","5","5","5","5","2","1","2","2","2","1","2","2","5","4","5","5","5","4","5","5","4","5","9","8","8","7","8","8","9","8","8","7","7","1","7","6","6","6","7","7","7","1","6","7","6","1","7","7","7","7","1","6","6","5","6","5","7","7","6","6","7","6","7","6","7","7","6","7","7","7","7","6","558332507964047360","刘","447","Male","[""好他"",""坏我"",""坏他"",""好我""]","[""强他"",""弱我"",""弱他"",""强我""]","","","","","","","","","","","","","","","","","","","","","","","","","","","","","","feedback_test","","","","","","","","",""
"1102","","f","psychophysics","20","596497","0.0-8.0-1.0-1.0-0.0-0.5","6","7","7","7","6","4","3","5","5","5","5","2","1","2","2","2","1","2","2","5","4","5","5","5","4","5","5","4","5","9","8","8","7","8","8","9","8","8","7","7","1","7","6","6","6","7","7","7","1","6","7","6","1","7","7","7","7","1","6","6","5","6","5","7","7","6","6","7","6","7","6","7","7","6","7","7","7","7","6","558332507964047360","刘","447","Male","[""好他"",""坏我"",""坏他"",""好我""]","[""强他"",""弱我"",""弱他"",""强我""]","","","","","","","","nonmatch","","","","","","","","","","key","f","16.665672000000253","634.7107237914937","353.3884186109931","f","true","nonmatch","img/ellipse.png","弱我","强他","prac_ALT2_ability","practice_ability","","","","","","","","",""
"null","<span style='color:GreenYellow; font-size: 70px;'>正确! </span>","null","html-keyboard-response","21","596997","0.0-8.0-1.0-1.0-0.0-1.5","6","7","7","7","6","4","3","5","5","5","5","2","1","2","2","2","1","2","2","5","4","5","5","5","4","5","5","4","5","9","8","8","7","8","8","9","8","8","7","7","1","7","6","6","6","7","7","7","1","6","7","6","1","7","7","7","7","1","6","6","5","6","5","7","7","6","6","7","6","7","6","7","7","6","7","7","7","7","6","558332507964047360","刘","447","Male","[""好他"",""坏我"",""坏他"",""好我""]","[""强他"",""弱我"",""弱他"",""强我""]","","","","","","","","","","","","","","","","","","","","","","","","","","","","","","feedback_test","","","","","","","","",""
"1040","","f","psychophysics","22","599039","0.0-8.0-1.0-1.0-0.0-0.6","6","7","7","7","6","4","3","5","5","5","5","2","1","2","2","2","1","2","2","5","4","5","5","5","4","5","5","4","5","9","8","8","7","8","8","9","8","8","7","7","1","7","6","6","6","7","7","7","1","6","7","6","1","7","7","7","7","1","6","6","5","6","5","7","7","6","6","7","6","7","6","7","7","6","7","7","7","7","6","558332507964047360","刘","447","Male","[""好他"",""坏我"",""坏他"",""好我""]","[""强他"",""弱我"",""弱他"",""强我""]","","","","","","","","nonmatch","","","","","","","","","","key","f","16.66661157024724","634.7107237914937","353.3884186109931","f","true","nonmatch","img/ellipse.png","弱他","强他","prac_ALT2_ability","practice_ability","","","","","","","","",""
"null","<span style='color:GreenYellow; font-size: 70px;'>正确! </span>","null","html-keyboard-response","23","599540","0.0-8.0-1.0-1.0-0.0-1.6","6","7","7","7","6","4","3","5","5","5","5","2","1","2","2","2","1","2","2","5","4","5","5","5","4","5","5","4","5","9","8","8","7","8","8","9","8","8","7","7","1","7","6","6","6","7","7","7","1","6","7","6","1","7","7","7","7","1","6","6","5","6","5","7","7","6","6","7","6","7","6","7","7","6","7","7","7","7","6","558332507964047360","刘","447","Male","[""好他"",""坏我"",""坏他"",""好我""]","[""强他"",""弱我"",""弱他"",""强我""]","","","","","","","","","","","","","","","","","","","","","","","","","","","","","","feedback_test","","","","","","","","",""
"1165","","j","psychophysics","24","601707","0.0-8.0-1.0-1.0-0.0-0.7","6","7","7","7","6","4","3","5","5","5","5","2","1","2","2","2","1","2","2","5","4","5","5","5","4","5","5","4","5","9","8","8","7","8","8","9","8","8","7","7","1","7","6","6","6","7","7","7","1","6","7","6","1","7","7","7","7","1","6","6","5","6","5","7","7","6","6","7","6","7","6","7","7","6","7","7","7","7","6","558332507964047360","刘","447","Male","[""好他"",""坏我"",""坏他"",""好我""]","[""强他"",""弱我"",""弱他"",""强我""]","","","","","","","","match","","","","","","","","","","key","j","16.65595312500045","634.7107237914937","353.3884186109931","j","true","match","img/square.png","弱他","弱他","prac_ALT2_ability","practice_ability","","","","","","","","",""
"null","<span style='color:GreenYellow; font-size: 70px;'>正确! </span>","null","html-keyboard-response","25","602207","0.0-8.0-1.0-1.0-0.0-1.7","6","7","7","7","6","4","3","5","5","5","5","2","1","2","2","2","1","2","2","5","4","5","5","5","4","5","5","4","5","9","8","8","7","8","8","9","8","8","7","7","1","7","6","6","6","7","7","7","1","6","7","6","1","7","7","7","7","1","6","6","5","6","5","7","7","6","6","7","6","7","6","7","7","6","7","7","7","7","6","558332507964047360","刘","447","Male","[""好他"",""坏我"",""坏他"",""好我""]","[""强他"",""弱我"",""弱他"",""强我""]","","","","","","","","","","","","","","","","","","","","","","","","","","","","","","feedback_test","","","","","","","","",""
"936","","j","psychophysics","26","604145","0.0-8.0-1.0-1.0-0.0-0.8","6","7","7","7","6","4","3","5","5","5","5","2","1","2","2","2","1","2","2","5","4","5","5","5","4","5","5","4","5","9","8","8","7","8","8","9","8","8","7","7","1","7","6","6","6","7","7","7","1","6","7","6","1","7","7","7","7","1","6","6","5","6","5","7","7","6","6","7","6","7","6","7","7","6","7","7","7","7","6","558332507964047360","刘","447","Male","[""好他"",""坏我"",""坏他"",""好我""]","[""强他"",""弱我"",""弱他"",""强我""]","","","","","","","","match","","","","","","","","","","key","j","16.65596521739119","634.7107237914937","353.3884186109931","j","true","match","img/ellipse.png","强他","强他","prac_ALT2_ability","practice_ability","","","","","","","","",""
"null","<span style='color:GreenYellow; font-size: 70px;'>正确! </span>","null","html-keyboard-response","27","604646","0.0-8.0-1.0-1.0-0.0-1.8","6","7","7","7","6","4","3","5","5","5","5","2","1","2","2","2","1","2","2","5","4","5","5","5","4","5","5","4","5","9","8","8","7","8","8","9","8","8","7","7","1","7","6","6","6","7","7","7","1","6","7","6","1","7","7","7","7","1","6","6","5","6","5","7","7","6","6","7","6","7","6","7","7","6","7","7","7","7","6","558332507964047360","刘","447","Male","[""好他"",""坏我"",""坏他"",""好我""]","[""强他"",""弱我"",""弱他"",""强我""]","","","","","","","","","","","","","","","","","","","","","","","","","","","","","","feedback_test","","","","","","","","",""
"1008","","f","psychophysics","28","606656","0.0-8.0-1.0-1.0-0.0-0.9","6","7","7","7","6","4","3","5","5","5","5","2","1","2","2","2","1","2","2","5","4","5","5","5","4","5","5","4","5","9","8","8","7","8","8","9","8","8","7","7","1","7","6","6","6","7","7","7","1","6","7","6","1","7","7","7","7","1","6","6","5","6","5","7","7","6","6","7","6","7","6","7","7","6","7","7","7","7","6","558332507964047360","刘","447","Male","[""好他"",""坏我"",""坏他"",""好我""]","[""强他"",""弱我"",""弱他"",""强我""]","","","","","","","","nonmatch","","","","","","","","","","key","f","16.665840336134337","634.7107237914937","353.3884186109931","f","true","nonmatch","img/hexagon.png","强他","弱我","prac_ALT2_ability","practice_ability","","","","","","","","",""
"null","<span style='color:GreenYellow; font-size: 70px;'>正确! </span>","null","html-keyboard-response","29","607157","0.0-8.0-1.0-1.0-0.0-1.9","6","7","7","7","6","4","3","5","5","5","5","2","1","2","2","2","1","2","2","5","4","5","5","5","4","5","5","4","5","9","8","8","7","8","8","9","8","8","7","7","1","7","6","6","6","7","7","7","1","6","7","6","1","7","7","7","7","1","6","6","5","6","5","7","7","6","6","7","6","7","6","7","7","6","7","7","7","7","6","558332507964047360","刘","447","Male","[""好他"",""坏我"",""坏他"",""好我""]","[""强他"",""弱我"",""弱他"",""强我""]","","","","","","","","","","","","","","","","","","","","","","","","","","","","","","feedback_test","","","","","","","","",""
"860","","f","psychophysics","30","609018","0.0-8.0-1.0-1.0-0.0-0.10","6","7","7","7","6","4","3","5","5","5","5","2","1","2","2","2","1","2","2","5","4","5","5","5","4","5","5","4","5","9","8","8","7","8","8","9","8","8","7","7","1","7","6","6","6","7","7","7","1","6","7","6","1","7","7","7","7","1","6","6","5","6","5","7","7","6","6","7","6","7","6","7","7","6","7","7","7","7","6","558332507964047360","刘","447","Male","[""好他"",""坏我"",""坏他"",""好我""]","[""强他"",""弱我"",""弱他"",""强我""]","","","","","","","","nonmatch","","","","","","","","","","key","f","16.654445454545996","634.7107237914937","353.3884186109931","f","true","nonmatch","img/diamond.png","弱他","强我","prac_ALT2_ability","practice_ability","","","","","","","","",""
"null","<span style='color:GreenYellow; font-size: 70px;'>正确! </span>","null","html-keyboard-response","31","609519","0.0-8.0-1.0-1.0-0.0-1.10","6","7","7","7","6","4","3","5","5","5","5","2","1","2","2","2","1","2","2","5","4","5","5","5","4","5","5","4","5","9","8","8","7","8","8","9","8","8","7","7","1","7","6","6","6","7","7","7","1","6","7","6","1","7","7","7","7","1","6","6","5","6","5","7","7","6","6","7","6","7","6","7","7","6","7","7","7","7","6","558332507964047360","刘","447","Male","[""好他"",""坏我"",""坏他"",""好我""]","[""强他"",""弱我"",""弱他"",""强我""]","","","","","","","","","","","","","","","","","","","","","","","","","","","","","","feedback_test","","","","","","","","",""
"909","","f","psychophysics","32","611429","0.0-8.0-1.0-1.0-0.0-0.11","6","7","7","7","6","4","3","5","5","5","5","2","1","2","2","2","1","2","2","5","4","5","5","5","4","5","5","4","5","9","8","8","7","8","8","9","8","8","7","7","1","7","6","6","6","7","7","7","1","6","7","6","1","7","7","7","7","1","6","6","5","6","5","7","7","6","6","7","6","7","6","7","7","6","7","7","7","7","6","558332507964047360","刘","447","Male","[""好他"",""坏我"",""坏他"",""好我""]","[""强他"",""弱我"",""弱他"",""强我""]","","","","","","","","nonmatch","","","","","","","","","","key","f","16.666631578947744","634.7107237914937","353.3884186109931","f","true","nonmatch","img/hexagon.png","弱他","弱我","prac_ALT2_ability","practice_ability","","","","","","","","",""
"null","<span style='color:GreenYellow; font-size: 70px;'>正确! </span>","null","html-keyboard-response","33","611930","0.0-8.0-1.0-1.0-0.0-1.11","6","7","7","7","6","4","3","5","5","5","5","2","1","2","2","2","1","2","2","5","4","5","5","5","4","5","5","4","5","9","8","8","7","8","8","9","8","8","7","7","1","7","6","6","6","7","7","7","1","6","7","6","1","7","7","7","7","1","6","6","5","6","5","7","7","6","6","7","6","7","6","7","7","6","7","7","7","7","6","558332507964047360","刘","447","Male","[""好他"",""坏我"",""坏他"",""好我""]","[""强他"",""弱我"",""弱他"",""强我""]","","","","","","","","","","","","","","","","","","","","","","","","","","","","","","feedback_test","","","","","","","","",""
"810","","j","psychophysics","34","613741","0.0-8.0-1.0-1.0-0.0-0.12","6","7","7","7","6","4","3","5","5","5","5","2","1","2","2","2","1","2","2","5","4","5","5","5","4","5","5","4","5","9","8","8","7","8","8","9","8","8","7","7","1","7","6","6","6","7","7","7","1","6","7","6","1","7","7","7","7","1","6","6","5","6","5","7","7","6","6","7","6","7","6","7","7","6","7","7","7","7","6","558332507964047360","刘","447","Male","[""好他"",""坏我"",""坏他"",""好我""]","[""强他"",""弱我"",""弱他"",""强我""]","","","","","","","","match","","","","","","","","","","key","j","16.663467289719982","634.7107237914937","353.3884186109931","f","false","nonmatch","img/ellipse.png","强我","强他","prac_ALT2_ability","practice_ability","","","","","","","","",""
"null","<span style='color:red; font-size: 70px;'>错误! </span>","null","html-keyboard-response","35","614243","0.0-8.0-1.0-1.0-0.0-1.12","6","7","7","7","6","4","3","5","5","5","5","2","1","2","2","2","1","2","2","5","4","5","5","5","4","5","5","4","5","9","8","8","7","8","8","9","8","8","7","7","1","7","6","6","6","7","7","7","1","6","7","6","1","7","7","7","7","1","6","6","5","6","5","7","7","6","6","7","6","7","6","7","7","6","7","7","7","7","6","558332507964047360","刘","447","Male","[""好他"",""坏我"",""坏他"",""好我""]","[""强他"",""弱我"",""弱他"",""强我""]","","","","","","","","","","","","","","","","","","","","","","","","","","","","","","feedback_test","","","","","","","","",""
"1018","","j","psychophysics","36","616261","0.0-8.0-1.0-1.0-0.0-0.13","6","7","7","7","6","4","3","5","5","5","5","2","1","2","2","2","1","2","2","5","4","5","5","5","4","5","5","4","5","9","8","8","7","8","8","9","8","8","7","7","1","7","6","6","6","7","7","7","1","6","7","6","1","7","7","7","7","1","6","6","5","6","5","7","7","6","6","7","6","7","6","7","7","6","7","7","7","7","6","558332507964047360","刘","447","Male","[""好他"",""坏我"",""坏他"",""好我""]","[""强他"",""弱我"",""弱他"",""强我""]","","","","","","","","match","","","","","","","","","","key","j","16.666325000000263","634.7107237914937","353.3884186109931","j","true","match","img/square.png","弱他","弱他","prac_ALT2_ability","practice_ability","","","","","","","","",""
"null","<span style='color:GreenYellow; font-size: 70px;'>正确! </span>","null","html-keyboard-response","37","616762","0.0-8.0-1.0-1.0-0.0-1.13","6","7","7","7","6","4","3","5","5","5","5","2","1","2","2","2","1","2","2","5","4","5","5","5","4","5","5","4","5","9","8","8","7","8","8","9","8","8","7","7","1","7","6","6","6","7","7","7","1","6","7","6","1","7","7","7","7","1","6","6","5","6","5","7","7","6","6","7","6","7","6","7","7","6","7","7","7","7","6","558332507964047360","刘","447","Male","[""好他"",""坏我"",""坏他"",""好我""]","[""强他"",""弱我"",""弱他"",""强我""]","","","","","","","","","","","","","","","","","","","","","","","","","","","","","","feedback_test","","","","","","","","",""
"822","","f","psychophysics","38","618585","0.0-8.0-1.0-1.0-0.0-0.14","6","7","7","7","6","4","3","5","5","5","5","2","1","2","2","2","1","2","2","5","4","5","5","5","4","5","5","4","5","9","8","8","7","8","8","9","8","8","7","7","1","7","6","6","6","7","7","7","1","6","7","6","1","7","7","7","7","1","6","6","5","6","5","7","7","6","6","7","6","7","6","7","7","6","7","7","7","7","6","558332507964047360","刘","447","Male","[""好他"",""坏我"",""坏他"",""好我""]","[""强他"",""弱我"",""弱他"",""强我""]","","","","","","","","nonmatch","","","","","","","","","","key","f","16.66607407407503","634.7107237914937","353.3884186109931","f","true","nonmatch","img/square.png","强我","弱他","prac_ALT2_ability","practice_ability","","","","","","","","",""
"null","<span style='color:GreenYellow; font-size: 70px;'>正确! </span>","null","html-keyboard-response","39","619086","0.0-8.0-1.0-1.0-0.0-1.14","6","7","7","7","6","4","3","5","5","5","5","2","1","2","2","2","1","2","2","5","4","5","5","5","4","5","5","4","5","9","8","8","7","8","8","9","8","8","7","7","1","7","6","6","6","7","7","7","1","6","7","6","1","7","7","7","7","1","6","6","5","6","5","7","7","6","6","7","6","7","6","7","7","6","7","7","7","7","6","558332507964047360","刘","447","Male","[""好他"",""坏我"",""坏他"",""好我""]","[""强他"",""弱我"",""弱他"",""强我""]","","","","","","","","","","","","","","","","","","","","","","","","","","","","","","feedback_test","","","","","","","","",""
"1197","","f","psychophysics","40","621285","0.0-8.0-1.0-1.0-0.0-0.15","6","7","7","7","6","4","3","5","5","5","5","2","1","2","2","2","1","2","2","5","4","5","5","5","4","5","5","4","5","9","8","8","7","8","8","9","8","8","7","7","1","7","6","6","6","7","7","7","1","6","7","6","1","7","7","7","7","1","6","6","5","6","5","7","7","6","6","7","6","7","6","7","7","6","7","7","7","7","6","558332507964047360","刘","447","Male","[""好他"",""坏我"",""坏他"",""好我""]","[""强他"",""弱我"",""弱他"",""强我""]","","","","","","","","nonmatch","","","","","","","","","","key","f","16.66681679389315","634.7107237914937","353.3884186109931","j","false","match","img/diamond.png","强我","强我","prac_ALT2_ability","practice_ability","","","","","","","","",""
"null","<span style='color:red; font-size: 70px;'>错误! </span>","null","html-keyboard-response","41","621787","0.0-8.0-1.0-1.0-0.0-1.15","6","7","7","7","6","4","3","5","5","5","5","2","1","2","2","2","1","2","2","5","4","5","5","5","4","5","5","4","5","9","8","8","7","8","8","9","8","8","7","7","1","7","6","6","6","7","7","7","1","6","7","6","1","7","7","7","7","1","6","6","5","6","5","7","7","6","6","7","6","7","6","7","7","6","7","7","7","7","6","558332507964047360","刘","447","Male","[""好他"",""坏我"",""坏他"",""好我""]","[""强他"",""弱我"",""弱他"",""强我""]","","","","","","","","","","","","","","","","","","","","","","","","","","","","","","feedback_test","","","","","","","","",""
"813","","f","psychophysics","42","623601","0.0-8.0-1.0-1.0-0.0-0.16","6","7","7","7","6","4","3","5","5","5","5","2","1","2","2","2","1","2","2","5","4","5","5","5","4","5","5","4","5","9","8","8","7","8","8","9","8","8","7","7","1","7","6","6","6","7","7","7","1","6","7","6","1","7","7","7","7","1","6","6","5","6","5","7","7","6","6","7","6","7","6","7","7","6","7","7","7","7","6","558332507964047360","刘","447","Male","[""好他"",""坏我"",""坏他"",""好我""]","[""强他"",""弱我"",""弱他"",""强我""]","","","","","","","","nonmatch","","","","","","","","","","key","f","16.66920370370348","634.7107237914937","353.3884186109931","f","true","nonmatch","img/diamond.png","弱我","强我","prac_ALT2_ability","practice_ability","","","","","","","","",""
"null","<span style='color:GreenYellow; font-size: 70px;'>正确! </span>","null","html-keyboard-response","43","624102","0.0-8.0-1.0-1.0-0.0-1.16","6","7","7","7","6","4","3","5","5","5","5","2","1","2","2","2","1","2","2","5","4","5","5","5","4","5","5","4","5","9","8","8","7","8","8","9","8","8","7","7","1","7","6","6","6","7","7","7","1","6","7","6","1","7","7","7","7","1","6","6","5","6","5","7","7","6","6","7","6","7","6","7","7","6","7","7","7","7","6","558332507964047360","刘","447","Male","[""好他"",""坏我"",""坏他"",""好我""]","[""强他"",""弱我"",""弱他"",""强我""]","","","","","","","","","","","","","","","","","","","","","","","","","","","","","","feedback_test","","","","","","","","",""
"737","","j","psychophysics","44","625841","0.0-8.0-1.0-1.0-0.0-0.17","6","7","7","7","6","4","3","5","5","5","5","2","1","2","2","2","1","2","2","5","4","5","5","5","4","5","5","4","5","9","8","8","7","8","8","9","8","8","7","7","1","7","6","6","6","7","7","7","1","6","7","6","1","7","7","7","7","1","6","6","5","6","5","7","7","6","6","7","6","7","6","7","7","6","7","7","7","7","6","558332507964047360","刘","447","Male","[""好他"",""坏我"",""坏他"",""好我""]","[""强他"",""弱我"",""弱他"",""强我""]","","","","","","","","match","","","","","","","","","","key","j","16.6654077669904","634.7107237914937","353.3884186109931","j","true","match","img/ellipse.png","强他","强他","prac_ALT2_ability","practice_ability","","","","","","","","",""
"null","<span style='color:GreenYellow; font-size: 70px;'>正确! </span>","null","html-keyboard-response","45","626342","0.0-8.0-1.0-1.0-0.0-1.17","6","7","7","7","6","4","3","5","5","5","5","2","1","2","2","2","1","2","2","5","4","5","5","5","4","5","5","4","5","9","8","8","7","8","8","9","8","8","7","7","1","7","6","6","6","7","7","7","1","6","7","6","1","7","7","7","7","1","6","6","5","6","5","7","7","6","6","7","6","7","6","7","7","6","7","7","7","7","6","558332507964047360","刘","447","Male","[""好他"",""坏我"",""坏他"",""好我""]","[""强他"",""弱我"",""弱他"",""强我""]","","","","","","","","","","","","","","","","","","","","","","","","","","","","","","feedback_test","","","","","","","","",""
"874","","f","psychophysics","46","628217","0.0-8.0-1.0-1.0-0.0-0.18","6","7","7","7","6","4","3","5","5","5","5","2","1","2","2","2","1","2","2","5","4","5","5","5","4","5","5","4","5","9","8","8","7","8","8","9","8","8","7","7","1","7","6","6","6","7","7","7","1","6","7","6","1","7","7","7","7","1","6","6","5","6","5","7","7","6","6","7","6","7","6","7","7","6","7","7","7","7","6","558332507964047360","刘","447","Male","[""好他"",""坏我"",""坏他"",""好我""]","[""强他"",""弱我"",""弱他"",""强我""]","","","","","","","","nonmatch","","","","","","","","","","key","f","16.666702702702317","634.7107237914937","353.3884186109931","f","true","nonmatch","img/hexagon.png","强我","弱我","prac_ALT2_ability","practice_ability","","","","","","","","",""
"null","<span style='color:GreenYellow; font-size: 70px;'>正确! </span>","null","html-keyboard-response","47","628718","0.0-8.0-1.0-1.0-0.0-1.18","6","7","7","7","6","4","3","5","5","5","5","2","1","2","2","2","1","2","2","5","4","5","5","5","4","5","5","4","5","9","8","8","7","8","8","9","8","8","7","7","1","7","6","6","6","7","7","7","1","6","7","6","1","7","7","7","7","1","6","6","5","6","5","7","7","6","6","7","6","7","6","7","7","6","7","7","7","7","6","558332507964047360","刘","447","Male","[""好他"",""坏我"",""坏他"",""好我""]","[""强他"",""弱我"",""弱他"",""强我""]","","","","","","","","","","","","","","","","","","","","","","","","","","","","","","feedback_test","","","","","","","","",""
"984","","j","psychophysics","48","630703","0.0-8.0-1.0-1.0-0.0-0.19","6","7","7","7","6","4","3","5","5","5","5","2","1","2","2","2","1","2","2","5","4","5","5","5","4","5","5","4","5","9","8","8","7","8","8","9","8","8","7","7","1","7","6","6","6","7","7","7","1","6","7","6","1","7","7","7","7","1","6","6","5","6","5","7","7","6","6","7","6","7","6","7","7","6","7","7","7","7","6","558332507964047360","刘","447","Male","[""好他"",""坏我"",""坏他"",""好我""]","[""强他"",""弱我"",""弱他"",""强我""]","","","","","","","","match","","","","","","","","","","key","j","16.66884745762711","634.7107237914937","353.3884186109931","j","true","match","img/square.png","弱他","弱他","prac_ALT2_ability","practice_ability","","","","","","","","",""
"null","<span style='color:GreenYellow; font-size: 70px;'>正确! </span>","null","html-keyboard-response","49","631204","0.0-8.0-1.0-1.0-0.0-1.19","6","7","7","7","6","4","3","5","5","5","5","2","1","2","2","2","1","2","2","5","4","5","5","5","4","5","5","4","5","9","8","8","7","8","8","9","8","8","7","7","1","7","6","6","6","7","7","7","1","6","7","6","1","7","7","7","7","1","6","6","5","6","5","7","7","6","6","7","6","7","6","7","7","6","7","7","7","7","6","558332507964047360","刘","447","Male","[""好他"",""坏我"",""坏他"",""好我""]","[""强他"",""弱我"",""弱他"",""强我""]","","","","","","","","","","","","","","","","","","","","","","","","","","","","","","feedback_test","","","","","","","","",""
"640","","j","psychophysics","50","632845","0.0-8.0-1.0-1.0-0.0-0.20","6","7","7","7","6","4","3","5","5","5","5","2","1","2","2","2","1","2","2","5","4","5","5","5","4","5","5","4","5","9","8","8","7","8","8","9","8","8","7","7","1","7","6","6","6","7","7","7","1","6","7","6","1","7","7","7","7","1","6","6","5","6","5","7","7","6","6","7","6","7","6","7","7","6","7","7","7","7","6","558332507964047360","刘","447","Male","[""好他"",""坏我"",""坏他"",""好我""]","[""强他"",""弱我"",""弱他"",""强我""]","","","","","","","","match","","","","","","","","","","key","j","16.66917346938803","634.7107237914937","353.3884186109931","j","true","match","img/ellipse.png","强他","强他","prac_ALT2_ability","practice_ability","","","","","","","","",""
"null","<span style='color:GreenYellow; font-size: 70px;'>正确! </span>","null","html-keyboard-response","51","633347","0.0-8.0-1.0-1.0-0.0-1.20","6","7","7","7","6","4","3","5","5","5","5","2","1","2","2","2","1","2","2","5","4","5","5","5","4","5","5","4","5","9","8","8","7","8","8","9","8","8","7","7","1","7","6","6","6","7","7","7","1","6","7","6","1","7","7","7","7","1","6","6","5","6","5","7","7","6","6","7","6","7","6","7","7","6","7","7","7","7","6","558332507964047360","刘","447","Male","[""好他"",""坏我"",""坏他"",""好我""]","[""强他"",""弱我"",""弱他"",""强我""]","","","","","","","","","","","","","","","","","","","","","","","","","","","","","","feedback_test","","","","","","","","",""
"1081","","j","psychophysics","52","635429","0.0-8.0-1.0-1.0-0.0-0.21","6","7","7","7","6","4","3","5","5","5","5","2","1","2","2","2","1","2","2","5","4","5","5","5","4","5","5","4","5","9","8","8","7","8","8","9","8","8","7","7","1","7","6","6","6","7","7","7","1","6","7","6","1","7","7","7","7","1","6","6","5","6","5","7","7","6","6","7","6","7","6","7","7","6","7","7","7","7","6","558332507964047360","刘","447","Male","[""好他"",""坏我"",""坏他"",""好我""]","[""强他"",""弱我"",""弱他"",""强我""]","","","","","","","","match","","","","","","","","","","key","j","16.666991935484297","634.7107237914937","353.3884186109931","j","true","match","img/hexagon.png","弱我","弱我","prac_ALT2_ability","practice_ability","","","","","","","","",""
"null","<span style='color:GreenYellow; font-size: 70px;'>正确! </span>","null","html-keyboard-response","53","635930","0.0-8.0-1.0-1.0-0.0-1.21","6","7","7","7","6","4","3","5","5","5","5","2","1","2","2","2","1","2","2","5","4","5","5","5","4","5","5","4","5","9","8","8","7","8","8","9","8","8","7","7","1","7","6","6","6","7","7","7","1","6","7","6","1","7","7","7","7","1","6","6","5","6","5","7","7","6","6","7","6","7","6","7","7","6","7","7","7","7","6","558332507964047360","刘","447","Male","[""好他"",""坏我"",""坏他"",""好我""]","[""强他"",""弱我"",""弱他"",""强我""]","","","","","","","","","","","","","","","","","","","","","","","","","","","","","","feedback_test","","","","","","","","",""
"879","","j","psychophysics","54","637811","0.0-8.0-1.0-1.0-0.0-0.22","6","7","7","7","6","4","3","5","5","5","5","2","1","2","2","2","1","2","2","5","4","5","5","5","4","5","5","4","5","9","8","8","7","8","8","9","8","8","7","7","1","7","6","6","6","7","7","7","1","6","7","6","1","7","7","7","7","1","6","6","5","6","5","7","7","6","6","7","6","7","6","7","7","6","7","7","7","7","6","558332507964047360","刘","447","Male","[""好他"",""坏我"",""坏他"",""好我""]","[""强他"",""弱我"",""弱他"",""强我""]","","","","","","","","match","","","","","","","","","","key","j","16.665374999999976","634.7107237914937","353.3884186109931","j","true","match","img/hexagon.png","弱我","弱我","prac_ALT2_ability","practice_ability","","","","","","","","",""
"null","<span style='color:GreenYellow; font-size: 70px;'>正确! </span>","null","html-keyboard-response","55","638312","0.0-8.0-1.0-1.0-0.0-1.22","6","7","7","7","6","4","3","5","5","5","5","2","1","2","2","2","1","2","2","5","4","5","5","5","4","5","5","4","5","9","8","8","7","8","8","9","8","8","7","7","1","7","6","6","6","7","7","7","1","6","7","6","1","7","7","7","7","1","6","6","5","6","5","7","7","6","6","7","6","7","6","7","7","6","7","7","7","7","6","558332507964047360","刘","447","Male","[""好他"",""坏我"",""坏他"",""好我""]","[""强他"",""弱我"",""弱他"",""强我""]","","","","","","","","","","","","","","","","","","","","","","","","","","","","","","feedback_test","","","","","","","","",""
"600","","j","psychophysics","56","639914","0.0-8.0-1.0-1.0-0.0-0.23","6","7","7","7","6","4","3","5","5","5","5","2","1","2","2","2","1","2","2","5","4","5","5","5","4","5","5","4","5","9","8","8","7","8","8","9","8","8","7","7","1","7","6","6","6","7","7","7","1","6","7","6","1","7","7","7","7","1","6","6","5","6","5","7","7","6","6","7","6","7","6","7","7","6","7","7","7","7","6","558332507964047360","刘","447","Male","[""好他"",""坏我"",""坏他"",""好我""]","[""强他"",""弱我"",""弱他"",""强我""]","","","","","","","","match","","","","","","","","","","key","j","16.668084210526246","634.7107237914937","353.3884186109931","j","true","match","img/hexagon.png","弱我","弱我","prac_ALT2_ability","practice_ability","","","","","","","","",""
"null","<span style='color:GreenYellow; font-size: 70px;'>正确! </span>","null","html-keyboard-response","57","640416","0.0-8.0-1.0-1.0-0.0-1.23","6","7","7","7","6","4","3","5","5","5","5","2","1","2","2","2","1","2","2","5","4","5","5","5","4","5","5","4","5","9","8","8","7","8","8","9","8","8","7","7","1","7","6","6","6","7","7","7","1","6","7","6","1","7","7","7","7","1","6","6","5","6","5","7","7","6","6","7","6","7","6","7","7","6","7","7","7","7","6","558332507964047360","刘","447","Male","[""好他"",""坏我"",""坏他"",""好我""]","[""强他"",""弱我"",""弱他"",""强我""]","","","","","","","","","","","","","","","","","","","","","","","","","","","","","","feedback_test","","","","","","","","",""
"691","","j","psychophysics","58","642110","0.0-8.0-1.0-1.0-0.0-0.24","6","7","7","7","6","4","3","5","5","5","5","2","1","2","2","2","1","2","2","5","4","5","5","5","4","5","5","4","5","9","8","8","7","8","8","9","8","8","7","7","1","7","6","6","6","7","7","7","1","6","7","6","1","7","7","7","7","1","6","6","5","6","5","7","7","6","6","7","6","7","6","7","7","6","7","7","7","7","6","558332507964047360","刘","447","Male","[""好他"",""坏我"",""坏他"",""好我""]","[""强他"",""弱我"",""弱他"",""强我""]","","","","","","","","match","","","","","","","","","","key","j","16.66614851485108","634.7107237914937","353.3884186109931","j","true","match","img/hexagon.png","弱我","弱我","prac_ALT2_ability","practice_ability","","","","","","","","",""
"null","<span style='color:GreenYellow; font-size: 70px;'>正确! </span>","null","html-keyboard-response","59","642617","0.0-8.0-1.0-1.0-0.0-1.24","6","7","7","7","6","4","3","5","5","5","5","2","1","2","2","2","1","2","2","5","4","5","5","5","4","5","5","4","5","9","8","8","7","8","8","9","8","8","7","7","1","7","6","6","6","7","7","7","1","6","7","6","1","7","7","7","7","1","6","6","5","6","5","7","7","6","6","7","6","7","6","7","7","6","7","7","7","7","6","558332507964047360","刘","447","Male","[""好他"",""坏我"",""坏他"",""好我""]","[""强他"",""弱我"",""弱他"",""强我""]","","","","","","","","","","","","","","","","","","","","","","","","","","","","","","feedback_test","","","","","","","","",""
"737","","f","psychophysics","60","644355","0.0-8.0-1.0-1.0-0.0-0.25","6","7","7","7","6","4","3","5","5","5","5","2","1","2","2","2","1","2","2","5","4","5","5","5","4","5","5","4","5","9","8","8","7","8","8","9","8","8","7","7","1","7","6","6","6","7","7","7","1","6","7","6","1","7","7","7","7","1","6","6","5","6","5","7","7","6","6","7","6","7","6","7","7","6","7","7","7","7","6","558332507964047360","刘","447","Male","[""好他"",""坏我"",""坏他"",""好我""]","[""强他"",""弱我"",""弱他"",""强我""]","","","","","","","","nonmatch","","","","","","","","","","key","f","16.667009708737204","634.7107237914937","353.3884186109931","j","false","match","img/square.png","弱他","弱他","prac_ALT2_ability","practice_ability","","","","","","","","",""
"null","<span style='color:red; font-size: 70px;'>错误! </span>","null","html-keyboard-response","61","644856","0.0-8.0-1.0-1.0-0.0-1.25","6","7","7","7","6","4","3","5","5","5","5","2","1","2","2","2","1","2","2","5","4","5","5","5","4","5","5","4","5","9","8","8","7","8","8","9","8","8","7","7","1","7","6","6","6","7","7","7","1","6","7","6","1","7","7","7","7","1","6","6","5","6","5","7","7","6","6","7","6","7","6","7","7","6","7","7","7","7","6","558332507964047360","刘","447","Male","[""好他"",""坏我"",""坏他"",""好我""]","[""强他"",""弱我"",""弱他"",""强我""]","","","","","","","","","","","","","","","","","","","","","","","","","","","","","","feedback_test","","","","","","","","",""
"753","","j","psychophysics","62","646610","0.0-8.0-1.0-1.0-0.0-0.26","6","7","7","7","6","4","3","5","5","5","5","2","1","2","2","2","1","2","2","5","4","5","5","5","4","5","5","4","5","9","8","8","7","8","8","9","8","8","7","7","1","7","6","6","6","7","7","7","1","6","7","6","1","7","7","7","7","1","6","6","5","6","5","7","7","6","6","7","6","7","6","7","7","6","7","7","7","7","6","558332507964047360","刘","447","Male","[""好他"",""坏我"",""坏他"",""好我""]","[""强他"",""弱我"",""弱他"",""强我""]","","","","","","","","match","","","","","","","","","","key","j","16.668885714285786","634.7107237914937","353.3884186109931","f","false","nonmatch","img/hexagon.png","强我","弱我","prac_ALT2_ability","practice_ability","","","","","","","","",""
"null","<span style='color:red; font-size: 70px;'>错误! </span>","null","html-keyboard-response","63","647111","0.0-8.0-1.0-1.0-0.0-1.26","6","7","7","7","6","4","3","5","5","5","5","2","1","2","2","2","1","2","2","5","4","5","5","5","4","5","5","4","5","9","8","8","7","8","8","9","8","8","7","7","1","7","6","6","6","7","7","7","1","6","7","6","1","7","7","7","7","1","6","6","5","6","5","7","7","6","6","7","6","7","6","7","7","6","7","7","7","7","6","558332507964047360","刘","447","Male","[""好他"",""坏我"",""坏他"",""好我""]","[""强他"",""弱我"",""弱他"",""强我""]","","","","","","","","","","","","","","","","","","","","","","","","","","","","","","feedback_test","","","","","","","","",""
"777","","f","psychophysics","64","648890","0.0-8.0-1.0-1.0-0.0-0.27","6","7","7","7","6","4","3","5","5","5","5","2","1","2","2","2","1","2","2","5","4","5","5","5","4","5","5","4","5","9","8","8","7","8","8","9","8","8","7","7","1","7","6","6","6","7","7","7","1","6","7","6","1","7","7","7","7","1","6","6","5","6","5","7","7","6","6","7","6","7","6","7","7","6","7","7","7","7","6","558332507964047360","刘","447","Male","[""好他"",""坏我"",""坏他"",""好我""]","[""强他"",""弱我"",""弱他"",""强我""]","","","","","","","","nonmatch","","","","","","","","","","key","f","16.666533333332545","634.7107237914937","353.3884186109931","f","true","nonmatch","img/ellipse.png","弱我","强他","prac_ALT2_ability","practice_ability","","","","","","","","",""
"null","<span style='color:GreenYellow; font-size: 70px;'>正确! </span>","null","html-keyboard-response","65","649391","0.0-8.0-1.0-1.0-0.0-1.27","6","7","7","7","6","4","3","5","5","5","5","2","1","2","2","2","1","2","2","5","4","5","5","5","4","5","5","4","5","9","8","8","7","8","8","9","8","8","7","7","1","7","6","6","6","7","7","7","1","6","7","6","1","7","7","7","7","1","6","6","5","6","5","7","7","6","6","7","6","7","6","7","7","6","7","7","7","7","6","558332507964047360","刘","447","Male","[""好他"",""坏我"",""坏他"",""好我""]","[""强他"",""弱我"",""弱他"",""强我""]","","","","","","","","","","","","","","","","","","","","","","","","","","","","","","feedback_test","","","","","","","","",""
"1012","","j","psychophysics","66","651405","0.0-8.0-1.0-1.0-0.0-0.28","6","7","7","7","6","4","3","5","5","5","5","2","1","2","2","2","1","2","2","5","4","5","5","5","4","5","5","4","5","9","8","8","7","8","8","9","8","8","7","7","1","7","6","6","6","7","7","7","1","6","7","6","1","7","7","7","7","1","6","6","5","6","5","7","7","6","6","7","6","7","6","7","7","6","7","7","7","7","6","558332507964047360","刘","447","Male","[""好他"",""坏我"",""坏他"",""好我""]","[""强他"",""弱我"",""弱他"",""强我""]","","","","","","","","match","","","","","","","","","","key","j","16.667815126050186","634.7107237914937","353.3884186109931","j","true","match","img/diamond.png","强我","强我","prac_ALT2_ability","practice_ability","","","","","","","","",""
"null","<span style='color:GreenYellow; font-size: 70px;'>正确! </span>","null","html-keyboard-response","67","651906","0.0-8.0-1.0-1.0-0.0-1.28","6","7","7","7","6","4","3","5","5","5","5","2","1","2","2","2","1","2","2","5","4","5","5","5","4","5","5","4","5","9","8","8","7","8","8","9","8","8","7","7","1","7","6","6","6","7","7","7","1","6","7","6","1","7","7","7","7","1","6","6","5","6","5","7","7","6","6","7","6","7","6","7","7","6","7","7","7","7","6","558332507964047360","刘","447","Male","[""好他"",""坏我"",""坏他"",""好我""]","[""强他"",""弱我"",""弱他"",""强我""]","","","","","","","","","","","","","","","","","","","","","","","","","","","","","","feedback_test","","","","","","","","",""
"911","","f","psychophysics","68","653818","0.0-8.0-1.0-1.0-0.0-0.29","6","7","7","7","6","4","3","5","5","5","5","2","1","2","2","2","1","2","2","5","4","5","5","5","4","5","5","4","5","9","8","8","7","8","8","9","8","8","7","7","1","7","6","6","6","7","7","7","1","6","7","6","1","7","7","7","7","1","6","6","5","6","5","7","7","6","6","7","6","7","6","7","7","6","7","7","7","7","6","558332507964047360","刘","447","Male","[""好他"",""坏我"",""坏他"",""好我""]","[""强他"",""弱我"",""弱他"",""强我""]","","","","","","","","nonmatch","","","","","","","","","","key","f","16.668973684210837","634.7107237914937","353.3884186109931","f","true","nonmatch","img/hexagon.png","弱他","弱我","prac_ALT2_ability","practice_ability","","","","","","","","",""
"null","<span style='color:GreenYellow; font-size: 70px;'>正确! </span>","null","html-keyboard-response","69","654322","0.0-8.0-1.0-1.0-0.0-1.29","6","7","7","7","6","4","3","5","5","5","5","2","1","2","2","2","1","2","2","5","4","5","5","5","4","5","5","4","5","9","8","8","7","8","8","9","8","8","7","7","1","7","6","6","6","7","7","7","1","6","7","6","1","7","7","7","7","1","6","6","5","6","5","7","7","6","6","7","6","7","6","7","7","6","7","7","7","7","6","558332507964047360","刘","447","Male","[""好他"",""坏我"",""坏他"",""好我""]","[""强他"",""弱我"",""弱他"",""强我""]","","","","","","","","","","","","","","","","","","","","","","","","","","","","","","feedback_test","","","","","","","","",""
"891","","j","psychophysics","70","656214","0.0-8.0-1.0-1.0-0.0-0.30","6","7","7","7","6","4","3","5","5","5","5","2","1","2","2","2","1","2","2","5","4","5","5","5","4","5","5","4","5","9","8","8","7","8","8","9","8","8","7","7","1","7","6","6","6","7","7","7","1","6","7","6","1","7","7","7","7","1","6","6","5","6","5","7","7","6","6","7","6","7","6","7","7","6","7","7","7","7","6","558332507964047360","刘","447","Male","[""好他"",""坏我"",""坏他"",""好我""]","[""强他"",""弱我"",""弱他"",""强我""]","","","","","","","","match","","","","","","","","","","key","j","16.668026548672252","634.7107237914937","353.3884186109931","j","true","match","img/square.png","弱他","弱他","prac_ALT2_ability","practice_ability","","","","","","","","",""
"null","<span style='color:GreenYellow; font-size: 70px;'>正确! </span>","null","html-keyboard-response","71","656715","0.0-8.0-1.0-1.0-0.0-1.30","6","7","7","7","6","4","3","5","5","5","5","2","1","2","2","2","1","2","2","5","4","5","5","5","4","5","5","4","5","9","8","8","7","8","8","9","8","8","7","7","1","7","6","6","6","7","7","7","1","6","7","6","1","7","7","7","7","1","6","6","5","6","5","7","7","6","6","7","6","7","6","7","7","6","7","7","7","7","6","558332507964047360","刘","447","Male","[""好他"",""坏我"",""坏他"",""好我""]","[""强他"",""弱我"",""弱他"",""强我""]","","","","","","","","","","","","","","","","","","","","","","","","","","","","","","feedback_test","","","","","","","","",""
"948","","j","psychophysics","72","658665","0.0-8.0-1.0-1.0-0.0-0.31","6","7","7","7","6","4","3","5","5","5","5","2","1","2","2","2","1","2","2","5","4","5","5","5","4","5","5","4","5","9","8","8","7","8","8","9","8","8","7","7","1","7","6","6","6","7","7","7","1","6","7","6","1","7","7","7","7","1","6","6","5","6","5","7","7","6","6","7","6","7","6","7","7","6","7","7","7","7","6","558332507964047360","刘","447","Male","[""好他"",""坏我"",""坏他"",""好我""]","[""强他"",""弱我"",""弱他"",""强我""]","","","","","","","","match","","","","","","","","","","key","j","16.66464655172453","634.7107237914937","353.3884186109931","j","true","match","img/diamond.png","强我","强我","prac_ALT2_ability","practice_ability","","","","","","","","",""
"null","<span style='color:GreenYellow; font-size: 70px;'>正确! </span>","null","html-keyboard-response","73","659166","0.0-8.0-1.0-1.0-0.0-1.31","6","7","7","7","6","4","3","5","5","5","5","2","1","2","2","2","1","2","2","5","4","5","5","5","4","5","5","4","5","9","8","8","7","8","8","9","8","8","7","7","1","7","6","6","6","7","7","7","1","6","7","6","1","7","7","7","7","1","6","6","5","6","5","7","7","6","6","7","6","7","6","7","7","6","7","7","7","7","6","558332507964047360","刘","447","Male","[""好他"",""坏我"",""坏他"",""好我""]","[""强他"",""弱我"",""弱他"",""强我""]","","","","","","","","","","","","","","","","","","","","","","","","","","","","","","feedback_test","","","","","","","","",""
"892","","f","psychophysics","74","661059","0.0-8.0-1.0-1.0-0.0-0.32","6","7","7","7","6","4","3","5","5","5","5","2","1","2","2","2","1","2","2","5","4","5","5","5","4","5","5","4","5","9","8","8","7","8","8","9","8","8","7","7","1","7","6","6","6","7","7","7","1","6","7","6","1","7","7","7","7","1","6","6","5","6","5","7","7","6","6","7","6","7","6","7","7","6","7","7","7","7","6","558332507964047360","刘","447","Male","[""好他"",""坏我"",""坏他"",""好我""]","[""强他"",""弱我"",""弱他"",""强我""]","","","","","","","","nonmatch","","","","","","","","","","key","f","16.664371681416128","634.7107237914937","353.3884186109931","f","true","nonmatch","img/ellipse.png","强我","强他","prac_ALT2_ability","practice_ability","","","","","","","","",""
"null","<span style='color:GreenYellow; font-size: 70px;'>正确! </span>","null","html-keyboard-response","75","661560","0.0-8.0-1.0-1.0-0.0-1.32","6","7","7","7","6","4","3","5","5","5","5","2","1","2","2","2","1","2","2","5","4","5","5","5","4","5","5","4","5","9","8","8","7","8","8","9","8","8","7","7","1","7","6","6","6","7","7","7","1","6","7","6","1","7","7","7","7","1","6","6","5","6","5","7","7","6","6","7","6","7","6","7","7","6","7","7","7","7","6","558332507964047360","刘","447","Male","[""好他"",""坏我"",""坏他"",""好我""]","[""强他"",""弱我"",""弱他"",""强我""]","","","","","","","","","","","","","","","","","","","","","","","","","","","","","","feedback_test","","","","","","","","",""
"923","","f","psychophysics","76","663484","0.0-8.0-1.0-1.0-0.0-0.33","6","7","7","7","6","4","3","5","5","5","5","2","1","2","2","2","1","2","2","5","4","5","5","5","4","5","5","4","5","9","8","8","7","8","8","9","8","8","7","7","1","7","6","6","6","7","7","7","1","6","7","6","1","7","7","7","7","1","6","6","5","6","5","7","7","6","6","7","6","7","6","7","7","6","7","7","7","7","6","558332507964047360","刘","447","Male","[""好他"",""坏我"",""坏他"",""好我""]","[""强他"",""弱我"",""弱他"",""强我""]","","","","","","","","nonmatch","","","","","","","","","","key","f","16.66561403508776","634.7107237914937","353.3884186109931","f","true","nonmatch","img/diamond.png","弱他","强我","prac_ALT2_ability","practice_ability","","","","","","","","",""
"null","<span style='color:GreenYellow; font-size: 70px;'>正确! </span>","null","html-keyboard-response","77","663985","0.0-8.0-1.0-1.0-0.0-1.33","6","7","7","7","6","4","3","5","5","5","5","2","1","2","2","2","1","2","2","5","4","5","5","5","4","5","5","4","5","9","8","8","7","8","8","9","8","8","7","7","1","7","6","6","6","7","7","7","1","6","7","6","1","7","7","7","7","1","6","6","5","6","5","7","7","6","6","7","6","7","6","7","7","6","7","7","7","7","6","558332507964047360","刘","447","Male","[""好他"",""坏我"",""坏他"",""好我""]","[""强他"",""弱我"",""弱他"",""强我""]","","","","","","","","","","","","","","","","","","","","","","","","","","","","","","feedback_test","","","","","","","","",""
"614","","j","psychophysics","78","665601","0.0-8.0-1.0-1.0-0.0-0.34","6","7","7","7","6","4","3","5","5","5","5","2","1","2","2","2","1","2","2","5","4","5","5","5","4","5","5","4","5","9","8","8","7","8","8","9","8","8","7","7","1","7","6","6","6","7","7","7","1","6","7","6","1","7","7","7","7","1","6","6","5","6","5","7","7","6","6","7","6","7","6","7","7","6","7","7","7","7","6","558332507964047360","刘","447","Male","[""好他"",""坏我"",""坏他"",""好我""]","[""强他"",""弱我"",""弱他"",""强我""]","","","","","","","","match","","","","","","","","","","key","j","16.669468749999698","634.7107237914937","353.3884186109931","j","true","match","img/ellipse.png","强他","强他","prac_ALT2_ability","practice_ability","","","","","","","","",""
"null","<span style='color:GreenYellow; font-size: 70px;'>正确! </span>","null","html-keyboard-response","79","666102","0.0-8.0-1.0-1.0-0.0-1.34","6","7","7","7","6","4","3","5","5","5","5","2","1","2","2","2","1","2","2","5","4","5","5","5","4","5","5","4","5","9","8","8","7","8","8","9","8","8","7","7","1","7","6","6","6","7","7","7","1","6","7","6","1","7","7","7","7","1","6","6","5","6","5","7","7","6","6","7","6","7","6","7","7","6","7","7","7","7","6","558332507964047360","刘","447","Male","[""好他"",""坏我"",""坏他"",""好我""]","[""强他"",""弱我"",""弱他"",""强我""]","","","","","","","","","","","","","","","","","","","","","","","","","","","","","","feedback_test","","","","","","","","",""
"891","","j","psychophysics","80","667995","0.0-8.0-1.0-1.0-0.0-0.35","6","7","7","7","6","4","3","5","5","5","5","2","1","2","2","2","1","2","2","5","4","5","5","5","4","5","5","4","5","9","8","8","7","8","8","9","8","8","7","7","1","7","6","6","6","7","7","7","1","6","7","6","1","7","7","7","7","1","6","6","5","6","5","7","7","6","6","7","6","7","6","7","7","6","7","7","7","7","6","558332507964047360","刘","447","Male","[""好他"",""坏我"",""坏他"",""好我""]","[""强他"",""弱我"",""弱他"",""强我""]","","","","","","","","match","","","","","","","","","","key","j","16.66726548672629","634.7107237914937","353.3884186109931","j","true","match","img/diamond.png","强我","强我","prac_ALT2_ability","practice_ability","","","","","","","","",""
"null","<span style='color:GreenYellow; font-size: 70px;'>正确! </span>","null","html-keyboard-response","81","668496","0.0-8.0-1.0-1.0-0.0-1.35","6","7","7","7","6","4","3","5","5","5","5","2","1","2","2","2","1","2","2","5","4","5","5","5","4","5","5","4","5","9","8","8","7","8","8","9","8","8","7","7","1","7","6","6","6","7","7","7","1","6","7","6","1","7","7","7","7","1","6","6","5","6","5","7","7","6","6","7","6","7","6","7","7","6","7","7","7","7","6","558332507964047360","刘","447","Male","[""好他"",""坏我"",""坏他"",""好我""]","[""强他"",""弱我"",""弱他"",""强我""]","","","","","","","","","","","","","","","","","","","","","","","","","","","","","","feedback_test","","","","","","","","",""
"878","","f","psychophysics","82","670375","0.0-8.0-1.0-1.0-0.0-0.36","6","7","7","7","6","4","3","5","5","5","5","2","1","2","2","2","1","2","2","5","4","5","5","5","4","5","5","4","5","9","8","8","7","8","8","9","8","8","7","7","1","7","6","6","6","7","7","7","1","6","7","6","1","7","7","7","7","1","6","6","5","6","5","7","7","6","6","7","6","7","6","7","7","6","7","7","7","7","6","558332507964047360","刘","447","Male","[""好他"",""坏我"",""坏他"",""好我""]","[""强他"",""弱我"",""弱他"",""强我""]","","","","","","","","nonmatch","","","","","","","","","","key","f","16.66619642857092","634.7107237914937","353.3884186109931","f","true","nonmatch","img/hexagon.png","强他","弱我","prac_ALT2_ability","practice_ability","","","","","","","","",""
"null","<span style='color:GreenYellow; font-size: 70px;'>正确! </span>","null","html-keyboard-response","83","670876","0.0-8.0-1.0-1.0-0.0-1.36","6","7","7","7","6","4","3","5","5","5","5","2","1","2","2","2","1","2","2","5","4","5","5","5","4","5","5","4","5","9","8","8","7","8","8","9","8","8","7","7","1","7","6","6","6","7","7","7","1","6","7","6","1","7","7","7","7","1","6","6","5","6","5","7","7","6","6","7","6","7","6","7","7","6","7","7","7","7","6","558332507964047360","刘","447","Male","[""好他"",""坏我"",""坏他"",""好我""]","[""强他"",""弱我"",""弱他"",""强我""]","","","","","","","","","","","","","","","","","","","","","","","","","","","","","","feedback_test","","","","","","","","",""
"1124","","f","psychophysics","84","673002","0.0-8.0-1.0-1.0-0.0-0.37","6","7","7","7","6","4","3","5","5","5","5","2","1","2","2","2","1","2","2","5","4","5","5","5","4","5","5","4","5","9","8","8","7","8","8","9","8","8","7","7","1","7","6","6","6","7","7","7","1","6","7","6","1","7","7","7","7","1","6","6","5","6","5","7","7","6","6","7","6","7","6","7","7","6","7","7","7","7","6","558332507964047360","刘","447","Male","[""好他"",""坏我"",""坏他"",""好我""]","[""强他"",""弱我"",""弱他"",""强我""]","","","","","","","","nonmatch","","","","","","","","","","key","f","16.666158730158628","634.7107237914937","353.3884186109931","j","false","match","img/square.png","弱他","弱他","prac_ALT2_ability","practice_ability","","","","","","","","",""
"null","<span style='color:red; font-size: 70px;'>错误! </span>","null","html-keyboard-response","85","673503","0.0-8.0-1.0-1.0-0.0-1.37","6","7","7","7","6","4","3","5","5","5","5","2","1","2","2","2","1","2","2","5","4","5","5","5","4","5","5","4","5","9","8","8","7","8","8","9","8","8","7","7","1","7","6","6","6","7","7","7","1","6","7","6","1","7","7","7","7","1","6","6","5","6","5","7","7","6","6","7","6","7","6","7","7","6","7","7","7","7","6","558332507964047360","刘","447","Male","[""好他"",""坏我"",""坏他"",""好我""]","[""强他"",""弱我"",""弱他"",""强我""]","","","","","","","","","","","","","","","","","","","","","","","","","","","","","","feedback_test","","","","","","","","",""
"870","","f","psychophysics","86","675376","0.0-8.0-1.0-1.0-0.0-0.38","6","7","7","7","6","4","3","5","5","5","5","2","1","2","2","2","1","2","2","5","4","5","5","5","4","5","5","4","5","9","8","8","7","8","8","9","8","8","7","7","1","7","6","6","6","7","7","7","1","6","7","6","1","7","7","7","7","1","6","6","5","6","5","7","7","6","6","7","6","7","6","7","7","6","7","7","7","7","6","558332507964047360","刘","447","Male","[""好他"",""坏我"",""坏他"",""好我""]","[""强他"",""弱我"",""弱他"",""强我""]","","","","","","","","nonmatch","","","","","","","","","","key","f","16.670482142856468","634.7107237914937","353.3884186109931","f","true","nonmatch","img/square.png","强他","弱他","prac_ALT2_ability","practice_ability","","","","","","","","",""
"null","<span style='color:GreenYellow; font-size: 70px;'>正确! </span>","null","html-keyboard-response","87","675877","0.0-8.0-1.0-1.0-0.0-1.38","6","7","7","7","6","4","3","5","5","5","5","2","1","2","2","2","1","2","2","5","4","5","5","5","4","5","5","4","5","9","8","8","7","8","8","9","8","8","7","7","1","7","6","6","6","7","7","7","1","6","7","6","1","7","7","7","7","1","6","6","5","6","5","7","7","6","6","7","6","7","6","7","7","6","7","7","7","7","6","558332507964047360","刘","447","Male","[""好他"",""坏我"",""坏他"",""好我""]","[""强他"",""弱我"",""弱他"",""强我""]","","","","","","","","","","","","","","","","","","","","","","","","","","","","","","feedback_test","","","","","","","","",""
"null","","null","psychophysics","88","678079","0.0-8.0-1.0-1.0-0.0-0.39","6","7","7","7","6","4","3","5","5","5","5","2","1","2","2","2","1","2","2","5","4","5","5","5","4","5","5","4","5","9","8","8","7","8","8","9","8","8","7","7","1","7","6","6","6","7","7","7","1","6","7","6","1","7","7","7","7","1","6","6","5","6","5","7","7","6","6","7","6","7","6","7","7","6","7","7","7","7","6","558332507964047360","刘","447","Male","[""好他"",""坏我"",""坏他"",""好我""]","[""强他"",""弱我"",""弱他"",""强我""]","","","","","","","","null","","","","","","","","","","key","null","16.666022900763885","634.7107237914937","353.3884186109931","f","false","nonmatch","img/square.png","强我","弱他","prac_ALT2_ability","practice_ability","","","","","","","","",""
"null","<span class='add_' style='color:yellow; font-size: 70px;'> 太慢! </span>","null","html-keyboard-response","89","678581","0.0-8.0-1.0-1.0-0.0-1.39","6","7","7","7","6","4","3","5","5","5","5","2","1","2","2","2","1","2","2","5","4","5","5","5","4","5","5","4","5","9","8","8","7","8","8","9","8","8","7","7","1","7","6","6","6","7","7","7","1","6","7","6","1","7","7","7","7","1","6","6","5","6","5","7","7","6","6","7","6","7","6","7","7","6","7","7","7","7","6","558332507964047360","刘","447","Male","[""好他"",""坏我"",""坏他"",""好我""]","[""强他"",""弱我"",""弱他"",""强我""]","","","","","","","","","","","","","","","","","","","","","","","","","","","","","","feedback_test","","","","","","","","",""
"1007","","f","psychophysics","90","680588","0.0-8.0-1.0-1.0-0.0-0.40","6","7","7","7","6","4","3","5","5","5","5","2","1","2","2","2","1","2","2","5","4","5","5","5","4","5","5","4","5","9","8","8","7","8","8","9","8","8","7","7","1","7","6","6","6","7","7","7","1","6","7","6","1","7","7","7","7","1","6","6","5","6","5","7","7","6","6","7","6","7","6","7","7","6","7","7","7","7","6","558332507964047360","刘","447","Male","[""好他"",""坏我"",""坏他"",""好我""]","[""强他"",""弱我"",""弱他"",""强我""]","","","","","","","","nonmatch","","","","","","","","","","key","f","16.66868907563044","634.7107237914937","353.3884186109931","f","true","nonmatch","img/diamond.png","弱我","强我","prac_ALT2_ability","practice_ability","","","","","","","","",""
"null","<span style='color:GreenYellow; font-size: 70px;'>正确! </span>","null","html-keyboard-response","91","681089","0.0-8.0-1.0-1.0-0.0-1.40","6","7","7","7","6","4","3","5","5","5","5","2","1","2","2","2","1","2","2","5","4","5","5","5","4","5","5","4","5","9","8","8","7","8","8","9","8","8","7","7","1","7","6","6","6","7","7","7","1","6","7","6","1","7","7","7","7","1","6","6","5","6","5","7","7","6","6","7","6","7","6","7","7","6","7","7","7","7","6","558332507964047360","刘","447","Male","[""好他"",""坏我"",""坏他"",""好我""]","[""强他"",""弱我"",""弱他"",""强我""]","","","","","","","","","","","","","","","","","","","","","","","","","","","","","","feedback_test","","","","","","","","",""
"965","","f","psychophysics","92","683054","0.0-8.0-1.0-1.0-0.0-0.41","6","7","7","7","6","4","3","5","5","5","5","2","1","2","2","2","1","2","2","5","4","5","5","5","4","5","5","4","5","9","8","8","7","8","8","9","8","8","7","7","1","7","6","6","6","7","7","7","1","6","7","6","1","7","7","7","7","1","6","6","5","6","5","7","7","6","6","7","6","7","6","7","7","6","7","7","7","7","6","558332507964047360","刘","447","Male","[""好他"",""坏我"",""坏他"",""好我""]","[""强他"",""弱我"",""弱他"",""强我""]","","","","","","","","nonmatch","","","","","","","","","","key","f","16.65602586206936","634.7107237914937","353.3884186109931","f","true","nonmatch","img/square.png","弱我","弱他","prac_ALT2_ability","practice_ability","","","","","","","","",""
"null","<span style='color:GreenYellow; font-size: 70px;'>正确! </span>","null","html-keyboard-response","93","683555","0.0-8.0-1.0-1.0-0.0-1.41","6","7","7","7","6","4","3","5","5","5","5","2","1","2","2","2","1","2","2","5","4","5","5","5","4","5","5","4","5","9","8","8","7","8","8","9","8","8","7","7","1","7","6","6","6","7","7","7","1","6","7","6","1","7","7","7","7","1","6","6","5","6","5","7","7","6","6","7","6","7","6","7","7","6","7","7","7","7","6","558332507964047360","刘","447","Male","[""好他"",""坏我"",""坏他"",""好我""]","[""强他"",""弱我"",""弱他"",""强我""]","","","","","","","","","","","","","","","","","","","","","","","","","","","","","","feedback_test","","","","","","","","",""
"873","","j","psychophysics","94","685430","0.0-8.0-1.0-1.0-0.0-0.42","6","7","7","7","6","4","3","5","5","5","5","2","1","2","2","2","1","2","2","5","4","5","5","5","4","5","5","4","5","9","8","8","7","8","8","9","8","8","7","7","1","7","6","6","6","7","7","7","1","6","7","6","1","7","7","7","7","1","6","6","5","6","5","7","7","6","6","7","6","7","6","7","7","6","7","7","7","7","6","558332507964047360","刘","447","Male","[""好他"",""坏我"",""坏他"",""好我""]","[""强他"",""弱我"",""弱他"",""强我""]","","","","","","","","match","","","","","","","","","","key","j","16.667446428571047","634.7107237914937","353.3884186109931","f","false","nonmatch","img/diamond.png","强他","强我","prac_ALT2_ability","practice_ability","","","","","","","","",""
"null","<span style='color:red; font-size: 70px;'>错误! </span>","null","html-keyboard-response","95","685931","0.0-8.0-1.0-1.0-0.0-1.42","6","7","7","7","6","4","3","5","5","5","5","2","1","2","2","2","1","2","2","5","4","5","5","5","4","5","5","4","5","9","8","8","7","8","8","9","8","8","7","7","1","7","6","6","6","7","7","7","1","6","7","6","1","7","7","7","7","1","6","6","5","6","5","7","7","6","6","7","6","7","6","7","7","6","7","7","7","7","6","558332507964047360","刘","447","Male","[""好他"",""坏我"",""坏他"",""好我""]","[""强他"",""弱我"",""弱他"",""强我""]","","","","","","","","","","","","","","","","","","","","","","","","","","","","","","feedback_test","","","","","","","","",""
"1079","","f","psychophysics","96","688011","0.0-8.0-1.0-1.0-0.0-0.43","6","7","7","7","6","4","3","5","5","5","5","2","1","2","2","2","1","2","2","5","4","5","5","5","4","5","5","4","5","9","8","8","7","8","8","9","8","8","7","7","1","7","6","6","6","7","7","7","1","6","7","6","1","7","7","7","7","1","6","6","5","6","5","7","7","6","6","7","6","7","6","7","7","6","7","7","7","7","6","558332507964047360","刘","447","Male","[""好他"",""坏我"",""坏他"",""好我""]","[""强他"",""弱我"",""弱他"",""强我""]","","","","","","","","nonmatch","","","","","","","","","","key","f","16.66616935483856","634.7107237914937","353.3884186109931","j","false","match","img/hexagon.png","弱我","弱我","prac_ALT2_ability","practice_ability","","","","","","","","",""
"null","<span style='color:red; font-size: 70px;'>错误! </span>","null","html-keyboard-response","97","688512","0.0-8.0-1.0-1.0-0.0-1.43","6","7","7","7","6","4","3","5","5","5","5","2","1","2","2","2","1","2","2","5","4","5","5","5","4","5","5","4","5","9","8","8","7","8","8","9","8","8","7","7","1","7","6","6","6","7","7","7","1","6","7","6","1","7","7","7","7","1","6","6","5","6","5","7","7","6","6","7","6","7","6","7","7","6","7","7","7","7","6","558332507964047360","刘","447","Male","[""好他"",""坏我"",""坏他"",""好我""]","[""强他"",""弱我"",""弱他"",""强我""]","","","","","","","","","","","","","","","","","","","","","","","","","","","","","","feedback_test","","","","","","","","",""
"714","","j","psychophysics","98","690228","0.0-8.0-1.0-1.0-0.0-0.44","6","7","7","7","6","4","3","5","5","5","5","2","1","2","2","2","1","2","2","5","4","5","5","5","4","5","5","4","5","9","8","8","7","8","8","9","8","8","7","7","1","7","6","6","6","7","7","7","1","6","7","6","1","7","7","7","7","1","6","6","5","6","5","7","7","6","6","7","6","7","6","7","7","6","7","7","7","7","6","558332507964047360","刘","447","Male","[""好他"",""坏我"",""坏他"",""好我""]","[""强他"",""弱我"",""弱他"",""强我""]","","","","","","","","match","","","","","","","","","","key","j","16.668303921568782","634.7107237914937","353.3884186109931","j","true","match","img/ellipse.png","强他","强他","prac_ALT2_ability","practice_ability","","","","","","","","",""
"null","<span style='color:GreenYellow; font-size: 70px;'>正确! </span>","null","html-keyboard-response","99","690728","0.0-8.0-1.0-1.0-0.0-1.44","6","7","7","7","6","4","3","5","5","5","5","2","1","2","2","2","1","2","2","5","4","5","5","5","4","5","5","4","5","9","8","8","7","8","8","9","8","8","7","7","1","7","6","6","6","7","7","7","1","6","7","6","1","7","7","7","7","1","6","6","5","6","5","7","7","6","6","7","6","7","6","7","7","6","7","7","7","7","6","558332507964047360","刘","447","Male","[""好他"",""坏我"",""坏他"",""好我""]","[""强他"",""弱我"",""弱他"",""强我""]","","","","","","","","","","","","","","","","","","","","","","","","","","","","","","feedback_test","","","","","","","","",""
"878","","j","psychophysics","100","692607","0.0-8.0-1.0-1.0-0.0-0.45","6","7","7","7","6","4","3","5","5","5","5","2","1","2","2","2","1","2","2","5","4","5","5","5","4","5","5","4","5","9","8","8","7","8","8","9","8","8","7","7","1","7","6","6","6","7","7","7","1","6","7","6","1","7","7","7","7","1","6","6","5","6","5","7","7","6","6","7","6","7","6","7","7","6","7","7","7","7","6","558332507964047360","刘","447","Male","[""好他"",""坏我"",""坏他"",""好我""]","[""强他"",""弱我"",""弱他"",""强我""]","","","","","","","","match","","","","","","","","","","key","j","16.66483783783802","634.7107237914937","353.3884186109931","j","true","match","img/hexagon.png","弱我","弱我","prac_ALT2_ability","practice_ability","","","","","","","","",""
"null","<span style='color:GreenYellow; font-size: 70px;'>正确! </span>","null","html-keyboard-response","101","693109","0.0-8.0-1.0-1.0-0.0-1.45","6","7","7","7","6","4","3","5","5","5","5","2","1","2","2","2","1","2","2","5","4","5","5","5","4","5","5","4","5","9","8","8","7","8","8","9","8","8","7","7","1","7","6","6","6","7","7","7","1","6","7","6","1","7","7","7","7","1","6","6","5","6","5","7","7","6","6","7","6","7","6","7","7","6","7","7","7","7","6","558332507964047360","刘","447","Male","[""好他"",""坏我"",""坏他"",""好我""]","[""强他"",""弱我"",""弱他"",""强我""]","","","","","","","","","","","","","","","","","","","","","","","","","","","","","","feedback_test","","","","","","","","",""
"958","","f","psychophysics","102","695069","0.0-8.0-1.0-1.0-0.0-0.46","6","7","7","7","6","4","3","5","5","5","5","2","1","2","2","2","1","2","2","5","4","5","5","5","4","5","5","4","5","9","8","8","7","8","8","9","8","8","7","7","1","7","6","6","6","7","7","7","1","6","7","6","1","7","7","7","7","1","6","6","5","6","5","7","7","6","6","7","6","7","6","7","7","6","7","7","7","7","6","558332507964047360","刘","447","Male","[""好他"",""坏我"",""坏他"",""好我""]","[""强他"",""弱我"",""弱他"",""强我""]","","","","","","","","nonmatch","","","","","","","","","","key","f","16.66454310344777","634.7107237914937","353.3884186109931","f","true","nonmatch","img/ellipse.png","弱他","强他","prac_ALT2_ability","practice_ability","","","","","","","","",""
"null","<span style='color:GreenYellow; font-size: 70px;'>正确! </span>","null","html-keyboard-response","103","695570","0.0-8.0-1.0-1.0-0.0-1.46","6","7","7","7","6","4","3","5","5","5","5","2","1","2","2","2","1","2","2","5","4","5","5","5","4","5","5","4","5","9","8","8","7","8","8","9","8","8","7","7","1","7","6","6","6","7","7","7","1","6","7","6","1","7","7","7","7","1","6","6","5","6","5","7","7","6","6","7","6","7","6","7","7","6","7","7","7","7","6","558332507964047360","刘","447","Male","[""好他"",""坏我"",""坏他"",""好我""]","[""强他"",""弱我"",""弱他"",""强我""]","","","","","","","","","","","","","","","","","","","","","","","","","","","","","","feedback_test","","","","","","","","",""
"1040","","f","psychophysics","104","697610","0.0-8.0-1.0-1.0-0.0-0.47","6","7","7","7","6","4","3","5","5","5","5","2","1","2","2","2","1","2","2","5","4","5","5","5","4","5","5","4","5","9","8","8","7","8","8","9","8","8","7","7","1","7","6","6","6","7","7","7","1","6","7","6","1","7","7","7","7","1","6","6","5","6","5","7","7","6","6","7","6","7","6","7","7","6","7","7","7","7","6","558332507964047360","刘","447","Male","[""好他"",""坏我"",""坏他"",""好我""]","[""强他"",""弱我"",""弱他"",""强我""]","","","","","","","","nonmatch","","","","","","","","","","key","f","16.666893442623227","634.7107237914937","353.3884186109931","j","false","match","img/ellipse.png","强他","强他","prac_ALT2_ability","practice_ability","","","","","","","","",""
"null","<span style='color:red; font-size: 70px;'>错误! </span>","null","html-keyboard-response","105","698111","0.0-8.0-1.0-1.0-0.0-1.47","6","7","7","7","6","4","3","5","5","5","5","2","1","2","2","2","1","2","2","5","4","5","5","5","4","5","5","4","5","9","8","8","7","8","8","9","8","8","7","7","1","7","6","6","6","7","7","7","1","6","7","6","1","7","7","7","7","1","6","6","5","6","5","7","7","6","6","7","6","7","6","7","7","6","7","7","7","7","6","558332507964047360","刘","447","Male","[""好他"",""坏我"",""坏他"",""好我""]","[""强他"",""弱我"",""弱他"",""强我""]","","","","","","","","","","","","","","","","","","","","","","","","","","","","","","feedback_test","","","","","","","","",""
"46416","<style>.context{color:white; font-size: 35px; line-height:40px}</style>                          <div><p class='context'>您正确回答了77% 的试次。</p><p class='context'>您的平均反应时为896毫秒。</p><p class='context'>恭喜您完成练习。按空格键进入正式实验。</p><p class='footer' style='color:white;font-size: 35px; line-height:40px;'>请在进入正式实验实验之前将您的<span style='color: lightgreen;'>食指</span>放在电脑键盘的相应键位上进行按键。</p>"," ","html-keyboard-response","106","744528","0.0-8.0-1.0-2.0","6","7","7","7","6","4","3","5","5","5","5","2","1","2","2","2","1","2","2","5","4","5","5","5","4","5","5","4","5","9","8","8","7","8","8","9","8","8","7","7","1","7","6","6","6","7","7","7","1","6","7","6","1","7","7","7","7","1","6","6","5","6","5","7","7","6","6","7","6","7","6","7","7","6","7","7","7","7","6","558332507964047360","刘","447","Male","[""好他"",""坏我"",""坏他"",""好我""]","[""强他"",""弱我"",""弱他"",""强我""]","","","","","","","","","","","","","","","","","","","","","","","","","","","","","","","","","","","","","","",""
"1013","
  <p style='color: white; font-size: 22px'>请您将手指放在按键上，准备进入正式的匹配任务。</p>
  <p> <div style = ""color: green""><按空格键进入下一阶段的匹配任务></div></p>
  "," ","html-keyboard-response","107","745543","0.0-8.0-1.0-3.0","6","7","7","7","6","4","3","5","5","5","5","2","1","2","2","2","1","2","2","5","4","5","5","5","4","5","5","4","5","9","8","8","7","8","8","9","8","8","7","7","1","7","6","6","6","7","7","7","1","6","7","6","1","7","7","7","7","1","6","6","5","6","5","7","7","6","6","7","6","7","6","7","7","6","7","7","7","7","6","558332507964047360","刘","447","Male","[""好他"",""坏我"",""坏他"",""好我""]","[""强他"",""弱我"",""弱他"",""强我""]","","","","","","","","","","","","","","","","","","","","","","","","","","","","","","","","","","","","","","",""
"1165","","f","psychophysics","108","747709","0.0-8.0-1.0-4.0-0.0-0.0","6","7","7","7","6","4","3","5","5","5","5","2","1","2","2","2","1","2","2","5","4","5","5","5","4","5","5","4","5","9","8","8","7","8","8","9","8","8","7","7","1","7","6","6","6","7","7","7","1","6","7","6","1","7","7","7","7","1","6","6","5","6","5","7","7","6","6","7","6","7","6","7","7","6","7","7","7","7","6","558332507964047360","刘","447","Male","[""好他"",""坏我"",""坏他"",""好我""]","[""强他"",""弱我"",""弱他"",""强我""]","","","","","","","","nonmatch","","","","","","","","","","key","f","16.66486046511622","634.7107237914937","353.3884186109931","j","false","match","img/hexagon.png","弱我","弱我","ALT2","ability","","","","","","","","",""
"null","<span style='color:red; font-size: 70px;'>错误! </span>","null","html-keyboard-response","109","748210","0.0-8.0-1.0-4.0-0.0-1.0","6","7","7","7","6","4","3","5","5","5","5","2","1","2","2","2","1","2","2","5","4","5","5","5","4","5","5","4","5","9","8","8","7","8","8","9","8","8","7","7","1","7","6","6","6","7","7","7","1","6","7","6","1","7","7","7","7","1","6","6","5","6","5","7","7","6","6","7","6","7","6","7","7","6","7","7","7","7","6","558332507964047360","刘","447","Male","[""好他"",""坏我"",""坏他"",""好我""]","[""强他"",""弱我"",""弱他"",""强我""]","","","","","","","","","","","","","","","","","","","","","","","","","","","","","","feedback_test","","","","","","","","",""
"716","","j","psychophysics","110","749927","0.0-8.0-1.0-4.0-0.0-0.1","6","7","7","7","6","4","3","5","5","5","5","2","1","2","2","2","1","2","2","5","4","5","5","5","4","5","5","4","5","9","8","8","7","8","8","9","8","8","7","7","1","7","6","6","6","7","7","7","1","6","7","6","1","7","7","7","7","1","6","6","5","6","5","7","7","6","6","7","6","7","6","7","7","6","7","7","7","7","6","558332507964047360","刘","447","Male","[""好他"",""坏我"",""坏他"",""好我""]","[""强他"",""弱我"",""弱他"",""强我""]","","","","","","","","match","","","","","","","","","","key","j","16.663941176471244","634.7107237914937","353.3884186109931","j","true","match","img/hexagon.png","弱我","弱我","ALT2","ability","","","","","","","","",""
"null","<span style='color:GreenYellow; font-size: 70px;'>正确! </span>","null","html-keyboard-response","111","750428","0.0-8.0-1.0-4.0-0.0-1.1","6","7","7","7","6","4","3","5","5","5","5","2","1","2","2","2","1","2","2","5","4","5","5","5","4","5","5","4","5","9","8","8","7","8","8","9","8","8","7","7","1","7","6","6","6","7","7","7","1","6","7","6","1","7","7","7","7","1","6","6","5","6","5","7","7","6","6","7","6","7","6","7","7","6","7","7","7","7","6","558332507964047360","刘","447","Male","[""好他"",""坏我"",""坏他"",""好我""]","[""强他"",""弱我"",""弱他"",""强我""]","","","","","","","","","","","","","","","","","","","","","","","","","","","","","","feedback_test","","","","","","","","",""
"792","","f","psychophysics","112","752221","0.0-8.0-1.0-4.0-0.0-0.2","6","7","7","7","6","4","3","5","5","5","5","2","1","2","2","2","1","2","2","5","4","5","5","5","4","5","5","4","5","9","8","8","7","8","8","9","8","8","7","7","1","7","6","6","6","7","7","7","1","6","7","6","1","7","7","7","7","1","6","6","5","6","5","7","7","6","6","7","6","7","6","7","7","6","7","7","7","7","6","558332507964047360","刘","447","Male","[""好他"",""坏我"",""坏他"",""好我""]","[""强他"",""弱我"",""弱他"",""强我""]","","","","","","","","nonmatch","","","","","","","","","","key","f","16.666198113208356","634.7107237914937","353.3884186109931","f","true","nonmatch","img/hexagon.png","强他","弱我","ALT2","ability","","","","","","","","",""
"null","<span style='color:GreenYellow; font-size: 70px;'>正确! </span>","null","html-keyboard-response","113","752722","0.0-8.0-1.0-4.0-0.0-1.2","6","7","7","7","6","4","3","5","5","5","5","2","1","2","2","2","1","2","2","5","4","5","5","5","4","5","5","4","5","9","8","8","7","8","8","9","8","8","7","7","1","7","6","6","6","7","7","7","1","6","7","6","1","7","7","7","7","1","6","6","5","6","5","7","7","6","6","7","6","7","6","7","7","6","7","7","7","7","6","558332507964047360","刘","447","Male","[""好他"",""坏我"",""坏他"",""好我""]","[""强他"",""弱我"",""弱他"",""强我""]","","","","","","","","","","","","","","","","","","","","","","","","","","","","","","feedback_test","","","","","","","","",""
"732","","j","psychophysics","114","754456","0.0-8.0-1.0-4.0-0.0-0.3","6","7","7","7","6","4","3","5","5","5","5","2","1","2","2","2","1","2","2","5","4","5","5","5","4","5","5","4","5","9","8","8","7","8","8","9","8","8","7","7","1","7","6","6","6","7","7","7","1","6","7","6","1","7","7","7","7","1","6","6","5","6","5","7","7","6","6","7","6","7","6","7","7","6","7","7","7","7","6","558332507964047360","刘","447","Male","[""好他"",""坏我"",""坏他"",""好我""]","[""强他"",""弱我"",""弱他"",""强我""]","","","","","","","","match","","","","","","","","","","key","j","16.666029411765255","634.7107237914937","353.3884186109931","j","true","match","img/diamond.png","强我","强我","ALT2","ability","","","","","","","","",""
"null","<span style='color:GreenYellow; font-size: 70px;'>正确! </span>","null","html-keyboard-response","115","754957","0.0-8.0-1.0-4.0-0.0-1.3","6","7","7","7","6","4","3","5","5","5","5","2","1","2","2","2","1","2","2","5","4","5","5","5","4","5","5","4","5","9","8","8","7","8","8","9","8","8","7","7","1","7","6","6","6","7","7","7","1","6","7","6","1","7","7","7","7","1","6","6","5","6","5","7","7","6","6","7","6","7","6","7","7","6","7","7","7","7","6","558332507964047360","刘","447","Male","[""好他"",""坏我"",""坏他"",""好我""]","[""强他"",""弱我"",""弱他"",""强我""]","","","","","","","","","","","","","","","","","","","","","","","","","","","","","","feedback_test","","","","","","","","",""
"738","","f","psychophysics","116","756696","0.0-8.0-1.0-4.0-0.0-0.4","6","7","7","7","6","4","3","5","5","5","5","2","1","2","2","2","1","2","2","5","4","5","5","5","4","5","5","4","5","9","8","8","7","8","8","9","8","8","7","7","1","7","6","6","6","7","7","7","1","6","7","6","1","7","7","7","7","1","6","6","5","6","5","7","7","6","6","7","6","7","6","7","7","6","7","7","7","7","6","558332507964047360","刘","447","Male","[""好他"",""坏我"",""坏他"",""好我""]","[""强他"",""弱我"",""弱他"",""强我""]","","","","","","","","nonmatch","","","","","","","","","","key","f","16.664126213592503","634.7107237914937","353.3884186109931","f","true","nonmatch","img/square.png","强他","弱他","ALT2","ability","","","","","","","","",""
"null","<span style='color:GreenYellow; font-size: 70px;'>正确! </span>","null","html-keyboard-response","117","757196","0.0-8.0-1.0-4.0-0.0-1.4","6","7","7","7","6","4","3","5","5","5","5","2","1","2","2","2","1","2","2","5","4","5","5","5","4","5","5","4","5","9","8","8","7","8","8","9","8","8","7","7","1","7","6","6","6","7","7","7","1","6","7","6","1","7","7","7","7","1","6","6","5","6","5","7","7","6","6","7","6","7","6","7","7","6","7","7","7","7","6","558332507964047360","刘","447","Male","[""好他"",""坏我"",""坏他"",""好我""]","[""强他"",""弱我"",""弱他"",""强我""]","","","","","","","","","","","","","","","","","","","","","","","","","","","","","","feedback_test","","","","","","","","",""
"776","","j","psychophysics","118","758974","0.0-8.0-1.0-4.0-0.0-0.5","6","7","7","7","6","4","3","5","5","5","5","2","1","2","2","2","1","2","2","5","4","5","5","5","4","5","5","4","5","9","8","8","7","8","8","9","8","8","7","7","1","7","6","6","6","7","7","7","1","6","7","6","1","7","7","7","7","1","6","6","5","6","5","7","7","6","6","7","6","7","6","7","7","6","7","7","7","7","6","558332507964047360","刘","447","Male","[""好他"",""坏我"",""坏他"",""好我""]","[""强他"",""弱我"",""弱他"",""强我""]","","","","","","","","match","","","","","","","","","","key","j","16.6668113207539","634.7107237914937","353.3884186109931","j","true","match","img/ellipse.png","强他","强他","ALT2","ability","","","","","","","","",""
"null","<span style='color:GreenYellow; font-size: 70px;'>正确! </span>","null","html-keyboard-response","119","759475","0.0-8.0-1.0-4.0-0.0-1.5","6","7","7","7","6","4","3","5","5","5","5","2","1","2","2","2","1","2","2","5","4","5","5","5","4","5","5","4","5","9","8","8","7","8","8","9","8","8","7","7","1","7","6","6","6","7","7","7","1","6","7","6","1","7","7","7","7","1","6","6","5","6","5","7","7","6","6","7","6","7","6","7","7","6","7","7","7","7","6","558332507964047360","刘","447","Male","[""好他"",""坏我"",""坏他"",""好我""]","[""强他"",""弱我"",""弱他"",""强我""]","","","","","","","","","","","","","","","","","","","","","","","","","","","","","","feedback_test","","","","","","","","",""
"937","","f","psychophysics","120","761413","0.0-8.0-1.0-4.0-0.0-0.6","6","7","7","7","6","4","3","5","5","5","5","2","1","2","2","2","1","2","2","5","4","5","5","5","4","5","5","4","5","9","8","8","7","8","8","9","8","8","7","7","1","7","6","6","6","7","7","7","1","6","7","6","1","7","7","7","7","1","6","6","5","6","5","7","7","6","6","7","6","7","6","7","7","6","7","7","7","7","6","558332507964047360","刘","447","Male","[""好他"",""坏我"",""坏他"",""好我""]","[""强他"",""弱我"",""弱他"",""强我""]","","","","","","","","nonmatch","","","","","","","","","","key","f","16.663600000000113","634.7107237914937","353.3884186109931","j","false","match","img/square.png","弱他","弱他","ALT2","ability","","","","","","","","",""
"null","<span style='color:red; font-size: 70px;'>错误! </span>","null","html-keyboard-response","121","761914","0.0-8.0-1.0-4.0-0.0-1.6","6","7","7","7","6","4","3","5","5","5","5","2","1","2","2","2","1","2","2","5","4","5","5","5","4","5","5","4","5","9","8","8","7","8","8","9","8","8","7","7","1","7","6","6","6","7","7","7","1","6","7","6","1","7","7","7","7","1","6","6","5","6","5","7","7","6","6","7","6","7","6","7","7","6","7","7","7","7","6","558332507964047360","刘","447","Male","[""好他"",""坏我"",""坏他"",""好我""]","[""强他"",""弱我"",""弱他"",""强我""]","","","","","","","","","","","","","","","","","","","","","","","","","","","","","","feedback_test","","","","","","","","",""
"589","","j","psychophysics","122","763503","0.0-8.0-1.0-4.0-0.0-0.7","6","7","7","7","6","4","3","5","5","5","5","2","1","2","2","2","1","2","2","5","4","5","5","5","4","5","5","4","5","9","8","8","7","8","8","9","8","8","7","7","1","7","6","6","6","7","7","7","1","6","7","6","1","7","7","7","7","1","6","6","5","6","5","7","7","6","6","7","6","7","6","7","7","6","7","7","7","7","6","558332507964047360","刘","447","Male","[""好他"",""坏我"",""坏他"",""好我""]","[""强他"",""弱我"",""弱他"",""强我""]","","","","","","","","match","","","","","","","","","","key","j","16.667063829786283","634.7107237914937","353.3884186109931","j","true","match","img/diamond.png","强我","强我","ALT2","ability","","","","","","","","",""
"null","<span style='color:GreenYellow; font-size: 70px;'>正确! </span>","null","html-keyboard-response","123","764004","0.0-8.0-1.0-4.0-0.0-1.7","6","7","7","7","6","4","3","5","5","5","5","2","1","2","2","2","1","2","2","5","4","5","5","5","4","5","5","4","5","9","8","8","7","8","8","9","8","8","7","7","1","7","6","6","6","7","7","7","1","6","7","6","1","7","7","7","7","1","6","6","5","6","5","7","7","6","6","7","6","7","6","7","7","6","7","7","7","7","6","558332507964047360","刘","447","Male","[""好他"",""坏我"",""坏他"",""好我""]","[""强他"",""弱我"",""弱他"",""强我""]","","","","","","","","","","","","","","","","","","","","","","","","","","","","","","feedback_test","","","","","","","","",""
"838","","j","psychophysics","124","765843","0.0-8.0-1.0-4.0-0.0-0.8","6","7","7","7","6","4","3","5","5","5","5","2","1","2","2","2","1","2","2","5","4","5","5","5","4","5","5","4","5","9","8","8","7","8","8","9","8","8","7","7","1","7","6","6","6","7","7","7","1","6","7","6","1","7","7","7","7","1","6","6","5","6","5","7","7","6","6","7","6","7","6","7","7","6","7","7","7","7","6","558332507964047360","刘","447","Male","[""好他"",""坏我"",""坏他"",""好我""]","[""强他"",""弱我"",""弱他"",""强我""]","","","","","","","","match","","","","","","","","","","key","j","16.668781818181742","634.7107237914937","353.3884186109931","f","false","nonmatch","img/hexagon.png","强我","弱我","ALT2","ability","","","","","","","","",""
"null","<span style='color:red; font-size: 70px;'>错误! </span>","null","html-keyboard-response","125","766345","0.0-8.0-1.0-4.0-0.0-1.8","6","7","7","7","6","4","3","5","5","5","5","2","1","2","2","2","1","2","2","5","4","5","5","5","4","5","5","4","5","9","8","8","7","8","8","9","8","8","7","7","1","7","6","6","6","7","7","7","1","6","7","6","1","7","7","7","7","1","6","6","5","6","5","7","7","6","6","7","6","7","6","7","7","6","7","7","7","7","6","558332507964047360","刘","447","Male","[""好他"",""坏我"",""坏他"",""好我""]","[""强他"",""弱我"",""弱他"",""强我""]","","","","","","","","","","","","","","","","","","","","","","","","","","","","","","feedback_test","","","","","","","","",""
"null","","null","psychophysics","126","768546","0.0-8.0-1.0-4.0-0.0-0.9","6","7","7","7","6","4","3","5","5","5","5","2","1","2","2","2","1","2","2","5","4","5","5","5","4","5","5","4","5","9","8","8","7","8","8","9","8","8","7","7","1","7","6","6","6","7","7","7","1","6","7","6","1","7","7","7","7","1","6","6","5","6","5","7","7","6","6","7","6","7","6","7","7","6","7","7","7","7","6","558332507964047360","刘","447","Male","[""好他"",""坏我"",""坏他"",""好我""]","[""强他"",""弱我"",""弱他"",""强我""]","","","","","","","","null","","","","","","","","","","key","null","16.665778625954676","634.7107237914937","353.3884186109931","j","false","match","img/hexagon.png","弱我","弱我","ALT2","ability","","","","","","","","",""
"null","<span class='add_' style='color:yellow; font-size: 70px;'> 太慢! </span>","null","html-keyboard-response","127","769047","0.0-8.0-1.0-4.0-0.0-1.9","6","7","7","7","6","4","3","5","5","5","5","2","1","2","2","2","1","2","2","5","4","5","5","5","4","5","5","4","5","9","8","8","7","8","8","9","8","8","7","7","1","7","6","6","6","7","7","7","1","6","7","6","1","7","7","7","7","1","6","6","5","6","5","7","7","6","6","7","6","7","6","7","7","6","7","7","7","7","6","558332507964047360","刘","447","Male","[""好他"",""坏我"",""坏他"",""好我""]","[""强他"",""弱我"",""弱他"",""强我""]","","","","","","","","","","","","","","","","","","","","","","","","","","","","","","feedback_test","","","","","","","","",""
"443","","j","psychophysics","128","770491","0.0-8.0-1.0-4.0-0.0-0.10","6","7","7","7","6","4","3","5","5","5","5","2","1","2","2","2","1","2","2","5","4","5","5","5","4","5","5","4","5","9","8","8","7","8","8","9","8","8","7","7","1","7","6","6","6","7","7","7","1","6","7","6","1","7","7","7","7","1","6","6","5","6","5","7","7","6","6","7","6","7","6","7","7","6","7","7","7","7","6","558332507964047360","刘","447","Male","[""好他"",""坏我"",""坏他"",""好我""]","[""强他"",""弱我"",""弱他"",""强我""]","","","","","","","","match","","","","","","","","","","key","j","16.665267441860337","634.7107237914937","353.3884186109931","f","false","nonmatch","img/ellipse.png","强我","强他","ALT2","ability","","","","","","","","",""
"null","<span style='color:red; font-size: 70px;'>错误! </span>","null","html-keyboard-response","129","770993","0.0-8.0-1.0-4.0-0.0-1.10","6","7","7","7","6","4","3","5","5","5","5","2","1","2","2","2","1","2","2","5","4","5","5","5","4","5","5","4","5","9","8","8","7","8","8","9","8","8","7","7","1","7","6","6","6","7","7","7","1","6","7","6","1","7","7","7","7","1","6","6","5","6","5","7","7","6","6","7","6","7","6","7","7","6","7","7","7","7","6","558332507964047360","刘","447","Male","[""好他"",""坏我"",""坏他"",""好我""]","[""强他"",""弱我"",""弱他"",""强我""]","","","","","","","","","","","","","","","","","","","","","","","","","","","","","","feedback_test","","","","","","","","",""
"807","","j","psychophysics","130","772801","0.0-8.0-1.0-4.0-0.0-0.11","6","7","7","7","6","4","3","5","5","5","5","2","1","2","2","2","1","2","2","5","4","5","5","5","4","5","5","4","5","9","8","8","7","8","8","9","8","8","7","7","1","7","6","6","6","7","7","7","1","6","7","6","1","7","7","7","7","1","6","6","5","6","5","7","7","6","6","7","6","7","6","7","7","6","7","7","7","7","6","558332507964047360","刘","447","Male","[""好他"",""坏我"",""坏他"",""好我""]","[""强他"",""弱我"",""弱他"",""强我""]","","","","","","","","match","","","","","","","","","","key","j","16.66628971962676","634.7107237914937","353.3884186109931","f","false","nonmatch","img/ellipse.png","弱他","强他","ALT2","ability","","","","","","","","",""
"null","<span style='color:red; font-size: 70px;'>错误! </span>","null","html-keyboard-response","131","773301","0.0-8.0-1.0-4.0-0.0-1.11","6","7","7","7","6","4","3","5","5","5","5","2","1","2","2","2","1","2","2","5","4","5","5","5","4","5","5","4","5","9","8","8","7","8","8","9","8","8","7","7","1","7","6","6","6","7","7","7","1","6","7","6","1","7","7","7","7","1","6","6","5","6","5","7","7","6","6","7","6","7","6","7","7","6","7","7","7","7","6","558332507964047360","刘","447","Male","[""好他"",""坏我"",""坏他"",""好我""]","[""强他"",""弱我"",""弱他"",""强我""]","","","","","","","","","","","","","","","","","","","","","","","","","","","","","","feedback_test","","","","","","","","",""
"1041","","f","psychophysics","132","775344","0.0-8.0-1.0-4.0-0.0-0.12","6","7","7","7","6","4","3","5","5","5","5","2","1","2","2","2","1","2","2","5","4","5","5","5","4","5","5","4","5","9","8","8","7","8","8","9","8","8","7","7","1","7","6","6","6","7","7","7","1","6","7","6","1","7","7","7","7","1","6","6","5","6","5","7","7","6","6","7","6","7","6","7","7","6","7","7","7","7","6","558332507964047360","刘","447","Male","[""好他"",""坏我"",""坏他"",""好我""]","[""强他"",""弱我"",""弱他"",""强我""]","","","","","","","","nonmatch","","","","","","","","","","key","f","16.667081967213758","634.7107237914937","353.3884186109931","f","true","nonmatch","img/ellipse.png","弱我","强他","ALT2","ability","","","","","","","","",""
"null","<span style='color:GreenYellow; font-size: 70px;'>正确! </span>","null","html-keyboard-response","133","775845","0.0-8.0-1.0-4.0-0.0-1.12","6","7","7","7","6","4","3","5","5","5","5","2","1","2","2","2","1","2","2","5","4","5","5","5","4","5","5","4","5","9","8","8","7","8","8","9","8","8","7","7","1","7","6","6","6","7","7","7","1","6","7","6","1","7","7","7","7","1","6","6","5","6","5","7","7","6","6","7","6","7","6","7","7","6","7","7","7","7","6","558332507964047360","刘","447","Male","[""好他"",""坏我"",""坏他"",""好我""]","[""强他"",""弱我"",""弱他"",""强我""]","","","","","","","","","","","","","","","","","","","","","","","","","","","","","","feedback_test","","","","","","","","",""
"715","","f","psychophysics","134","777561","0.0-8.0-1.0-4.0-0.0-0.13","6","7","7","7","6","4","3","5","5","5","5","2","1","2","2","2","1","2","2","5","4","5","5","5","4","5","5","4","5","9","8","8","7","8","8","9","8","8","7","7","1","7","6","6","6","7","7","7","1","6","7","6","1","7","7","7","7","1","6","6","5","6","5","7","7","6","6","7","6","7","6","7","7","6","7","7","7","7","6","558332507964047360","刘","447","Male","[""好他"",""坏我"",""坏他"",""好我""]","[""强他"",""弱我"",""弱他"",""强我""]","","","","","","","","nonmatch","","","","","","","","","","key","f","16.666088235294037","634.7107237914937","353.3884186109931","j","false","match","img/square.png","弱他","弱他","ALT2","ability","","","","","","","","",""
"null","<span style='color:red; font-size: 70px;'>错误! </span>","null","html-keyboard-response","135","778062","0.0-8.0-1.0-4.0-0.0-1.13","6","7","7","7","6","4","3","5","5","5","5","2","1","2","2","2","1","2","2","5","4","5","5","5","4","5","5","4","5","9","8","8","7","8","8","9","8","8","7","7","1","7","6","6","6","7","7","7","1","6","7","6","1","7","7","7","7","1","6","6","5","6","5","7","7","6","6","7","6","7","6","7","7","6","7","7","7","7","6","558332507964047360","刘","447","Male","[""好他"",""坏我"",""坏他"",""好我""]","[""强他"",""弱我"",""弱他"",""强我""]","","","","","","","","","","","","","","","","","","","","","","","","","","","","","","feedback_test","","","","","","","","",""
"607","","j","psychophysics","136","779670","0.0-8.0-1.0-4.0-0.0-0.14","6","7","7","7","6","4","3","5","5","5","5","2","1","2","2","2","1","2","2","5","4","5","5","5","4","5","5","4","5","9","8","8","7","8","8","9","8","8","7","7","1","7","6","6","6","7","7","7","1","6","7","6","1","7","7","7","7","1","6","6","5","6","5","7","7","6","6","7","6","7","6","7","7","6","7","7","7","7","6","558332507964047360","刘","447","Male","[""好他"",""坏我"",""坏他"",""好我""]","[""强他"",""弱我"",""弱他"",""强我""]","","","","","","","","match","","","","","","","","","","key","j","16.665505263157876","634.7107237914937","353.3884186109931","j","true","match","img/ellipse.png","强他","强他","ALT2","ability","","","","","","","","",""
