"rt","stimulus","response","trial_type","trial_index","time_elapsed","internal_node_id","swb_1","swb_2","swb_3","swb_4","swb_5","LOT_1","LOT_2","LOT_3","LOT_4","LOT_5","LOT_6","IPC_1","IPC_2","IPC_3","IPC_4","IPC_5","IPC_6","IPC_7","IPC_8","MorIden_1","MorIden_2","MorIden_3","MorIden_4","MorIden_5","MorIden_6","MorIden_7","MorIden_8","MorIden_9","MorIden_10","moralSeImag_1","moralSeImag_2","moralSeImag_3","moralSeImag_4","moralSeImag_5","moralSeImag_6","moralSeImag_7","moralSeImag_8","moralSeImag_9","sde_1","sde_2","sde_3","sde_4","sde_5","sde_6","sde_7","sde_8","sde_9","sde_10","trap2","sde_11","sde_12","sde_13","sde_14","sde_15","sde_16","sde_17","sde_18","sde_19","sde_20","IM_1","IM_2","IM_3","IM_4","IM_5","IM_6","IM_7","IM_8","IM_9","IM_10","IM_11","IM_12","IM_13","IM_14","IM_15","IM_16","IM_17","IM_18","IM_19","IM_20","subj_idx","friend_name","ParticipantID","Sex","Word","Word2","value","success","timeout","failed_images","failed_audio","failed_video","user_agent","responses","item_order","radio_event_ids","radio_event_times","key_event_times","mouse_event_times","straightlining","zigzagging","honeypot","task_id","screen_id","time_stamp","response_type","key_press","avg_frame_time","center_x","center_y","person","word","valence","domain","math","correct_response","correct","status","view_history","identity","duration","Image","condition","question_order","trap2_item"
"2633","
   <p><div style='color:white; font-size: 25px'>您好，欢迎参加本次实验。</div></p>
   <p><div style='color:white; font-size: 25px'>为充分保障您的权利，请确保您已经知晓并同意《参与实验同意书》以及《数据公开知情同意书》。</div></p>
   <p><div style='color:white; font-size: 25px'>如果您未见过上述内容，请咨询实验员。</div></p>
   <p style='color:white; font-size: 25px'>如果您选择继续实验，则表示您已经清楚两份知情同意书的内容并同意。</p>
   <p><div style = ""color: pink;font-size:30px;"">请确保您记得day0的实验编号，您将在本次实验输入该编号，若您忘记，请咨询实验员后作答。</div></p>
   <p><div style = ""color:lightblue;font-size:25px;"">请您尽可能认真地作答，我们将依据您在各问卷和按键任务中的作答质量发放报酬。</div></p>
   <p> <div style = ""color: green""><按空格键至下页></div> </p>
   "," ","html-keyboard-response","0","2637","0.0-0.0","6","5","7","6","5","4","4","4","4","5","5","0","-2","1","2","0","1","0","2","4","5","4","5","4","4","5","4","5","4","7","6","8","8","7","9","7","8","6","5","5","5","6","5","7","5","7","6","5","1","6","7","2","7","5","6","6","5","7","7","3","6","1","5","6","5","5","5","7","5","6","6","7","3","6","5","5","7","7","5","634030798835548160","吴","440","Male","[""坏我"",""好他"",""好我"",""坏他""]","[""弱我"",""强他"",""强我"",""弱他""]","","","","","","","","","","","","","","","","","","","","","","","","","","","","","","","","","","","","","","",""
"","","","call-function","1","2637","0.0-1.0-0.0","6","5","7","6","5","4","4","4","4","5","5","0","-2","1","2","0","1","0","2","4","5","4","5","4","4","5","4","5","4","7","6","8","8","7","9","7","8","6","5","5","5","6","5","7","5","7","6","5","1","6","7","2","7","5","6","6","5","7","7","3","6","1","5","6","5","5","5","7","5","6","6","7","3","6","5","5","7","7","5","634030798835548160","吴","440","Male","[""坏我"",""好他"",""好我"",""坏他""]","[""弱我"",""强他"",""强我"",""弱他""]","","","","","","","","","","","","","","","","","","","","","","","","","","","","","","","","","","","","","","",""
"43021","","[{""name"":""Sex"",""value"":""0""},{""name"":""friend_name"",""value"":""吴""},{""name"":""ParticipantID"",""value"":""440""}]","survey-html-form","2","45658","0.0-1.0-1.0","6","5","7","6","5","4","4","4","4","5","5","0","-2","1","2","0","1","0","2","4","5","4","5","4","4","5","4","5","4","7","6","8","8","7","9","7","8","6","5","5","5","6","5","7","5","7","6","5","1","6","7","2","7","5","6","6","5","7","7","3","6","1","5","6","5","5","5","7","5","6","6","7","3","6","5","5","7","7","5","634030798835548160","吴","440","Male","[""坏我"",""好他"",""好我"",""坏他""]","[""弱我"",""强他"",""强我"",""弱他""]","","","","","","","","","","","","","","","","","","","","","","","","","","","","","","","","","","","","","","",""
"","","","preload","3","45833","0.0-2.0","6","5","7","6","5","4","4","4","4","5","5","0","-2","1","2","0","1","0","2","4","5","4","5","4","4","5","4","5","4","7","6","8","8","7","9","7","8","6","5","5","5","6","5","7","5","7","6","5","1","6","7","2","7","5","6","6","5","7","7","3","6","1","5","6","5","5","5","7","5","6","6","7","3","6","5","5","7","7","5","634030798835548160","吴","440","Male","[""坏我"",""好他"",""好我"",""坏他""]","[""弱我"",""强他"",""强我"",""弱他""]","","true","false","[]","[]","[]","","","","","","","","","","","","","","","","","","","","","","","","","","","","","","","","",""
"","","","fullscreen","4","46758","0.0-3.0","6","5","7","6","5","4","4","4","4","5","5","0","-2","1","2","0","1","0","2","4","5","4","5","4","4","5","4","5","4","7","6","8","8","7","9","7","8","6","5","5","5","6","5","7","5","7","6","5","1","6","7","2","7","5","6","6","5","7","7","3","6","1","5","6","5","5","5","7","5","6","6","7","3","6","5","5","7","7","5","634030798835548160","吴","440","Male","[""坏我"",""好他"",""好我"",""坏他""]","[""弱我"",""强他"",""强我"",""弱他""]","","true","","","","","{}","","","","","","","","","","","","","","","","","","","","","","","","","","","","","","","",""
"14973.400000000373","","{""Q01"":""6"",""Q02"":""5"",""Q03"":""7"",""Q04"":""6"",""Q05"":""5""}","survey-template","5","61735","0.0-4.0","6","5","7","6","5","4","4","4","4","5","5","0","-2","1","2","0","1","0","2","4","5","4","5","4","4","5","4","5","4","7","6","8","8","7","9","7","8","6","5","5","5","6","5","7","5","7","6","5","1","6","7","2","7","5","6","6","5","7","7","3","6","1","5","6","5","5","5","7","5","6","6","7","3","6","5","5","7","7","5","634030798835548160","吴","440","Male","[""坏我"",""好他"",""好我"",""坏他""]","[""弱我"",""强他"",""强我"",""弱他""]","","","","","","","","{""Q01"":""6"",""Q02"":""5"",""Q03"":""7"",""Q04"":""6"",""Q05"":""5""}","[0,1,2,3,4]","[""Q01"",""Q02"",""Q03"",""Q04"",""Q05""]","[5051.300000000745,5658.700000001118,7357.800000000745,10484.300000000745,11630.099999999627]","[]","[3824,5051.300000000745,5658.700000001118,7357.800000000745,10484.300000000745,11630.099999999627,14972.200000001118]","0.4","0.75","0","","","","","","","","","","","","","","","","","","","","","","",""
"100612.19999999925","","{""Q01"":""4"",""Q02"":""4"",""Q03"":""4"",""Q04"":""4"",""Q05"":""5"",""Q06"":""5""}","survey-template","6","162353","0.0-5.0","6","5","7","6","5","4","4","4","4","5","5","0","-2","1","2","0","1","0","2","4","5","4","5","4","4","5","4","5","4","7","6","8","8","7","9","7","8","6","5","5","5","6","5","7","5","7","6","5","1","6","7","2","7","5","6","6","5","7","7","3","6","1","5","6","5","5","5","7","5","6","6","7","3","6","5","5","7","7","5","634030798835548160","吴","440","Male","[""坏我"",""好他"",""好我"",""坏他""]","[""弱我"",""强他"",""强我"",""弱他""]","","","","","","","","{""Q01"":""4"",""Q02"":""4"",""Q03"":""4"",""Q04"":""4"",""Q05"":""5"",""Q06"":""5""}","[0,1,2,3,4,5]","[""Q01"",""Q02"",""Q03"",""Q04"",""Q05"",""Q06"",""Q06"",""Q06""]","[5703.199999999255,28375.199999999255,29609.199999999255,31045.299999998882,31997.299999998882,33945.5,35057.29999999888,39561.59999999963]","[]","[5703.199999999255,28375.199999999255,29609.199999999255,31045.299999998882,31997.299999998882,33945.5,35057.29999999888,39561.59999999963,96269.19999999925,97243.29999999888,100611.29999999888]","0.3333333333333333","0.4","0","","","","","","","","","","","","","","","","","","","","","","",""
"74250.80000000075","","{""Q01"":""0"",""Q02"":""-2"",""Q03"":""1"",""Q04"":""2"",""Q05"":""0"",""Q06"":""1"",""Q07"":""0"",""Q08"":""2""}","survey-template","7","236607","0.0-6.0","6","5","7","6","5","4","4","4","4","5","5","0","-2","1","2","0","1","0","2","4","5","4","5","4","4","5","4","5","4","7","6","8","8","7","9","7","8","6","5","5","5","6","5","7","5","7","6","5","1","6","7","2","7","5","6","6","5","7","7","3","6","1","5","6","5","5","5","7","5","6","6","7","3","6","5","5","7","7","5","634030798835548160","吴","440","Male","[""坏我"",""好他"",""好我"",""坏他""]","[""弱我"",""强他"",""强我"",""弱他""]","","","","","","","","{""Q01"":""0"",""Q02"":""-2"",""Q03"":""1"",""Q04"":""2"",""Q05"":""0"",""Q06"":""1"",""Q07"":""0"",""Q08"":""2""}","[0,1,2,3,4,5,6,7]","[""Q01"",""Q02"",""Q03"",""Q04"",""Q05"",""Q06"",""Q07"",""Q08""]","[20275.099999999627,22513,24392.900000000373,26609,30572.599999999627,32190.5,33482.800000000745,34282.90000000037]","[]","[20275.099999999627,22513,24392.900000000373,26609,30132.400000000373,30572.599999999627,32190.5,33482.800000000745,34282.90000000037,74249.20000000112]","0.375","0.42857142857142855","0","","","","","","","","","","","","","","","","","","","","","","",""
"16211","
    <p><div style='color:white;font-size:35px; line-height:20px;'>词汇评估任务</div></p><br>
    <p><div style='color:white;font-size:25px; line-height:20px;'>请再次回忆该亲密的朋友，你们至少2年前就认识了，并且最近2年经常见面。</div></p>
    <p><div style='color:white;font-size:25px; line-height:20px;'>在本实验中，您将会看到一些形容词。</div></p>
    <p><div style='color:yellow;font-size:25px; line-height:20px;'>您的任务是判断这些形容词是否符合对您自己或您的朋友的描述。</div></p><p style='font-size:35px'>符合按<span style=""color:lightgreen""> f 键</span>，不符合按<span style=""color:red""> j 键</span></p>","0","html-button-response","8","252822","0.0-7.0-0.0","6","5","7","6","5","4","4","4","4","5","5","0","-2","1","2","0","1","0","2","4","5","4","5","4","4","5","4","5","4","7","6","8","8","7","9","7","8","6","5","5","5","6","5","7","5","7","6","5","1","6","7","2","7","5","6","6","5","7","7","3","6","1","5","6","5","5","5","7","5","6","6","7","3","6","5","5","7","7","5","634030798835548160","吴","440","Male","[""坏我"",""好他"",""好我"",""坏他""]","[""弱我"",""强他"",""强我"",""弱他""]","","","","","","","","","","","","","","","","","SRET_EW","EW_instructions","Sat Dec 09 2023 16:08:08 GMT+0800 (中国标准时间)","","","","","","","","","","","","","","","","","","","",""
"null","","null","psychophysics","9","255829","0.0-7.0-1.0-0.0","6","5","7","6","5","4","4","4","4","5","5","0","-2","1","2","0","1","0","2","4","5","4","5","4","4","5","4","5","4","7","6","8","8","7","9","7","8","6","5","5","5","6","5","7","5","7","6","5","1","6","7","2","7","5","6","6","5","7","7","3","6","1","5","6","5","5","5","7","5","6","6","7","3","6","5","5","7","7","5","634030798835548160","吴","440","Male","[""坏我"",""好他"",""好我"",""坏他""]","[""弱我"",""强他"",""强我"",""弱他""]","","","","","","","","","","","","","","","","","SRET_EW","EW_practice","","key","null","16.65337016574575","799.9999682108573","445.8333156175091","自己","严谨","Positive","ability","","","","","","","","","","",""
"1139","","j","psychophysics","10","257971","0.0-7.0-1.0-0.1","6","5","7","6","5","4","4","4","4","5","5","0","-2","1","2","0","1","0","2","4","5","4","5","4","4","5","4","5","4","7","6","8","8","7","9","7","8","6","5","5","5","6","5","7","5","7","6","5","1","6","7","2","7","5","6","6","5","7","7","3","6","1","5","6","5","5","5","7","5","6","6","7","3","6","5","5","7","7","5","634030798835548160","吴","440","Male","[""坏我"",""好他"",""好我"",""坏他""]","[""弱我"",""强他"",""强我"",""弱他""]","","","","","","","","no","","","","","","","","","SRET_EW","EW_practice","","key","j","16.6537401574805","799.9999682108573","445.8333156175091","自己","刻板","Negative","ability","","","","","","","","","","",""
"1057","","f","psychophysics","11","260029","0.0-7.0-1.0-0.2","6","5","7","6","5","4","4","4","4","5","5","0","-2","1","2","0","1","0","2","4","5","4","5","4","4","5","4","5","4","7","6","8","8","7","9","7","8","6","5","5","5","6","5","7","5","7","6","5","1","6","7","2","7","5","6","6","5","7","7","3","6","1","5","6","5","5","5","7","5","6","6","7","3","6","5","5","7","7","5","634030798835548160","吴","440","Male","[""坏我"",""好他"",""好我"",""坏他""]","[""弱我"",""强他"",""强我"",""弱他""]","","","","","","","","yes","","","","","","","","","SRET_EW","EW_practice","","key","f","16.653788617886395","799.9999682108573","445.8333156175091","朋友","忠实","Positive","morality","","","","","","","","","","",""
"946","","j","psychophysics","12","261978","0.0-7.0-1.0-0.3","6","5","7","6","5","4","4","4","4","5","5","0","-2","1","2","0","1","0","2","4","5","4","5","4","4","5","4","5","4","7","6","8","8","7","9","7","8","6","5","5","5","6","5","7","5","7","6","5","1","6","7","2","7","5","6","6","5","7","7","3","6","1","5","6","5","5","5","7","5","6","6","7","3","6","5","5","7","7","5","634030798835548160","吴","440","Male","[""坏我"",""好他"",""好我"",""坏他""]","[""弱我"",""强他"",""强我"",""弱他""]","","","","","","","","no","","","","","","","","","SRET_EW","EW_practice","","key","j","16.65397413793082","799.9999682108573","445.8333156175091","朋友","徇私","Negative","morality","","","","","","","","","","",""
"7122","
    <p><div style='color:white;font-size:35px; line-height:20px;'>请您再次阅读实验要求</div></p><br>
    <p><div style='color:white;font-size:25px; line-height:20px;'>请回忆某一个亲密的朋友，你们至少2年前就认识了，并且最近2年经常见面。</div></p>
    <p><div style='color:white;font-size:25px; line-height:20px;'>在本实验中，您将会看到一些形容词。</div></p>
    <p><div style='color:yellow;font-size:25px; line-height:20px;'>您的任务是判断这些形容词是否符合对您自己或您的朋友的描述。</div></p>
    <p><div class='footer' style='font-size:25px; line-height:20px;'>如果对本实验还有不清楚之处，请立即向实验员咨询。</p><p style='font-size:25px; line-height:20px;'>如果您明白了规则：</p><p style='font-size:22px; line-height:20px;'>请按 继续 进入正式实验</p>
    </div>
    <p style='font-size:35px'>符合按<span style=""color:lightgreen""> f 键</span>，不符合按<span style=""color:red""> j 键</span></p>","0","html-button-response","13","269101","0.0-7.0-2.0","6","5","7","6","5","4","4","4","4","5","5","0","-2","1","2","0","1","0","2","4","5","4","5","4","4","5","4","5","4","7","6","8","8","7","9","7","8","6","5","5","5","6","5","7","5","7","6","5","1","6","7","2","7","5","6","6","5","7","7","3","6","1","5","6","5","5","5","7","5","6","6","7","3","6","5","5","7","7","5","634030798835548160","吴","440","Male","[""坏我"",""好他"",""好我"",""坏他""]","[""弱我"",""强他"",""强我"",""弱他""]","","","","","","","","","","","","","","","","","SRET_EW","prac_instructions","Sat Dec 09 2023 16:08:08 GMT+0800 (中国标准时间)","","","","","","","","","","","","","","","","","","","",""
"1188","","j","psychophysics","14","271291","0.0-7.0-3.0-0.0","6","5","7","6","5","4","4","4","4","5","5","0","-2","1","2","0","1","0","2","4","5","4","5","4","4","5","4","5","4","7","6","8","8","7","9","7","8","6","5","5","5","6","5","7","5","7","6","5","1","6","7","2","7","5","6","6","5","7","7","3","6","1","5","6","5","5","5","7","5","6","6","7","3","6","5","5","7","7","5","634030798835548160","吴","440","Male","[""坏我"",""好他"",""好我"",""坏他""]","[""弱我"",""强他"",""强我"",""弱他""]","","","","","","","","no","","","","","","","","","SRET","EW_formal","","key","j","16.653458015267198","799.9999682108573","445.8333156175091","朋友","迷糊","Negative","ability","","","","","","","","","","",""
"1109","","j","psychophysics","15","273401","0.0-7.0-3.0-0.1","6","5","7","6","5","4","4","4","4","5","5","0","-2","1","2","0","1","0","2","4","5","4","5","4","4","5","4","5","4","7","6","8","8","7","9","7","8","6","5","5","5","6","5","7","5","7","6","5","1","6","7","2","7","5","6","6","5","7","7","3","6","1","5","6","5","5","5","7","5","6","6","7","3","6","5","5","7","7","5","634030798835548160","吴","440","Male","[""坏我"",""好他"",""好我"",""坏他""]","[""弱我"",""强他"",""强我"",""弱他""]","","","","","","","","no","","","","","","","","","SRET","EW_formal","","key","j","16.653706349206104","799.9999682108573","445.8333156175091","自己","说谎","Negative","morality","","","","","","","","","","",""
"983","","f","psychophysics","16","275386","0.0-7.0-3.0-0.2","6","5","7","6","5","4","4","4","4","5","5","0","-2","1","2","0","1","0","2","4","5","4","5","4","4","5","4","5","4","7","6","8","8","7","9","7","8","6","5","5","5","6","5","7","5","7","6","5","1","6","7","2","7","5","6","6","5","7","7","3","6","1","5","6","5","5","5","7","5","6","6","7","3","6","5","5","7","7","5","634030798835548160","吴","440","Male","[""坏我"",""好他"",""好我"",""坏他""]","[""弱我"",""强他"",""强我"",""弱他""]","","","","","","","","yes","","","","","","","","","SRET","EW_formal","","key","f","16.65398305084732","799.9999682108573","445.8333156175091","朋友","务实","Positive","ability","","","","","","","","","","",""
"955","","f","psychophysics","17","277343","0.0-7.0-3.0-0.3","6","5","7","6","5","4","4","4","4","5","5","0","-2","1","2","0","1","0","2","4","5","4","5","4","4","5","4","5","4","7","6","8","8","7","9","7","8","6","5","5","5","6","5","7","5","7","6","5","1","6","7","2","7","5","6","6","5","7","7","3","6","1","5","6","5","5","5","7","5","6","6","7","3","6","5","5","7","7","5","634030798835548160","吴","440","Male","[""坏我"",""好他"",""好我"",""坏他""]","[""弱我"",""强他"",""强我"",""弱他""]","","","","","","","","yes","","","","","","","","","SRET","EW_formal","","key","f","16.653247863247802","799.9999682108573","445.8333156175091","自己","坚贞","Positive","morality","","","","","","","","","","",""
"1857","","j","psychophysics","18","280204","0.0-7.0-3.0-0.4","6","5","7","6","5","4","4","4","4","5","5","0","-2","1","2","0","1","0","2","4","5","4","5","4","4","5","4","5","4","7","6","8","8","7","9","7","8","6","5","5","5","6","5","7","5","7","6","5","1","6","7","2","7","5","6","6","5","7","7","3","6","1","5","6","5","5","5","7","5","6","6","7","3","6","5","5","7","7","5","634030798835548160","吴","440","Male","[""坏我"",""好他"",""好我"",""坏他""]","[""弱我"",""强他"",""强我"",""弱他""]","","","","","","","","no","","","","","","","","","SRET","EW_formal","","key","j","16.653464705882566","799.9999682108573","445.8333156175091","朋友","学霸","Positive","ability","","","","","","","","","","",""
"804","","f","psychophysics","19","282010","0.0-7.0-3.0-0.5","6","5","7","6","5","4","4","4","4","5","5","0","-2","1","2","0","1","0","2","4","5","4","5","4","4","5","4","5","4","7","6","8","8","7","9","7","8","6","5","5","5","6","5","7","5","7","6","5","1","6","7","2","7","5","6","6","5","7","7","3","6","1","5","6","5","5","5","7","5","6","6","7","3","6","5","5","7","7","5","634030798835548160","吴","440","Male","[""坏我"",""好他"",""好我"",""坏他""]","[""弱我"",""强他"",""强我"",""弱他""]","","","","","","","","yes","","","","","","","","","SRET","EW_formal","","key","f","16.653046296296655","799.9999682108573","445.8333156175091","朋友","毅力","Positive","ability","","","","","","","","","","",""
"862","","j","psychophysics","20","283873","0.0-7.0-3.0-0.6","6","5","7","6","5","4","4","4","4","5","5","0","-2","1","2","0","1","0","2","4","5","4","5","4","4","5","4","5","4","7","6","8","8","7","9","7","8","6","5","5","5","6","5","7","5","7","6","5","1","6","7","2","7","5","6","6","5","7","7","3","6","1","5","6","5","5","5","7","5","6","6","7","3","6","5","5","7","7","5","634030798835548160","吴","440","Male","[""坏我"",""好他"",""好我"",""坏他""]","[""弱我"",""强他"",""强我"",""弱他""]","","","","","","","","no","","","","","","","","","SRET","EW_formal","","key","j","16.653144144143717","799.9999682108573","445.8333156175091","朋友","畏难","Negative","ability","","","","","","","","","","",""
"756","","j","psychophysics","21","285631","0.0-7.0-3.0-0.7","6","5","7","6","5","4","4","4","4","5","5","0","-2","1","2","0","1","0","2","4","5","4","5","4","4","5","4","5","4","7","6","8","8","7","9","7","8","6","5","5","5","6","5","7","5","7","6","5","1","6","7","2","7","5","6","6","5","7","7","3","6","1","5","6","5","5","5","7","5","6","6","7","3","6","5","5","7","7","5","634030798835548160","吴","440","Male","[""坏我"",""好他"",""好我"",""坏他""]","[""弱我"",""强他"",""强我"",""弱他""]","","","","","","","","no","","","","","","","","","SRET","EW_formal","","key","j","16.654086538461204","799.9999682108573","445.8333156175091","朋友","浅薄","Negative","ability","","","","","","","","","","",""
"849","","j","psychophysics","22","287481","0.0-7.0-3.0-0.8","6","5","7","6","5","4","4","4","4","5","5","0","-2","1","2","0","1","0","2","4","5","4","5","4","4","5","4","5","4","7","6","8","8","7","9","7","8","6","5","5","5","6","5","7","5","7","6","5","1","6","7","2","7","5","6","6","5","7","7","3","6","1","5","6","5","5","5","7","5","6","6","7","3","6","5","5","7","7","5","634030798835548160","吴","440","Male","[""坏我"",""好他"",""好我"",""坏他""]","[""弱我"",""强他"",""强我"",""弱他""]","","","","","","","","no","","","","","","","","","SRET","EW_formal","","key","j","16.65324545454562","799.9999682108573","445.8333156175091","朋友","腐败","Negative","morality","","","","","","","","","","",""
"994","","j","psychophysics","23","289477","0.0-7.0-3.0-0.9","6","5","7","6","5","4","4","4","4","5","5","0","-2","1","2","0","1","0","2","4","5","4","5","4","4","5","4","5","4","7","6","8","8","7","9","7","8","6","5","5","5","6","5","7","5","7","6","5","1","6","7","2","7","5","6","6","5","7","7","3","6","1","5","6","5","5","5","7","5","6","6","7","3","6","5","5","7","7","5","634030798835548160","吴","440","Male","[""坏我"",""好他"",""好我"",""坏他""]","[""弱我"",""强他"",""强我"",""弱他""]","","","","","","","","no","","","","","","","","","SRET","EW_formal","","key","j","16.65367226890717","799.9999682108573","445.8333156175091","自己","才尽","Negative","ability","","","","","","","","","","",""
"762","","f","psychophysics","24","291242","0.0-7.0-3.0-0.10","6","5","7","6","5","4","4","4","4","5","5","0","-2","1","2","0","1","0","2","4","5","4","5","4","4","5","4","5","4","7","6","8","8","7","9","7","8","6","5","5","5","6","5","7","5","7","6","5","1","6","7","2","7","5","6","6","5","7","7","3","6","1","5","6","5","5","5","7","5","6","6","7","3","6","5","5","7","7","5","634030798835548160","吴","440","Male","[""坏我"",""好他"",""好我"",""坏他""]","[""弱我"",""强他"",""强我"",""弱他""]","","","","","","","","yes","","","","","","","","","SRET","EW_formal","","key","f","16.652904761904697","799.9999682108573","445.8333156175091","自己","远见","Positive","ability","","","","","","","","","","",""
"1305","","f","psychophysics","25","293548","0.0-7.0-3.0-0.11","6","5","7","6","5","4","4","4","4","5","5","0","-2","1","2","0","1","0","2","4","5","4","5","4","4","5","4","5","4","7","6","8","8","7","9","7","8","6","5","5","5","6","5","7","5","7","6","5","1","6","7","2","7","5","6","6","5","7","7","3","6","1","5","6","5","5","5","7","5","6","6","7","3","6","5","5","7","7","5","634030798835548160","吴","440","Male","[""坏我"",""好他"",""好我"",""坏他""]","[""弱我"",""强他"",""强我"",""弱他""]","","","","","","","","yes","","","","","","","","","SRET","EW_formal","","key","f","16.65239855072476","799.9999682108573","445.8333156175091","自己","博学","Positive","ability","","","","","","","","","","",""
"1000","","j","psychophysics","26","295549","0.0-7.0-3.0-0.12","6","5","7","6","5","4","4","4","4","5","5","0","-2","1","2","0","1","0","2","4","5","4","5","4","4","5","4","5","4","7","6","8","8","7","9","7","8","6","5","5","5","6","5","7","5","7","6","5","1","6","7","2","7","5","6","6","5","7","7","3","6","1","5","6","5","5","5","7","5","6","6","7","3","6","5","5","7","7","5","634030798835548160","吴","440","Male","[""坏我"",""好他"",""好我"",""坏他""]","[""弱我"",""强他"",""强我"",""弱他""]","","","","","","","","no","","","","","","","","","SRET","EW_formal","","key","j","16.65284873949591","799.9999682108573","445.8333156175091","朋友","歹毒","Negative","morality","","","","","","","","","","",""
"996","","j","psychophysics","27","297547","0.0-7.0-3.0-0.13","6","5","7","6","5","4","4","4","4","5","5","0","-2","1","2","0","1","0","2","4","5","4","5","4","4","5","4","5","4","7","6","8","8","7","9","7","8","6","5","5","5","6","5","7","5","7","6","5","1","6","7","2","7","5","6","6","5","7","7","3","6","1","5","6","5","5","5","7","5","6","6","7","3","6","5","5","7","7","5","634030798835548160","吴","440","Male","[""坏我"",""好他"",""好我"",""坏他""]","[""弱我"",""强他"",""强我"",""弱他""]","","","","","","","","no","","","","","","","","","SRET","EW_formal","","key","j","16.653605042016643","799.9999682108573","445.8333156175091","朋友","背叛","Negative","morality","","","","","","","","","","",""
"1211","","f","psychophysics","28","299759","0.0-7.0-3.0-0.14","6","5","7","6","5","4","4","4","4","5","5","0","-2","1","2","0","1","0","2","4","5","4","5","4","4","5","4","5","4","7","6","8","8","7","9","7","8","6","5","5","5","6","5","7","5","7","6","5","1","6","7","2","7","5","6","6","5","7","7","3","6","1","5","6","5","5","5","7","5","6","6","7","3","6","5","5","7","7","5","634030798835548160","吴","440","Male","[""坏我"",""好他"",""好我"",""坏他""]","[""弱我"",""强他"",""强我"",""弱他""]","","","","","","","","yes","","","","","","","","","SRET","EW_formal","","key","f","16.653227272727015","799.9999682108573","445.8333156175091","朋友","勤恳","Positive","morality","","","","","","","","","","",""
"860","","j","psychophysics","29","301619","0.0-7.0-3.0-0.15","6","5","7","6","5","4","4","4","4","5","5","0","-2","1","2","0","1","0","2","4","5","4","5","4","4","5","4","5","4","7","6","8","8","7","9","7","8","6","5","5","5","6","5","7","5","7","6","5","1","6","7","2","7","5","6","6","5","7","7","3","6","1","5","6","5","5","5","7","5","6","6","7","3","6","5","5","7","7","5","634030798835548160","吴","440","Male","[""坏我"",""好他"",""好我"",""坏他""]","[""弱我"",""强他"",""强我"",""弱他""]","","","","","","","","no","","","","","","","","","SRET","EW_formal","","key","j","16.6533545454546","799.9999682108573","445.8333156175091","朋友","低劣","Negative","morality","","","","","","","","","","",""
"1129","","f","psychophysics","30","303751","0.0-7.0-3.0-0.16","6","5","7","6","5","4","4","4","4","5","5","0","-2","1","2","0","1","0","2","4","5","4","5","4","4","5","4","5","4","7","6","8","8","7","9","7","8","6","5","5","5","6","5","7","5","7","6","5","1","6","7","2","7","5","6","6","5","7","7","3","6","1","5","6","5","5","5","7","5","6","6","7","3","6","5","5","7","7","5","634030798835548160","吴","440","Male","[""坏我"",""好他"",""好我"",""坏他""]","[""弱我"",""强他"",""强我"",""弱他""]","","","","","","","","yes","","","","","","","","","SRET","EW_formal","","key","f","16.65341732283462","799.9999682108573","445.8333156175091","自己","奉献","Positive","morality","","","","","","","","","","",""
"1070","","j","psychophysics","31","305824","0.0-7.0-3.0-0.17","6","5","7","6","5","4","4","4","4","5","5","0","-2","1","2","0","1","0","2","4","5","4","5","4","4","5","4","5","4","7","6","8","8","7","9","7","8","6","5","5","5","6","5","7","5","7","6","5","1","6","7","2","7","5","6","6","5","7","7","3","6","1","5","6","5","5","5","7","5","6","6","7","3","6","5","5","7","7","5","634030798835548160","吴","440","Male","[""坏我"",""好他"",""好我"",""坏他""]","[""弱我"",""强他"",""强我"",""弱他""]","","","","","","","","no","","","","","","","","","SRET","EW_formal","","key","j","16.653854838709982","799.9999682108573","445.8333156175091","自己","小人","Negative","morality","","","","","","","","","","",""
"1231","","f","psychophysics","32","308056","0.0-7.0-3.0-0.18","6","5","7","6","5","4","4","4","4","5","5","0","-2","1","2","0","1","0","2","4","5","4","5","4","4","5","4","5","4","7","6","8","8","7","9","7","8","6","5","5","5","6","5","7","5","7","6","5","1","6","7","2","7","5","6","6","5","7","7","3","6","1","5","6","5","5","5","7","5","6","6","7","3","6","5","5","7","7","5","634030798835548160","吴","440","Male","[""坏我"",""好他"",""好我"",""坏他""]","[""弱我"",""强他"",""强我"",""弱他""]","","","","","","","","yes","","","","","","","","","SRET","EW_formal","","key","f","16.653255639097974","799.9999682108573","445.8333156175091","朋友","诚信","Positive","morality","","","","","","","","","","",""
"868","","j","psychophysics","33","309925","0.0-7.0-3.0-0.19","6","5","7","6","5","4","4","4","4","5","5","0","-2","1","2","0","1","0","2","4","5","4","5","4","4","5","4","5","4","7","6","8","8","7","9","7","8","6","5","5","5","6","5","7","5","7","6","5","1","6","7","2","7","5","6","6","5","7","7","3","6","1","5","6","5","5","5","7","5","6","6","7","3","6","5","5","7","7","5","634030798835548160","吴","440","Male","[""坏我"",""好他"",""好我"",""坏他""]","[""弱我"",""强他"",""强我"",""弱他""]","","","","","","","","no","","","","","","","","","SRET","EW_formal","","key","j","16.652891891891542","799.9999682108573","445.8333156175091","自己","贪污","Negative","morality","","","","","","","","","","",""
"905","","j","psychophysics","34","311832","0.0-7.0-3.0-0.20","6","5","7","6","5","4","4","4","4","5","5","0","-2","1","2","0","1","0","2","4","5","4","5","4","4","5","4","5","4","7","6","8","8","7","9","7","8","6","5","5","5","6","5","7","5","7","6","5","1","6","7","2","7","5","6","6","5","7","7","3","6","1","5","6","5","5","5","7","5","6","6","7","3","6","5","5","7","7","5","634030798835548160","吴","440","Male","[""坏我"",""好他"",""好我"",""坏他""]","[""弱我"",""强他"",""强我"",""弱他""]","","","","","","","","no","","","","","","","","","SRET","EW_formal","","key","j","16.652614035087602","799.9999682108573","445.8333156175091","自己","娴熟","Positive","ability","","","","","","","","","","",""
"1175","","f","psychophysics","35","314009","0.0-7.0-3.0-0.21","6","5","7","6","5","4","4","4","4","5","5","0","-2","1","2","0","1","0","2","4","5","4","5","4","4","5","4","5","4","7","6","8","8","7","9","7","8","6","5","5","5","6","5","7","5","7","6","5","1","6","7","2","7","5","6","6","5","7","7","3","6","1","5","6","5","5","5","7","5","6","6","7","3","6","5","5","7","7","5","634030798835548160","吴","440","Male","[""坏我"",""好他"",""好我"",""坏他""]","[""弱我"",""强他"",""强我"",""弱他""]","","","","","","","","yes","","","","","","","","","SRET","EW_formal","","key","f","16.65365116279067","799.9999682108573","445.8333156175091","自己","慷慨","Positive","morality","","","","","","","","","","",""
"1241","","j","psychophysics","36","316251","0.0-7.0-3.0-0.22","6","5","7","6","5","4","4","4","4","5","5","0","-2","1","2","0","1","0","2","4","5","4","5","4","4","5","4","5","4","7","6","8","8","7","9","7","8","6","5","5","5","6","5","7","5","7","6","5","1","6","7","2","7","5","6","6","5","7","7","3","6","1","5","6","5","5","5","7","5","6","6","7","3","6","5","5","7","7","5","634030798835548160","吴","440","Male","[""坏我"",""好他"",""好我"",""坏他""]","[""弱我"",""强他"",""强我"",""弱他""]","","","","","","","","no","","","","","","","","","SRET","EW_formal","","key","j","16.653597014925335","799.9999682108573","445.8333156175091","朋友","粗心","Negative","ability","","","","","","","","","","",""
"1008","","f","psychophysics","37","318260","0.0-7.0-3.0-0.23","6","5","7","6","5","4","4","4","4","5","5","0","-2","1","2","0","1","0","2","4","5","4","5","4","4","5","4","5","4","7","6","8","8","7","9","7","8","6","5","5","5","6","5","7","5","7","6","5","1","6","7","2","7","5","6","6","5","7","7","3","6","1","5","6","5","5","5","7","5","6","6","7","3","6","5","5","7","7","5","634030798835548160","吴","440","Male","[""坏我"",""好他"",""好我"",""坏他""]","[""弱我"",""强他"",""强我"",""弱他""]","","","","","","","","yes","","","","","","","","","SRET","EW_formal","","key","f","16.652974999999667","799.9999682108573","445.8333156175091","自己","侠义","Positive","morality","","","","","","","","","","",""
"1197","","f","psychophysics","38","320458","0.0-7.0-3.0-0.24","6","5","7","6","5","4","4","4","4","5","5","0","-2","1","2","0","1","0","2","4","5","4","5","4","4","5","4","5","4","7","6","8","8","7","9","7","8","6","5","5","5","6","5","7","5","7","6","5","1","6","7","2","7","5","6","6","5","7","7","3","6","1","5","6","5","5","5","7","5","6","6","7","3","6","5","5","7","7","5","634030798835548160","吴","440","Male","[""坏我"",""好他"",""好我"",""坏他""]","[""弱我"",""强他"",""强我"",""弱他""]","","","","","","","","yes","","","","","","","","","SRET","EW_formal","","key","f","16.653381679389263","799.9999682108573","445.8333156175091","自己","细心","Positive","ability","","","","","","","","","","",""
"1215","","f","psychophysics","39","322674","0.0-7.0-3.0-0.25","6","5","7","6","5","4","4","4","4","5","5","0","-2","1","2","0","1","0","2","4","5","4","5","4","4","5","4","5","4","7","6","8","8","7","9","7","8","6","5","5","5","6","5","7","5","7","6","5","1","6","7","2","7","5","6","6","5","7","7","3","6","1","5","6","5","5","5","7","5","6","6","7","3","6","5","5","7","7","5","634030798835548160","吴","440","Male","[""坏我"",""好他"",""好我"",""坏他""]","[""弱我"",""强他"",""强我"",""弱他""]","","","","","","","","yes","","","","","","","","","SRET","EW_formal","","key","f","16.653068181817865","799.9999682108573","445.8333156175091","朋友","肯干","Positive","ability","","","","","","","","","","",""
"784","","j","psychophysics","40","324459","0.0-7.0-3.0-0.26","6","5","7","6","5","4","4","4","4","5","5","0","-2","1","2","0","1","0","2","4","5","4","5","4","4","5","4","5","4","7","6","8","8","7","9","7","8","6","5","5","5","6","5","7","5","7","6","5","1","6","7","2","7","5","6","6","5","7","7","3","6","1","5","6","5","5","5","7","5","6","6","7","3","6","5","5","7","7","5","634030798835548160","吴","440","Male","[""坏我"",""好他"",""好我"",""坏他""]","[""弱我"",""强他"",""强我"",""弱他""]","","","","","","","","no","","","","","","","","","SRET","EW_formal","","key","j","16.652698113207972","799.9999682108573","445.8333156175091","朋友","迂拙","Negative","ability","","","","","","","","","","",""
"1110","","j","psychophysics","41","326570","0.0-7.0-3.0-0.27","6","5","7","6","5","4","4","4","4","5","5","0","-2","1","2","0","1","0","2","4","5","4","5","4","4","5","4","5","4","7","6","8","8","7","9","7","8","6","5","5","5","6","5","7","5","7","6","5","1","6","7","2","7","5","6","6","5","7","7","3","6","1","5","6","5","5","5","7","5","6","6","7","3","6","5","5","7","7","5","634030798835548160","吴","440","Male","[""坏我"",""好他"",""好我"",""坏他""]","[""弱我"",""强他"",""强我"",""弱他""]","","","","","","","","no","","","","","","","","","SRET","EW_formal","","key","j","16.65312698412694","799.9999682108573","445.8333156175091","朋友","屈才","Negative","ability","","","","","","","","","","",""
"902","","j","psychophysics","42","328473","0.0-7.0-3.0-0.28","6","5","7","6","5","4","4","4","4","5","5","0","-2","1","2","0","1","0","2","4","5","4","5","4","4","5","4","5","4","7","6","8","8","7","9","7","8","6","5","5","5","6","5","7","5","7","6","5","1","6","7","2","7","5","6","6","5","7","7","3","6","1","5","6","5","5","5","7","5","6","6","7","3","6","5","5","7","7","5","634030798835548160","吴","440","Male","[""坏我"",""好他"",""好我"",""坏他""]","[""弱我"",""强他"",""强我"",""弱他""]","","","","","","","","no","","","","","","","","","SRET","EW_formal","","key","j","16.653504424778934","799.9999682108573","445.8333156175091","自己","偏私","Negative","morality","","","","","","","","","","",""
"1444","","f","psychophysics","43","330918","0.0-7.0-3.0-0.29","6","5","7","6","5","4","4","4","4","5","5","0","-2","1","2","0","1","0","2","4","5","4","5","4","4","5","4","5","4","7","6","8","8","7","9","7","8","6","5","5","5","6","5","7","5","7","6","5","1","6","7","2","7","5","6","6","5","7","7","3","6","1","5","6","5","5","5","7","5","6","6","7","3","6","5","5","7","7","5","634030798835548160","吴","440","Male","[""坏我"",""好他"",""好我"",""坏他""]","[""弱我"",""强他"",""强我"",""弱他""]","","","","","","","","yes","","","","","","","","","SRET","EW_formal","","key","f","16.65347260273977","799.9999682108573","445.8333156175091","自己","无敌","Positive","ability","","","","","","","","","","",""
"1258","","f","psychophysics","44","333188","0.0-7.0-3.0-0.30","6","5","7","6","5","4","4","4","4","5","5","0","-2","1","2","0","1","0","2","4","5","4","5","4","4","5","4","5","4","7","6","8","8","7","9","7","8","6","5","5","5","6","5","7","5","7","6","5","1","6","7","2","7","5","6","6","5","7","7","3","6","1","5","6","5","5","5","7","5","6","6","7","3","6","5","5","7","7","5","634030798835548160","吴","440","Male","[""坏我"",""好他"",""好我"",""坏他""]","[""弱我"",""强他"",""强我"",""弱他""]","","","","","","","","yes","","","","","","","","","SRET","EW_formal","","key","f","16.653481481481275","799.9999682108573","445.8333156175091","朋友","刻苦","Positive","ability","","","","","","","","","","",""
"874","","j","psychophysics","45","335063","0.0-7.0-3.0-0.31","6","5","7","6","5","4","4","4","4","5","5","0","-2","1","2","0","1","0","2","4","5","4","5","4","4","5","4","5","4","7","6","8","8","7","9","7","8","6","5","5","5","6","5","7","5","7","6","5","1","6","7","2","7","5","6","6","5","7","7","3","6","1","5","6","5","5","5","7","5","6","6","7","3","6","5","5","7","7","5","634030798835548160","吴","440","Male","[""坏我"",""好他"",""好我"",""坏他""]","[""弱我"",""强他"",""强我"",""弱他""]","","","","","","","","no","","","","","","","","","SRET","EW_formal","","key","j","16.653598214286053","799.9999682108573","445.8333156175091","自己","毛糙","Negative","ability","","","","","","","","","","",""
"778","","j","psychophysics","46","336846","0.0-7.0-3.0-0.32","6","5","7","6","5","4","4","4","4","5","5","0","-2","1","2","0","1","0","2","4","5","4","5","4","4","5","4","5","4","7","6","8","8","7","9","7","8","6","5","5","5","6","5","7","5","7","6","5","1","6","7","2","7","5","6","6","5","7","7","3","6","1","5","6","5","5","5","7","5","6","6","7","3","6","5","5","7","7","5","634030798835548160","吴","440","Male","[""坏我"",""好他"",""好我"",""坏他""]","[""弱我"",""强他"",""强我"",""弱他""]","","","","","","","","no","","","","","","","","","SRET","EW_formal","","key","j","16.652933962264246","799.9999682108573","445.8333156175091","朋友","黑心","Negative","morality","","","","","","","","","","",""
"1419","","f","psychophysics","47","339276","0.0-7.0-3.0-0.33","6","5","7","6","5","4","4","4","4","5","5","0","-2","1","2","0","1","0","2","4","5","4","5","4","4","5","4","5","4","7","6","8","8","7","9","7","8","6","5","5","5","6","5","7","5","7","6","5","1","6","7","2","7","5","6","6","5","7","7","3","6","1","5","6","5","5","5","7","5","6","6","7","3","6","5","5","7","7","5","634030798835548160","吴","440","Male","[""坏我"",""好他"",""好我"",""坏他""]","[""弱我"",""强他"",""强我"",""弱他""]","","","","","","","","yes","","","","","","","","","SRET","EW_formal","","key","f","16.653172413793246","799.9999682108573","445.8333156175091","自己","高效","Positive","ability","","","","","","","","","","",""
"1073","","j","psychophysics","48","341350","0.0-7.0-3.0-0.34","6","5","7","6","5","4","4","4","4","5","5","0","-2","1","2","0","1","0","2","4","5","4","5","4","4","5","4","5","4","7","6","8","8","7","9","7","8","6","5","5","5","6","5","7","5","7","6","5","1","6","7","2","7","5","6","6","5","7","7","3","6","1","5","6","5","5","5","7","5","6","6","7","3","6","5","5","7","7","5","634030798835548160","吴","440","Male","[""坏我"",""好他"",""好我"",""坏他""]","[""弱我"",""强他"",""强我"",""弱他""]","","","","","","","","no","","","","","","","","","SRET","EW_formal","","key","j","16.65286178861809","799.9999682108573","445.8333156175091","自己","阴毒","Negative","morality","","","","","","","","","","",""
"1192","","j","psychophysics","49","343543","0.0-7.0-3.0-0.35","6","5","7","6","5","4","4","4","4","5","5","0","-2","1","2","0","1","0","2","4","5","4","5","4","4","5","4","5","4","7","6","8","8","7","9","7","8","6","5","5","5","6","5","7","5","7","6","5","1","6","7","2","7","5","6","6","5","7","7","3","6","1","5","6","5","5","5","7","5","6","6","7","3","6","5","5","7","7","5","634030798835548160","吴","440","Male","[""坏我"",""好他"",""好我"",""坏他""]","[""弱我"",""强他"",""强我"",""弱他""]","","","","","","","","no","","","","","","","","","SRET","EW_formal","","key","j","16.65369465648826","799.9999682108573","445.8333156175091","自己","变通","Positive","ability","","","","","","","","","","",""
"1022","","j","psychophysics","50","345567","0.0-7.0-3.0-0.36","6","5","7","6","5","4","4","4","4","5","5","0","-2","1","2","0","1","0","2","4","5","4","5","4","4","5","4","5","4","7","6","8","8","7","9","7","8","6","5","5","5","6","5","7","5","7","6","5","1","6","7","2","7","5","6","6","5","7","7","3","6","1","5","6","5","5","5","7","5","6","6","7","3","6","5","5","7","7","5","634030798835548160","吴","440","Male","[""坏我"",""好他"",""好我"",""坏他""]","[""弱我"",""强他"",""强我"",""弱他""]","","","","","","","","no","","","","","","","","","SRET","EW_formal","","key","j","16.652899999999985","799.9999682108573","445.8333156175091","朋友","外行","Negative","ability","","","","","","","","","","",""
"917","","j","psychophysics","51","347488","0.0-7.0-3.0-0.37","6","5","7","6","5","4","4","4","4","5","5","0","-2","1","2","0","1","0","2","4","5","4","5","4","4","5","4","5","4","7","6","8","8","7","9","7","8","6","5","5","5","6","5","7","5","7","6","5","1","6","7","2","7","5","6","6","5","7","7","3","6","1","5","6","5","5","5","7","5","6","6","7","3","6","5","5","7","7","5","634030798835548160","吴","440","Male","[""坏我"",""好他"",""好我"",""坏他""]","[""弱我"",""强他"",""强我"",""弱他""]","","","","","","","","no","","","","","","","","","SRET","EW_formal","","key","j","16.653643478260822","799.9999682108573","445.8333156175091","朋友","伪善","Negative","morality","","","","","","","","","","",""
"797","","j","psychophysics","52","349287","0.0-7.0-3.0-0.38","6","5","7","6","5","4","4","4","4","5","5","0","-2","1","2","0","1","0","2","4","5","4","5","4","4","5","4","5","4","7","6","8","8","7","9","7","8","6","5","5","5","6","5","7","5","7","6","5","1","6","7","2","7","5","6","6","5","7","7","3","6","1","5","6","5","5","5","7","5","6","6","7","3","6","5","5","7","7","5","634030798835548160","吴","440","Male","[""坏我"",""好他"",""好我"",""坏他""]","[""弱我"",""强他"",""强我"",""弱他""]","","","","","","","","no","","","","","","","","","SRET","EW_formal","","key","j","16.65344859813079","799.9999682108573","445.8333156175091","朋友","仁爱","Positive","morality","","","","","","","","","","",""
"1459","","f","psychophysics","53","351747","0.0-7.0-3.0-0.39","6","5","7","6","5","4","4","4","4","5","5","0","-2","1","2","0","1","0","2","4","5","4","5","4","4","5","4","5","4","7","6","8","8","7","9","7","8","6","5","5","5","6","5","7","5","7","6","5","1","6","7","2","7","5","6","6","5","7","7","3","6","1","5","6","5","5","5","7","5","6","6","7","3","6","5","5","7","7","5","634030798835548160","吴","440","Male","[""坏我"",""好他"",""好我"",""坏他""]","[""弱我"",""强他"",""强我"",""弱他""]","","","","","","","","yes","","","","","","","","","SRET","EW_formal","","key","f","16.653308219177895","799.9999682108573","445.8333156175091","自己","智慧","Positive","ability","","","","","","","","","","",""
"1347","","j","psychophysics","54","354097","0.0-7.0-3.0-0.40","6","5","7","6","5","4","4","4","4","5","5","0","-2","1","2","0","1","0","2","4","5","4","5","4","4","5","4","5","4","7","6","8","8","7","9","7","8","6","5","5","5","6","5","7","5","7","6","5","1","6","7","2","7","5","6","6","5","7","7","3","6","1","5","6","5","5","5","7","5","6","6","7","3","6","5","5","7","7","5","634030798835548160","吴","440","Male","[""坏我"",""好他"",""好我"",""坏他""]","[""弱我"",""强他"",""强我"",""弱他""]","","","","","","","","no","","","","","","","","","SRET","EW_formal","","key","j","16.652858156028472","799.9999682108573","445.8333156175091","自己","马虎","Negative","ability","","","","","","","","","","",""
"1388","","f","psychophysics","55","356487","0.0-7.0-3.0-0.41","6","5","7","6","5","4","4","4","4","5","5","0","-2","1","2","0","1","0","2","4","5","4","5","4","4","5","4","5","4","7","6","8","8","7","9","7","8","6","5","5","5","6","5","7","5","7","6","5","1","6","7","2","7","5","6","6","5","7","7","3","6","1","5","6","5","5","5","7","5","6","6","7","3","6","5","5","7","7","5","634030798835548160","吴","440","Male","[""坏我"",""好他"",""好我"",""坏他""]","[""弱我"",""强他"",""强我"",""弱他""]","","","","","","","","yes","","","","","","","","","SRET","EW_formal","","key","f","16.653415492957567","799.9999682108573","445.8333156175091","自己","高洁","Positive","morality","","","","","","","","","","",""
"929","","j","psychophysics","56","358418","0.0-7.0-3.0-0.42","6","5","7","6","5","4","4","4","4","5","5","0","-2","1","2","0","1","0","2","4","5","4","5","4","4","5","4","5","4","7","6","8","8","7","9","7","8","6","5","5","5","6","5","7","5","7","6","5","1","6","7","2","7","5","6","6","5","7","7","3","6","1","5","6","5","5","5","7","5","6","6","7","3","6","5","5","7","7","5","634030798835548160","吴","440","Male","[""坏我"",""好他"",""好我"",""坏他""]","[""弱我"",""强他"",""强我"",""弱他""]","","","","","","","","no","","","","","","","","","SRET","EW_formal","","key","j","16.652330434782957","799.9999682108573","445.8333156175091","自己","拙笨","Negative","ability","","","","","","","","","","",""
"1278","","j","psychophysics","57","360698","0.0-7.0-3.0-0.43","6","5","7","6","5","4","4","4","4","5","5","0","-2","1","2","0","1","0","2","4","5","4","5","4","4","5","4","5","4","7","6","8","8","7","9","7","8","6","5","5","5","6","5","7","5","7","6","5","1","6","7","2","7","5","6","6","5","7","7","3","6","1","5","6","5","5","5","7","5","6","6","7","3","6","5","5","7","7","5","634030798835548160","吴","440","Male","[""坏我"",""好他"",""好我"",""坏他""]","[""弱我"",""强他"",""强我"",""弱他""]","","","","","","","","no","","","","","","","","","SRET","EW_formal","","key","j","16.653536764705837","799.9999682108573","445.8333156175091","自己","虚假","Negative","morality","","","","","","","","","","",""
"1248","","j","psychophysics","58","362947","0.0-7.0-3.0-0.44","6","5","7","6","5","4","4","4","4","5","5","0","-2","1","2","0","1","0","2","4","5","4","5","4","4","5","4","5","4","7","6","8","8","7","9","7","8","6","5","5","5","6","5","7","5","7","6","5","1","6","7","2","7","5","6","6","5","7","7","3","6","1","5","6","5","5","5","7","5","6","6","7","3","6","5","5","7","7","5","634030798835548160","吴","440","Male","[""坏我"",""好他"",""好我"",""坏他""]","[""弱我"",""强他"",""强我"",""弱他""]","","","","","","","","no","","","","","","","","","SRET","EW_formal","","key","j","16.652917910448046","799.9999682108573","445.8333156175091","自己","怠惰","Negative","ability","","","","","","","","","","",""
"1046","","f","psychophysics","59","364995","0.0-7.0-3.0-0.45","6","5","7","6","5","4","4","4","4","5","5","0","-2","1","2","0","1","0","2","4","5","4","5","4","4","5","4","5","4","7","6","8","8","7","9","7","8","6","5","5","5","6","5","7","5","7","6","5","1","6","7","2","7","5","6","6","5","7","7","3","6","1","5","6","5","5","5","7","5","6","6","7","3","6","5","5","7","7","5","634030798835548160","吴","440","Male","[""坏我"",""好他"",""好我"",""坏他""]","[""弱我"",""强他"",""强我"",""弱他""]","","","","","","","","yes","","","","","","","","","SRET","EW_formal","","key","f","16.653508196721333","799.9999682108573","445.8333156175091","朋友","扎实","Positive","ability","","","","","","","","","","",""
"1275","","j","psychophysics","60","367270","0.0-7.0-3.0-0.46","6","5","7","6","5","4","4","4","4","5","5","0","-2","1","2","0","1","0","2","4","5","4","5","4","4","5","4","5","4","7","6","8","8","7","9","7","8","6","5","5","5","6","5","7","5","7","6","5","1","6","7","2","7","5","6","6","5","7","7","3","6","1","5","6","5","5","5","7","5","6","6","7","3","6","5","5","7","7","5","634030798835548160","吴","440","Male","[""坏我"",""好他"",""好我"",""坏他""]","[""弱我"",""强他"",""强我"",""弱他""]","","","","","","","","no","","","","","","","","","SRET","EW_formal","","key","j","16.652536764705847","799.9999682108573","445.8333156175091","自己","昏庸","Negative","ability","","","","","","","","","","",""
"1150","","j","psychophysics","61","369421","0.0-7.0-3.0-0.47","6","5","7","6","5","4","4","4","4","5","5","0","-2","1","2","0","1","0","2","4","5","4","5","4","4","5","4","5","4","7","6","8","8","7","9","7","8","6","5","5","5","6","5","7","5","7","6","5","1","6","7","2","7","5","6","6","5","7","7","3","6","1","5","6","5","5","5","7","5","6","6","7","3","6","5","5","7","7","5","634030798835548160","吴","440","Male","[""坏我"",""好他"",""好我"",""坏他""]","[""弱我"",""强他"",""强我"",""弱他""]","","","","","","","","no","","","","","","","","","SRET","EW_formal","","key","j","16.653335937500287","799.9999682108573","445.8333156175091","朋友","沉着","Positive","ability","","","","","","","","","","",""
"1261","","f","psychophysics","62","371683","0.0-7.0-3.0-0.48","6","5","7","6","5","4","4","4","4","5","5","0","-2","1","2","0","1","0","2","4","5","4","5","4","4","5","4","5","4","7","6","8","8","7","9","7","8","6","5","5","5","6","5","7","5","7","6","5","1","6","7","2","7","5","6","6","5","7","7","3","6","1","5","6","5","5","5","7","5","6","6","7","3","6","5","5","7","7","5","634030798835548160","吴","440","Male","[""坏我"",""好他"",""好我"",""坏他""]","[""弱我"",""强他"",""强我"",""弱他""]","","","","","","","","yes","","","","","","","","","SRET","EW_formal","","key","f","16.65349629629636","799.9999682108573","445.8333156175091","朋友","义气","Positive","morality","","","","","","","","","","",""
"1889","","j","psychophysics","63","374574","0.0-7.0-3.0-0.49","6","5","7","6","5","4","4","4","4","5","5","0","-2","1","2","0","1","0","2","4","5","4","5","4","4","5","4","5","4","7","6","8","8","7","9","7","8","6","5","5","5","6","5","7","5","7","6","5","1","6","7","2","7","5","6","6","5","7","7","3","6","1","5","6","5","5","5","7","5","6","6","7","3","6","5","5","7","7","5","634030798835548160","吴","440","Male","[""坏我"",""好他"",""好我"",""坏他""]","[""弱我"",""强他"",""强我"",""弱他""]","","","","","","","","no","","","","","","","","","SRET","EW_formal","","key","j","16.6528313953489","799.9999682108573","445.8333156175091","自己","独断","Negative","ability","","","","","","","","","","",""
"1087","","j","psychophysics","64","376662","0.0-7.0-3.0-0.50","6","5","7","6","5","4","4","4","4","5","5","0","-2","1","2","0","1","0","2","4","5","4","5","4","4","5","4","5","4","7","6","8","8","7","9","7","8","6","5","5","5","6","5","7","5","7","6","5","1","6","7","2","7","5","6","6","5","7","7","3","6","1","5","6","5","5","5","7","5","6","6","7","3","6","5","5","7","7","5","634030798835548160","吴","440","Male","[""坏我"",""好他"",""好我"",""坏他""]","[""弱我"",""强他"",""强我"",""弱他""]","","","","","","","","no","","","","","","","","","SRET","EW_formal","","key","j","16.653496000000274","799.9999682108573","445.8333156175091","自己","失信","Negative","morality","","","","","","","","","","",""
"815","","f","psychophysics","65","378479","0.0-7.0-3.0-0.51","6","5","7","6","5","4","4","4","4","5","5","0","-2","1","2","0","1","0","2","4","5","4","5","4","4","5","4","5","4","7","6","8","8","7","9","7","8","6","5","5","5","6","5","7","5","7","6","5","1","6","7","2","7","5","6","6","5","7","7","3","6","1","5","6","5","5","5","7","5","6","6","7","3","6","5","5","7","7","5","634030798835548160","吴","440","Male","[""坏我"",""好他"",""好我"",""坏他""]","[""弱我"",""强他"",""强我"",""弱他""]","","","","","","","","yes","","","","","","","","","SRET","EW_formal","","key","f","16.65352777777783","799.9999682108573","445.8333156175091","朋友","依靠","Negative","ability","","","","","","","","","","",""
"763","","j","psychophysics","66","380243","0.0-7.0-3.0-0.52","6","5","7","6","5","4","4","4","4","5","5","0","-2","1","2","0","1","0","2","4","5","4","5","4","4","5","4","5","4","7","6","8","8","7","9","7","8","6","5","5","5","6","5","7","5","7","6","5","1","6","7","2","7","5","6","6","5","7","7","3","6","1","5","6","5","5","5","7","5","6","6","7","3","6","5","5","7","7","5","634030798835548160","吴","440","Male","[""坏我"",""好他"",""好我"",""坏他""]","[""弱我"",""强他"",""强我"",""弱他""]","","","","","","","","no","","","","","","","","","SRET","EW_formal","","key","j","16.65339047619075","799.9999682108573","445.8333156175091","朋友","愚钝","Negative","ability","","","","","","","","","","",""
"1185","","f","psychophysics","67","382429","0.0-7.0-3.0-0.53","6","5","7","6","5","4","4","4","4","5","5","0","-2","1","2","0","1","0","2","4","5","4","5","4","4","5","4","5","4","7","6","8","8","7","9","7","8","6","5","5","5","6","5","7","5","7","6","5","1","6","7","2","7","5","6","6","5","7","7","3","6","1","5","6","5","5","5","7","5","6","6","7","3","6","5","5","7","7","5","634030798835548160","吴","440","Male","[""坏我"",""好他"",""好我"",""坏他""]","[""弱我"",""强他"",""强我"",""弱他""]","","","","","","","","yes","","","","","","","","","SRET","EW_formal","","key","f","16.65330769230764","799.9999682108573","445.8333156175091","朋友","勤奋","Positive","ability","","","","","","","","","","",""
"1237","","j","psychophysics","68","384667","0.0-7.0-3.0-0.54","6","5","7","6","5","4","4","4","4","5","5","0","-2","1","2","0","1","0","2","4","5","4","5","4","4","5","4","5","4","7","6","8","8","7","9","7","8","6","5","5","5","6","5","7","5","7","6","5","1","6","7","2","7","5","6","6","5","7","7","3","6","1","5","6","5","5","5","7","5","6","6","7","3","6","5","5","7","7","5","634030798835548160","吴","440","Male","[""坏我"",""好他"",""好我"",""坏他""]","[""弱我"",""强他"",""强我"",""弱他""]","","","","","","","","no","","","","","","","","","SRET","EW_formal","","key","j","16.653293233082973","799.9999682108573","445.8333156175091","朋友","无私","Positive","morality","","","","","","","","","","",""
"986","","f","psychophysics","69","386654","0.0-7.0-3.0-0.55","6","5","7","6","5","4","4","4","4","5","5","0","-2","1","2","0","1","0","2","4","5","4","5","4","4","5","4","5","4","7","6","8","8","7","9","7","8","6","5","5","5","6","5","7","5","7","6","5","1","6","7","2","7","5","6","6","5","7","7","3","6","1","5","6","5","5","5","7","5","6","6","7","3","6","5","5","7","7","5","634030798835548160","吴","440","Male","[""坏我"",""好他"",""好我"",""坏他""]","[""弱我"",""强他"",""强我"",""弱他""]","","","","","","","","yes","","","","","","","","","SRET","EW_formal","","key","f","16.653689075630165","799.9999682108573","445.8333156175091","自己","仗义","Positive","morality","","","","","","","","","","",""
"913","","j","psychophysics","70","388569","0.0-7.0-3.0-0.56","6","5","7","6","5","4","4","4","4","5","5","0","-2","1","2","0","1","0","2","4","5","4","5","4","4","5","4","5","4","7","6","8","8","7","9","7","8","6","5","5","5","6","5","7","5","7","6","5","1","6","7","2","7","5","6","6","5","7","7","3","6","1","5","6","5","5","5","7","5","6","6","7","3","6","5","5","7","7","5","634030798835548160","吴","440","Male","[""坏我"",""好他"",""好我"",""坏他""]","[""弱我"",""强他"",""强我"",""弱他""]","","","","","","","","no","","","","","","","","","SRET","EW_formal","","key","j","16.653035087719264","799.9999682108573","445.8333156175091","自己","奸险","Negative","morality","","","","","","","","","","",""
"1264","","f","psychophysics","71","390834","0.0-7.0-3.0-0.57","6","5","7","6","5","4","4","4","4","5","5","0","-2","1","2","0","1","0","2","4","5","4","5","4","4","5","4","5","4","7","6","8","8","7","9","7","8","6","5","5","5","6","5","7","5","7","6","5","1","6","7","2","7","5","6","6","5","7","7","3","6","1","5","6","5","5","5","7","5","6","6","7","3","6","5","5","7","7","5","634030798835548160","吴","440","Male","[""坏我"",""好他"",""好我"",""坏他""]","[""弱我"",""强他"",""强我"",""弱他""]","","","","","","","","yes","","","","","","","","","SRET","EW_formal","","key","f","16.653392592592475","799.9999682108573","445.8333156175091","朋友","稳健","Positive","ability","","","","","","","","","","",""
"1075","","f","psychophysics","72","392910","0.0-7.0-3.0-0.58","6","5","7","6","5","4","4","4","4","5","5","0","-2","1","2","0","1","0","2","4","5","4","5","4","4","5","4","5","4","7","6","8","8","7","9","7","8","6","5","5","5","6","5","7","5","7","6","5","1","6","7","2","7","5","6","6","5","7","7","3","6","1","5","6","5","5","5","7","5","6","6","7","3","6","5","5","7","7","5","634030798835548160","吴","440","Male","[""坏我"",""好他"",""好我"",""坏他""]","[""弱我"",""强他"",""强我"",""弱他""]","","","","","","","","yes","","","","","","","","","SRET","EW_formal","","key","f","16.653422764227518","799.9999682108573","445.8333156175091","自己","善良","Positive","morality","","","","","","","","","","",""
"1211","","f","psychophysics","73","395122","0.0-7.0-3.0-0.59","6","5","7","6","5","4","4","4","4","5","5","0","-2","1","2","0","1","0","2","4","5","4","5","4","4","5","4","5","4","7","6","8","8","7","9","7","8","6","5","5","5","6","5","7","5","7","6","5","1","6","7","2","7","5","6","6","5","7","7","3","6","1","5","6","5","5","5","7","5","6","6","7","3","6","5","5","7","7","5","634030798835548160","吴","440","Male","[""坏我"",""好他"",""好我"",""坏他""]","[""弱我"",""强他"",""强我"",""弱他""]","","","","","","","","yes","","","","","","","","","SRET","EW_formal","","key","f","16.652962121212056","799.9999682108573","445.8333156175091","朋友","爱国","Positive","morality","","","","","","","","","","",""
"1322","","j","psychophysics","74","397445","0.0-7.0-3.0-0.60","6","5","7","6","5","4","4","4","4","5","5","0","-2","1","2","0","1","0","2","4","5","4","5","4","4","5","4","5","4","7","6","8","8","7","9","7","8","6","5","5","5","6","5","7","5","7","6","5","1","6","7","2","7","5","6","6","5","7","7","3","6","1","5","6","5","5","5","7","5","6","6","7","3","6","5","5","7","7","5","634030798835548160","吴","440","Male","[""坏我"",""好他"",""好我"",""坏他""]","[""弱我"",""强他"",""强我"",""弱他""]","","","","","","","","no","","","","","","","","","SRET","EW_formal","","key","j","16.653489208633243","799.9999682108573","445.8333156175091","朋友","盲目","Negative","ability","","","","","","","","","","",""
"1021","","f","psychophysics","75","399467","0.0-7.0-3.0-0.61","6","5","7","6","5","4","4","4","4","5","5","0","-2","1","2","0","1","0","2","4","5","4","5","4","4","5","4","5","4","7","6","8","8","7","9","7","8","6","5","5","5","6","5","7","5","7","6","5","1","6","7","2","7","5","6","6","5","7","7","3","6","1","5","6","5","5","5","7","5","6","6","7","3","6","5","5","7","7","5","634030798835548160","吴","440","Male","[""坏我"",""好他"",""好我"",""坏他""]","[""弱我"",""强他"",""强我"",""弱他""]","","","","","","","","yes","","","","","","","","","SRET","EW_formal","","key","f","16.653000000000368","799.9999682108573","445.8333156175091","朋友","高尚","Positive","morality","","","","","","","","","","",""
"1210","","j","psychophysics","76","401678","0.0-7.0-3.0-0.62","6","5","7","6","5","4","4","4","4","5","5","0","-2","1","2","0","1","0","2","4","5","4","5","4","4","5","4","5","4","7","6","8","8","7","9","7","8","6","5","5","5","6","5","7","5","7","6","5","1","6","7","2","7","5","6","6","5","7","7","3","6","1","5","6","5","5","5","7","5","6","6","7","3","6","5","5","7","7","5","634030798835548160","吴","440","Male","[""坏我"",""好他"",""好我"",""坏他""]","[""弱我"",""强他"",""强我"",""弱他""]","","","","","","","","no","","","","","","","","","SRET","EW_formal","","key","j","16.652674242424176","799.9999682108573","445.8333156175091","自己","废物","Negative","ability","","","","","","","","","","",""
"886","","f","psychophysics","77","403566","0.0-7.0-3.0-0.63","6","5","7","6","5","4","4","4","4","5","5","0","-2","1","2","0","1","0","2","4","5","4","5","4","4","5","4","5","4","7","6","8","8","7","9","7","8","6","5","5","5","6","5","7","5","7","6","5","1","6","7","2","7","5","6","6","5","7","7","3","6","1","5","6","5","5","5","7","5","6","6","7","3","6","5","5","7","7","5","634030798835548160","吴","440","Male","[""坏我"",""好他"",""好我"",""坏他""]","[""弱我"",""强他"",""强我"",""弱他""]","","","","","","","","yes","","","","","","","","","SRET","EW_formal","","key","f","16.65359821428553","799.9999682108573","445.8333156175091","自己","忠良","Positive","morality","","","","","","","","","","",""
"1152","","j","psychophysics","78","405721","0.0-7.0-3.0-0.64","6","5","7","6","5","4","4","4","4","5","5","0","-2","1","2","0","1","0","2","4","5","4","5","4","4","5","4","5","4","7","6","8","8","7","9","7","8","6","5","5","5","6","5","7","5","7","6","5","1","6","7","2","7","5","6","6","5","7","7","3","6","1","5","6","5","5","5","7","5","6","6","7","3","6","5","5","7","7","5","634030798835548160","吴","440","Male","[""坏我"",""好他"",""好我"",""坏他""]","[""弱我"",""强他"",""强我"",""弱他""]","","","","","","","","no","","","","","","","","","SRET","EW_formal","","key","j","16.652859374999935","799.9999682108573","445.8333156175091","朋友","驽钝","Negative","ability","","","","","","","","","","",""
"1444","","f","psychophysics","79","408167","0.0-7.0-3.0-0.65","6","5","7","6","5","4","4","4","4","5","5","0","-2","1","2","0","1","0","2","4","5","4","5","4","4","5","4","5","4","7","6","8","8","7","9","7","8","6","5","5","5","6","5","7","5","7","6","5","1","6","7","2","7","5","6","6","5","7","7","3","6","1","5","6","5","5","5","7","5","6","6","7","3","6","5","5","7","7","5","634030798835548160","吴","440","Male","[""坏我"",""好他"",""好我"",""坏他""]","[""弱我"",""强他"",""强我"",""弱他""]","","","","","","","","yes","","","","","","","","","SRET","EW_formal","","key","f","16.652993150684928","799.9999682108573","445.8333156175091","朋友","聪明","Positive","ability","","","","","","","","","","",""
"1258","","j","psychophysics","80","410427","0.0-7.0-3.0-0.66","6","5","7","6","5","4","4","4","4","5","5","0","-2","1","2","0","1","0","2","4","5","4","5","4","4","5","4","5","4","7","6","8","8","7","9","7","8","6","5","5","5","6","5","7","5","7","6","5","1","6","7","2","7","5","6","6","5","7","7","3","6","1","5","6","5","5","5","7","5","6","6","7","3","6","5","5","7","7","5","634030798835548160","吴","440","Male","[""坏我"",""好他"",""好我"",""坏他""]","[""弱我"",""强他"",""强我"",""弱他""]","","","","","","","","no","","","","","","","","","SRET","EW_formal","","key","j","16.65293333333339","799.9999682108573","445.8333156175091","朋友","贪腐","Negative","morality","","","","","","","","","","",""
"1369","","j","psychophysics","81","412799","0.0-7.0-3.0-0.67","6","5","7","6","5","4","4","4","4","5","5","0","-2","1","2","0","1","0","2","4","5","4","5","4","4","5","4","5","4","7","6","8","8","7","9","7","8","6","5","5","5","6","5","7","5","7","6","5","1","6","7","2","7","5","6","6","5","7","7","3","6","1","5","6","5","5","5","7","5","6","6","7","3","6","5","5","7","7","5","634030798835548160","吴","440","Male","[""坏我"",""好他"",""好我"",""坏他""]","[""弱我"",""强他"",""强我"",""弱他""]","","","","","","","","no","","","","","","","","","SRET","EW_formal","","key","j","16.65306338028159","799.9999682108573","445.8333156175091","自己","弱智","Negative","ability","","","","","","","","","","",""
"1597","","j","psychophysics","82","415396","0.0-7.0-3.0-0.68","6","5","7","6","5","4","4","4","4","5","5","0","-2","1","2","0","1","0","2","4","5","4","5","4","4","5","4","5","4","7","6","8","8","7","9","7","8","6","5","5","5","6","5","7","5","7","6","5","1","6","7","2","7","5","6","6","5","7","7","3","6","1","5","6","5","5","5","7","5","6","6","7","3","6","5","5","7","7","5","634030798835548160","吴","440","Male","[""坏我"",""好他"",""好我"",""坏他""]","[""弱我"",""强他"",""强我"",""弱他""]","","","","","","","","no","","","","","","","","","SRET","EW_formal","","key","j","16.653232258064445","799.9999682108573","445.8333156175091","朋友","拜金","Negative","morality","","","","","","","","","","",""
"932","","f","psychophysics","83","417341","0.0-7.0-3.0-0.69","6","5","7","6","5","4","4","4","4","5","5","0","-2","1","2","0","1","0","2","4","5","4","5","4","4","5","4","5","4","7","6","8","8","7","9","7","8","6","5","5","5","6","5","7","5","7","6","5","1","6","7","2","7","5","6","6","5","7","7","3","6","1","5","6","5","5","5","7","5","6","6","7","3","6","5","5","7","7","5","634030798835548160","吴","440","Male","[""坏我"",""好他"",""好我"",""坏他""]","[""弱我"",""强他"",""强我"",""弱他""]","","","","","","","","yes","","","","","","","","","SRET","EW_formal","","key","f","16.652843478260785","799.9999682108573","445.8333156175091","自己","君子","Positive","morality","","","","","","","","","","",""
"1084","","f","psychophysics","84","419427","0.0-7.0-3.0-0.70","6","5","7","6","5","4","4","4","4","5","5","0","-2","1","2","0","1","0","2","4","5","4","5","4","4","5","4","5","4","7","6","8","8","7","9","7","8","6","5","5","5","6","5","7","5","7","6","5","1","6","7","2","7","5","6","6","5","7","7","3","6","1","5","6","5","5","5","7","5","6","6","7","3","6","5","5","7","7","5","634030798835548160","吴","440","Male","[""坏我"",""好他"",""好我"",""坏他""]","[""弱我"",""强他"",""强我"",""弱他""]","","","","","","","","yes","","","","","","","","","SRET","EW_formal","","key","f","16.65336800000025","799.9999682108573","445.8333156175091","朋友","自律","Positive","ability","","","","","","","","","","",""
"925","","j","psychophysics","85","421354","0.0-7.0-3.0-0.71","6","5","7","6","5","4","4","4","4","5","5","0","-2","1","2","0","1","0","2","4","5","4","5","4","4","5","4","5","4","7","6","8","8","7","9","7","8","6","5","5","5","6","5","7","5","7","6","5","1","6","7","2","7","5","6","6","5","7","7","3","6","1","5","6","5","5","5","7","5","6","6","7","3","6","5","5","7","7","5","634030798835548160","吴","440","Male","[""坏我"",""好他"",""好我"",""坏他""]","[""弱我"",""强他"",""强我"",""弱他""]","","","","","","","","no","","","","","","","","","SRET","EW_formal","","key","j","16.653043859648996","799.9999682108573","445.8333156175091","自己","愚痴","Negative","ability","","","","","","","","","","",""
"1301","","f","psychophysics","86","423658","0.0-7.0-3.0-0.72","6","5","7","6","5","4","4","4","4","5","5","0","-2","1","2","0","1","0","2","4","5","4","5","4","4","5","4","5","4","7","6","8","8","7","9","7","8","6","5","5","5","6","5","7","5","7","6","5","1","6","7","2","7","5","6","6","5","7","7","3","6","1","5","6","5","5","5","7","5","6","6","7","3","6","5","5","7","7","5","634030798835548160","吴","440","Male","[""坏我"",""好他"",""好我"",""坏他""]","[""弱我"",""强他"",""强我"",""弱他""]","","","","","","","","yes","","","","","","","","","SRET","EW_formal","","key","f","16.65328260869601","799.9999682108573","445.8333156175091","朋友","孝顺","Positive","morality","","","","","","","","","","",""
"1371","","f","psychophysics","87","426031","0.0-7.0-3.0-0.73","6","5","7","6","5","4","4","4","4","5","5","0","-2","1","2","0","1","0","2","4","5","4","5","4","4","5","4","5","4","7","6","8","8","7","9","7","8","6","5","5","5","6","5","7","5","7","6","5","1","6","7","2","7","5","6","6","5","7","7","3","6","1","5","6","5","5","5","7","5","6","6","7","3","6","5","5","7","7","5","634030798835548160","吴","440","Male","[""坏我"",""好他"",""好我"",""坏他""]","[""弱我"",""强他"",""强我"",""弱他""]","","","","","","","","yes","","","","","","","","","SRET","EW_formal","","key","f","16.652914893616927","799.9999682108573","445.8333156175091","自己","敏捷","Positive","ability","","","","","","","","","","",""
"911","","j","psychophysics","88","427943","0.0-7.0-3.0-0.74","6","5","7","6","5","4","4","4","4","5","5","0","-2","1","2","0","1","0","2","4","5","4","5","4","4","5","4","5","4","7","6","8","8","7","9","7","8","6","5","5","5","6","5","7","5","7","6","5","1","6","7","2","7","5","6","6","5","7","7","3","6","1","5","6","5","5","5","7","5","6","6","7","3","6","5","5","7","7","5","634030798835548160","吴","440","Male","[""坏我"",""好他"",""好我"",""坏他""]","[""弱我"",""强他"",""强我"",""弱他""]","","","","","","","","no","","","","","","","","","SRET","EW_formal","","key","j","16.65281578947396","799.9999682108573","445.8333156175091","自己","蛇蝎","Negative","morality","","","","","","","","","","",""
"874","","f","psychophysics","89","429818","0.0-7.0-3.0-0.75","6","5","7","6","5","4","4","4","4","5","5","0","-2","1","2","0","1","0","2","4","5","4","5","4","4","5","4","5","4","7","6","8","8","7","9","7","8","6","5","5","5","6","5","7","5","7","6","5","1","6","7","2","7","5","6","6","5","7","7","3","6","1","5","6","5","5","5","7","5","6","6","7","3","6","5","5","7","7","5","634030798835548160","吴","440","Male","[""坏我"",""好他"",""好我"",""坏他""]","[""弱我"",""强他"",""强我"",""弱他""]","","","","","","","","yes","","","","","","","","","SRET","EW_formal","","key","f","16.65297321428547","799.9999682108573","445.8333156175091","朋友","廉正","Positive","morality","","","","","","","","","","",""
"797","","f","psychophysics","90","431617","0.0-7.0-3.0-0.76","6","5","7","6","5","4","4","4","4","5","5","0","-2","1","2","0","1","0","2","4","5","4","5","4","4","5","4","5","4","7","6","8","8","7","9","7","8","6","5","5","5","6","5","7","5","7","6","5","1","6","7","2","7","5","6","6","5","7","7","3","6","1","5","6","5","5","5","7","5","6","6","7","3","6","5","5","7","7","5","634030798835548160","吴","440","Male","[""坏我"",""好他"",""好我"",""坏他""]","[""弱我"",""强他"",""强我"",""弱他""]","","","","","","","","yes","","","","","","","","","SRET","EW_formal","","key","f","16.653420560747367","799.9999682108573","445.8333156175091","自己","好心","Positive","morality","","","","","","","","","","",""
"1035","","f","psychophysics","91","433652","0.0-7.0-3.0-0.77","6","5","7","6","5","4","4","4","4","5","5","0","-2","1","2","0","1","0","2","4","5","4","5","4","4","5","4","5","4","7","6","8","8","7","9","7","8","6","5","5","5","6","5","7","5","7","6","5","1","6","7","2","7","5","6","6","5","7","7","3","6","1","5","6","5","5","5","7","5","6","6","7","3","6","5","5","7","7","5","634030798835548160","吴","440","Male","[""坏我"",""好他"",""好我"",""坏他""]","[""弱我"",""强他"",""强我"",""弱他""]","","","","","","","","yes","","","","","","","","","SRET","EW_formal","","key","f","16.65289256198347","799.9999682108573","445.8333156175091","自己","专注","Positive","ability","","","","","","","","","","",""
"960","","j","psychophysics","92","435613","0.0-7.0-3.0-0.78","6","5","7","6","5","4","4","4","4","5","5","0","-2","1","2","0","1","0","2","4","5","4","5","4","4","5","4","5","4","7","6","8","8","7","9","7","8","6","5","5","5","6","5","7","5","7","6","5","1","6","7","2","7","5","6","6","5","7","7","3","6","1","5","6","5","5","5","7","5","6","6","7","3","6","5","5","7","7","5","634030798835548160","吴","440","Male","[""坏我"",""好他"",""好我"",""坏他""]","[""弱我"",""强他"",""强我"",""弱他""]","","","","","","","","no","","","","","","","","","SRET","EW_formal","","key","j","16.653470085470133","799.9999682108573","445.8333156175091","朋友","无耻","Negative","morality","","","","","","","","","","",""
"952","","j","psychophysics","93","437567","0.0-7.0-3.0-0.79","6","5","7","6","5","4","4","4","4","5","5","0","-2","1","2","0","1","0","2","4","5","4","5","4","4","5","4","5","4","7","6","8","8","7","9","7","8","6","5","5","5","6","5","7","5","7","6","5","1","6","7","2","7","5","6","6","5","7","7","3","6","1","5","6","5","5","5","7","5","6","6","7","3","6","5","5","7","7","5","634030798835548160","吴","440","Male","[""坏我"",""好他"",""好我"",""坏他""]","[""弱我"",""强他"",""强我"",""弱他""]","","","","","","","","no","","","","","","","","","SRET","EW_formal","","key","j","16.65356034482729","799.9999682108573","445.8333156175091","自己","不仁","Negative","morality","","","","","","","","","","",""
"1027","","j","psychophysics","94","439595","0.0-7.0-3.0-0.80","6","5","7","6","5","4","4","4","4","5","5","0","-2","1","2","0","1","0","2","4","5","4","5","4","4","5","4","5","4","7","6","8","8","7","9","7","8","6","5","5","5","6","5","7","5","7","6","5","1","6","7","2","7","5","6","6","5","7","7","3","6","1","5","6","5","5","5","7","5","6","6","7","3","6","5","5","7","7","5","634030798835548160","吴","440","Male","[""坏我"",""好他"",""好我"",""坏他""]","[""弱我"",""强他"",""强我"",""弱他""]","","","","","","","","no","","","","","","","","","SRET","EW_formal","","key","j","16.652495867768515","799.9999682108573","445.8333156175091","朋友","混账","Negative","morality","","","","","","","","","","",""
"1101","","f","psychophysics","95","441697","0.0-7.0-3.0-0.81","6","5","7","6","5","4","4","4","4","5","5","0","-2","1","2","0","1","0","2","4","5","4","5","4","4","5","4","5","4","7","6","8","8","7","9","7","8","6","5","5","5","6","5","7","5","7","6","5","1","6","7","2","7","5","6","6","5","7","7","3","6","1","5","6","5","5","5","7","5","6","6","7","3","6","5","5","7","7","5","634030798835548160","吴","440","Male","[""坏我"",""好他"",""好我"",""坏他""]","[""弱我"",""强他"",""强我"",""弱他""]","","","","","","","","yes","","","","","","","","","SRET","EW_formal","","key","f","16.653672000000252","799.9999682108573","445.8333156175091","朋友","刚正","Positive","morality","","","","","","","","","","",""
"949","","j","psychophysics","96","443648","0.0-7.0-3.0-0.82","6","5","7","6","5","4","4","4","4","5","5","0","-2","1","2","0","1","0","2","4","5","4","5","4","4","5","4","5","4","7","6","8","8","7","9","7","8","6","5","5","5","6","5","7","5","7","6","5","1","6","7","2","7","5","6","6","5","7","7","3","6","1","5","6","5","5","5","7","5","6","6","7","3","6","5","5","7","7","5","634030798835548160","吴","440","Male","[""坏我"",""好他"",""好我"",""坏他""]","[""弱我"",""强他"",""强我"",""弱他""]","","","","","","","","no","","","","","","","","","SRET","EW_formal","","key","j","16.652870689654733","799.9999682108573","445.8333156175091","自己","邪恶","Negative","morality","","","","","","","","","","",""
"778","","f","psychophysics","97","445428","0.0-7.0-3.0-0.83","6","5","7","6","5","4","4","4","4","5","5","0","-2","1","2","0","1","0","2","4","5","4","5","4","4","5","4","5","4","7","6","8","8","7","9","7","8","6","5","5","5","6","5","7","5","7","6","5","1","6","7","2","7","5","6","6","5","7","7","3","6","1","5","6","5","5","5","7","5","6","6","7","3","6","5","5","7","7","5","634030798835548160","吴","440","Male","[""坏我"",""好他"",""好我"",""坏他""]","[""弱我"",""强他"",""强我"",""弱他""]","","","","","","","","yes","","","","","","","","","SRET","EW_formal","","key","f","16.653669811320658","799.9999682108573","445.8333156175091","自己","热心","Positive","morality","","","","","","","","","","",""
"870","","j","psychophysics","98","447299","0.0-7.0-3.0-0.84","6","5","7","6","5","4","4","4","4","5","5","0","-2","1","2","0","1","0","2","4","5","4","5","4","4","5","4","5","4","7","6","8","8","7","9","7","8","6","5","5","5","6","5","7","5","7","6","5","1","6","7","2","7","5","6","6","5","7","7","3","6","1","5","6","5","5","5","7","5","6","6","7","3","6","5","5","7","7","5","634030798835548160","吴","440","Male","[""坏我"",""好他"",""好我"",""坏他""]","[""弱我"",""强他"",""强我"",""弱他""]","","","","","","","","no","","","","","","","","","SRET","EW_formal","","key","j","16.65296396396389","799.9999682108573","445.8333156175091","自己","缓慢","Negative","ability","","","","","","","","","","",""
"794","","f","psychophysics","99","449093","0.0-7.0-3.0-0.85","6","5","7","6","5","4","4","4","4","5","5","0","-2","1","2","0","1","0","2","4","5","4","5","4","4","5","4","5","4","7","6","8","8","7","9","7","8","6","5","5","5","6","5","7","5","7","6","5","1","6","7","2","7","5","6","6","5","7","7","3","6","1","5","6","5","5","5","7","5","6","6","7","3","6","5","5","7","7","5","634030798835548160","吴","440","Male","[""坏我"",""好他"",""好我"",""坏他""]","[""弱我"",""强他"",""强我"",""弱他""]","","","","","","","","yes","","","","","","","","","SRET","EW_formal","","key","f","16.653588785046807","799.9999682108573","445.8333156175091","朋友","素养","Positive","morality","","","","","","","","","","",""
"756","","f","psychophysics","100","450851","0.0-7.0-3.0-0.86","6","5","7","6","5","4","4","4","4","5","5","0","-2","1","2","0","1","0","2","4","5","4","5","4","4","5","4","5","4","7","6","8","8","7","9","7","8","6","5","5","5","6","5","7","5","7","6","5","1","6","7","2","7","5","6","6","5","7","7","3","6","1","5","6","5","5","5","7","5","6","6","7","3","6","5","5","7","7","5","634030798835548160","吴","440","Male","[""坏我"",""好他"",""好我"",""坏他""]","[""弱我"",""强他"",""强我"",""弱他""]","","","","","","","","yes","","","","","","","","","SRET","EW_formal","","key","f","16.65358095238085","799.9999682108573","445.8333156175091","自己","主见","Positive","ability","","","","","","","","","","",""
"1023","","j","psychophysics","101","452875","0.0-7.0-3.0-0.87","6","5","7","6","5","4","4","4","4","5","5","0","-2","1","2","0","1","0","2","4","5","4","5","4","4","5","4","5","4","7","6","8","8","7","9","7","8","6","5","5","5","6","5","7","5","7","6","5","1","6","7","2","7","5","6","6","5","7","7","3","6","1","5","6","5","5","5","7","5","6","6","7","3","6","5","5","7","7","5","634030798835548160","吴","440","Male","[""坏我"",""好他"",""好我"",""坏他""]","[""弱我"",""强他"",""强我"",""弱他""]","","","","","","","","no","","","","","","","","","SRET","EW_formal","","key","j","16.653416666666452","799.9999682108573","445.8333156175091","朋友","低俗","Negative","morality","","","","","","","","","","",""
"25038","
    <p><div style='color:white;font-size:35px; line-height:20px;'>计算任务</div></p><br>
    <p><div style='color:red;font-size:25px; line-height:20px;'>接下来，您将看到一些四则运算题，<b>请从键盘选择 0-9 进行反应。</b></div></p>
    <p><div style='color:red;font-size:25px; line-height:20px;'>请尽可能快地进行计算，计算的速度和正确率将影响报酬的发放。</div></p>
    <p><div class='footer' style='color:white;font-size:25px; line-height:20px;'>如果对本实验还有不清楚之处，请立即向实验员咨询。</p><p style='color:white;font-size:25px; line-height:20px;'>如果您明白了规则：</p><p style='color:white;font-size:22px; line-height:20px;'>请按 继续 进入练习</p>
    </div>
    ","0","html-button-response","102","477914","0.0-7.0-4.0","6","5","7","6","5","4","4","4","4","5","5","0","-2","1","2","0","1","0","2","4","5","4","5","4","4","5","4","5","4","7","6","8","8","7","9","7","8","6","5","5","5","6","5","7","5","7","6","5","1","6","7","2","7","5","6","6","5","7","7","3","6","1","5","6","5","5","5","7","5","6","6","7","3","6","5","5","7","7","5","634030798835548160","吴","440","Male","[""坏我"",""好他"",""好我"",""坏他""]","[""弱我"",""强他"",""强我"",""弱他""]","","","","","","","","","","","","","","","","","SRET_math","math_instructions","Sat Dec 09 2023 16:08:08 GMT+0800 (中国标准时间)","","","","","","","","","","","","","","","","","","","",""
"3932","","6","psychophysics","103","481849","0.0-7.0-5.0-0.0","6","5","7","6","5","4","4","4","4","5","5","0","-2","1","2","0","1","0","2","4","5","4","5","4","4","5","4","5","4","7","6","8","8","7","9","7","8","6","5","5","5","6","5","7","5","7","6","5","1","6","7","2","7","5","6","6","5","7","7","3","6","1","5","6","5","5","5","7","5","6","6","7","3","6","5","5","7","7","5","634030798835548160","吴","440","Male","[""坏我"",""好他"",""好我"",""坏他""]","[""弱我"",""强他"",""强我"",""弱他""]","","","","","","","","6","","","","","","","","","SRET","SRET_math_calculate","","key","6","16.653347457627127","799.9999682108573","445.8333156175091","","","","","8-2= ?","6","1","","","","","","","",""
"7637","","4","psychophysics","104","489487","0.0-7.0-5.0-0.1","6","5","7","6","5","4","4","4","4","5","5","0","-2","1","2","0","1","0","2","4","5","4","5","4","4","5","4","5","4","7","6","8","8","7","9","7","8","6","5","5","5","6","5","7","5","7","6","5","1","6","7","2","7","5","6","6","5","7","7","3","6","1","5","6","5","5","5","7","5","6","6","7","3","6","5","5","7","7","5","634030798835548160","吴","440","Male","[""坏我"",""好他"",""好我"",""坏他""]","[""弱我"",""强他"",""强我"",""弱他""]","","","","","","","","4","","","","","","","","","SRET","SRET_math_calculate","","key","4","16.65305676855903","799.9999682108573","445.8333156175091","","","","","4*1= ?","4","1","","","","","","","",""
"4227","","6","psychophysics","105","493716","0.0-7.0-5.0-0.2","6","5","7","6","5","4","4","4","4","5","5","0","-2","1","2","0","1","0","2","4","5","4","5","4","4","5","4","5","4","7","6","8","8","7","9","7","8","6","5","5","5","6","5","7","5","7","6","5","1","6","7","2","7","5","6","6","5","7","7","3","6","1","5","6","5","5","5","7","5","6","6","7","3","6","5","5","7","7","5","634030798835548160","吴","440","Male","[""坏我"",""好他"",""好我"",""坏他""]","[""弱我"",""强他"",""强我"",""弱他""]","","","","","","","","6","","","","","","","","","SRET","SRET_math_calculate","","key","6","16.653213438735317","799.9999682108573","445.8333156175091","","","","","2+4= ?","6","1","","","","","","","",""
"4738","","3","psychophysics","106","498456","0.0-7.0-5.0-0.3","6","5","7","6","5","4","4","4","4","5","5","0","-2","1","2","0","1","0","2","4","5","4","5","4","4","5","4","5","4","7","6","8","8","7","9","7","8","6","5","5","5","6","5","7","5","7","6","5","1","6","7","2","7","5","6","6","5","7","7","3","6","1","5","6","5","5","5","7","5","6","6","7","3","6","5","5","7","7","5","634030798835548160","吴","440","Male","[""坏我"",""好他"",""好我"",""坏他""]","[""弱我"",""强他"",""强我"",""弱他""]","","","","","","","","3","","","","","","","","","SRET","SRET_math_calculate","","key","3","16.65294699646638","799.9999682108573","445.8333156175091","","","","","12/4= ?","3","1","","","","","","","",""
"3842","","7","psychophysics","107","502300","0.0-7.0-5.0-0.4","6","5","7","6","5","4","4","4","4","5","5","0","-2","1","2","0","1","0","2","4","5","4","5","4","4","5","4","5","4","7","6","8","8","7","9","7","8","6","5","5","5","6","5","7","5","7","6","5","1","6","7","2","7","5","6","6","5","7","7","3","6","1","5","6","5","5","5","7","5","6","6","7","3","6","5","5","7","7","5","634030798835548160","吴","440","Male","[""坏我"",""好他"",""好我"",""坏他""]","[""弱我"",""强他"",""强我"",""弱他""]","","","","","","","","7","","","","","","","","","SRET","SRET_math_calculate","","key","7","16.653269565217297","799.9999682108573","445.8333156175091","","","","","2+5= ?","7","1","","","","","","","",""
"4818","","8","psychophysics","108","507120","0.0-7.0-5.0-0.5","6","5","7","6","5","4","4","4","4","5","5","0","-2","1","2","0","1","0","2","4","5","4","5","4","4","5","4","5","4","7","6","8","8","7","9","7","8","6","5","5","5","6","5","7","5","7","6","5","1","6","7","2","7","5","6","6","5","7","7","3","6","1","5","6","5","5","5","7","5","6","6","7","3","6","5","5","7","7","5","634030798835548160","吴","440","Male","[""坏我"",""好他"",""好我"",""坏他""]","[""弱我"",""强他"",""强我"",""弱他""]","","","","","","","","8","","","","","","","","","SRET","SRET_math_calculate","","key","8","16.653273356401492","799.9999682108573","445.8333156175091","","","","","56/7= ?","8","1","","","","","","","",""
"5329","","9","psychophysics","109","512452","0.0-7.0-5.0-0.6","6","5","7","6","5","4","4","4","4","5","5","0","-2","1","2","0","1","0","2","4","5","4","5","4","4","5","4","5","4","7","6","8","8","7","9","7","8","6","5","5","5","6","5","7","5","7","6","5","1","6","7","2","7","5","6","6","5","7","7","3","6","1","5","6","5","5","5","7","5","6","6","7","3","6","5","5","7","7","5","634030798835548160","吴","440","Male","[""坏我"",""好他"",""好我"",""坏他""]","[""弱我"",""强他"",""强我"",""弱他""]","","","","","","","","9","","","","","","","","","SRET","SRET_math_calculate","","key","9","16.653043887147323","799.9999682108573","445.8333156175091","","","","","81/9= ?","9","1","","","","","","","",""
"3703","","2","psychophysics","110","516156","0.0-7.0-5.0-0.7","6","5","7","6","5","4","4","4","4","5","5","0","-2","1","2","0","1","0","2","4","5","4","5","4","4","5","4","5","4","7","6","8","8","7","9","7","8","6","5","5","5","6","5","7","5","7","6","5","1","6","7","2","7","5","6","6","5","7","7","3","6","1","5","6","5","5","5","7","5","6","6","7","3","6","5","5","7","7","5","634030798835548160","吴","440","Male","[""坏我"",""好他"",""好我"",""坏他""]","[""弱我"",""强他"",""强我"",""弱他""]","","","","","","","","2","","","","","","","","","SRET","SRET_math_calculate","","key","2","16.652583710407065","799.9999682108573","445.8333156175091","","","","","9-7= ?","2","1","","","","","","","",""
"4230","","8","psychophysics","111","520387","0.0-7.0-5.0-0.8","6","5","7","6","5","4","4","4","4","5","5","0","-2","1","2","0","1","0","2","4","5","4","5","4","4","5","4","5","4","7","6","8","8","7","9","7","8","6","5","5","5","6","5","7","5","7","6","5","1","6","7","2","7","5","6","6","5","7","7","3","6","1","5","6","5","5","5","7","5","6","6","7","3","6","5","5","7","7","5","634030798835548160","吴","440","Male","[""坏我"",""好他"",""好我"",""坏他""]","[""弱我"",""强他"",""强我"",""弱他""]","","","","","","","","8","","","","","","","","","SRET","SRET_math_calculate","","key","8","16.65326482213444","799.9999682108573","445.8333156175091","","","","","13-5= ?","8","1","","","","","","","",""
"2424","","9","psychophysics","112","522812","0.0-7.0-5.0-0.9","6","5","7","6","5","4","4","4","4","5","5","0","-2","1","2","0","1","0","2","4","5","4","5","4","4","5","4","5","4","7","6","8","8","7","9","7","8","6","5","5","5","6","5","7","5","7","6","5","1","6","7","2","7","5","6","6","5","7","7","3","6","1","5","6","5","5","5","7","5","6","6","7","3","6","5","5","7","7","5","634030798835548160","吴","440","Male","[""坏我"",""好他"",""好我"",""坏他""]","[""弱我"",""强他"",""强我"",""弱他""]","","","","","","","","9","","","","","","","","","SRET","SRET_math_calculate","","key","9","16.65346206896577","799.9999682108573","445.8333156175091","","","","","1+8= ?","9","1","","","","","","","",""
"3926","","9","psychophysics","113","526740","0.0-7.0-5.0-0.10","6","5","7","6","5","4","4","4","4","5","5","0","-2","1","2","0","1","0","2","4","5","4","5","4","4","5","4","5","4","7","6","8","8","7","9","7","8","6","5","5","5","6","5","7","5","7","6","5","1","6","7","2","7","5","6","6","5","7","7","3","6","1","5","6","5","5","5","7","5","6","6","7","3","6","5","5","7","7","5","634030798835548160","吴","440","Male","[""坏我"",""好他"",""好我"",""坏他""]","[""弱我"",""强他"",""强我"",""弱他""]","","","","","","","","9","","","","","","","","","SRET","SRET_math_calculate","","key","9","16.653191489361703","799.9999682108573","445.8333156175091","","","","","6+3= ?","9","1","","","","","","","",""
"4573","","9","psychophysics","114","531315","0.0-7.0-5.0-0.11","6","5","7","6","5","4","4","4","4","5","5","0","-2","1","2","0","1","0","2","4","5","4","5","4","4","5","4","5","4","7","6","8","8","7","9","7","8","6","5","5","5","6","5","7","5","7","6","5","1","6","7","2","7","5","6","6","5","7","7","3","6","1","5","6","5","5","5","7","5","6","6","7","3","6","5","5","7","7","5","634030798835548160","吴","440","Male","[""坏我"",""好他"",""好我"",""坏他""]","[""弱我"",""强他"",""强我"",""弱他""]","","","","","","","","9","","","","","","","","","SRET","SRET_math_calculate","","key","9","16.65317948717938","799.9999682108573","445.8333156175091","","","","","32-23= ?","9","1","","","","","","","",""
"3667","","3","psychophysics","115","534984","0.0-7.0-5.0-0.12","6","5","7","6","5","4","4","4","4","5","5","0","-2","1","2","0","1","0","2","4","5","4","5","4","4","5","4","5","4","7","6","8","8","7","9","7","8","6","5","5","5","6","5","7","5","7","6","5","1","6","7","2","7","5","6","6","5","7","7","3","6","1","5","6","5","5","5","7","5","6","6","7","3","6","5","5","7","7","5","634030798835548160","吴","440","Male","[""坏我"",""好他"",""好我"",""坏他""]","[""弱我"",""强他"",""强我"",""弱他""]","","","","","","","","3","","","","","","","","","SRET","SRET_math_calculate","","key","3","16.653309090909104","799.9999682108573","445.8333156175091","","","","","8-5= ?","3","1","","","","","","","",""
"4154","","7","psychophysics","116","539140","0.0-7.0-5.0-0.13","6","5","7","6","5","4","4","4","4","5","5","0","-2","1","2","0","1","0","2","4","5","4","5","4","4","5","4","5","4","7","6","8","8","7","9","7","8","6","5","5","5","6","5","7","5","7","6","5","1","6","7","2","7","5","6","6","5","7","7","3","6","1","5","6","5","5","5","7","5","6","6","7","3","6","5","5","7","7","5","634030798835548160","吴","440","Male","[""坏我"",""好他"",""好我"",""坏他""]","[""弱我"",""强他"",""强我"",""弱他""]","","","","","","","","7","","","","","","","","","SRET","SRET_math_calculate","","key","7","16.65280645161317","799.9999682108573","445.8333156175091","","","","","12-5= ?","7","1","","","","","","","",""
"5636","","9","psychophysics","117","544777","0.0-7.0-5.0-0.14","6","5","7","6","5","4","4","4","4","5","5","0","-2","1","2","0","1","0","2","4","5","4","5","4","4","5","4","5","4","7","6","8","8","7","9","7","8","6","5","5","5","6","5","7","5","7","6","5","1","6","7","2","7","5","6","6","5","7","7","3","6","1","5","6","5","5","5","7","5","6","6","7","3","6","5","5","7","7","5","634030798835548160","吴","440","Male","[""坏我"",""好他"",""好我"",""坏他""]","[""弱我"",""强他"",""强我"",""弱他""]","","","","","","","","9","","","","","","","","","SRET","SRET_math_calculate","","key","9","16.652855029585908","799.9999682108573","445.8333156175091","","","","","5+4= ?","9","1","","","","","","","",""
"3360","","1","psychophysics","118","548139","0.0-7.0-5.0-0.15","6","5","7","6","5","4","4","4","4","5","5","0","-2","1","2","0","1","0","2","4","5","4","5","4","4","5","4","5","4","7","6","8","8","7","9","7","8","6","5","5","5","6","5","7","5","7","6","5","1","6","7","2","7","5","6","6","5","7","7","3","6","1","5","6","5","5","5","7","5","6","6","7","3","6","5","5","7","7","5","634030798835548160","吴","440","Male","[""坏我"",""好他"",""好我"",""坏他""]","[""弱我"",""强他"",""强我"",""弱他""]","","","","","","","","1","","","","","","","","","SRET","SRET_math_calculate","","key","1","16.653373134328834","799.9999682108573","445.8333156175091","","","","","10-9= ?","1","1","","","","","","","",""
"6840","","5","psychophysics","119","554980","0.0-7.0-5.0-0.16","6","5","7","6","5","4","4","4","4","5","5","0","-2","1","2","0","1","0","2","4","5","4","5","4","4","5","4","5","4","7","6","8","8","7","9","7","8","6","5","5","5","6","5","7","5","7","6","5","1","6","7","2","7","5","6","6","5","7","7","3","6","1","5","6","5","5","5","7","5","6","6","7","3","6","5","5","7","7","5","634030798835548160","吴","440","Male","[""坏我"",""好他"",""好我"",""坏他""]","[""弱我"",""强他"",""强我"",""弱他""]","","","","","","","","5","","","","","","","","","SRET","SRET_math_calculate","","key","5","16.65322439024401","799.9999682108573","445.8333156175091","","","","","5/1= ?","5","1","","","","","","","",""
"4352","","2","psychophysics","120","559336","0.0-7.0-5.0-0.17","6","5","7","6","5","4","4","4","4","5","5","0","-2","1","2","0","1","0","2","4","5","4","5","4","4","5","4","5","4","7","6","8","8","7","9","7","8","6","5","5","5","6","5","7","5","7","6","5","1","6","7","2","7","5","6","6","5","7","7","3","6","1","5","6","5","5","5","7","5","6","6","7","3","6","5","5","7","7","5","634030798835548160","吴","440","Male","[""坏我"",""好他"",""好我"",""坏他""]","[""弱我"",""强他"",""强我"",""弱他""]","","","","","","","","2","","","","","","","","","SRET","SRET_math_calculate","","key","2","16.652900000000283","799.9999682108573","445.8333156175091","","","","","18/9= ?","2","1","","","","","","","",""
"4252","","2","psychophysics","121","563589","0.0-7.0-5.0-0.18","6","5","7","6","5","4","4","4","4","5","5","0","-2","1","2","0","1","0","2","4","5","4","5","4","4","5","4","5","4","7","6","8","8","7","9","7","8","6","5","5","5","6","5","7","5","7","6","5","1","6","7","2","7","5","6","6","5","7","7","3","6","1","5","6","5","5","5","7","5","6","6","7","3","6","5","5","7","7","5","634030798835548160","吴","440","Male","[""坏我"",""好他"",""好我"",""坏他""]","[""弱我"",""强他"",""强我"",""弱他""]","","","","","","","","2","","","","","","","","","SRET","SRET_math_calculate","","key","2","16.653105882353003","799.9999682108573","445.8333156175091","","","","","22/11= ?","2","1","","","","","","","",""
"2368","","7","psychophysics","122","565961","0.0-7.0-5.0-0.19","6","5","7","6","5","4","4","4","4","5","5","0","-2","1","2","0","1","0","2","4","5","4","5","4","4","5","4","5","4","7","6","8","8","7","9","7","8","6","5","5","5","6","5","7","5","7","6","5","1","6","7","2","7","5","6","6","5","7","7","3","6","1","5","6","5","5","5","7","5","6","6","7","3","6","5","5","7","7","5","634030798835548160","吴","440","Male","[""坏我"",""好他"",""好我"",""坏他""]","[""弱我"",""强他"",""强我"",""弱他""]","","","","","","","","7","","","","","","","","","SRET","SRET_math_calculate","","key","7","16.653042553190854","799.9999682108573","445.8333156175091","","","","","1+6= ?","7","1","","","","","","","",""
"3502","","2","psychophysics","123","569465","0.0-7.0-5.0-0.20","6","5","7","6","5","4","4","4","4","5","5","0","-2","1","2","0","1","0","2","4","5","4","5","4","4","5","4","5","4","7","6","8","8","7","9","7","8","6","5","5","5","6","5","7","5","7","6","5","1","6","7","2","7","5","6","6","5","7","7","3","6","1","5","6","5","5","5","7","5","6","6","7","3","6","5","5","7","7","5","634030798835548160","吴","440","Male","[""坏我"",""好他"",""好我"",""坏他""]","[""弱我"",""强他"",""强我"",""弱他""]","","","","","","","","2","","","","","","","","","SRET","SRET_math_calculate","","key","2","16.65338277511976","799.9999682108573","445.8333156175091","","","","","8-6= ?","2","1","","","","","","","",""
"4159","","6","psychophysics","124","573624","0.0-7.0-5.0-0.21","6","5","7","6","5","4","4","4","4","5","5","0","-2","1","2","0","1","0","2","4","5","4","5","4","4","5","4","5","4","7","6","8","8","7","9","7","8","6","5","5","5","6","5","7","5","7","6","5","1","6","7","2","7","5","6","6","5","7","7","3","6","1","5","6","5","5","5","7","5","6","6","7","3","6","5","5","7","7","5","634030798835548160","吴","440","Male","[""坏我"",""好他"",""好我"",""坏他""]","[""弱我"",""强他"",""强我"",""弱他""]","","","","","","","","6","","","","","","","","","SRET","SRET_math_calculate","","key","6","16.653064257028163","799.9999682108573","445.8333156175091","","","","","2*3= ?","6","1","","","","","","","",""
"2744","","0","psychophysics","125","576370","0.0-7.0-5.0-0.22","6","5","7","6","5","4","4","4","4","5","5","0","-2","1","2","0","1","0","2","4","5","4","5","4","4","5","4","5","4","7","6","8","8","7","9","7","8","6","5","5","5","6","5","7","5","7","6","5","1","6","7","2","7","5","6","6","5","7","7","3","6","1","5","6","5","5","5","7","5","6","6","7","3","6","5","5","7","7","5","634030798835548160","吴","440","Male","[""坏我"",""好他"",""好我"",""坏他""]","[""弱我"",""强他"",""强我"",""弱他""]","","","","","","","","0","","","","","","","","","SRET","SRET_math_calculate","","key","0","16.65295121951239","799.9999682108573","445.8333156175091","","","","","1-1= ?","0","1","","","","","","","",""
"3408","","8","psychophysics","126","579779","0.0-7.0-5.0-0.23","6","5","7","6","5","4","4","4","4","5","5","0","-2","1","2","0","1","0","2","4","5","4","5","4","4","5","4","5","4","7","6","8","8","7","9","7","8","6","5","5","5","6","5","7","5","7","6","5","1","6","7","2","7","5","6","6","5","7","7","3","6","1","5","6","5","5","5","7","5","6","6","7","3","6","5","5","7","7","5","634030798835548160","吴","440","Male","[""坏我"",""好他"",""好我"",""坏他""]","[""弱我"",""强他"",""强我"",""弱他""]","","","","","","","","8","","","","","","","","","SRET","SRET_math_calculate","","key","8","16.652857843137635","799.9999682108573","445.8333156175091","","","","","5+3= ?","8","1","","","","","","","",""
"5652","","3","psychophysics","127","585432","0.0-7.0-5.0-0.24","6","5","7","6","5","4","4","4","4","5","5","0","-2","1","2","0","1","0","2","4","5","4","5","4","4","5","4","5","4","7","6","8","8","7","9","7","8","6","5","5","5","6","5","7","5","7","6","5","1","6","7","2","7","5","6","6","5","7","7","3","6","1","5","6","5","5","5","7","5","6","6","7","3","6","5","5","7","7","5","634030798835548160","吴","440","Male","[""坏我"",""好他"",""好我"",""坏他""]","[""弱我"",""强他"",""强我"",""弱他""]","","","","","","","","3","","","","","","","","","SRET","SRET_math_calculate","","key","3","16.653103550296063","799.9999682108573","445.8333156175091","","","","","21/7=  ?","3","1","","","","","","","",""
"3495","","6","psychophysics","128","588929","0.0-7.0-5.0-0.25","6","5","7","6","5","4","4","4","4","5","5","0","-2","1","2","0","1","0","2","4","5","4","5","4","4","5","4","5","4","7","6","8","8","7","9","7","8","6","5","5","5","6","5","7","5","7","6","5","1","6","7","2","7","5","6","6","5","7","7","3","6","1","5","6","5","5","5","7","5","6","6","7","3","6","5","5","7","7","5","634030798835548160","吴","440","Male","[""坏我"",""好他"",""好我"",""坏他""]","[""弱我"",""强他"",""强我"",""弱他""]","","","","","","","","6","","","","","","","","","SRET","SRET_math_calculate","","key","6","16.653373205741314","799.9999682108573","445.8333156175091","","","","","11-5= ?","6","1","","","","","","","",""
"3715","","8","psychophysics","129","592646","0.0-7.0-5.0-0.26","6","5","7","6","5","4","4","4","4","5","5","0","-2","1","2","0","1","0","2","4","5","4","5","4","4","5","4","5","4","7","6","8","8","7","9","7","8","6","5","5","5","6","5","7","5","7","6","5","1","6","7","2","7","5","6","6","5","7","7","3","6","1","5","6","5","5","5","7","5","6","6","7","3","6","5","5","7","7","5","634030798835548160","吴","440","Male","[""坏我"",""好他"",""好我"",""坏他""]","[""弱我"",""强他"",""强我"",""弱他""]","","","","","","","","8","","","","","","","","","SRET","SRET_math_calculate","","key","8","16.653094594594435","799.9999682108573","445.8333156175091","","","","","7+2= ?","9","0","","","","","","","",""
"3511","","6","psychophysics","130","596158","0.0-7.0-5.0-0.27","6","5","7","6","5","4","4","4","4","5","5","0","-2","1","2","0","1","0","2","4","5","4","5","4","4","5","4","5","4","7","6","8","8","7","9","7","8","6","5","5","5","6","5","7","5","7","6","5","1","6","7","2","7","5","6","6","5","7","7","3","6","1","5","6","5","5","5","7","5","6","6","7","3","6","5","5","7","7","5","634030798835548160","吴","440","Male","[""坏我"",""好他"",""好我"",""坏他""]","[""弱我"",""强他"",""强我"",""弱他""]","","","","","","","","6","","","","","","","","","SRET","SRET_math_calculate","","key","6","16.653309523809835","799.9999682108573","445.8333156175091","","","","","3*3= ?","9","0","","","","","","","",""
"7750","","3","psychophysics","131","603910","0.0-7.0-5.0-0.28","6","5","7","6","5","4","4","4","4","5","5","0","-2","1","2","0","1","0","2","4","5","4","5","4","4","5","4","5","4","7","6","8","8","7","9","7","8","6","5","5","5","6","5","7","5","7","6","5","1","6","7","2","7","5","6","6","5","7","7","3","6","1","5","6","5","5","5","7","5","6","6","7","3","6","5","5","7","7","5","634030798835548160","吴","440","Male","[""坏我"",""好他"",""好我"",""坏他""]","[""弱我"",""强他"",""强我"",""弱他""]","","","","","","","","3","","","","","","","","","SRET","SRET_math_calculate","","key","3","16.65292258064503","799.9999682108573","445.8333156175091","","","","","3+0= ?","3","1","","","","","","","",""
"2282","","3","psychophysics","132","606193","0.0-7.0-5.0-0.29","6","5","7","6","5","4","4","4","4","5","5","0","-2","1","2","0","1","0","2","4","5","4","5","4","4","5","4","5","4","7","6","8","8","7","9","7","8","6","5","5","5","6","5","7","5","7","6","5","1","6","7","2","7","5","6","6","5","7","7","3","6","1","5","6","5","5","5","7","5","6","6","7","3","6","5","5","7","7","5","634030798835548160","吴","440","Male","[""坏我"",""好他"",""好我"",""坏他""]","[""弱我"",""强他"",""强我"",""弱他""]","","","","","","","","3","","","","","","","","","SRET","SRET_math_calculate","","key","3","16.653036764706485","799.9999682108573","445.8333156175091","","","","","1+2= ?","3","1","","","","","","","",""
"3857","","8","psychophysics","133","610051","0.0-7.0-5.0-0.30","6","5","7","6","5","4","4","4","4","5","5","0","-2","1","2","0","1","0","2","4","5","4","5","4","4","5","4","5","4","7","6","8","8","7","9","7","8","6","5","5","5","6","5","7","5","7","6","5","1","6","7","2","7","5","6","6","5","7","7","3","6","1","5","6","5","5","5","7","5","6","6","7","3","6","5","5","7","7","5","634030798835548160","吴","440","Male","[""坏我"",""好他"",""好我"",""坏他""]","[""弱我"",""强他"",""强我"",""弱他""]","","","","","","","","8","","","","","","","","","SRET","SRET_math_calculate","","key","8","16.653220779220653","799.9999682108573","445.8333156175091","","","","","4*2= ?","8","1","","","","","","","",""
"4514","","6","psychophysics","134","614569","0.0-7.0-5.0-0.31","6","5","7","6","5","4","4","4","4","5","5","0","-2","1","2","0","1","0","2","4","5","4","5","4","4","5","4","5","4","7","6","8","8","7","9","7","8","6","5","5","5","6","5","7","5","7","6","5","1","6","7","2","7","5","6","6","5","7","7","3","6","1","5","6","5","5","5","7","5","6","6","7","3","6","5","5","7","7","5","634030798835548160","吴","440","Male","[""坏我"",""好他"",""好我"",""坏他""]","[""弱我"",""强他"",""强我"",""弱他""]","","","","","","","","6","","","","","","","","","SRET","SRET_math_calculate","","key","6","16.65320740740755","799.9999682108573","445.8333156175091","","","","","3*2= ?","6","1","","","","","","","",""
"4507","","5","psychophysics","135","619077","0.0-7.0-5.0-0.32","6","5","7","6","5","4","4","4","4","5","5","0","-2","1","2","0","1","0","2","4","5","4","5","4","4","5","4","5","4","7","6","8","8","7","9","7","8","6","5","5","5","6","5","7","5","7","6","5","1","6","7","2","7","5","6","6","5","7","7","3","6","1","5","6","5","5","5","7","5","6","6","7","3","6","5","5","7","7","5","634030798835548160","吴","440","Male","[""坏我"",""好他"",""好我"",""坏他""]","[""弱我"",""强他"",""强我"",""弱他""]","","","","","","","","5","","","","","","","","","SRET","SRET_math_calculate","","key","5","16.653255555555827","799.9999682108573","445.8333156175091","","","","","14-9= ?","5","1","","","","","","","",""
"2606","","5","psychophysics","136","621687","0.0-7.0-5.0-0.33","6","5","7","6","5","4","4","4","4","5","5","0","-2","1","2","0","1","0","2","4","5","4","5","4","4","5","4","5","4","7","6","8","8","7","9","7","8","6","5","5","5","6","5","7","5","7","6","5","1","6","7","2","7","5","6","6","5","7","7","3","6","1","5","6","5","5","5","7","5","6","6","7","3","6","5","5","7","7","5","634030798835548160","吴","440","Male","[""坏我"",""好他"",""好我"",""坏他""]","[""弱我"",""强他"",""强我"",""弱他""]","","","","","","","","5","","","","","","","","","SRET","SRET_math_calculate","","key","5","16.652277419354856","799.9999682108573","445.8333156175091","","","","","15-10= ?","5","1","","","","","","","",""
"4738","","7","psychophysics","137","626427","0.0-7.0-5.0-0.34","6","5","7","6","5","4","4","4","4","5","5","0","-2","1","2","0","1","0","2","4","5","4","5","4","4","5","4","5","4","7","6","8","8","7","9","7","8","6","5","5","5","6","5","7","5","7","6","5","1","6","7","2","7","5","6","6","5","7","7","3","6","1","5","6","5","5","5","7","5","6","6","7","3","6","5","5","7","7","5","634030798835548160","吴","440","Male","[""坏我"",""好他"",""好我"",""坏他""]","[""弱我"",""强他"",""强我"",""弱他""]","","","","","","","","7","","","","","","","","","SRET","SRET_math_calculate","","key","7","16.652989436619798","799.9999682108573","445.8333156175091","","","","","21/3= ? ","7","1","","","","","","","",""
