"rt","stimulus","response","trial_type","trial_index","time_elapsed","internal_node_id","swb_1","swb_2","swb_3","swb_4","swb_5","LOT_1","LOT_2","LOT_3","LOT_4","LOT_5","LOT_6","IPC_1","IPC_2","IPC_3","IPC_4","IPC_5","IPC_6","IPC_7","IPC_8","MorIden_1","MorIden_2","MorIden_3","MorIden_4","MorIden_5","MorIden_6","MorIden_7","MorIden_8","MorIden_9","MorIden_10","moralSeImag_1","moralSeImag_2","moralSeImag_3","moralSeImag_4","moralSeImag_5","moralSeImag_6","moralSeImag_7","moralSeImag_8","moralSeImag_9","sde_1","sde_2","sde_3","sde_4","sde_5","sde_6","sde_7","sde_8","sde_9","sde_10","trap2","sde_11","sde_12","sde_13","sde_14","sde_15","sde_16","sde_17","sde_18","sde_19","sde_20","IM_1","IM_2","IM_3","IM_4","IM_5","IM_6","IM_7","IM_8","IM_9","IM_10","IM_11","IM_12","IM_13","IM_14","IM_15","IM_16","IM_17","IM_18","IM_19","IM_20","subj_idx","friend_name","ParticipantID","Sex","Word","Word2","value","success","timeout","failed_images","failed_audio","failed_video","user_agent","responses","item_order","radio_event_ids","radio_event_times","key_event_times","mouse_event_times","straightlining","zigzagging","honeypot","task_id","screen_id","time_stamp","response_type","key_press","avg_frame_time","center_x","center_y","person","word","valence","domain","math","correct_response","correct","status","view_history","identity","duration","Image","condition","question_order","trap2_item"
"1590","
   <p><div style='color:white; font-size: 25px'>您好，欢迎参加本次实验。</div></p>
   <p><div style='color:white; font-size: 25px'>为充分保障您的权利，请确保您已经知晓并同意《参与实验同意书》以及《数据公开知情同意书》。</div></p>
   <p><div style='color:white; font-size: 25px'>如果您未见过上述内容，请咨询实验员。</div></p>
   <p style='color:white; font-size: 25px'>如果您选择继续实验，则表示您已经清楚两份知情同意书的内容并同意。</p>
   <p><div style = ""color: pink;font-size:30px;"">请确保您记得day0的实验编号，您将在本次实验输入该编号，若您忘记，请咨询实验员后作答。</div></p>
   <p><div style = ""color:lightblue;font-size:25px;"">请您尽可能认真地作答，我们将依据您在各问卷和按键任务中的作答质量发放报酬。</div></p>
   <p> <div style = ""color: green""><按空格键至下页></div> </p>
   "," ","html-keyboard-response","0","1593","0.0-0.0","3","4","4","3","4","4","3","3","4","4","4","0","1","0","1","0","0","1","1","4","5","4","5","4","4","5","5","4","4","6","6","7","7","5","5","6","7","6","5","6","3","5","5","5","5","7","6","6","1","4","4","5","5","6","5","5","4","5","6","4","5","3","6","3","5","3","6","5","5","7","6","6","5","3","6","5","3","4","5","767401496999628801","田","609","Female","[""坏我"",""好她"",""坏她"",""好我""]","[""弱我"",""强她"",""弱她"",""强我""]","","","","","","","","","","","","","","","","","","","","","","","","","","","","","","","","","","","","","","",""
"","","","call-function","1","1593","0.0-1.0-0.0","3","4","4","3","4","4","3","3","4","4","4","0","1","0","1","0","0","1","1","4","5","4","5","4","4","5","5","4","4","6","6","7","7","5","5","6","7","6","5","6","3","5","5","5","5","7","6","6","1","4","4","5","5","6","5","5","4","5","6","4","5","3","6","3","5","3","6","5","5","7","6","6","5","3","6","5","3","4","5","767401496999628801","田","609","Female","[""坏我"",""好她"",""坏她"",""好我""]","[""弱我"",""强她"",""弱她"",""强我""]","","","","","","","","","","","","","","","","","","","","","","","","","","","","","","","","","","","","","","",""
"15031","","[{""name"":""Sex"",""value"":""1""},{""name"":""friend_name"",""value"":""田""},{""name"":""ParticipantID"",""value"":""609""}]","survey-html-form","2","16625","0.0-1.0-1.0","3","4","4","3","4","4","3","3","4","4","4","0","1","0","1","0","0","1","1","4","5","4","5","4","4","5","5","4","4","6","6","7","7","5","5","6","7","6","5","6","3","5","5","5","5","7","6","6","1","4","4","5","5","6","5","5","4","5","6","4","5","3","6","3","5","3","6","5","5","7","6","6","5","3","6","5","3","4","5","767401496999628801","田","609","Female","[""坏我"",""好她"",""坏她"",""好我""]","[""弱我"",""强她"",""弱她"",""强我""]","","","","","","","","","","","","","","","","","","","","","","","","","","","","","","","","","","","","","","",""
"","","","preload","3","19564","0.0-2.0","3","4","4","3","4","4","3","3","4","4","4","0","1","0","1","0","0","1","1","4","5","4","5","4","4","5","5","4","4","6","6","7","7","5","5","6","7","6","5","6","3","5","5","5","5","7","6","6","1","4","4","5","5","6","5","5","4","5","6","4","5","3","6","3","5","3","6","5","5","7","6","6","5","3","6","5","3","4","5","767401496999628801","田","609","Female","[""坏我"",""好她"",""坏她"",""好我""]","[""弱我"",""强她"",""弱她"",""强我""]","","true","false","[]","[]","[]","","","","","","","","","","","","","","","","","","","","","","","","","","","","","","","","",""
"","","","fullscreen","4","38696","0.0-3.0","3","4","4","3","4","4","3","3","4","4","4","0","1","0","1","0","0","1","1","4","5","4","5","4","4","5","5","4","4","6","6","7","7","5","5","6","7","6","5","6","3","5","5","5","5","7","6","6","1","4","4","5","5","6","5","5","4","5","6","4","5","3","6","3","5","3","6","5","5","7","6","6","5","3","6","5","3","4","5","767401496999628801","田","609","Female","[""坏我"",""好她"",""坏她"",""好我""]","[""弱我"",""强她"",""弱她"",""强我""]","","true","","","","","{}","","","","","","","","","","","","","","","","","","","","","","","","","","","","","","","",""
"58299.5","","{""Q01"":""3"",""Q02"":""4"",""Q03"":""4"",""Q04"":""3"",""Q05"":""4""}","survey-template","5","97012","0.0-4.0","3","4","4","3","4","4","3","3","4","4","4","0","1","0","1","0","0","1","1","4","5","4","5","4","4","5","5","4","4","6","6","7","7","5","5","6","7","6","5","6","3","5","5","5","5","7","6","6","1","4","4","5","5","6","5","5","4","5","6","4","5","3","6","3","5","3","6","5","5","7","6","6","5","3","6","5","3","4","5","767401496999628801","田","609","Female","[""坏我"",""好她"",""坏她"",""好我""]","[""弱我"",""强她"",""弱她"",""强我""]","","","","","","","","{""Q01"":""3"",""Q02"":""4"",""Q03"":""4"",""Q04"":""3"",""Q05"":""4""}","[0,1,2,3,4]","[""Q01"",""Q02"",""Q03"",""Q04"",""Q05""]","[18454,19793.5,20910.099999904633,22343,23937]","[]","[18454,19793.5,20910.099999904633,22343,23937,58297.90000009537]","0.6","0.75","0","","","","","","","","","","","","","","","","","","","","","","",""
"46390.60000014305","","{""Q01"":""4"",""Q02"":""3"",""Q03"":""3"",""Q04"":""4"",""Q05"":""4"",""Q06"":""4""}","survey-template","6","143407","0.0-5.0","3","4","4","3","4","4","3","3","4","4","4","0","1","0","1","0","0","1","1","4","5","4","5","4","4","5","5","4","4","6","6","7","7","5","5","6","7","6","5","6","3","5","5","5","5","7","6","6","1","4","4","5","5","6","5","5","4","5","6","4","5","3","6","3","5","3","6","5","5","7","6","6","5","3","6","5","3","4","5","767401496999628801","田","609","Female","[""坏我"",""好她"",""坏她"",""好我""]","[""弱我"",""强她"",""弱她"",""强我""]","","","","","","","","{""Q01"":""4"",""Q02"":""3"",""Q03"":""3"",""Q04"":""4"",""Q05"":""4"",""Q06"":""4""}","[0,1,2,3,4,5]","[""Q01"",""Q02"",""Q03"",""Q04"",""Q05"",""Q06""]","[8368.900000095367,13065.300000190735,14458.900000095367,17743.5,18928.60000014305,21959.10000014305]","[]","[8368.900000095367,13065.300000190735,14458.900000095367,17743.5,18928.60000014305,21959.10000014305,46390]","0.3333333333333333","0.4","0","","","","","","","","","","","","","","","","","","","","","","",""
"32321.900000095367","","{""Q01"":""0"",""Q02"":""1"",""Q03"":""0"",""Q04"":""1"",""Q05"":""0"",""Q06"":""0"",""Q07"":""1"",""Q08"":""1""}","survey-template","7","175732","0.0-6.0","3","4","4","3","4","4","3","3","4","4","4","0","1","0","1","0","0","1","1","4","5","4","5","4","4","5","5","4","4","6","6","7","7","5","5","6","7","6","5","6","3","5","5","5","5","7","6","6","1","4","4","5","5","6","5","5","4","5","6","4","5","3","6","3","5","3","6","5","5","7","6","6","5","3","6","5","3","4","5","767401496999628801","田","609","Female","[""坏我"",""好她"",""坏她"",""好我""]","[""弱我"",""强她"",""弱她"",""强我""]","","","","","","","","{""Q01"":""0"",""Q02"":""1"",""Q03"":""0"",""Q04"":""1"",""Q05"":""0"",""Q06"":""0"",""Q07"":""1"",""Q08"":""1""}","[0,1,2,3,4,5,6,7]","[""Q01"",""Q02"",""Q02"",""Q03"",""Q04"",""Q05"",""Q06"",""Q07"",""Q08""]","[3050.2000000476837,7701.5,8943.099999904633,10536.700000047684,21551.700000047684,22861.400000095367,23929.200000047684,25246.200000047684,26476.700000047684]","[]","[3050.2000000476837,7701.5,8943.099999904633,10536.700000047684,21551.700000047684,22861.400000095367,23929.200000047684,25246.200000047684,26476.700000047684,32320.900000095367]","0.5","0.7142857142857143","0","","","","","","","","","","","","","","","","","","","","","","",""
"9155","
    <p><div style='color:white;font-size:35px; line-height:20px;'>词汇评估任务</div></p><br>
    <p><div style='color:white;font-size:25px; line-height:20px;'>请再次回忆该亲密的朋友，你们至少2年前就认识了，并且最近2年经常见面。</div></p>
    <p><div style='color:white;font-size:25px; line-height:20px;'>在本实验中，您将会看到一些形容词。</div></p>
    <p><div style='color:yellow;font-size:25px; line-height:20px;'>您的任务是判断这些形容词是否符合对您自己或您的朋友的描述。</div></p><p style='font-size:35px'>符合按<span style=""color:lightgreen""> j 键</span>，不符合按<span style=""color:red""> f 键</span></p>","0","html-button-response","8","184889","0.0-7.0-0.0","3","4","4","3","4","4","3","3","4","4","4","0","1","0","1","0","0","1","1","4","5","4","5","4","4","5","5","4","4","6","6","7","7","5","5","6","7","6","5","6","3","5","5","5","5","7","6","6","1","4","4","5","5","6","5","5","4","5","6","4","5","3","6","3","5","3","6","5","5","7","6","6","5","3","6","5","3","4","5","767401496999628801","田","609","Female","[""坏我"",""好她"",""坏她"",""好我""]","[""弱我"",""强她"",""弱她"",""强我""]","","","","","","","","","","","","","","","","","SRET_EW","EW_instructions","Sun Dec 10 2023 14:10:35 GMT+0800 (中国标准时间)","","","","","","","","","","","","","","","","","","","",""
"789","","f","psychophysics","9","186687","0.0-7.0-1.0-0.0","3","4","4","3","4","4","3","3","4","4","4","0","1","0","1","0","0","1","1","4","5","4","5","4","4","5","5","4","4","6","6","7","7","5","5","6","7","6","5","6","3","5","5","5","5","7","6","6","1","4","4","5","5","6","5","5","4","5","6","4","5","3","6","3","5","3","6","5","5","7","6","6","5","3","6","5","3","4","5","767401496999628801","田","609","Female","[""坏我"",""好她"",""坏她"",""好我""]","[""弱我"",""强她"",""弱她"",""强我""]","","","","","","","","no","","","","","","","","","SRET_EW","EW_practice","","key","f","16.81966355140185","834.7826260024076","465.21740094925843","自己","刻板","Negative","ability","","","","","","","","","","",""
"840","","j","psychophysics","10","188528","0.0-7.0-1.0-0.1","3","4","4","3","4","4","3","3","4","4","4","0","1","0","1","0","0","1","1","4","5","4","5","4","4","5","5","4","4","6","6","7","7","5","5","6","7","6","5","6","3","5","5","5","5","7","6","6","1","4","4","5","5","6","5","5","4","5","6","4","5","3","6","3","5","3","6","5","5","7","6","6","5","3","6","5","3","4","5","767401496999628801","田","609","Female","[""坏我"",""好她"",""坏她"",""好我""]","[""弱我"",""强她"",""弱她"",""强我""]","","","","","","","","yes","","","","","","","","","SRET_EW","EW_practice","","key","j","16.66360909090912","834.7826260024076","465.21740094925843","朋友","忠实","Positive","morality","","","","","","","","","","",""
"1079","","j","psychophysics","11","190610","0.0-7.0-1.0-0.2","3","4","4","3","4","4","3","3","4","4","4","0","1","0","1","0","0","1","1","4","5","4","5","4","4","5","5","4","4","6","6","7","7","5","5","6","7","6","5","6","3","5","5","5","5","7","6","6","1","4","4","5","5","6","5","5","4","5","6","4","5","3","6","3","5","3","6","5","5","7","6","6","5","3","6","5","3","4","5","767401496999628801","田","609","Female","[""坏我"",""好她"",""坏她"",""好我""]","[""弱我"",""强她"",""弱她"",""强我""]","","","","","","","","yes","","","","","","","","","SRET_EW","EW_practice","","key","j","16.664362903225758","834.7826260024076","465.21740094925843","自己","严谨","Positive","ability","","","","","","","","","","",""
"1276","","f","psychophysics","12","192888","0.0-7.0-1.0-0.3","3","4","4","3","4","4","3","3","4","4","4","0","1","0","1","0","0","1","1","4","5","4","5","4","4","5","5","4","4","6","6","7","7","5","5","6","7","6","5","6","3","5","5","5","5","7","6","6","1","4","4","5","5","6","5","5","4","5","6","4","5","3","6","3","5","3","6","5","5","7","6","6","5","3","6","5","3","4","5","767401496999628801","田","609","Female","[""坏我"",""好她"",""坏她"",""好我""]","[""弱我"",""强她"",""弱她"",""强我""]","","","","","","","","no","","","","","","","","","SRET_EW","EW_practice","","key","f","16.66368148148133","834.7826260024076","465.21740094925843","朋友","徇私","Negative","morality","","","","","","","","","","",""
"4762","
    <p><div style='color:white;font-size:35px; line-height:20px;'>请您再次阅读实验要求</div></p><br>
    <p><div style='color:white;font-size:25px; line-height:20px;'>请回忆某一个亲密的朋友，你们至少2年前就认识了，并且最近2年经常见面。</div></p>
    <p><div style='color:white;font-size:25px; line-height:20px;'>在本实验中，您将会看到一些形容词。</div></p>
    <p><div style='color:yellow;font-size:25px; line-height:20px;'>您的任务是判断这些形容词是否符合对您自己或您的朋友的描述。</div></p>
    <p><div class='footer' style='font-size:25px; line-height:20px;'>如果对本实验还有不清楚之处，请立即向实验员咨询。</p><p style='font-size:25px; line-height:20px;'>如果您明白了规则：</p><p style='font-size:22px; line-height:20px;'>请按 继续 进入正式实验</p>
    </div>
    <p style='font-size:35px'>符合按<span style=""color:lightgreen""> j 键</span>，不符合按<span style=""color:red""> f 键</span></p>","0","html-button-response","13","197650","0.0-7.0-2.0","3","4","4","3","4","4","3","3","4","4","4","0","1","0","1","0","0","1","1","4","5","4","5","4","4","5","5","4","4","6","6","7","7","5","5","6","7","6","5","6","3","5","5","5","5","7","6","6","1","4","4","5","5","6","5","5","4","5","6","4","5","3","6","3","5","3","6","5","5","7","6","6","5","3","6","5","3","4","5","767401496999628801","田","609","Female","[""坏我"",""好她"",""坏她"",""好我""]","[""弱我"",""强她"",""弱她"",""强我""]","","","","","","","","","","","","","","","","","SRET_EW","prac_instructions","Sun Dec 10 2023 14:10:35 GMT+0800 (中国标准时间)","","","","","","","","","","","","","","","","","","","",""
"994","","j","psychophysics","14","199646","0.0-7.0-3.0-0.0","3","4","4","3","4","4","3","3","4","4","4","0","1","0","1","0","0","1","1","4","5","4","5","4","4","5","5","4","4","6","6","7","7","5","5","6","7","6","5","6","3","5","5","5","5","7","6","6","1","4","4","5","5","6","5","5","4","5","6","4","5","3","6","3","5","3","6","5","5","7","6","6","5","3","6","5","3","4","5","767401496999628801","田","609","Female","[""坏我"",""好她"",""坏她"",""好我""]","[""弱我"",""强她"",""弱她"",""强我""]","","","","","","","","yes","","","","","","","","","SRET","EW_formal","","key","j","16.661633333333157","834.7826260024076","465.21740094925843","朋友","务实","Positive","ability","","","","","","","","","","",""
"1019","","j","psychophysics","15","201667","0.0-7.0-3.0-0.1","3","4","4","3","4","4","3","3","4","4","4","0","1","0","1","0","0","1","1","4","5","4","5","4","4","5","5","4","4","6","6","7","7","5","5","6","7","6","5","6","3","5","5","5","5","7","6","6","1","4","4","5","5","6","5","5","4","5","6","4","5","3","6","3","5","3","6","5","5","7","6","6","5","3","6","5","3","4","5","767401496999628801","田","609","Female","[""坏我"",""好她"",""坏她"",""好我""]","[""弱我"",""强她"",""弱她"",""强我""]","","","","","","","","yes","","","","","","","","","SRET","EW_formal","","key","j","16.66376666666668","834.7826260024076","465.21740094925843","自己","坚贞","Positive","morality","","","","","","","","","","",""
"1016","","f","psychophysics","16","203684","0.0-7.0-3.0-0.2","3","4","4","3","4","4","3","3","4","4","4","0","1","0","1","0","0","1","1","4","5","4","5","4","4","5","5","4","4","6","6","7","7","5","5","6","7","6","5","6","3","5","5","5","5","7","6","6","1","4","4","5","5","6","5","5","4","5","6","4","5","3","6","3","5","3","6","5","5","7","6","6","5","3","6","5","3","4","5","767401496999628801","田","609","Female","[""坏我"",""好她"",""坏她"",""好我""]","[""弱我"",""强她"",""弱她"",""强我""]","","","","","","","","no","","","","","","","","","SRET","EW_formal","","key","f","16.66599166666662","834.7826260024076","465.21740094925843","朋友","迷糊","Negative","ability","","","","","","","","","","",""
"890","","f","psychophysics","17","205575","0.0-7.0-3.0-0.3","3","4","4","3","4","4","3","3","4","4","4","0","1","0","1","0","0","1","1","4","5","4","5","4","4","5","5","4","4","6","6","7","7","5","5","6","7","6","5","6","3","5","5","5","5","7","6","6","1","4","4","5","5","6","5","5","4","5","6","4","5","3","6","3","5","3","6","5","5","7","6","6","5","3","6","5","3","4","5","767401496999628801","田","609","Female","[""坏我"",""好她"",""坏她"",""好我""]","[""弱我"",""强她"",""弱她"",""强我""]","","","","","","","","no","","","","","","","","","SRET","EW_formal","","key","f","16.667017699114975","834.7826260024076","465.21740094925843","自己","说谎","Negative","morality","","","","","","","","","","",""
"699","","j","psychophysics","18","207276","0.0-7.0-3.0-0.4","3","4","4","3","4","4","3","3","4","4","4","0","1","0","1","0","0","1","1","4","5","4","5","4","4","5","5","4","4","6","6","7","7","5","5","6","7","6","5","6","3","5","5","5","5","7","6","6","1","4","4","5","5","6","5","5","4","5","6","4","5","3","6","3","5","3","6","5","5","7","6","6","5","3","6","5","3","4","5","767401496999628801","田","609","Female","[""坏我"",""好她"",""坏她"",""好我""]","[""弱我"",""强她"",""弱她"",""强我""]","","","","","","","","yes","","","","","","","","","SRET","EW_formal","","key","j","16.660277227723007","834.7826260024076","465.21740094925843","朋友","高效","Positive","ability","","","","","","","","","","",""
"746","","f","psychophysics","19","209023","0.0-7.0-3.0-0.5","3","4","4","3","4","4","3","3","4","4","4","0","1","0","1","0","0","1","1","4","5","4","5","4","4","5","5","4","4","6","6","7","7","5","5","6","7","6","5","6","3","5","5","5","5","7","6","6","1","4","4","5","5","6","5","5","4","5","6","4","5","3","6","3","5","3","6","5","5","7","6","6","5","3","6","5","3","4","5","767401496999628801","田","609","Female","[""坏我"",""好她"",""坏她"",""好我""]","[""弱我"",""强她"",""弱她"",""强我""]","","","","","","","","no","","","","","","","","","SRET","EW_formal","","key","f","16.661028846153876","834.7826260024076","465.21740094925843","自己","混账","Negative","morality","","","","","","","","","","",""
"787","","f","psychophysics","20","210812","0.0-7.0-3.0-0.6","3","4","4","3","4","4","3","3","4","4","4","0","1","0","1","0","0","1","1","4","5","4","5","4","4","5","5","4","4","6","6","7","7","5","5","6","7","6","5","6","3","5","5","5","5","7","6","6","1","4","4","5","5","6","5","5","4","5","6","4","5","3","6","3","5","3","6","5","5","7","6","6","5","3","6","5","3","4","5","767401496999628801","田","609","Female","[""坏我"",""好她"",""坏她"",""好我""]","[""弱我"",""强她"",""弱她"",""强我""]","","","","","","","","no","","","","","","","","","SRET","EW_formal","","key","f","16.662764150943367","834.7826260024076","465.21740094925843","朋友","盲目","Negative","ability","","","","","","","","","","",""
"560","","j","psychophysics","21","212373","0.0-7.0-3.0-0.7","3","4","4","3","4","4","3","3","4","4","4","0","1","0","1","0","0","1","1","4","5","4","5","4","4","5","5","4","4","6","6","7","7","5","5","6","7","6","5","6","3","5","5","5","5","7","6","6","1","4","4","5","5","6","5","5","4","5","6","4","5","3","6","3","5","3","6","5","5","7","6","6","5","3","6","5","3","4","5","767401496999628801","田","609","Female","[""坏我"",""好她"",""坏她"",""好我""]","[""弱我"",""强她"",""弱她"",""强我""]","","","","","","","","yes","","","","","","","","","SRET","EW_formal","","key","j","16.663182795698685","834.7826260024076","465.21740094925843","朋友","善心","Positive","morality","","","","","","","","","","",""
"639","","f","psychophysics","22","214014","0.0-7.0-3.0-0.8","3","4","4","3","4","4","3","3","4","4","4","0","1","0","1","0","0","1","1","4","5","4","5","4","4","5","5","4","4","6","6","7","7","5","5","6","7","6","5","6","3","5","5","5","5","7","6","6","1","4","4","5","5","6","5","5","4","5","6","4","5","3","6","3","5","3","6","5","5","7","6","6","5","3","6","5","3","4","5","767401496999628801","田","609","Female","[""坏我"",""好她"",""坏她"",""好我""]","[""弱我"",""强她"",""弱她"",""强我""]","","","","","","","","no","","","","","","","","","SRET","EW_formal","","key","f","16.663876288659875","834.7826260024076","465.21740094925843","自己","背叛","Negative","morality","","","","","","","","","","",""
"798","","j","psychophysics","23","215813","0.0-7.0-3.0-0.9","3","4","4","3","4","4","3","3","4","4","4","0","1","0","1","0","0","1","1","4","5","4","5","4","4","5","5","4","4","6","6","7","7","5","5","6","7","6","5","6","3","5","5","5","5","7","6","6","1","4","4","5","5","6","5","5","4","5","6","4","5","3","6","3","5","3","6","5","5","7","6","6","5","3","6","5","3","4","5","767401496999628801","田","609","Female","[""坏我"",""好她"",""坏她"",""好我""]","[""弱我"",""强她"",""弱她"",""强我""]","","","","","","","","yes","","","","","","","","","SRET","EW_formal","","key","j","16.666616822429717","834.7826260024076","465.21740094925843","自己","骁勇","Positive","ability","","","","","","","","","","",""
"567","","j","psychophysics","24","217381","0.0-7.0-3.0-0.10","3","4","4","3","4","4","3","3","4","4","4","0","1","0","1","0","0","1","1","4","5","4","5","4","4","5","5","4","4","6","6","7","7","5","5","6","7","6","5","6","3","5","5","5","5","7","6","6","1","4","4","5","5","6","5","5","4","5","6","4","5","3","6","3","5","3","6","5","5","7","6","6","5","3","6","5","3","4","5","767401496999628801","田","609","Female","[""坏我"",""好她"",""坏她"",""好我""]","[""弱我"",""强她"",""弱她"",""强我""]","","","","","","","","yes","","","","","","","","","SRET","EW_formal","","key","j","16.66537634408607","834.7826260024076","465.21740094925843","朋友","沉着","Positive","ability","","","","","","","","","","",""
"556","","j","psychophysics","25","218938","0.0-7.0-3.0-0.11","3","4","4","3","4","4","3","3","4","4","4","0","1","0","1","0","0","1","1","4","5","4","5","4","4","5","5","4","4","6","6","7","7","5","5","6","7","6","5","6","3","5","5","5","5","7","6","6","1","4","4","5","5","6","5","5","4","5","6","4","5","3","6","3","5","3","6","5","5","7","6","6","5","3","6","5","3","4","5","767401496999628801","田","609","Female","[""坏我"",""好她"",""坏她"",""好我""]","[""弱我"",""强她"",""弱她"",""强我""]","","","","","","","","yes","","","","","","","","","SRET","EW_formal","","key","j","16.665741935483762","834.7826260024076","465.21740094925843","自己","宽容","Positive","morality","","","","","","","","","","",""
"793","","j","psychophysics","26","220734","0.0-7.0-3.0-0.12","3","4","4","3","4","4","3","3","4","4","4","0","1","0","1","0","0","1","1","4","5","4","5","4","4","5","5","4","4","6","6","7","7","5","5","6","7","6","5","6","3","5","5","5","5","7","6","6","1","4","4","5","5","6","5","5","4","5","6","4","5","3","6","3","5","3","6","5","5","7","6","6","5","3","6","5","3","4","5","767401496999628801","田","609","Female","[""坏我"",""好她"",""坏她"",""好我""]","[""弱我"",""强她"",""弱她"",""强我""]","","","","","","","","yes","","","","","","","","","SRET","EW_formal","","key","j","16.664122641509408","834.7826260024076","465.21740094925843","朋友","有力","Positive","ability","","","","","","","","","","",""
"1393","","f","psychophysics","27","223128","0.0-7.0-3.0-0.13","3","4","4","3","4","4","3","3","4","4","4","0","1","0","1","0","0","1","1","4","5","4","5","4","4","5","5","4","4","6","6","7","7","5","5","6","7","6","5","6","3","5","5","5","5","7","6","6","1","4","4","5","5","6","5","5","4","5","6","4","5","3","6","3","5","3","6","5","5","7","6","6","5","3","6","5","3","4","5","767401496999628801","田","609","Female","[""坏我"",""好她"",""坏她"",""好我""]","[""弱我"",""强她"",""弱她"",""强我""]","","","","","","","","no","","","","","","","","","SRET","EW_formal","","key","f","16.6381888111888","834.7826260024076","465.21740094925843","朋友","新手","Negative","ability","","","","","","","","","","",""
"null","","null","psychophysics","28","226130","0.0-7.0-3.0-0.14","3","4","4","3","4","4","3","3","4","4","4","0","1","0","1","0","0","1","1","4","5","4","5","4","4","5","5","4","4","6","6","7","7","5","5","6","7","6","5","6","3","5","5","5","5","7","6","6","1","4","4","5","5","6","5","5","4","5","6","4","5","3","6","3","5","3","6","5","5","7","6","6","5","3","6","5","3","4","5","767401496999628801","田","609","Female","[""坏我"",""好她"",""坏她"",""好我""]","[""弱我"",""强她"",""弱她"",""强我""]","","","","","","","","","","","","","","","","","SRET","EW_formal","","key","null","16.664223463687193","834.7826260024076","465.21740094925843","自己","犹豫","Negative","ability","","","","","","","","","","",""
"560","","j","psychophysics","29","227691","0.0-7.0-3.0-0.15","3","4","4","3","4","4","3","3","4","4","4","0","1","0","1","0","0","1","1","4","5","4","5","4","4","5","5","4","4","6","6","7","7","5","5","6","7","6","5","6","3","5","5","5","5","7","6","6","1","4","4","5","5","6","5","5","4","5","6","4","5","3","6","3","5","3","6","5","5","7","6","6","5","3","6","5","3","4","5","767401496999628801","田","609","Female","[""坏我"",""好她"",""坏她"",""好我""]","[""弱我"",""强她"",""弱她"",""强我""]","","","","","","","","yes","","","","","","","","","SRET","EW_formal","","key","j","16.66827956989241","834.7826260024076","465.21740094925843","自己","自律","Positive","ability","","","","","","","","","","",""
"819","","f","psychophysics","30","229512","0.0-7.0-3.0-0.16","3","4","4","3","4","4","3","3","4","4","4","0","1","0","1","0","0","1","1","4","5","4","5","4","4","5","5","4","4","6","6","7","7","5","5","6","7","6","5","6","3","5","5","5","5","7","6","6","1","4","4","5","5","6","5","5","4","5","6","4","5","3","6","3","5","3","6","5","5","7","6","6","5","3","6","5","3","4","5","767401496999628801","田","609","Female","[""坏我"",""好她"",""坏她"",""好我""]","[""弱我"",""强她"",""弱她"",""强我""]","","","","","","","","no","","","","","","","","","SRET","EW_formal","","key","f","16.663083333333176","834.7826260024076","465.21740094925843","朋友","无为","Negative","ability","","","","","","","","","","",""
"725","","f","psychophysics","31","231238","0.0-7.0-3.0-0.17","3","4","4","3","4","4","3","3","4","4","4","0","1","0","1","0","0","1","1","4","5","4","5","4","4","5","5","4","4","6","6","7","7","5","5","6","7","6","5","6","3","5","5","5","5","7","6","6","1","4","4","5","5","6","5","5","4","5","6","4","5","3","6","3","5","3","6","5","5","7","6","6","5","3","6","5","3","4","5","767401496999628801","田","609","Female","[""坏我"",""好她"",""坏她"",""好我""]","[""弱我"",""强她"",""弱她"",""强我""]","","","","","","","","no","","","","","","","","","SRET","EW_formal","","key","f","16.66672815533962","834.7826260024076","465.21740094925843","朋友","毛糙","Negative","ability","","","","","","","","","","",""
"546","","j","psychophysics","32","232785","0.0-7.0-3.0-0.18","3","4","4","3","4","4","3","3","4","4","4","0","1","0","1","0","0","1","1","4","5","4","5","4","4","5","5","4","4","6","6","7","7","5","5","6","7","6","5","6","3","5","5","5","5","7","6","6","1","4","4","5","5","6","5","5","4","5","6","4","5","3","6","3","5","3","6","5","5","7","6","6","5","3","6","5","3","4","5","767401496999628801","田","609","Female","[""坏我"",""好她"",""坏她"",""好我""]","[""弱我"",""强她"",""弱她"",""强我""]","","","","","","","","yes","","","","","","","","","SRET","EW_formal","","key","j","16.66002173913053","834.7826260024076","465.21740094925843","朋友","聪明","Positive","ability","","","","","","","","","","",""
"585","","f","psychophysics","33","234372","0.0-7.0-3.0-0.19","3","4","4","3","4","4","3","3","4","4","4","0","1","0","1","0","0","1","1","4","5","4","5","4","4","5","5","4","4","6","6","7","7","5","5","6","7","6","5","6","3","5","5","5","5","7","6","6","1","4","4","5","5","6","5","5","4","5","6","4","5","3","6","3","5","3","6","5","5","7","6","6","5","3","6","5","3","4","5","767401496999628801","田","609","Female","[""坏我"",""好她"",""坏她"",""好我""]","[""弱我"",""强她"",""弱她"",""强我""]","","","","","","","","no","","","","","","","","","SRET","EW_formal","","key","f","16.667053191489142","834.7826260024076","465.21740094925843","自己","邪恶","Negative","morality","","","","","","","","","","",""
"535","","j","psychophysics","34","235908","0.0-7.0-3.0-0.20","3","4","4","3","4","4","3","3","4","4","4","0","1","0","1","0","0","1","1","4","5","4","5","4","4","5","5","4","4","6","6","7","7","5","5","6","7","6","5","6","3","5","5","5","5","7","6","6","1","4","4","5","5","6","5","5","4","5","6","4","5","3","6","3","5","3","6","5","5","7","6","6","5","3","6","5","3","4","5","767401496999628801","田","609","Female","[""坏我"",""好她"",""坏她"",""好我""]","[""弱我"",""强她"",""弱她"",""强我""]","","","","","","","","yes","","","","","","","","","SRET","EW_formal","","key","j","16.66337362637361","834.7826260024076","465.21740094925843","朋友","上进","Positive","ability","","","","","","","","","","",""
"636","","f","psychophysics","35","237547","0.0-7.0-3.0-0.21","3","4","4","3","4","4","3","3","4","4","4","0","1","0","1","0","0","1","1","4","5","4","5","4","4","5","5","4","4","6","6","7","7","5","5","6","7","6","5","6","3","5","5","5","5","7","6","6","1","4","4","5","5","6","5","5","4","5","6","4","5","3","6","3","5","3","6","5","5","7","6","6","5","3","6","5","3","4","5","767401496999628801","田","609","Female","[""坏我"",""好她"",""坏她"",""好我""]","[""弱我"",""强她"",""弱她"",""强我""]","","","","","","","","no","","","","","","","","","SRET","EW_formal","","key","f","16.666402061855702","834.7826260024076","465.21740094925843","朋友","势利","Negative","morality","","","","","","","","","","",""
"737","","f","psychophysics","36","239288","0.0-7.0-3.0-0.22","3","4","4","3","4","4","3","3","4","4","4","0","1","0","1","0","0","1","1","4","5","4","5","4","4","5","5","4","4","6","6","7","7","5","5","6","7","6","5","6","3","5","5","5","5","7","6","6","1","4","4","5","5","6","5","5","4","5","6","4","5","3","6","3","5","3","6","5","5","7","6","6","5","3","6","5","3","4","5","767401496999628801","田","609","Female","[""坏我"",""好她"",""坏她"",""好我""]","[""弱我"",""强她"",""弱她"",""强我""]","","","","","","","","no","","","","","","","","","SRET","EW_formal","","key","f","16.66284615384603","834.7826260024076","465.21740094925843","朋友","屈才","Negative","ability","","","","","","","","","","",""
"531","","f","psychophysics","37","240822","0.0-7.0-3.0-0.23","3","4","4","3","4","4","3","3","4","4","4","0","1","0","1","0","0","1","1","4","5","4","5","4","4","5","5","4","4","6","6","7","7","5","5","6","7","6","5","6","3","5","5","5","5","7","6","6","1","4","4","5","5","6","5","5","4","5","6","4","5","3","6","3","5","3","6","5","5","7","6","6","5","3","6","5","3","4","5","767401496999628801","田","609","Female","[""坏我"",""好她"",""坏她"",""好我""]","[""弱我"",""强她"",""弱她"",""强我""]","","","","","","","","no","","","","","","","","","SRET","EW_formal","","key","f","16.66628571428553","834.7826260024076","465.21740094925843","朋友","拙笨","Negative","ability","","","","","","","","","","",""
"526","","f","psychophysics","38","242349","0.0-7.0-3.0-0.24","3","4","4","3","4","4","3","3","4","4","4","0","1","0","1","0","0","1","1","4","5","4","5","4","4","5","5","4","4","6","6","7","7","5","5","6","7","6","5","6","3","5","5","5","5","7","6","6","1","4","4","5","5","6","5","5","4","5","6","4","5","3","6","3","5","3","6","5","5","7","6","6","5","3","6","5","3","4","5","767401496999628801","田","609","Female","[""坏我"",""好她"",""坏她"",""好我""]","[""弱我"",""强她"",""弱她"",""强我""]","","","","","","","","no","","","","","","","","","SRET","EW_formal","","key","f","16.66348888888897","834.7826260024076","465.21740094925843","自己","迟钝","Negative","ability","","","","","","","","","","",""
"434","","f","psychophysics","39","243785","0.0-7.0-3.0-0.25","3","4","4","3","4","4","3","3","4","4","4","0","1","0","1","0","0","1","1","4","5","4","5","4","4","5","5","4","4","6","6","7","7","5","5","6","7","6","5","6","3","5","5","5","5","7","6","6","1","4","4","5","5","6","5","5","4","5","6","4","5","3","6","3","5","3","6","5","5","7","6","6","5","3","6","5","3","4","5","767401496999628801","田","609","Female","[""坏我"",""好她"",""坏她"",""好我""]","[""弱我"",""强她"",""弱她"",""强我""]","","","","","","","","no","","","","","","","","","SRET","EW_formal","","key","f","16.66372093023275","834.7826260024076","465.21740094925843","自己","无耻","Negative","morality","","","","","","","","","","",""
"598","","f","psychophysics","40","245385","0.0-7.0-3.0-0.26","3","4","4","3","4","4","3","3","4","4","4","0","1","0","1","0","0","1","1","4","5","4","5","4","4","5","5","4","4","6","6","7","7","5","5","6","7","6","5","6","3","5","5","5","5","7","6","6","1","4","4","5","5","6","5","5","4","5","6","4","5","3","6","3","5","3","6","5","5","7","6","6","5","3","6","5","3","4","5","767401496999628801","田","609","Female","[""坏我"",""好她"",""坏她"",""好我""]","[""弱我"",""强她"",""弱她"",""强我""]","","","","","","","","no","","","","","","","","","SRET","EW_formal","","key","f","16.663842105263182","834.7826260024076","465.21740094925843","自己","不良","Negative","morality","","","","","","","","","","",""
"630","","j","psychophysics","41","247017","0.0-7.0-3.0-0.27","3","4","4","3","4","4","3","3","4","4","4","0","1","0","1","0","0","1","1","4","5","4","5","4","4","5","5","4","4","6","6","7","7","5","5","6","7","6","5","6","3","5","5","5","5","7","6","6","1","4","4","5","5","6","5","5","4","5","6","4","5","3","6","3","5","3","6","5","5","7","6","6","5","3","6","5","3","4","5","767401496999628801","田","609","Female","[""坏我"",""好她"",""坏她"",""好我""]","[""弱我"",""强她"",""弱她"",""强我""]","","","","","","","","yes","","","","","","","","","SRET","EW_formal","","key","j","16.663649484536194","834.7826260024076","465.21740094925843","自己","娴熟","Positive","ability","","","","","","","","","","",""
"483","","j","psychophysics","42","248500","0.0-7.0-3.0-0.28","3","4","4","3","4","4","3","3","4","4","4","0","1","0","1","0","0","1","1","4","5","4","5","4","4","5","5","4","4","6","6","7","7","5","5","6","7","6","5","6","3","5","5","5","5","7","6","6","1","4","4","5","5","6","5","5","4","5","6","4","5","3","6","3","5","3","6","5","5","7","6","6","5","3","6","5","3","4","5","767401496999628801","田","609","Female","[""坏我"",""好她"",""坏她"",""好我""]","[""弱我"",""强她"",""弱她"",""强我""]","","","","","","","","yes","","","","","","","","","SRET","EW_formal","","key","j","16.66105681818193","834.7826260024076","465.21740094925843","自己","智慧","Positive","ability","","","","","","","","","","",""
"613","","f","psychophysics","43","250114","0.0-7.0-3.0-0.29","3","4","4","3","4","4","3","3","4","4","4","0","1","0","1","0","0","1","1","4","5","4","5","4","4","5","5","4","4","6","6","7","7","5","5","6","7","6","5","6","3","5","5","5","5","7","6","6","1","4","4","5","5","6","5","5","4","5","6","4","5","3","6","3","5","3","6","5","5","7","6","6","5","3","6","5","3","4","5","767401496999628801","田","609","Female","[""坏我"",""好她"",""坏她"",""好我""]","[""弱我"",""强她"",""弱她"",""强我""]","","","","","","","","no","","","","","","","","","SRET","EW_formal","","key","f","16.66375789473685","834.7826260024076","465.21740094925843","自己","昏庸","Negative","ability","","","","","","","","","","",""
"483","","f","psychophysics","44","251600","0.0-7.0-3.0-0.30","3","4","4","3","4","4","3","3","4","4","4","0","1","0","1","0","0","1","1","4","5","4","5","4","4","5","5","4","4","6","6","7","7","5","5","6","7","6","5","6","3","5","5","5","5","7","6","6","1","4","4","5","5","6","5","5","4","5","6","4","5","3","6","3","5","3","6","5","5","7","6","6","5","3","6","5","3","4","5","767401496999628801","田","609","Female","[""坏我"",""好她"",""坏她"",""好我""]","[""弱我"",""强她"",""弱她"",""强我""]","","","","","","","","no","","","","","","","","","SRET","EW_formal","","key","f","16.66639325842706","834.7826260024076","465.21740094925843","朋友","偏私","Negative","morality","","","","","","","","","","",""
"545","","j","psychophysics","45","253147","0.0-7.0-3.0-0.31","3","4","4","3","4","4","3","3","4","4","4","0","1","0","1","0","0","1","1","4","5","4","5","4","4","5","5","4","4","6","6","7","7","5","5","6","7","6","5","6","3","5","5","5","5","7","6","6","1","4","4","5","5","6","5","5","4","5","6","4","5","3","6","3","5","3","6","5","5","7","6","6","5","3","6","5","3","4","5","767401496999628801","田","609","Female","[""坏我"",""好她"",""坏她"",""好我""]","[""弱我"",""强她"",""弱她"",""强我""]","","","","","","","","yes","","","","","","","","","SRET","EW_formal","","key","j","16.66109890109894","834.7826260024076","465.21740094925843","自己","细心","Positive","ability","","","","","","","","","","",""
"553","","f","psychophysics","46","254702","0.0-7.0-3.0-0.32","3","4","4","3","4","4","3","3","4","4","4","0","1","0","1","0","0","1","1","4","5","4","5","4","4","5","5","4","4","6","6","7","7","5","5","6","7","6","5","6","3","5","5","5","5","7","6","6","1","4","4","5","5","6","5","5","4","5","6","4","5","3","6","3","5","3","6","5","5","7","6","6","5","3","6","5","3","4","5","767401496999628801","田","609","Female","[""坏我"",""好她"",""坏她"",""好我""]","[""弱我"",""强她"",""弱她"",""强我""]","","","","","","","","no","","","","","","","","","SRET","EW_formal","","key","f","16.66349462365609","834.7826260024076","465.21740094925843","朋友","卑鄙","Negative","morality","","","","","","","","","","",""
"463","","f","psychophysics","47","256166","0.0-7.0-3.0-0.33","3","4","4","3","4","4","3","3","4","4","4","0","1","0","1","0","0","1","1","4","5","4","5","4","4","5","5","4","4","6","6","7","7","5","5","6","7","6","5","6","3","5","5","5","5","7","6","6","1","4","4","5","5","6","5","5","4","5","6","4","5","3","6","3","5","3","6","5","5","7","6","6","5","3","6","5","3","4","5","767401496999628801","田","609","Female","[""坏我"",""好她"",""坏她"",""好我""]","[""弱我"",""强她"",""弱她"",""强我""]","","","","","","","","no","","","","","","","","","SRET","EW_formal","","key","f","16.66340229885041","834.7826260024076","465.21740094925843","朋友","虚假","Negative","morality","","","","","","","","","","",""
"564","","f","psychophysics","48","257731","0.0-7.0-3.0-0.34","3","4","4","3","4","4","3","3","4","4","4","0","1","0","1","0","0","1","1","4","5","4","5","4","4","5","5","4","4","6","6","7","7","5","5","6","7","6","5","6","3","5","5","5","5","7","6","6","1","4","4","5","5","6","5","5","4","5","6","4","5","3","6","3","5","3","6","5","5","7","6","6","5","3","6","5","3","4","5","767401496999628801","田","609","Female","[""坏我"",""好她"",""坏她"",""好我""]","[""弱我"",""强她"",""弱她"",""强我""]","","","","","","","","no","","","","","","","","","SRET","EW_formal","","key","f","16.66433333333329","834.7826260024076","465.21740094925843","朋友","刻薄","Negative","morality","","","","","","","","","","",""
"579","","j","psychophysics","49","259311","0.0-7.0-3.0-0.35","3","4","4","3","4","4","3","3","4","4","4","0","1","0","1","0","0","1","1","4","5","4","5","4","4","5","5","4","4","6","6","7","7","5","5","6","7","6","5","6","3","5","5","5","5","7","6","6","1","4","4","5","5","6","5","5","4","5","6","4","5","3","6","3","5","3","6","5","5","7","6","6","5","3","6","5","3","4","5","767401496999628801","田","609","Female","[""坏我"",""好她"",""坏她"",""好我""]","[""弱我"",""强她"",""弱她"",""强我""]","","","","","","","","yes","","","","","","","","","SRET","EW_formal","","key","j","16.66427956989238","834.7826260024076","465.21740094925843","朋友","爱国","Positive","morality","","","","","","","","","","",""
"644","","j","psychophysics","50","260956","0.0-7.0-3.0-0.36","3","4","4","3","4","4","3","3","4","4","4","0","1","0","1","0","0","1","1","4","5","4","5","4","4","5","5","4","4","6","6","7","7","5","5","6","7","6","5","6","3","5","5","5","5","7","6","6","1","4","4","5","5","6","5","5","4","5","6","4","5","3","6","3","5","3","6","5","5","7","6","6","5","3","6","5","3","4","5","767401496999628801","田","609","Female","[""坏我"",""好她"",""坏她"",""好我""]","[""弱我"",""强她"",""弱她"",""强我""]","","","","","","","","yes","","","","","","","","","SRET","EW_formal","","key","j","16.666948979591883","834.7826260024076","465.21740094925843","朋友","果断","Positive","ability","","","","","","","","","","",""
"527","","j","psychophysics","51","262485","0.0-7.0-3.0-0.37","3","4","4","3","4","4","3","3","4","4","4","0","1","0","1","0","0","1","1","4","5","4","5","4","4","5","5","4","4","6","6","7","7","5","5","6","7","6","5","6","3","5","5","5","5","7","6","6","1","4","4","5","5","6","5","5","4","5","6","4","5","3","6","3","5","3","6","5","5","7","6","6","5","3","6","5","3","4","5","767401496999628801","田","609","Female","[""坏我"",""好她"",""坏她"",""好我""]","[""弱我"",""强她"",""弱她"",""强我""]","","","","","","","","yes","","","","","","","","","SRET","EW_formal","","key","j","16.667219780219508","834.7826260024076","465.21740094925843","朋友","廉正","Positive","morality","","","","","","","","","","",""
"506","","j","psychophysics","52","263992","0.0-7.0-3.0-0.38","3","4","4","3","4","4","3","3","4","4","4","0","1","0","1","0","0","1","1","4","5","4","5","4","4","5","5","4","4","6","6","7","7","5","5","6","7","6","5","6","3","5","5","5","5","7","6","6","1","4","4","5","5","6","5","5","4","5","6","4","5","3","6","3","5","3","6","5","5","7","6","6","5","3","6","5","3","4","5","767401496999628801","田","609","Female","[""坏我"",""好她"",""坏她"",""好我""]","[""弱我"",""强她"",""弱她"",""强我""]","","","","","","","","yes","","","","","","","","","SRET","EW_formal","","key","j","16.663808988764348","834.7826260024076","465.21740094925843","自己","忠义","Positive","morality","","","","","","","","","","",""
"482","","j","psychophysics","53","265475","0.0-7.0-3.0-0.39","3","4","4","3","4","4","3","3","4","4","4","0","1","0","1","0","0","1","1","4","5","4","5","4","4","5","5","4","4","6","6","7","7","5","5","6","7","6","5","6","3","5","5","5","5","7","6","6","1","4","4","5","5","6","5","5","4","5","6","4","5","3","6","3","5","3","6","5","5","7","6","6","5","3","6","5","3","4","5","767401496999628801","田","609","Female","[""坏我"",""好她"",""坏她"",""好我""]","[""弱我"",""强她"",""弱她"",""强我""]","","","","","","","","yes","","","","","","","","","SRET","EW_formal","","key","j","16.66494318181834","834.7826260024076","465.21740094925843","自己","勤奋","Positive","ability","","","","","","","","","","",""
"472","","j","psychophysics","54","266947","0.0-7.0-3.0-0.40","3","4","4","3","4","4","3","3","4","4","4","0","1","0","1","0","0","1","1","4","5","4","5","4","4","5","5","4","4","6","6","7","7","5","5","6","7","6","5","6","3","5","5","5","5","7","6","6","1","4","4","5","5","6","5","5","4","5","6","4","5","3","6","3","5","3","6","5","5","7","6","6","5","3","6","5","3","4","5","767401496999628801","田","609","Female","[""坏我"",""好她"",""坏她"",""好我""]","[""弱我"",""强她"",""弱她"",""强我""]","","","","","","","","yes","","","","","","","","","SRET","EW_formal","","key","j","16.659738636363315","834.7826260024076","465.21740094925843","自己","远见","Positive","ability","","","","","","","","","","",""
"773","","f","psychophysics","55","268721","0.0-7.0-3.0-0.41","3","4","4","3","4","4","3","3","4","4","4","0","1","0","1","0","0","1","1","4","5","4","5","4","4","5","5","4","4","6","6","7","7","5","5","6","7","6","5","6","3","5","5","5","5","7","6","6","1","4","4","5","5","6","5","5","4","5","6","4","5","3","6","3","5","3","6","5","5","7","6","6","5","3","6","5","3","4","5","767401496999628801","田","609","Female","[""坏我"",""好她"",""坏她"",""好我""]","[""弱我"",""强她"",""弱她"",""强我""]","","","","","","","","no","","","","","","","","","SRET","EW_formal","","key","f","16.661780952381168","834.7826260024076","465.21740094925843","朋友","庸碌","Negative","ability","","","","","","","","","","",""
"570","","j","psychophysics","56","270292","0.0-7.0-3.0-0.42","3","4","4","3","4","4","3","3","4","4","4","0","1","0","1","0","0","1","1","4","5","4","5","4","4","5","5","4","4","6","6","7","7","5","5","6","7","6","5","6","3","5","5","5","5","7","6","6","1","4","4","5","5","6","5","5","4","5","6","4","5","3","6","3","5","3","6","5","5","7","6","6","5","3","6","5","3","4","5","767401496999628801","田","609","Female","[""坏我"",""好她"",""坏她"",""好我""]","[""弱我"",""强她"",""弱她"",""强我""]","","","","","","","","yes","","","","","","","","","SRET","EW_formal","","key","j","16.666591397849643","834.7826260024076","465.21740094925843","自己","勤恳","Positive","morality","","","","","","","","","","",""
"557","","f","psychophysics","57","271851","0.0-7.0-3.0-0.43","3","4","4","3","4","4","3","3","4","4","4","0","1","0","1","0","0","1","1","4","5","4","5","4","4","5","5","4","4","6","6","7","7","5","5","6","7","6","5","6","3","5","5","5","5","7","6","6","1","4","4","5","5","6","5","5","4","5","6","4","5","3","6","3","5","3","6","5","5","7","6","6","5","3","6","5","3","4","5","767401496999628801","田","609","Female","[""坏我"",""好她"",""坏她"",""好我""]","[""弱我"",""强她"",""弱她"",""强我""]","","","","","","","","no","","","","","","","","","SRET","EW_formal","","key","f","16.66631182795641","834.7826260024076","465.21740094925843","自己","腐败","Negative","morality","","","","","","","","","","",""
"602","","f","psychophysics","58","273454","0.0-7.0-3.0-0.44","3","4","4","3","4","4","3","3","4","4","4","0","1","0","1","0","0","1","1","4","5","4","5","4","4","5","5","4","4","6","6","7","7","5","5","6","7","6","5","6","3","5","5","5","5","7","6","6","1","4","4","5","5","6","5","5","4","5","6","4","5","3","6","3","5","3","6","5","5","7","6","6","5","3","6","5","3","4","5","767401496999628801","田","609","Female","[""坏我"",""好她"",""坏她"",""好我""]","[""弱我"",""强她"",""弱她"",""强我""]","","","","","","","","no","","","","","","","","","SRET","EW_formal","","key","f","16.666126315789544","834.7826260024076","465.21740094925843","自己","罪恶","Negative","morality","","","","","","","","","","",""
"478","","f","psychophysics","59","274933","0.0-7.0-3.0-0.45","3","4","4","3","4","4","3","3","4","4","4","0","1","0","1","0","0","1","1","4","5","4","5","4","4","5","5","4","4","6","6","7","7","5","5","6","7","6","5","6","3","5","5","5","5","7","6","6","1","4","4","5","5","6","5","5","4","5","6","4","5","3","6","3","5","3","6","5","5","7","6","6","5","3","6","5","3","4","5","767401496999628801","田","609","Female","[""坏我"",""好她"",""坏她"",""好我""]","[""弱我"",""强她"",""弱她"",""强我""]","","","","","","","","no","","","","","","","","","SRET","EW_formal","","key","f","16.666579545454375","834.7826260024076","465.21740094925843","朋友","无助","Negative","ability","","","","","","","","","","",""
"516","","f","psychophysics","60","276451","0.0-7.0-3.0-0.46","3","4","4","3","4","4","3","3","4","4","4","0","1","0","1","0","0","1","1","4","5","4","5","4","4","5","5","4","4","6","6","7","7","5","5","6","7","6","5","6","3","5","5","5","5","7","6","6","1","4","4","5","5","6","5","5","4","5","6","4","5","3","6","3","5","3","6","5","5","7","6","6","5","3","6","5","3","4","5","767401496999628801","田","609","Female","[""坏我"",""好她"",""坏她"",""好我""]","[""弱我"",""强她"",""弱她"",""强我""]","","","","","","","","no","","","","","","","","","SRET","EW_formal","","key","f","16.6655111111112","834.7826260024076","465.21740094925843","朋友","阴毒","Negative","morality","","","","","","","","","","",""
"560","","f","psychophysics","61","278012","0.0-7.0-3.0-0.47","3","4","4","3","4","4","3","3","4","4","4","0","1","0","1","0","0","1","1","4","5","4","5","4","4","5","5","4","4","6","6","7","7","5","5","6","7","6","5","6","3","5","5","5","5","7","6","6","1","4","4","5","5","6","5","5","4","5","6","4","5","3","6","3","5","3","6","5","5","7","6","6","5","3","6","5","3","4","5","767401496999628801","田","609","Female","[""坏我"",""好她"",""坏她"",""好我""]","[""弱我"",""强她"",""弱她"",""强我""]","","","","","","","","no","","","","","","","","","SRET","EW_formal","","key","f","16.66549462365595","834.7826260024076","465.21740094925843","朋友","无私","Positive","morality","","","","","","","","","","",""
"623","","f","psychophysics","62","279637","0.0-7.0-3.0-0.48","3","4","4","3","4","4","3","3","4","4","4","0","1","0","1","0","0","1","1","4","5","4","5","4","4","5","5","4","4","6","6","7","7","5","5","6","7","6","5","6","3","5","5","5","5","7","6","6","1","4","4","5","5","6","5","5","4","5","6","4","5","3","6","3","5","3","6","5","5","7","6","6","5","3","6","5","3","4","5","767401496999628801","田","609","Female","[""坏我"",""好她"",""坏她"",""好我""]","[""弱我"",""强她"",""弱她"",""强我""]","","","","","","","","no","","","","","","","","","SRET","EW_formal","","key","f","16.665385416666442","834.7826260024076","465.21740094925843","朋友","废物","Negative","ability","","","","","","","","","","",""
"1051","","j","psychophysics","63","281688","0.0-7.0-3.0-0.49","3","4","4","3","4","4","3","3","4","4","4","0","1","0","1","0","0","1","1","4","5","4","5","4","4","5","5","4","4","6","6","7","7","5","5","6","7","6","5","6","3","5","5","5","5","7","6","6","1","4","4","5","5","6","5","5","4","5","6","4","5","3","6","3","5","3","6","5","5","7","6","6","5","3","6","5","3","4","5","767401496999628801","田","609","Female","[""坏我"",""好她"",""坏她"",""好我""]","[""弱我"",""强她"",""弱她"",""强我""]","","","","","","","","yes","","","","","","","","","SRET","EW_formal","","key","j","16.665868852458814","834.7826260024076","465.21740094925843","自己","刻苦","Positive","ability","","","","","","","","","","",""
"658","","f","psychophysics","64","283348","0.0-7.0-3.0-0.50","3","4","4","3","4","4","3","3","4","4","4","0","1","0","1","0","0","1","1","4","5","4","5","4","4","5","5","4","4","6","6","7","7","5","5","6","7","6","5","6","3","5","5","5","5","7","6","6","1","4","4","5","5","6","5","5","4","5","6","4","5","3","6","3","5","3","6","5","5","7","6","6","5","3","6","5","3","4","5","767401496999628801","田","609","Female","[""坏我"",""好她"",""坏她"",""好我""]","[""弱我"",""强她"",""弱她"",""强我""]","","","","","","","","no","","","","","","","","","SRET","EW_formal","","key","f","16.663565656565357","834.7826260024076","465.21740094925843","自己","狡狯","Negative","morality","","","","","","","","","","",""
"656","","j","psychophysics","65","285005","0.0-7.0-3.0-0.51","3","4","4","3","4","4","3","3","4","4","4","0","1","0","1","0","0","1","1","4","5","4","5","4","4","5","5","4","4","6","6","7","7","5","5","6","7","6","5","6","3","5","5","5","5","7","6","6","1","4","4","5","5","6","5","5","4","5","6","4","5","3","6","3","5","3","6","5","5","7","6","6","5","3","6","5","3","4","5","767401496999628801","田","609","Female","[""坏我"",""好她"",""坏她"",""好我""]","[""弱我"",""强她"",""弱她"",""强我""]","","","","","","","","yes","","","","","","","","","SRET","EW_formal","","key","j","16.66394897959164","834.7826260024076","465.21740094925843","朋友","仗义","Positive","morality","","","","","","","","","","",""
"559","","j","psychophysics","66","286566","0.0-7.0-3.0-0.52","3","4","4","3","4","4","3","3","4","4","4","0","1","0","1","0","0","1","1","4","5","4","5","4","4","5","5","4","4","6","6","7","7","5","5","6","7","6","5","6","3","5","5","5","5","7","6","6","1","4","4","5","5","6","5","5","4","5","6","4","5","3","6","3","5","3","6","5","5","7","6","6","5","3","6","5","3","4","5","767401496999628801","田","609","Female","[""坏我"",""好她"",""坏她"",""好我""]","[""弱我"",""强她"",""弱她"",""强我""]","","","","","","","","yes","","","","","","","","","SRET","EW_formal","","key","j","16.667881720430238","834.7826260024076","465.21740094925843","朋友","敬业","Positive","morality","","","","","","","","","","",""
"596","","f","psychophysics","67","288164","0.0-7.0-3.0-0.53","3","4","4","3","4","4","3","3","4","4","4","0","1","0","1","0","0","1","1","4","5","4","5","4","4","5","5","4","4","6","6","7","7","5","5","6","7","6","5","6","3","5","5","5","5","7","6","6","1","4","4","5","5","6","5","5","4","5","6","4","5","3","6","3","5","3","6","5","5","7","6","6","5","3","6","5","3","4","5","767401496999628801","田","609","Female","[""坏我"",""好她"",""坏她"",""好我""]","[""弱我"",""强她"",""弱她"",""强我""]","","","","","","","","no","","","","","","","","","SRET","EW_formal","","key","f","16.663568421053135","834.7826260024076","465.21740094925843","自己","淫乱","Negative","morality","","","","","","","","","","",""
"562","","j","psychophysics","68","289727","0.0-7.0-3.0-0.54","3","4","4","3","4","4","3","3","4","4","4","0","1","0","1","0","0","1","1","4","5","4","5","4","4","5","5","4","4","6","6","7","7","5","5","6","7","6","5","6","3","5","5","5","5","7","6","6","1","4","4","5","5","6","5","5","4","5","6","4","5","3","6","3","5","3","6","5","5","7","6","6","5","3","6","5","3","4","5","767401496999628801","田","609","Female","[""坏我"",""好她"",""坏她"",""好我""]","[""弱我"",""强她"",""弱她"",""强我""]","","","","","","","","yes","","","","","","","","","SRET","EW_formal","","key","j","16.664139784946386","834.7826260024076","465.21740094925843","自己","慷慨","Positive","morality","","","","","","","","","","",""
"591","","j","psychophysics","69","291319","0.0-7.0-3.0-0.55","3","4","4","3","4","4","3","3","4","4","4","0","1","0","1","0","0","1","1","4","5","4","5","4","4","5","5","4","4","6","6","7","7","5","5","6","7","6","5","6","3","5","5","5","5","7","6","6","1","4","4","5","5","6","5","5","4","5","6","4","5","3","6","3","5","3","6","5","5","7","6","6","5","3","6","5","3","4","5","767401496999628801","田","609","Female","[""坏我"",""好她"",""坏她"",""好我""]","[""弱我"",""强她"",""弱她"",""强我""]","","","","","","","","yes","","","","","","","","","SRET","EW_formal","","key","j","16.664117021276862","834.7826260024076","465.21740094925843","朋友","高明","Positive","ability","","","","","","","","","","",""
"438","","j","psychophysics","70","292759","0.0-7.0-3.0-0.56","3","4","4","3","4","4","3","3","4","4","4","0","1","0","1","0","0","1","1","4","5","4","5","4","4","5","5","4","4","6","6","7","7","5","5","6","7","6","5","6","3","5","5","5","5","7","6","6","1","4","4","5","5","6","5","5","4","5","6","4","5","3","6","3","5","3","6","5","5","7","6","6","5","3","6","5","3","4","5","767401496999628801","田","609","Female","[""坏我"",""好她"",""坏她"",""好我""]","[""弱我"",""强她"",""弱她"",""强我""]","","","","","","","","yes","","","","","","","","","SRET","EW_formal","","key","j","16.665569767441877","834.7826260024076","465.21740094925843","朋友","文明","Positive","morality","","","","","","","","","","",""
"585","","f","psychophysics","71","294346","0.0-7.0-3.0-0.57","3","4","4","3","4","4","3","3","4","4","4","0","1","0","1","0","0","1","1","4","5","4","5","4","4","5","5","4","4","6","6","7","7","5","5","6","7","6","5","6","3","5","5","5","5","7","6","6","1","4","4","5","5","6","5","5","4","5","6","4","5","3","6","3","5","3","6","5","5","7","6","6","5","3","6","5","3","4","5","767401496999628801","田","609","Female","[""坏我"",""好她"",""坏她"",""好我""]","[""弱我"",""强她"",""弱她"",""强我""]","","","","","","","","no","","","","","","","","","SRET","EW_formal","","key","f","16.661042553191866","834.7826260024076","465.21740094925843","自己","差生","Negative","ability","","","","","","","","","","",""
"575","","f","psychophysics","72","295923","0.0-7.0-3.0-0.58","3","4","4","3","4","4","3","3","4","4","4","0","1","0","1","0","0","1","1","4","5","4","5","4","4","5","5","4","4","6","6","7","7","5","5","6","7","6","5","6","3","5","5","5","5","7","6","6","1","4","4","5","5","6","5","5","4","5","6","4","5","3","6","3","5","3","6","5","5","7","6","6","5","3","6","5","3","4","5","767401496999628801","田","609","Female","[""坏我"",""好她"",""坏她"",""好我""]","[""弱我"",""强她"",""弱她"",""强我""]","","","","","","","","no","","","","","","","","","SRET","EW_formal","","key","f","16.66351612903283","834.7826260024076","465.21740094925843","朋友","诡诈","Negative","morality","","","","","","","","","","",""
"540","","j","psychophysics","73","297465","0.0-7.0-3.0-0.59","3","4","4","3","4","4","3","3","4","4","4","0","1","0","1","0","0","1","1","4","5","4","5","4","4","5","5","4","4","6","6","7","7","5","5","6","7","6","5","6","3","5","5","5","5","7","6","6","1","4","4","5","5","6","5","5","4","5","6","4","5","3","6","3","5","3","6","5","5","7","6","6","5","3","6","5","3","4","5","767401496999628801","田","609","Female","[""坏我"",""好她"",""坏她"",""好我""]","[""弱我"",""强她"",""弱她"",""强我""]","","","","","","","","yes","","","","","","","","","SRET","EW_formal","","key","j","16.667086956522088","834.7826260024076","465.21740094925843","自己","忠诚","Positive","morality","","","","","","","","","","",""
"576","","j","psychophysics","74","299042","0.0-7.0-3.0-0.60","3","4","4","3","4","4","3","3","4","4","4","0","1","0","1","0","0","1","1","4","5","4","5","4","4","5","5","4","4","6","6","7","7","5","5","6","7","6","5","6","3","5","5","5","5","7","6","6","1","4","4","5","5","6","5","5","4","5","6","4","5","3","6","3","5","3","6","5","5","7","6","6","5","3","6","5","3","4","5","767401496999628801","田","609","Female","[""坏我"",""好她"",""坏她"",""好我""]","[""弱我"",""强她"",""弱她"",""强我""]","","","","","","","","yes","","","","","","","","","SRET","EW_formal","","key","j","16.667297872340683","834.7826260024076","465.21740094925843","朋友","利落","Positive","ability","","","","","","","","","","",""
"695","","j","psychophysics","75","300738","0.0-7.0-3.0-0.61","3","4","4","3","4","4","3","3","4","4","4","0","1","0","1","0","0","1","1","4","5","4","5","4","4","5","5","4","4","6","6","7","7","5","5","6","7","6","5","6","3","5","5","5","5","7","6","6","1","4","4","5","5","6","5","5","4","5","6","4","5","3","6","3","5","3","6","5","5","7","6","6","5","3","6","5","3","4","5","767401496999628801","田","609","Female","[""坏我"",""好她"",""坏她"",""好我""]","[""弱我"",""强她"",""弱她"",""强我""]","","","","","","","","yes","","","","","","","","","SRET","EW_formal","","key","j","16.664040000000387","834.7826260024076","465.21740094925843","自己","谦逊","Positive","morality","","","","","","","","","","",""
"503","","j","psychophysics","76","302244","0.0-7.0-3.0-0.62","3","4","4","3","4","4","3","3","4","4","4","0","1","0","1","0","0","1","1","4","5","4","5","4","4","5","5","4","4","6","6","7","7","5","5","6","7","6","5","6","3","5","5","5","5","7","6","6","1","4","4","5","5","6","5","5","4","5","6","4","5","3","6","3","5","3","6","5","5","7","6","6","5","3","6","5","3","4","5","767401496999628801","田","609","Female","[""坏我"",""好她"",""坏她"",""好我""]","[""弱我"",""强她"",""弱她"",""强我""]","","","","","","","","yes","","","","","","","","","SRET","EW_formal","","key","j","16.666877777778105","834.7826260024076","465.21740094925843","自己","懂行","Positive","ability","","","","","","","","","","",""
"499","","j","psychophysics","77","303744","0.0-7.0-3.0-0.63","3","4","4","3","4","4","3","3","4","4","4","0","1","0","1","0","0","1","1","4","5","4","5","4","4","5","5","4","4","6","6","7","7","5","5","6","7","6","5","6","3","5","5","5","5","7","6","6","1","4","4","5","5","6","5","5","4","5","6","4","5","3","6","3","5","3","6","5","5","7","6","6","5","3","6","5","3","4","5","767401496999628801","田","609","Female","[""坏我"",""好她"",""坏她"",""好我""]","[""弱我"",""强她"",""弱她"",""强我""]","","","","","","","","yes","","","","","","","","","SRET","EW_formal","","key","j","16.66316853932581","834.7826260024076","465.21740094925843","自己","坦荡","Positive","morality","","","","","","","","","","",""
"645","","f","psychophysics","78","305391","0.0-7.0-3.0-0.64","3","4","4","3","4","4","3","3","4","4","4","0","1","0","1","0","0","1","1","4","5","4","5","4","4","5","5","4","4","6","6","7","7","5","5","6","7","6","5","6","3","5","5","5","5","7","6","6","1","4","4","5","5","6","5","5","4","5","6","4","5","3","6","3","5","3","6","5","5","7","6","6","5","3","6","5","3","4","5","767401496999628801","田","609","Female","[""坏我"",""好她"",""坏她"",""好我""]","[""弱我"",""强她"",""弱她"",""强我""]","","","","","","","","no","","","","","","","","","SRET","EW_formal","","key","f","16.66401020408197","834.7826260024076","465.21740094925843","朋友","不孝","Negative","morality","","","","","","","","","","",""
"878","","f","psychophysics","79","307270","0.0-7.0-3.0-0.65","3","4","4","3","4","4","3","3","4","4","4","0","1","0","1","0","0","1","1","4","5","4","5","4","4","5","5","4","4","6","6","7","7","5","5","6","7","6","5","6","3","5","5","5","5","7","6","6","1","4","4","5","5","6","5","5","4","5","6","4","5","3","6","3","5","3","6","5","5","7","6","6","5","3","6","5","3","4","5","767401496999628801","田","609","Female","[""坏我"",""好她"",""坏她"",""好我""]","[""弱我"",""强她"",""弱她"",""强我""]","","","","","","","","no","","","","","","","","","SRET","EW_formal","","key","f","16.663324324324464","834.7826260024076","465.21740094925843","自己","独断","Negative","ability","","","","","","","","","","",""
"686","","j","psychophysics","80","308957","0.0-7.0-3.0-0.66","3","4","4","3","4","4","3","3","4","4","4","0","1","0","1","0","0","1","1","4","5","4","5","4","4","5","5","4","4","6","6","7","7","5","5","6","7","6","5","6","3","5","5","5","5","7","6","6","1","4","4","5","5","6","5","5","4","5","6","4","5","3","6","3","5","3","6","5","5","7","6","6","5","3","6","5","3","4","5","767401496999628801","田","609","Female","[""坏我"",""好她"",""坏她"",""好我""]","[""弱我"",""强她"",""弱她"",""强我""]","","","","","","","","yes","","","","","","","","","SRET","EW_formal","","key","j","16.66641584158377","834.7826260024076","465.21740094925843","自己","畏难","Negative","ability","","","","","","","","","","",""
"593","","j","psychophysics","81","310552","0.0-7.0-3.0-0.67","3","4","4","3","4","4","3","3","4","4","4","0","1","0","1","0","0","1","1","4","5","4","5","4","4","5","5","4","4","6","6","7","7","5","5","6","7","6","5","6","3","5","5","5","5","7","6","6","1","4","4","5","5","6","5","5","4","5","6","4","5","3","6","3","5","3","6","5","5","7","6","6","5","3","6","5","3","4","5","767401496999628801","田","609","Female","[""坏我"",""好她"",""坏她"",""好我""]","[""弱我"",""强她"",""弱她"",""强我""]","","","","","","","","yes","","","","","","","","","SRET","EW_formal","","key","j","16.663659574468298","834.7826260024076","465.21740094925843","自己","高尚","Positive","morality","","","","","","","","","","",""
"540","","j","psychophysics","82","312092","0.0-7.0-3.0-0.68","3","4","4","3","4","4","3","3","4","4","4","0","1","0","1","0","0","1","1","4","5","4","5","4","4","5","5","4","4","6","6","7","7","5","5","6","7","6","5","6","3","5","5","5","5","7","6","6","1","4","4","5","5","6","5","5","4","5","6","4","5","3","6","3","5","3","6","5","5","7","6","6","5","3","6","5","3","4","5","767401496999628801","田","609","Female","[""坏我"",""好她"",""坏她"",""好我""]","[""弱我"",""强她"",""弱她"",""强我""]","","","","","","","","yes","","","","","","","","","SRET","EW_formal","","key","j","16.808186813186634","834.7826260024076","465.21740094925843","朋友","孝顺","Positive","morality","","","","","","","","","","",""
"585","","j","psychophysics","83","313678","0.0-7.0-3.0-0.69","3","4","4","3","4","4","3","3","4","4","4","0","1","0","1","0","0","1","1","4","5","4","5","4","4","5","5","4","4","6","6","7","7","5","5","6","7","6","5","6","3","5","5","5","5","7","6","6","1","4","4","5","5","6","5","5","4","5","6","4","5","3","6","3","5","3","6","5","5","7","6","6","5","3","6","5","3","4","5","767401496999628801","田","609","Female","[""坏我"",""好她"",""坏她"",""好我""]","[""弱我"",""强她"",""弱她"",""强我""]","","","","","","","","yes","","","","","","","","","SRET","EW_formal","","key","j","16.660797872340325","834.7826260024076","465.21740094925843","自己","守法","Positive","morality","","","","","","","","","","",""
"622","","f","psychophysics","84","315301","0.0-7.0-3.0-0.70","3","4","4","3","4","4","3","3","4","4","4","0","1","0","1","0","0","1","1","4","5","4","5","4","4","5","5","4","4","6","6","7","7","5","5","6","7","6","5","6","3","5","5","5","5","7","6","6","1","4","4","5","5","6","5","5","4","5","6","4","5","3","6","3","5","3","6","5","5","7","6","6","5","3","6","5","3","4","5","767401496999628801","田","609","Female","[""坏我"",""好她"",""坏她"",""好我""]","[""弱我"",""强她"",""弱她"",""强我""]","","","","","","","","no","","","","","","","","","SRET","EW_formal","","key","f","16.663218749999942","834.7826260024076","465.21740094925843","自己","浅薄","Negative","ability","","","","","","","","","","",""
"702","","j","psychophysics","85","317004","0.0-7.0-3.0-0.71","3","4","4","3","4","4","3","3","4","4","4","0","1","0","1","0","0","1","1","4","5","4","5","4","4","5","5","4","4","6","6","7","7","5","5","6","7","6","5","6","3","5","5","5","5","7","6","6","1","4","4","5","5","6","5","5","4","5","6","4","5","3","6","3","5","3","6","5","5","7","6","6","5","3","6","5","3","4","5","767401496999628801","田","609","Female","[""坏我"",""好她"",""坏她"",""好我""]","[""弱我"",""强她"",""弱她"",""强我""]","","","","","","","","yes","","","","","","","","","SRET","EW_formal","","key","j","16.663098039215672","834.7826260024076","465.21740094925843","朋友","清廉","Positive","morality","","","","","","","","","","",""
"634","","j","psychophysics","86","318639","0.0-7.0-3.0-0.72","3","4","4","3","4","4","3","3","4","4","4","0","1","0","1","0","0","1","1","4","5","4","5","4","4","5","5","4","4","6","6","7","7","5","5","6","7","6","5","6","3","5","5","5","5","7","6","6","1","4","4","5","5","6","5","5","4","5","6","4","5","3","6","3","5","3","6","5","5","7","6","6","5","3","6","5","3","4","5","767401496999628801","田","609","Female","[""坏我"",""好她"",""坏她"",""好我""]","[""弱我"",""强她"",""弱她"",""强我""]","","","","","","","","yes","","","","","","","","","SRET","EW_formal","","key","j","16.663587628866154","834.7826260024076","465.21740094925843","自己","正气","Positive","morality","","","","","","","","","","",""
"572","","f","psychophysics","87","320212","0.0-7.0-3.0-0.73","3","4","4","3","4","4","3","3","4","4","4","0","1","0","1","0","0","1","1","4","5","4","5","4","4","5","5","4","4","6","6","7","7","5","5","6","7","6","5","6","3","5","5","5","5","7","6","6","1","4","4","5","5","6","5","5","4","5","6","4","5","3","6","3","5","3","6","5","5","7","6","6","5","3","6","5","3","4","5","767401496999628801","田","609","Female","[""坏我"",""好她"",""坏她"",""好我""]","[""弱我"",""强她"",""弱她"",""强我""]","","","","","","","","no","","","","","","","","","SRET","EW_formal","","key","f","16.66604301075248","834.7826260024076","465.21740094925843","朋友","歹毒","Negative","morality","","","","","","","","","","",""
"716","","f","psychophysics","88","321929","0.0-7.0-3.0-0.74","3","4","4","3","4","4","3","3","4","4","4","0","1","0","1","0","0","1","1","4","5","4","5","4","4","5","5","4","4","6","6","7","7","5","5","6","7","6","5","6","3","5","5","5","5","7","6","6","1","4","4","5","5","6","5","5","4","5","6","4","5","3","6","3","5","3","6","5","5","7","6","6","5","3","6","5","3","4","5","767401496999628801","田","609","Female","[""坏我"",""好她"",""坏她"",""好我""]","[""弱我"",""强她"",""弱她"",""强我""]","","","","","","","","no","","","","","","","","","SRET","EW_formal","","key","f","16.666401960784295","834.7826260024076","465.21740094925843","自己","愚痴","Negative","ability","","","","","","","","","","",""
"530","","j","psychophysics","89","323460","0.0-7.0-3.0-0.75","3","4","4","3","4","4","3","3","4","4","4","0","1","0","1","0","0","1","1","4","5","4","5","4","4","5","5","4","4","6","6","7","7","5","5","6","7","6","5","6","3","5","5","5","5","7","6","6","1","4","4","5","5","6","5","5","4","5","6","4","5","3","6","3","5","3","6","5","5","7","6","6","5","3","6","5","3","4","5","767401496999628801","田","609","Female","[""坏我"",""好她"",""坏她"",""好我""]","[""弱我"",""强她"",""弱她"",""强我""]","","","","","","","","yes","","","","","","","","","SRET","EW_formal","","key","j","16.666428571428778","834.7826260024076","465.21740094925843","自己","依靠","Negative","ability","","","","","","","","","","",""
"721","","j","psychophysics","90","325182","0.0-7.0-3.0-0.76","3","4","4","3","4","4","3","3","4","4","4","0","1","0","1","0","0","1","1","4","5","4","5","4","4","5","5","4","4","6","6","7","7","5","5","6","7","6","5","6","3","5","5","5","5","7","6","6","1","4","4","5","5","6","5","5","4","5","6","4","5","3","6","3","5","3","6","5","5","7","6","6","5","3","6","5","3","4","5","767401496999628801","田","609","Female","[""坏我"",""好她"",""坏她"",""好我""]","[""弱我"",""强她"",""弱她"",""强我""]","","","","","","","","yes","","","","","","","","","SRET","EW_formal","","key","j","16.665617647058646","834.7826260024076","465.21740094925843","朋友","中用","Positive","ability","","","","","","","","","","",""
"596","","j","psychophysics","91","326780","0.0-7.0-3.0-0.77","3","4","4","3","4","4","3","3","4","4","4","0","1","0","1","0","0","1","1","4","5","4","5","4","4","5","5","4","4","6","6","7","7","5","5","6","7","6","5","6","3","5","5","5","5","7","6","6","1","4","4","5","5","6","5","5","4","5","6","4","5","3","6","3","5","3","6","5","5","7","6","6","5","3","6","5","3","4","5","767401496999628801","田","609","Female","[""坏我"",""好她"",""坏她"",""好我""]","[""弱我"",""强她"",""弱她"",""强我""]","","","","","","","","yes","","","","","","","","","SRET","EW_formal","","key","j","16.634978947368158","834.7826260024076","465.21740094925843","自己","无能","Negative","ability","","","","","","","","","","",""
"849","","f","psychophysics","92","328630","0.0-7.0-3.0-0.78","3","4","4","3","4","4","3","3","4","4","4","0","1","0","1","0","0","1","1","4","5","4","5","4","4","5","5","4","4","6","6","7","7","5","5","6","7","6","5","6","3","5","5","5","5","7","6","6","1","4","4","5","5","6","5","5","4","5","6","4","5","3","6","3","5","3","6","5","5","7","6","6","5","3","6","5","3","4","5","767401496999628801","田","609","Female","[""坏我"",""好她"",""坏她"",""好我""]","[""弱我"",""强她"",""弱她"",""强我""]","","","","","","","","no","","","","","","","","","SRET","EW_formal","","key","f","16.663563636363886","834.7826260024076","465.21740094925843","自己","黑心","Negative","morality","","","","","","","","","","",""
"743","","f","psychophysics","93","330375","0.0-7.0-3.0-0.79","3","4","4","3","4","4","3","3","4","4","4","0","1","0","1","0","0","1","1","4","5","4","5","4","4","5","5","4","4","6","6","7","7","5","5","6","7","6","5","6","3","5","5","5","5","7","6","6","1","4","4","5","5","6","5","5","4","5","6","4","5","3","6","3","5","3","6","5","5","7","6","6","5","3","6","5","3","4","5","767401496999628801","田","609","Female","[""坏我"",""好她"",""坏她"",""好我""]","[""弱我"",""强她"",""弱她"",""强我""]","","","","","","","","no","","","","","","","","","SRET","EW_formal","","key","f","16.663076923077124","834.7826260024076","465.21740094925843","朋友","驽钝","Negative","ability","","","","","","","","","","",""
"723","","j","psychophysics","94","332098","0.0-7.0-3.0-0.80","3","4","4","3","4","4","3","3","4","4","4","0","1","0","1","0","0","1","1","4","5","4","5","4","4","5","5","4","4","6","6","7","7","5","5","6","7","6","5","6","3","5","5","5","5","7","6","6","1","4","4","5","5","6","5","5","4","5","6","4","5","3","6","3","5","3","6","5","5","7","6","6","5","3","6","5","3","4","5","767401496999628801","田","609","Female","[""坏我"",""好她"",""坏她"",""好我""]","[""弱我"",""强她"",""弱她"",""强我""]","","","","","","","","yes","","","","","","","","","SRET","EW_formal","","key","j","16.664990196078698","834.7826260024076","465.21740094925843","自己","扎实","Positive","ability","","","","","","","","","","",""
"795","","j","psychophysics","95","333894","0.0-7.0-3.0-0.81","3","4","4","3","4","4","3","3","4","4","4","0","1","0","1","0","0","1","1","4","5","4","5","4","4","5","5","4","4","6","6","7","7","5","5","6","7","6","5","6","3","5","5","5","5","7","6","6","1","4","4","5","5","6","5","5","4","5","6","4","5","3","6","3","5","3","6","5","5","7","6","6","5","3","6","5","3","4","5","767401496999628801","田","609","Female","[""坏我"",""好她"",""坏她"",""好我""]","[""弱我"",""强她"",""弱她"",""强我""]","","","","","","","","yes","","","","","","","","","SRET","EW_formal","","key","j","16.666579439252","834.7826260024076","465.21740094925843","朋友","君子","Positive","morality","","","","","","","","","","",""
"629","","f","psychophysics","96","335525","0.0-7.0-3.0-0.82","3","4","4","3","4","4","3","3","4","4","4","0","1","0","1","0","0","1","1","4","5","4","5","4","4","5","5","4","4","6","6","7","7","5","5","6","7","6","5","6","3","5","5","5","5","7","6","6","1","4","4","5","5","6","5","5","4","5","6","4","5","3","6","3","5","3","6","5","5","7","6","6","5","3","6","5","3","4","5","767401496999628801","田","609","Female","[""坏我"",""好她"",""坏她"",""好我""]","[""弱我"",""强她"",""弱她"",""强我""]","","","","","","","","no","","","","","","","","","SRET","EW_formal","","key","f","16.660505154639356","834.7826260024076","465.21740094925843","朋友","龌龊","Negative","morality","","","","","","","","","","",""
"805","","j","psychophysics","97","337330","0.0-7.0-3.0-0.83","3","4","4","3","4","4","3","3","4","4","4","0","1","0","1","0","0","1","1","4","5","4","5","4","4","5","5","4","4","6","6","7","7","5","5","6","7","6","5","6","3","5","5","5","5","7","6","6","1","4","4","5","5","6","5","5","4","5","6","4","5","3","6","3","5","3","6","5","5","7","6","6","5","3","6","5","3","4","5","767401496999628801","田","609","Female","[""坏我"",""好她"",""坏她"",""好我""]","[""弱我"",""强她"",""弱她"",""强我""]","","","","","","","","yes","","","","","","","","","SRET","EW_formal","","key","j","16.66760747663559","834.7826260024076","465.21740094925843","朋友","独立","Positive","ability","","","","","","","","","","",""
"1119","","j","psychophysics","98","339451","0.0-7.0-3.0-0.84","3","4","4","3","4","4","3","3","4","4","4","0","1","0","1","0","0","1","1","4","5","4","5","4","4","5","5","4","4","6","6","7","7","5","5","6","7","6","5","6","3","5","5","5","5","7","6","6","1","4","4","5","5","6","5","5","4","5","6","4","5","3","6","3","5","3","6","5","5","7","6","6","5","3","6","5","3","4","5","767401496999628801","田","609","Female","[""坏我"",""好她"",""坏她"",""好我""]","[""弱我"",""强她"",""弱她"",""强我""]","","","","","","","","yes","","","","","","","","","SRET","EW_formal","","key","j","16.666755905511923","834.7826260024076","465.21740094925843","朋友","素养","Positive","morality","","","","","","","","","","",""
"661","","f","psychophysics","99","341125","0.0-7.0-3.0-0.85","3","4","4","3","4","4","3","3","4","4","4","0","1","0","1","0","0","1","1","4","5","4","5","4","4","5","5","4","4","6","6","7","7","5","5","6","7","6","5","6","3","5","5","5","5","7","6","6","1","4","4","5","5","6","5","5","4","5","6","4","5","3","6","3","5","3","6","5","5","7","6","6","5","3","6","5","3","4","5","767401496999628801","田","609","Female","[""坏我"",""好她"",""坏她"",""好我""]","[""弱我"",""强她"",""弱她"",""强我""]","","","","","","","","no","","","","","","","","","SRET","EW_formal","","key","f","16.663898989898648","834.7826260024076","465.21740094925843","朋友","低俗","Negative","morality","","","","","","","","","","",""
"736","","f","psychophysics","100","342864","0.0-7.0-3.0-0.86","3","4","4","3","4","4","3","3","4","4","4","0","1","0","1","0","0","1","1","4","5","4","5","4","4","5","5","4","4","6","6","7","7","5","5","6","7","6","5","6","3","5","5","5","5","7","6","6","1","4","4","5","5","6","5","5","4","5","6","4","5","3","6","3","5","3","6","5","5","7","6","6","5","3","6","5","3","4","5","767401496999628801","田","609","Female","[""坏我"",""好她"",""坏她"",""好我""]","[""弱我"",""强她"",""弱她"",""强我""]","","","","","","","","no","","","","","","","","","SRET","EW_formal","","key","f","16.667757281553772","834.7826260024076","465.21740094925843","自己","缓慢","Negative","ability","","","","","","","","","","",""
"729","","j","psychophysics","101","344594","0.0-7.0-3.0-0.87","3","4","4","3","4","4","3","3","4","4","4","0","1","0","1","0","0","1","1","4","5","4","5","4","4","5","5","4","4","6","6","7","7","5","5","6","7","6","5","6","3","5","5","5","5","7","6","6","1","4","4","5","5","6","5","5","4","5","6","4","5","3","6","3","5","3","6","5","5","7","6","6","5","3","6","5","3","4","5","767401496999628801","田","609","Female","[""坏我"",""好她"",""坏她"",""好我""]","[""弱我"",""强她"",""弱她"",""强我""]","","","","","","","","yes","","","","","","","","","SRET","EW_formal","","key","j","16.665689320388267","834.7826260024076","465.21740094925843","自己","主见","Positive","ability","","","","","","","","","","",""
"8530","
    <p><div style='color:white;font-size:35px; line-height:20px;'>计算任务</div></p><br>
    <p><div style='color:red;font-size:25px; line-height:20px;'>接下来，您将看到一些四则运算题，<b>请从键盘选择 0-9 进行反应。</b></div></p>
    <p><div style='color:red;font-size:25px; line-height:20px;'>请尽可能快地进行计算，计算的速度和正确率将影响报酬的发放。</div></p>
    <p><div class='footer' style='color:white;font-size:25px; line-height:20px;'>如果对本实验还有不清楚之处，请立即向实验员咨询。</p><p style='color:white;font-size:25px; line-height:20px;'>如果您明白了规则：</p><p style='color:white;font-size:22px; line-height:20px;'>请按 继续 进入练习</p>
    </div>
    ","0","html-button-response","102","353125","0.0-7.0-4.0","3","4","4","3","4","4","3","3","4","4","4","0","1","0","1","0","0","1","1","4","5","4","5","4","4","5","5","4","4","6","6","7","7","5","5","6","7","6","5","6","3","5","5","5","5","7","6","6","1","4","4","5","5","6","5","5","4","5","6","4","5","3","6","3","5","3","6","5","5","7","6","6","5","3","6","5","3","4","5","767401496999628801","田","609","Female","[""坏我"",""好她"",""坏她"",""好我""]","[""弱我"",""强她"",""弱她"",""强我""]","","","","","","","","","","","","","","","","","SRET_math","math_instructions","Sun Dec 10 2023 14:10:35 GMT+0800 (中国标准时间)","","","","","","","","","","","","","","","","","","","",""
"2145","","7","psychophysics","103","355273","0.0-7.0-5.0-0.0","3","4","4","3","4","4","3","3","4","4","4","0","1","0","1","0","0","1","1","4","5","4","5","4","4","5","5","4","4","6","6","7","7","5","5","6","7","6","5","6","3","5","5","5","5","7","6","6","1","4","4","5","5","6","5","5","4","5","6","4","5","3","6","3","5","3","6","5","5","7","6","6","5","3","6","5","3","4","5","767401496999628801","田","609","Female","[""坏我"",""好她"",""坏她"",""好我""]","[""弱我"",""强她"",""弱她"",""强我""]","","","","","","","","7","","","","","","","","","SRET","SRET_math_calculate","","key","7","16.664201550387826","834.7826260024076","465.21740094925843","","","","","4+3= ?","7","1","","","","","","","",""
"2690","","5","psychophysics","104","357964","0.0-7.0-5.0-0.1","3","4","4","3","4","4","3","3","4","4","4","0","1","0","1","0","0","1","1","4","5","4","5","4","4","5","5","4","4","6","6","7","7","5","5","6","7","6","5","6","3","5","5","5","5","7","6","6","1","4","4","5","5","6","5","5","4","5","6","4","5","3","6","3","5","3","6","5","5","7","6","6","5","3","6","5","3","4","5","767401496999628801","田","609","Female","[""坏我"",""好她"",""坏她"",""好我""]","[""弱我"",""强她"",""弱她"",""强我""]","","","","","","","","5","","","","","","","","","SRET","SRET_math_calculate","","key","5","16.665633540372408","834.7826260024076","465.21740094925843","","","","","12-7= ?","5","1","","","","","","","",""
"2254","","6","psychophysics","105","360220","0.0-7.0-5.0-0.2","3","4","4","3","4","4","3","3","4","4","4","0","1","0","1","0","0","1","1","4","5","4","5","4","4","5","5","4","4","6","6","7","7","5","5","6","7","6","5","6","3","5","5","5","5","7","6","6","1","4","4","5","5","6","5","5","4","5","6","4","5","3","6","3","5","3","6","5","5","7","6","6","5","3","6","5","3","4","5","767401496999628801","田","609","Female","[""坏我"",""好她"",""坏她"",""好我""]","[""弱我"",""强她"",""弱她"",""强我""]","","","","","","","","6","","","","","","","","","SRET","SRET_math_calculate","","key","6","16.663425373134583","834.7826260024076","465.21740094925843","","","","","9-3= ?","6","1","","","","","","","",""
"2890","","9","psychophysics","106","363111","0.0-7.0-5.0-0.3","3","4","4","3","4","4","3","3","4","4","4","0","1","0","1","0","0","1","1","4","5","4","5","4","4","5","5","4","4","6","6","7","7","5","5","6","7","6","5","6","3","5","5","5","5","7","6","6","1","4","4","5","5","6","5","5","4","5","6","4","5","3","6","3","5","3","6","5","5","7","6","6","5","3","6","5","3","4","5","767401496999628801","田","609","Female","[""坏我"",""好她"",""坏她"",""好我""]","[""弱我"",""强她"",""弱她"",""强我""]","","","","","","","","9","","","","","","","","","SRET","SRET_math_calculate","","key","9","16.66191907514444","834.7826260024076","465.21740094925843","","","","","43-34= ?","9","1","","","","","","","",""
"2333","","7","psychophysics","107","365446","0.0-7.0-5.0-0.4","3","4","4","3","4","4","3","3","4","4","4","0","1","0","1","0","0","1","1","4","5","4","5","4","4","5","5","4","4","6","6","7","7","5","5","6","7","6","5","6","3","5","5","5","5","7","6","6","1","4","4","5","5","6","5","5","4","5","6","4","5","3","6","3","5","3","6","5","5","7","6","6","5","3","6","5","3","4","5","767401496999628801","田","609","Female","[""坏我"",""好她"",""坏她"",""好我""]","[""弱我"",""强她"",""弱她"",""强我""]","","","","","","","","7","","","","","","","","","SRET","SRET_math_calculate","","key","7","16.663978417266225","834.7826260024076","465.21740094925843","","","","","49/7 = ?","7","1","","","","","","","",""
"2117","","2","psychophysics","108","367565","0.0-7.0-5.0-0.5","3","4","4","3","4","4","3","3","4","4","4","0","1","0","1","0","0","1","1","4","5","4","5","4","4","5","5","4","4","6","6","7","7","5","5","6","7","6","5","6","3","5","5","5","5","7","6","6","1","4","4","5","5","6","5","5","4","5","6","4","5","3","6","3","5","3","6","5","5","7","6","6","5","3","6","5","3","4","5","767401496999628801","田","609","Female","[""坏我"",""好她"",""坏她"",""好我""]","[""弱我"",""强她"",""弱她"",""强我""]","","","","","","","","2","","","","","","","","","SRET","SRET_math_calculate","","key","2","16.663682539682625","834.7826260024076","465.21740094925843","","","","","1+1= ?","2","1","","","","","","","",""
"1973","","5","psychophysics","109","369539","0.0-7.0-5.0-0.6","3","4","4","3","4","4","3","3","4","4","4","0","1","0","1","0","0","1","1","4","5","4","5","4","4","5","5","4","4","6","6","7","7","5","5","6","7","6","5","6","3","5","5","5","5","7","6","6","1","4","4","5","5","6","5","5","4","5","6","4","5","3","6","3","5","3","6","5","5","7","6","6","5","3","6","5","3","4","5","767401496999628801","田","609","Female","[""坏我"",""好她"",""坏她"",""好我""]","[""弱我"",""强她"",""弱她"",""强我""]","","","","","","","","5","","","","","","","","","SRET","SRET_math_calculate","","key","5","16.663914529914155","834.7826260024076","465.21740094925843","","","","","3+2= ?","5","1","","","","","","","",""
"2500","","6","psychophysics","110","372040","0.0-7.0-5.0-0.7","3","4","4","3","4","4","3","3","4","4","4","0","1","0","1","0","0","1","1","4","5","4","5","4","4","5","5","4","4","6","6","7","7","5","5","6","7","6","5","6","3","5","5","5","5","7","6","6","1","4","4","5","5","6","5","5","4","5","6","4","5","3","6","3","5","3","6","5","5","7","6","6","5","3","6","5","3","4","5","767401496999628801","田","609","Female","[""坏我"",""好她"",""坏她"",""好我""]","[""弱我"",""强她"",""弱她"",""强我""]","","","","","","","","6","","","","","","","","","SRET","SRET_math_calculate","","key","6","16.65477181208045","834.7826260024076","465.21740094925843","","","","","3*2= ?","6","1","","","","","","","",""
"2476","","2","psychophysics","111","374517","0.0-7.0-5.0-0.8","3","4","4","3","4","4","3","3","4","4","4","0","1","0","1","0","0","1","1","4","5","4","5","4","4","5","5","4","4","6","6","7","7","5","5","6","7","6","5","6","3","5","5","5","5","7","6","6","1","4","4","5","5","6","5","5","4","5","6","4","5","3","6","3","5","3","6","5","5","7","6","6","5","3","6","5","3","4","5","767401496999628801","田","609","Female","[""坏我"",""好她"",""坏她"",""好我""]","[""弱我"",""强她"",""弱她"",""强我""]","","","","","","","","2","","","","","","","","","SRET","SRET_math_calculate","","key","2","16.66414864864861","834.7826260024076","465.21740094925843","","","","","12/6= ?","2","1","","","","","","","",""
"2297","","0","psychophysics","112","376815","0.0-7.0-5.0-0.9","3","4","4","3","4","4","3","3","4","4","4","0","1","0","1","0","0","1","1","4","5","4","5","4","4","5","5","4","4","6","6","7","7","5","5","6","7","6","5","6","3","5","5","5","5","7","6","6","1","4","4","5","5","6","5","5","4","5","6","4","5","3","6","3","5","3","6","5","5","7","6","6","5","3","6","5","3","4","5","767401496999628801","田","609","Female","[""坏我"",""好她"",""坏她"",""好我""]","[""弱我"",""强她"",""弱她"",""强我""]","","","","","","","","0","","","","","","","","","SRET","SRET_math_calculate","","key","0","16.663328467153207","834.7826260024076","465.21740094925843","","","","","12-12= ?","0","1","","","","","","","",""
"2309","","9","psychophysics","113","379124","0.0-7.0-5.0-0.10","3","4","4","3","4","4","3","3","4","4","4","0","1","0","1","0","0","1","1","4","5","4","5","4","4","5","5","4","4","6","6","7","7","5","5","6","7","6","5","6","3","5","5","5","5","7","6","6","1","4","4","5","5","6","5","5","4","5","6","4","5","3","6","3","5","3","6","5","5","7","6","6","5","3","6","5","3","4","5","767401496999628801","田","609","Female","[""坏我"",""好她"",""坏她"",""好我""]","[""弱我"",""强她"",""弱她"",""强我""]","","","","","","","","9","","","","","","","","","SRET","SRET_math_calculate","","key","9","16.663934306569573","834.7826260024076","465.21740094925843","","","","","81/9= ?","9","1","","","","","","","",""
"2342","","5","psychophysics","114","381469","0.0-7.0-5.0-0.11","3","4","4","3","4","4","3","3","4","4","4","0","1","0","1","0","0","1","1","4","5","4","5","4","4","5","5","4","4","6","6","7","7","5","5","6","7","6","5","6","3","5","5","5","5","7","6","6","1","4","4","5","5","6","5","5","4","5","6","4","5","3","6","3","5","3","6","5","5","7","6","6","5","3","6","5","3","4","5","767401496999628801","田","609","Female","[""坏我"",""好她"",""坏她"",""好我""]","[""弱我"",""强她"",""弱她"",""强我""]","","","","","","","","5","","","","","","","","","SRET","SRET_math_calculate","","key","5","16.666057142857294","834.7826260024076","465.21740094925843","","","","","17-12= ? ","5","1","","","","","","","",""
"2406","","2","psychophysics","115","383876","0.0-7.0-5.0-0.12","3","4","4","3","4","4","3","3","4","4","4","0","1","0","1","0","0","1","1","4","5","4","5","4","4","5","5","4","4","6","6","7","7","5","5","6","7","6","5","6","3","5","5","5","5","7","6","6","1","4","4","5","5","6","5","5","4","5","6","4","5","3","6","3","5","3","6","5","5","7","6","6","5","3","6","5","3","4","5","767401496999628801","田","609","Female","[""坏我"",""好她"",""坏她"",""好我""]","[""弱我"",""强她"",""弱她"",""强我""]","","","","","","","","2","","","","","","","","","SRET","SRET_math_calculate","","key","2","16.665479166666856","834.7826260024076","465.21740094925843","","","","","8/4= ?","2","1","","","","","","","",""
"2298","","5","psychophysics","116","386176","0.0-7.0-5.0-0.13","3","4","4","3","4","4","3","3","4","4","4","0","1","0","1","0","0","1","1","4","5","4","5","4","4","5","5","4","4","6","6","7","7","5","5","6","7","6","5","6","3","5","5","5","5","7","6","6","1","4","4","5","5","6","5","5","4","5","6","4","5","3","6","3","5","3","6","5","5","7","6","6","5","3","6","5","3","4","5","767401496999628801","田","609","Female","[""坏我"",""好她"",""坏她"",""好我""]","[""弱我"",""强她"",""弱她"",""强我""]","","","","","","","","5","","","","","","","","","SRET","SRET_math_calculate","","key","5","16.66429197080272","834.7826260024076","465.21740094925843","","","","","2+3= ?","5","1","","","","","","","",""
"2302","","5","psychophysics","117","388480","0.0-7.0-5.0-0.14","3","4","4","3","4","4","3","3","4","4","4","0","1","0","1","0","0","1","1","4","5","4","5","4","4","5","5","4","4","6","6","7","7","5","5","6","7","6","5","6","3","5","5","5","5","7","6","6","1","4","4","5","5","6","5","5","4","5","6","4","5","3","6","3","5","3","6","5","5","7","6","6","5","3","6","5","3","4","5","767401496999628801","田","609","Female","[""坏我"",""好她"",""坏她"",""好我""]","[""弱我"",""强她"",""弱她"",""强我""]","","","","","","","","5","","","","","","","","","SRET","SRET_math_calculate","","key","5","16.66356204379559","834.7826260024076","465.21740094925843","","","","","5/1= ?","5","1","","","","","","","",""
"2280","","8","psychophysics","118","390762","0.0-7.0-5.0-0.15","3","4","4","3","4","4","3","3","4","4","4","0","1","0","1","0","0","1","1","4","5","4","5","4","4","5","5","4","4","6","6","7","7","5","5","6","7","6","5","6","3","5","5","5","5","7","6","6","1","4","4","5","5","6","5","5","4","5","6","4","5","3","6","3","5","3","6","5","5","7","6","6","5","3","6","5","3","4","5","767401496999628801","田","609","Female","[""坏我"",""好她"",""坏她"",""好我""]","[""弱我"",""强她"",""弱她"",""强我""]","","","","","","","","8","","","","","","","","","SRET","SRET_math_calculate","","key","8","16.66492647058861","834.7826260024076","465.21740094925843","","","","","3+5= ?","8","1","","","","","","","",""
"2364","","3","psychophysics","119","393127","0.0-7.0-5.0-0.16","3","4","4","3","4","4","3","3","4","4","4","0","1","0","1","0","0","1","1","4","5","4","5","4","4","5","5","4","4","6","6","7","7","5","5","6","7","6","5","6","3","5","5","5","5","7","6","6","1","4","4","5","5","6","5","5","4","5","6","4","5","3","6","3","5","3","6","5","5","7","6","6","5","3","6","5","3","4","5","767401496999628801","田","609","Female","[""坏我"",""好她"",""坏她"",""好我""]","[""弱我"",""强她"",""弱她"",""强我""]","","","","","","","","3","","","","","","","","","SRET","SRET_math_calculate","","key","3","16.663950354610122","834.7826260024076","465.21740094925843","","","","","12/4= ?","3","1","","","","","","","",""
"2353","","9","psychophysics","120","395480","0.0-7.0-5.0-0.17","3","4","4","3","4","4","3","3","4","4","4","0","1","0","1","0","0","1","1","4","5","4","5","4","4","5","5","4","4","6","6","7","7","5","5","6","7","6","5","6","3","5","5","5","5","7","6","6","1","4","4","5","5","6","5","5","4","5","6","4","5","3","6","3","5","3","6","5","5","7","6","6","5","3","6","5","3","4","5","767401496999628801","田","609","Female","[""坏我"",""好她"",""坏她"",""好我""]","[""弱我"",""强她"",""弱她"",""强我""]","","","","","","","","9","","","","","","","","","SRET","SRET_math_calculate","","key","9","16.664900000000074","834.7826260024076","465.21740094925843","","","","","8+1= ?","9","1","","","","","","","",""
"1996","","0","psychophysics","121","397477","0.0-7.0-5.0-0.18","3","4","4","3","4","4","3","3","4","4","4","0","1","0","1","0","0","1","1","4","5","4","5","4","4","5","5","4","4","6","6","7","7","5","5","6","7","6","5","6","3","5","5","5","5","7","6","6","1","4","4","5","5","6","5","5","4","5","6","4","5","3","6","3","5","3","6","5","5","7","6","6","5","3","6","5","3","4","5","767401496999628801","田","609","Female","[""坏我"",""好她"",""坏她"",""好我""]","[""弱我"",""强她"",""弱她"",""强我""]","","","","","","","","0","","","","","","","","","SRET","SRET_math_calculate","","key","0","16.66542857142895","834.7826260024076","465.21740094925843","","","","","9-9= ?","0","1","","","","","","","",""
"2207","","7","psychophysics","122","399686","0.0-7.0-5.0-0.19","3","4","4","3","4","4","3","3","4","4","4","0","1","0","1","0","0","1","1","4","5","4","5","4","4","5","5","4","4","6","6","7","7","5","5","6","7","6","5","6","3","5","5","5","5","7","6","6","1","4","4","5","5","6","5","5","4","5","6","4","5","3","6","3","5","3","6","5","5","7","6","6","5","3","6","5","3","4","5","767401496999628801","田","609","Female","[""坏我"",""好她"",""坏她"",""好我""]","[""弱我"",""强她"",""弱她"",""强我""]","","","","","","","","7","","","","","","","","","SRET","SRET_math_calculate","","key","7","16.66167175572522","834.7826260024076","465.21740094925843","","","","","6+1= ?","7","1","","","","","","","",""
"2289","","2","psychophysics","123","401976","0.0-7.0-5.0-0.20","3","4","4","3","4","4","3","3","4","4","4","0","1","0","1","0","0","1","1","4","5","4","5","4","4","5","5","4","4","6","6","7","7","5","5","6","7","6","5","6","3","5","5","5","5","7","6","6","1","4","4","5","5","6","5","5","4","5","6","4","5","3","6","3","5","3","6","5","5","7","6","6","5","3","6","5","3","4","5","767401496999628801","田","609","Female","[""坏我"",""好她"",""坏她"",""好我""]","[""弱我"",""强她"",""弱她"",""强我""]","","","","","","","","2","","","","","","","","","SRET","SRET_math_calculate","","key","2","16.63727007299257","834.7826260024076","465.21740094925843","","","","","19-17= ?","2","1","","","","","","","",""
"2473","","9","psychophysics","124","404450","0.0-7.0-5.0-0.21","3","4","4","3","4","4","3","3","4","4","4","0","1","0","1","0","0","1","1","4","5","4","5","4","4","5","5","4","4","6","6","7","7","5","5","6","7","6","5","6","3","5","5","5","5","7","6","6","1","4","4","5","5","6","5","5","4","5","6","4","5","3","6","3","5","3","6","5","5","7","6","6","5","3","6","5","3","4","5","767401496999628801","田","609","Female","[""坏我"",""好她"",""坏她"",""好我""]","[""弱我"",""强她"",""弱她"",""强我""]","","","","","","","","9","","","","","","","","","SRET","SRET_math_calculate","","key","9","16.66394557823153","834.7826260024076","465.21740094925843","","","","","7+2= ?","9","1","","","","","","","",""
"2142","","2","psychophysics","125","406593","0.0-7.0-5.0-0.22","3","4","4","3","4","4","3","3","4","4","4","0","1","0","1","0","0","1","1","4","5","4","5","4","4","5","5","4","4","6","6","7","7","5","5","6","7","6","5","6","3","5","5","5","5","7","6","6","1","4","4","5","5","6","5","5","4","5","6","4","5","3","6","3","5","3","6","5","5","7","6","6","5","3","6","5","3","4","5","767401496999628801","田","609","Female","[""坏我"",""好她"",""坏她"",""好我""]","[""弱我"",""强她"",""弱她"",""强我""]","","","","","","","","2","","","","","","","","","SRET","SRET_math_calculate","","key","2","16.653960937500415","834.7826260024076","465.21740094925843","","","","","8-6= ?","2","1","","","","","","","",""
"2226","","0","psychophysics","126","408820","0.0-7.0-5.0-0.23","3","4","4","3","4","4","3","3","4","4","4","0","1","0","1","0","0","1","1","4","5","4","5","4","4","5","5","4","4","6","6","7","7","5","5","6","7","6","5","6","3","5","5","5","5","7","6","6","1","4","4","5","5","6","5","5","4","5","6","4","5","3","6","3","5","3","6","5","5","7","6","6","5","3","6","5","3","4","5","767401496999628801","田","609","Female","[""坏我"",""好她"",""坏她"",""好我""]","[""弱我"",""强她"",""弱她"",""强我""]","","","","","","","","0","","","","","","","","","SRET","SRET_math_calculate","","key","0","16.66354545454537","834.7826260024076","465.21740094925843","","","","","32-32= ?","0","1","","","","","","","",""
"2384","","7","psychophysics","127","411207","0.0-7.0-5.0-0.24","3","4","4","3","4","4","3","3","4","4","4","0","1","0","1","0","0","1","1","4","5","4","5","4","4","5","5","4","4","6","6","7","7","5","5","6","7","6","5","6","3","5","5","5","5","7","6","6","1","4","4","5","5","6","5","5","4","5","6","4","5","3","6","3","5","3","6","5","5","7","6","6","5","3","6","5","3","4","5","767401496999628801","田","609","Female","[""坏我"",""好她"",""坏她"",""好我""]","[""弱我"",""强她"",""弱她"",""强我""]","","","","","","","","7","","","","","","","","","SRET","SRET_math_calculate","","key","7","16.665951048950845","834.7826260024076","465.21740094925843","","","","","8-1= ?","7","1","","","","","","","",""
"2205","","9","psychophysics","128","413413","0.0-7.0-5.0-0.25","3","4","4","3","4","4","3","3","4","4","4","0","1","0","1","0","0","1","1","4","5","4","5","4","4","5","5","4","4","6","6","7","7","5","5","6","7","6","5","6","3","5","5","5","5","7","6","6","1","4","4","5","5","6","5","5","4","5","6","4","5","3","6","3","5","3","6","5","5","7","6","6","5","3","6","5","3","4","5","767401496999628801","田","609","Female","[""坏我"",""好她"",""坏她"",""好我""]","[""弱我"",""强她"",""弱她"",""强我""]","","","","","","","","9","","","","","","","","","SRET","SRET_math_calculate","","key","9","16.662236641221128","834.7826260024076","465.21740094925843","","","","","6+3= ?","9","1","","","","","","","",""
"2158","","6","psychophysics","129","415572","0.0-7.0-5.0-0.26","3","4","4","3","4","4","3","3","4","4","4","0","1","0","1","0","0","1","1","4","5","4","5","4","4","5","5","4","4","6","6","7","7","5","5","6","7","6","5","6","3","5","5","5","5","7","6","6","1","4","4","5","5","6","5","5","4","5","6","4","5","3","6","3","5","3","6","5","5","7","6","6","5","3","6","5","3","4","5","767401496999628801","田","609","Female","[""坏我"",""好她"",""坏她"",""好我""]","[""弱我"",""强她"",""弱她"",""强我""]","","","","","","","","6","","","","","","","","","SRET","SRET_math_calculate","","key","6","16.666232558139672","834.7826260024076","465.21740094925843","","","","","3+3= ?","6","1","","","","","","","",""
"2124","","8","psychophysics","130","417696","0.0-7.0-5.0-0.27","3","4","4","3","4","4","3","3","4","4","4","0","1","0","1","0","0","1","1","4","5","4","5","4","4","5","5","4","4","6","6","7","7","5","5","6","7","6","5","6","3","5","5","5","5","7","6","6","1","4","4","5","5","6","5","5","4","5","6","4","5","3","6","3","5","3","6","5","5","7","6","6","5","3","6","5","3","4","5","767401496999628801","田","609","Female","[""坏我"",""好她"",""坏她"",""好我""]","[""弱我"",""强她"",""弱她"",""强我""]","","","","","","","","8","","","","","","","","","SRET","SRET_math_calculate","","key","8","16.66392063492048","834.7826260024076","465.21740094925843","","","","","4+4= ?","8","1","","","","","","","",""
"2290","","7","psychophysics","131","419988","0.0-7.0-5.0-0.28","3","4","4","3","4","4","3","3","4","4","4","0","1","0","1","0","0","1","1","4","5","4","5","4","4","5","5","4","4","6","6","7","7","5","5","6","7","6","5","6","3","5","5","5","5","7","6","6","1","4","4","5","5","6","5","5","4","5","6","4","5","3","6","3","5","3","6","5","5","7","6","6","5","3","6","5","3","4","5","767401496999628801","田","609","Female","[""坏我"",""好她"",""坏她"",""好我""]","[""弱我"",""强她"",""弱她"",""强我""]","","","","","","","","7","","","","","","","","","SRET","SRET_math_calculate","","key","7","16.66375182481758","834.7826260024076","465.21740094925843","","","","","9-2= ?","7","1","","","","","","","",""
"3015","","7","psychophysics","132","423004","0.0-7.0-5.0-0.29","3","4","4","3","4","4","3","3","4","4","4","0","1","0","1","0","0","1","1","4","5","4","5","4","4","5","5","4","4","6","6","7","7","5","5","6","7","6","5","6","3","5","5","5","5","7","6","6","1","4","4","5","5","6","5","5","4","5","6","4","5","3","6","3","5","3","6","5","5","7","6","6","5","3","6","5","3","4","5","767401496999628801","田","609","Female","[""坏我"",""好她"",""坏她"",""好我""]","[""弱我"",""强她"",""弱她"",""强我""]","","","","","","","","7","","","","","","","","","SRET","SRET_math_calculate","","key","7","16.663916666666694","834.7826260024076","465.21740094925843","","","","","21/3= ? ","7","1","","","","","","","",""
"2004","","8","psychophysics","133","425010","0.0-7.0-5.0-0.30","3","4","4","3","4","4","3","3","4","4","4","0","1","0","1","0","0","1","1","4","5","4","5","4","4","5","5","4","4","6","6","7","7","5","5","6","7","6","5","6","3","5","5","5","5","7","6","6","1","4","4","5","5","6","5","5","4","5","6","4","5","3","6","3","5","3","6","5","5","7","6","6","5","3","6","5","3","4","5","767401496999628801","田","609","Female","[""坏我"",""好她"",""坏她"",""好我""]","[""弱我"",""强她"",""弱她"",""强我""]","","","","","","","","8","","","","","","","","","SRET","SRET_math_calculate","","key","8","16.663596638655406","834.7826260024076","465.21740094925843","","","","","9-1= ?","8","1","","","","","","","",""
"2054","","4","psychophysics","134","427065","0.0-7.0-5.0-0.31","3","4","4","3","4","4","3","3","4","4","4","0","1","0","1","0","0","1","1","4","5","4","5","4","4","5","5","4","4","6","6","7","7","5","5","6","7","6","5","6","3","5","5","5","5","7","6","6","1","4","4","5","5","6","5","5","4","5","6","4","5","3","6","3","5","3","6","5","5","7","6","6","5","3","6","5","3","4","5","767401496999628801","田","609","Female","[""坏我"",""好她"",""坏她"",""好我""]","[""弱我"",""强她"",""弱她"",""强我""]","","","","","","","","4","","","","","","","","","SRET","SRET_math_calculate","","key","4","16.666934426229822","834.7826260024076","465.21740094925843","","","","","2+2= ?","4","1","","","","","","","",""
"1950","","9","psychophysics","135","429017","0.0-7.0-5.0-0.32","3","4","4","3","4","4","3","3","4","4","4","0","1","0","1","0","0","1","1","4","5","4","5","4","4","5","5","4","4","6","6","7","7","5","5","6","7","6","5","6","3","5","5","5","5","7","6","6","1","4","4","5","5","6","5","5","4","5","6","4","5","3","6","3","5","3","6","5","5","7","6","6","5","3","6","5","3","4","5","767401496999628801","田","609","Female","[""坏我"",""好她"",""坏她"",""好我""]","[""弱我"",""强她"",""弱她"",""强我""]","","","","","","","","9","","","","","","","","","SRET","SRET_math_calculate","","key","9","16.66394017094002","834.7826260024076","465.21740094925843","","","","","5+4= ?","9","1","","","","","","","",""
"2436","","2","psychophysics","136","431455","0.0-7.0-5.0-0.33","3","4","4","3","4","4","3","3","4","4","4","0","1","0","1","0","0","1","1","4","5","4","5","4","4","5","5","4","4","6","6","7","7","5","5","6","7","6","5","6","3","5","5","5","5","7","6","6","1","4","4","5","5","6","5","5","4","5","6","4","5","3","6","3","5","3","6","5","5","7","6","6","5","3","6","5","3","4","5","767401496999628801","田","609","Female","[""坏我"",""好她"",""坏她"",""好我""]","[""弱我"",""强她"",""弱她"",""强我""]","","","","","","","","2","","","","","","","","","SRET","SRET_math_calculate","","key","2","16.662662068965588","834.7826260024076","465.21740094925843","","","","","22/11= ?","2","1","","","","","","","",""
"2184","","7","psychophysics","137","433640","0.0-7.0-5.0-0.34","3","4","4","3","4","4","3","3","4","4","4","0","1","0","1","0","0","1","1","4","5","4","5","4","4","5","5","4","4","6","6","7","7","5","5","6","7","6","5","6","3","5","5","5","5","7","6","6","1","4","4","5","5","6","5","5","4","5","6","4","5","3","6","3","5","3","6","5","5","7","6","6","5","3","6","5","3","4","5","767401496999628801","田","609","Female","[""坏我"",""好她"",""坏她"",""好我""]","[""弱我"",""强她"",""弱她"",""强我""]","","","","","","","","7","","","","","","","","","SRET","SRET_math_calculate","","key","7","16.664899999999818","834.7826260024076","465.21740094925843","","","","","5+2= ?","7","1","","","","","","","",""
