"rt","stimulus","response","trial_type","trial_index","time_elapsed","internal_node_id","swb_1","swb_2","swb_3","swb_4","swb_5","LOT_1","LOT_2","LOT_3","LOT_4","LOT_5","LOT_6","IPC_1","IPC_2","IPC_3","IPC_4","IPC_5","IPC_6","IPC_7","IPC_8","MorIden_1","MorIden_2","MorIden_3","MorIden_4","MorIden_5","MorIden_6","MorIden_7","MorIden_8","MorIden_9","MorIden_10","moralSeImag_1","moralSeImag_2","moralSeImag_3","moralSeImag_4","moralSeImag_5","moralSeImag_6","moralSeImag_7","moralSeImag_8","moralSeImag_9","sde_1","sde_2","sde_3","sde_4","sde_5","sde_6","sde_7","sde_8","sde_9","sde_10","trap2","sde_11","sde_12","sde_13","sde_14","sde_15","sde_16","sde_17","sde_18","sde_19","sde_20","IM_1","IM_2","IM_3","IM_4","IM_5","IM_6","IM_7","IM_8","IM_9","IM_10","IM_11","IM_12","IM_13","IM_14","IM_15","IM_16","IM_17","IM_18","IM_19","IM_20","subj_idx","friend_name","ParticipantID","Sex","Word","Word2","value","success","timeout","failed_images","failed_audio","failed_video","user_agent","responses","item_order","radio_event_ids","radio_event_times","key_event_times","mouse_event_times","straightlining","zigzagging","honeypot","task_id","screen_id","time_stamp","response_type","key_press","avg_frame_time","center_x","center_y","person","word","valence","domain","math","correct_response","correct","status","view_history","identity","duration","Image","condition","question_order","trap2_item"
"7015","
   <p><div style='color:white; font-size: 25px'>您好，欢迎参加本次实验。</div></p>
   <p><div style='color:white; font-size: 25px'>为充分保障您的权利，请确保您已经知晓并同意《参与实验同意书》以及《数据公开知情同意书》。</div></p>
   <p><div style='color:white; font-size: 25px'>如果您未见过上述内容，请咨询实验员。</div></p>
   <p style='color:white; font-size: 25px'>如果您选择继续实验，则表示您已经清楚两份知情同意书的内容并同意。</p>
   <p><div style = ""color: pink;font-size:30px;"">请确保您记得day0的实验编号，您将在本次实验输入该编号，若您忘记，请咨询实验员后作答。</div></p>
   <p><div style = ""color:lightblue;font-size:25px;"">请您尽可能认真地作答，我们将依据您在各问卷和按键任务中的作答质量发放报酬。</div></p>
   <p> <div style = ""color: green""><按空格键至下页></div> </p>
   "," ","html-keyboard-response","0","7017","0.0-0.0","7","5","5","6","6","5","4","5","5","5","4","2","0","2","1","-2","2","1","0","4","5","5","5","5","4","5","5","4","5","8","7","7","8","5","6","7","8","8","6","6","3","7","7","5","6","2","7","5","1","6","5","7","2","5","6","6","1","2","7","6","6","6","3","2","7","3","7","7","7","7","3","5","2","2","7","7","6","3","7","656564690050088960","张","358","Male","[""坏他"",""好他"",""好我"",""坏我""]","[""弱他"",""强他"",""强我"",""弱我""]","","","","","","","","","","","","","","","","","","","","","","","","","","","","","","","","","","","","","","",""
"","","","call-function","1","7018","0.0-1.0-0.0","7","5","5","6","6","5","4","5","5","5","4","2","0","2","1","-2","2","1","0","4","5","5","5","5","4","5","5","4","5","8","7","7","8","5","6","7","8","8","6","6","3","7","7","5","6","2","7","5","1","6","5","7","2","5","6","6","1","2","7","6","6","6","3","2","7","3","7","7","7","7","3","5","2","2","7","7","6","3","7","656564690050088960","张","358","Male","[""坏他"",""好他"",""好我"",""坏我""]","[""弱他"",""强他"",""强我"",""弱我""]","","","","","","","","","","","","","","","","","","","","","","","","","","","","","","","","","","","","","","",""
"73622","","[{""name"":""Sex"",""value"":""0""},{""name"":""friend_name"",""value"":""张""},{""name"":""ParticipantID"",""value"":""358""}]","survey-html-form","2","80641","0.0-1.0-1.0","7","5","5","6","6","5","4","5","5","5","4","2","0","2","1","-2","2","1","0","4","5","5","5","5","4","5","5","4","5","8","7","7","8","5","6","7","8","8","6","6","3","7","7","5","6","2","7","5","1","6","5","7","2","5","6","6","1","2","7","6","6","6","3","2","7","3","7","7","7","7","3","5","2","2","7","7","6","3","7","656564690050088960","张","358","Male","[""坏他"",""好他"",""好我"",""坏我""]","[""弱他"",""强他"",""强我"",""弱我""]","","","","","","","","","","","","","","","","","","","","","","","","","","","","","","","","","","","","","","",""
"","","","preload","3","81019","0.0-2.0","7","5","5","6","6","5","4","5","5","5","4","2","0","2","1","-2","2","1","0","4","5","5","5","5","4","5","5","4","5","8","7","7","8","5","6","7","8","8","6","6","3","7","7","5","6","2","7","5","1","6","5","7","2","5","6","6","1","2","7","6","6","6","3","2","7","3","7","7","7","7","3","5","2","2","7","7","6","3","7","656564690050088960","张","358","Male","[""坏他"",""好他"",""好我"",""坏我""]","[""弱他"",""强他"",""强我"",""弱我""]","","true","false","[]","[]","[]","","","","","","","","","","","","","","","","","","","","","","","","","","","","","","","","",""
"","","","fullscreen","4","82638","0.0-3.0","7","5","5","6","6","5","4","5","5","5","4","2","0","2","1","-2","2","1","0","4","5","5","5","5","4","5","5","4","5","8","7","7","8","5","6","7","8","8","6","6","3","7","7","5","6","2","7","5","1","6","5","7","2","5","6","6","1","2","7","6","6","6","3","2","7","3","7","7","7","7","3","5","2","2","7","7","6","3","7","656564690050088960","张","358","Male","[""坏他"",""好他"",""好我"",""坏我""]","[""弱他"",""强他"",""强我"",""弱我""]","","true","","","","","{}","","","","","","","","","","","","","","","","","","","","","","","","","","","","","","","",""
"8546.299999998882","","{""Q01"":""7"",""Q02"":""5"",""Q03"":""5"",""Q04"":""6"",""Q05"":""6""}","survey-template","5","91185","0.0-4.0","7","5","5","6","6","5","4","5","5","5","4","2","0","2","1","-2","2","1","0","4","5","5","5","5","4","5","5","4","5","8","7","7","8","5","6","7","8","8","6","6","3","7","7","5","6","2","7","5","1","6","5","7","2","5","6","6","1","2","7","6","6","6","3","2","7","3","7","7","7","7","3","5","2","2","7","7","6","3","7","656564690050088960","张","358","Male","[""坏他"",""好他"",""好我"",""坏我""]","[""弱他"",""强他"",""强我"",""弱我""]","","","","","","","","{""Q01"":""7"",""Q02"":""5"",""Q03"":""5"",""Q04"":""6"",""Q05"":""6""}","[0,1,2,3,4]","[""Q01"",""Q02"",""Q03"",""Q04"",""Q05""]","[3377.5,4225.5,4921.799999998882,5457.299999998882,7762.299999998882]","[]","[729.5999999996275,3377.5,4225.5,4921.799999998882,5457.299999998882,7762.299999998882,8545.5]","0.4","0.25","0","","","","","","","","","","","","","","","","","","","","","","",""
"13540.300000000745","","{""Q01"":""5"",""Q02"":""4"",""Q03"":""5"",""Q04"":""5"",""Q05"":""5"",""Q06"":""4""}","survey-template","6","104729","0.0-5.0","7","5","5","6","6","5","4","5","5","5","4","2","0","2","1","-2","2","1","0","4","5","5","5","5","4","5","5","4","5","8","7","7","8","5","6","7","8","8","6","6","3","7","7","5","6","2","7","5","1","6","5","7","2","5","6","6","1","2","7","6","6","6","3","2","7","3","7","7","7","7","3","5","2","2","7","7","6","3","7","656564690050088960","张","358","Male","[""坏他"",""好他"",""好我"",""坏我""]","[""弱他"",""强他"",""强我"",""弱我""]","","","","","","","","{""Q01"":""5"",""Q02"":""4"",""Q03"":""5"",""Q04"":""5"",""Q05"":""5"",""Q06"":""4""}","[0,1,2,3,4,5]","[""Q01"",""Q02"",""Q03"",""Q05"",""Q04"",""Q06""]","[2475.9000000003725,5428.0999999996275,7307.5999999996275,10093.099999999627,10587.900000000373,12980.800000000745]","[]","[692,2475.9000000003725,5428.0999999996275,7307.5999999996275,8787.900000000373,10093.099999999627,10587.900000000373,12980.800000000745,13539.699999999255]","0.3333333333333333","0.2","0","","","","","","","","","","","","","","","","","","","","","","",""
"145133.6000000015","","{""Q01"":""2"",""Q02"":""0"",""Q03"":""2"",""Q04"":""1"",""Q05"":""-2"",""Q06"":""2"",""Q07"":""1"",""Q08"":""0""}","survey-template","7","249865","0.0-6.0","7","5","5","6","6","5","4","5","5","5","4","2","0","2","1","-2","2","1","0","4","5","5","5","5","4","5","5","4","5","8","7","7","8","5","6","7","8","8","6","6","3","7","7","5","6","2","7","5","1","6","5","7","2","5","6","6","1","2","7","6","6","6","3","2","7","3","7","7","7","7","3","5","2","2","7","7","6","3","7","656564690050088960","张","358","Male","[""坏他"",""好他"",""好我"",""坏我""]","[""弱他"",""强他"",""强我"",""弱我""]","","","","","","","","{""Q01"":""2"",""Q02"":""0"",""Q03"":""2"",""Q04"":""1"",""Q05"":""-2"",""Q06"":""2"",""Q07"":""1"",""Q08"":""0""}","[0,1,2,3,4,5,6,7]","[""Q01"",""Q02"",""Q03"",""Q04"",""Q05"",""Q06"",""Q07"",""Q08"",""Q07""]","[3988.5,6596.60000000149,61292.70000000112,68692.5,73028.5,75516.5,90228.90000000037,96740.70000000112,140876.40000000037]","[]","[789.1000000014901,3988.5,6596.60000000149,7276.700000001118,27997.10000000149,44580.5,47068.5,48356.70000000112,49852.5,50789,51516.60000000149,53172.800000000745,55908.70000000112,57460.5,61292.70000000112,68692.5,69324.70000000112,71100.60000000149,73028.5,74100.60000000149,75125,75516.5,75908.70000000112,78237,84956.70000000112,89164.70000000112,90228.90000000037,90940.80000000075,92556.5,93700.60000000149,96740.70000000112,97188.40000000037,102916.70000000112,107476.60000000149,110380.60000000149,112948.70000000112,120628.80000000075,122572.5,128524.60000000149,140876.40000000037,145132.80000000075]","0.375","0.42857142857142855","0","","","","","","","","","","","","","","","","","","","","","","",""
"44444","
    <p><div style='color:white;font-size:35px; line-height:20px;'>词汇评估任务</div></p><br>
    <p><div style='color:white;font-size:25px; line-height:20px;'>请再次回忆该亲密的朋友，你们至少2年前就认识了，并且最近2年经常见面。</div></p>
    <p><div style='color:white;font-size:25px; line-height:20px;'>在本实验中，您将会看到一些形容词。</div></p>
    <p><div style='color:yellow;font-size:25px; line-height:20px;'>您的任务是判断这些形容词是否符合对您自己或您的朋友的描述。</div></p><p style='font-size:35px'>符合按<span style=""color:lightgreen""> f 键</span>，不符合按<span style=""color:red""> j 键</span></p>","0","html-button-response","8","294312","0.0-7.0-0.0","7","5","5","6","6","5","4","5","5","5","4","2","0","2","1","-2","2","1","0","4","5","5","5","5","4","5","5","4","5","8","7","7","8","5","6","7","8","8","6","6","3","7","7","5","6","2","7","5","1","6","5","7","2","5","6","6","1","2","7","6","6","6","3","2","7","3","7","7","7","7","3","5","2","2","7","7","6","3","7","656564690050088960","张","358","Male","[""坏他"",""好他"",""好我"",""坏我""]","[""弱他"",""强他"",""强我"",""弱我""]","","","","","","","","","","","","","","","","","SRET_EW","EW_instructions","Sat Dec 09 2023 22:17:24 GMT+0800 (中国标准时间)","","","","","","","","","","","","","","","","","","","",""
"null","","null","psychophysics","9","297317","0.0-7.0-1.0-0.0","7","5","5","6","6","5","4","5","5","5","4","2","0","2","1","-2","2","1","0","4","5","5","5","5","4","5","5","4","5","8","7","7","8","5","6","7","8","8","6","6","3","7","7","5","6","2","7","5","1","6","5","7","2","5","6","6","1","2","7","6","6","6","3","2","7","3","7","7","7","7","3","5","2","2","7","7","6","3","7","656564690050088960","张","358","Male","[""坏他"",""好他"",""好我"",""坏我""]","[""弱他"",""强他"",""强我"",""弱我""]","","","","","","","","","","","","","","","","","SRET_EW","EW_practice","","key","null","16.661522222222345","768","428","朋友","忠实","Positive","morality","","","","","","","","","","",""
"null","","null","psychophysics","10","300319","0.0-7.0-1.0-0.1","7","5","5","6","6","5","4","5","5","5","4","2","0","2","1","-2","2","1","0","4","5","5","5","5","4","5","5","4","5","8","7","7","8","5","6","7","8","8","6","6","3","7","7","5","6","2","7","5","1","6","5","7","2","5","6","6","1","2","7","6","6","6","3","2","7","3","7","7","7","7","3","5","2","2","7","7","6","3","7","656564690050088960","张","358","Male","[""坏他"",""好他"",""好我"",""坏我""]","[""弱他"",""强他"",""强我"",""弱我""]","","","","","","","","","","","","","","","","","SRET_EW","EW_practice","","key","null","16.66135195530717","768","428","自己","严谨","Positive","ability","","","","","","","","","","",""
"1561","","f","psychophysics","11","302881","0.0-7.0-1.0-0.2","7","5","5","6","6","5","4","5","5","5","4","2","0","2","1","-2","2","1","0","4","5","5","5","5","4","5","5","4","5","8","7","7","8","5","6","7","8","8","6","6","3","7","7","5","6","2","7","5","1","6","5","7","2","5","6","6","1","2","7","6","6","6","3","2","7","3","7","7","7","7","3","5","2","2","7","7","6","3","7","656564690050088960","张","358","Male","[""坏他"",""好他"",""好我"",""坏我""]","[""弱他"",""强他"",""强我"",""弱我""]","","","","","","","","yes","","","","","","","","","SRET_EW","EW_practice","","key","f","16.661150326797117","768","428","自己","刻板","Negative","ability","","","","","","","","","","",""
"null","","null","psychophysics","12","305884","0.0-7.0-1.0-0.3","7","5","5","6","6","5","4","5","5","5","4","2","0","2","1","-2","2","1","0","4","5","5","5","5","4","5","5","4","5","8","7","7","8","5","6","7","8","8","6","6","3","7","7","5","6","2","7","5","1","6","5","7","2","5","6","6","1","2","7","6","6","6","3","2","7","3","7","7","7","7","3","5","2","2","7","7","6","3","7","656564690050088960","张","358","Male","[""坏他"",""好他"",""好我"",""坏我""]","[""弱他"",""强他"",""强我"",""弱我""]","","","","","","","","","","","","","","","","","SRET_EW","EW_practice","","key","null","16.660636871508142","768","428","朋友","徇私","Negative","morality","","","","","","","","","","",""
"15563","
    <p><div style='color:white;font-size:35px; line-height:20px;'>请您再次阅读实验要求</div></p><br>
    <p><div style='color:white;font-size:25px; line-height:20px;'>请回忆某一个亲密的朋友，你们至少2年前就认识了，并且最近2年经常见面。</div></p>
    <p><div style='color:white;font-size:25px; line-height:20px;'>在本实验中，您将会看到一些形容词。</div></p>
    <p><div style='color:yellow;font-size:25px; line-height:20px;'>您的任务是判断这些形容词是否符合对您自己或您的朋友的描述。</div></p>
    <p><div class='footer' style='font-size:25px; line-height:20px;'>如果对本实验还有不清楚之处，请立即向实验员咨询。</p><p style='font-size:25px; line-height:20px;'>如果您明白了规则：</p><p style='font-size:22px; line-height:20px;'>请按 继续 进入正式实验</p>
    </div>
    <p style='font-size:35px'>符合按<span style=""color:lightgreen""> f 键</span>，不符合按<span style=""color:red""> j 键</span></p>","0","html-button-response","13","321448","0.0-7.0-2.0","7","5","5","6","6","5","4","5","5","5","4","2","0","2","1","-2","2","1","0","4","5","5","5","5","4","5","5","4","5","8","7","7","8","5","6","7","8","8","6","6","3","7","7","5","6","2","7","5","1","6","5","7","2","5","6","6","1","2","7","6","6","6","3","2","7","3","7","7","7","7","3","5","2","2","7","7","6","3","7","656564690050088960","张","358","Male","[""坏他"",""好他"",""好我"",""坏我""]","[""弱他"",""强他"",""强我"",""弱我""]","","","","","","","","","","","","","","","","","SRET_EW","prac_instructions","Sat Dec 09 2023 22:17:24 GMT+0800 (中国标准时间)","","","","","","","","","","","","","","","","","","","",""
"null","","null","psychophysics","14","324451","0.0-7.0-3.0-0.0","7","5","5","6","6","5","4","5","5","5","4","2","0","2","1","-2","2","1","0","4","5","5","5","5","4","5","5","4","5","8","7","7","8","5","6","7","8","8","6","6","3","7","7","5","6","2","7","5","1","6","5","7","2","5","6","6","1","2","7","6","6","6","3","2","7","3","7","7","7","7","3","5","2","2","7","7","6","3","7","656564690050088960","张","358","Male","[""坏他"",""好他"",""好我"",""坏我""]","[""弱他"",""强他"",""强我"",""弱我""]","","","","","","","","","","","","","","","","","SRET","EW_formal","","key","null","16.661533333333338","768","428","朋友","务实","Positive","ability","","","","","","","","","","",""
"1605","","f","psychophysics","15","327057","0.0-7.0-3.0-0.1","7","5","5","6","6","5","4","5","5","5","4","2","0","2","1","-2","2","1","0","4","5","5","5","5","4","5","5","4","5","8","7","7","8","5","6","7","8","8","6","6","3","7","7","5","6","2","7","5","1","6","5","7","2","5","6","6","1","2","7","6","6","6","3","2","7","3","7","7","7","7","3","5","2","2","7","7","6","3","7","656564690050088960","张","358","Male","[""坏他"",""好他"",""好我"",""坏我""]","[""弱他"",""强他"",""强我"",""弱我""]","","","","","","","","yes","","","","","","","","","SRET","EW_formal","","key","f","16.6604709677417","768","428","朋友","迷糊","Negative","ability","","","","","","","","","","",""
"null","","null","psychophysics","16","330058","0.0-7.0-3.0-0.2","7","5","5","6","6","5","4","5","5","5","4","2","0","2","1","-2","2","1","0","4","5","5","5","5","4","5","5","4","5","8","7","7","8","5","6","7","8","8","6","6","3","7","7","5","6","2","7","5","1","6","5","7","2","5","6","6","1","2","7","6","6","6","3","2","7","3","7","7","7","7","3","5","2","2","7","7","6","3","7","656564690050088960","张","358","Male","[""坏他"",""好他"",""好我"",""坏我""]","[""弱他"",""强他"",""强我"",""弱我""]","","","","","","","","","","","","","","","","","SRET","EW_formal","","key","null","16.66133519553081","768","428","自己","说谎","Negative","morality","","","","","","","","","","",""
"null","","null","psychophysics","17","333060","0.0-7.0-3.0-0.3","7","5","5","6","6","5","4","5","5","5","4","2","0","2","1","-2","2","1","0","4","5","5","5","5","4","5","5","4","5","8","7","7","8","5","6","7","8","8","6","6","3","7","7","5","6","2","7","5","1","6","5","7","2","5","6","6","1","2","7","6","6","6","3","2","7","3","7","7","7","7","3","5","2","2","7","7","6","3","7","656564690050088960","张","358","Male","[""坏他"",""好他"",""好我"",""坏我""]","[""弱他"",""强他"",""强我"",""弱我""]","","","","","","","","","","","","","","","","","SRET","EW_formal","","key","null","16.661715083798804","768","428","自己","坚贞","Positive","morality","","","","","","","","","","",""
"1770","","f","psychophysics","18","335832","0.0-7.0-3.0-0.4","7","5","5","6","6","5","4","5","5","5","4","2","0","2","1","-2","2","1","0","4","5","5","5","5","4","5","5","4","5","8","7","7","8","5","6","7","8","8","6","6","3","7","7","5","6","2","7","5","1","6","5","7","2","5","6","6","1","2","7","6","6","6","3","2","7","3","7","7","7","7","3","5","2","2","7","7","6","3","7","656564690050088960","张","358","Male","[""坏他"",""好他"",""好我"",""坏我""]","[""弱他"",""强他"",""强我"",""弱我""]","","","","","","","","yes","","","","","","","","","SRET","EW_formal","","key","f","16.66143975903614","768","428","自己","孝顺","Positive","morality","","","","","","","","","","",""
"1439","","j","psychophysics","19","338272","0.0-7.0-3.0-0.5","7","5","5","6","6","5","4","5","5","5","4","2","0","2","1","-2","2","1","0","4","5","5","5","5","4","5","5","4","5","8","7","7","8","5","6","7","8","8","6","6","3","7","7","5","6","2","7","5","1","6","5","7","2","5","6","6","1","2","7","6","6","6","3","2","7","3","7","7","7","7","3","5","2","2","7","7","6","3","7","656564690050088960","张","358","Male","[""坏他"",""好他"",""好我"",""坏我""]","[""弱他"",""强他"",""强我"",""弱我""]","","","","","","","","no","","","","","","","","","SRET","EW_formal","","key","j","16.66166896551751","768","428","自己","外行","Negative","ability","","","","","","","","","","",""
"1127","","f","psychophysics","20","340400","0.0-7.0-3.0-0.6","7","5","5","6","6","5","4","5","5","5","4","2","0","2","1","-2","2","1","0","4","5","5","5","5","4","5","5","4","5","8","7","7","8","5","6","7","8","8","6","6","3","7","7","5","6","2","7","5","1","6","5","7","2","5","6","6","1","2","7","6","6","6","3","2","7","3","7","7","7","7","3","5","2","2","7","7","6","3","7","656564690050088960","张","358","Male","[""坏他"",""好他"",""好我"",""坏我""]","[""弱他"",""强他"",""强我"",""弱我""]","","","","","","","","yes","","","","","","","","","SRET","EW_formal","","key","f","16.661968503937064","768","428","朋友","中用","Positive","ability","","","","","","","","","","",""
"1390","","j","psychophysics","21","342792","0.0-7.0-3.0-0.7","7","5","5","6","6","5","4","5","5","5","4","2","0","2","1","-2","2","1","0","4","5","5","5","5","4","5","5","4","5","8","7","7","8","5","6","7","8","8","6","6","3","7","7","5","6","2","7","5","1","6","5","7","2","5","6","6","1","2","7","6","6","6","3","2","7","3","7","7","7","7","3","5","2","2","7","7","6","3","7","656564690050088960","张","358","Male","[""坏他"",""好他"",""好我"",""坏我""]","[""弱他"",""强他"",""强我"",""弱我""]","","","","","","","","no","","","","","","","","","SRET","EW_formal","","key","j","16.660657342657256","768","428","自己","笨蛋","Negative","ability","","","","","","","","","","",""
"1375","","j","psychophysics","22","345169","0.0-7.0-3.0-0.8","7","5","5","6","6","5","4","5","5","5","4","2","0","2","1","-2","2","1","0","4","5","5","5","5","4","5","5","4","5","8","7","7","8","5","6","7","8","8","6","6","3","7","7","5","6","2","7","5","1","6","5","7","2","5","6","6","1","2","7","6","6","6","3","2","7","3","7","7","7","7","3","5","2","2","7","7","6","3","7","656564690050088960","张","358","Male","[""坏他"",""好他"",""好我"",""坏我""]","[""弱他"",""强他"",""强我"",""弱我""]","","","","","","","","no","","","","","","","","","SRET","EW_formal","","key","j","16.660780141843855","768","428","自己","邪恶","Negative","morality","","","","","","","","","","",""
"1205","","f","psychophysics","23","347376","0.0-7.0-3.0-0.9","7","5","5","6","6","5","4","5","5","5","4","2","0","2","1","-2","2","1","0","4","5","5","5","5","4","5","5","4","5","8","7","7","8","5","6","7","8","8","6","6","3","7","7","5","6","2","7","5","1","6","5","7","2","5","6","6","1","2","7","6","6","6","3","2","7","3","7","7","7","7","3","5","2","2","7","7","6","3","7","656564690050088960","张","358","Male","[""坏他"",""好他"",""好我"",""坏我""]","[""弱他"",""强他"",""强我"",""弱我""]","","","","","","","","yes","","","","","","","","","SRET","EW_formal","","key","f","16.662098484848464","768","428","自己","娴熟","Positive","ability","","","","","","","","","","",""
"1390","","f","psychophysics","24","349768","0.0-7.0-3.0-0.10","7","5","5","6","6","5","4","5","5","5","4","2","0","2","1","-2","2","1","0","4","5","5","5","5","4","5","5","4","5","8","7","7","8","5","6","7","8","8","6","6","3","7","7","5","6","2","7","5","1","6","5","7","2","5","6","6","1","2","7","6","6","6","3","2","7","3","7","7","7","7","3","5","2","2","7","7","6","3","7","656564690050088960","张","358","Male","[""坏他"",""好他"",""好我"",""坏我""]","[""弱他"",""强他"",""强我"",""弱我""]","","","","","","","","yes","","","","","","","","","SRET","EW_formal","","key","f","16.65987323943655","768","428","朋友","毅力","Positive","ability","","","","","","","","","","",""
"1112","","j","psychophysics","25","351880","0.0-7.0-3.0-0.11","7","5","5","6","6","5","4","5","5","5","4","2","0","2","1","-2","2","1","0","4","5","5","5","5","4","5","5","4","5","8","7","7","8","5","6","7","8","8","6","6","3","7","7","5","6","2","7","5","1","6","5","7","2","5","6","6","1","2","7","6","6","6","3","2","7","3","7","7","7","7","3","5","2","2","7","7","6","3","7","656564690050088960","张","358","Male","[""坏他"",""好他"",""好我"",""坏我""]","[""弱他"",""强他"",""强我"",""弱我""]","","","","","","","","no","","","","","","","","","SRET","EW_formal","","key","j","16.662253968253648","768","428","朋友","狡狯","Negative","morality","","","","","","","","","","",""
"840","","f","psychophysics","26","353721","0.0-7.0-3.0-0.12","7","5","5","6","6","5","4","5","5","5","4","2","0","2","1","-2","2","1","0","4","5","5","5","5","4","5","5","4","5","8","7","7","8","5","6","7","8","8","6","6","3","7","7","5","6","2","7","5","1","6","5","7","2","5","6","6","1","2","7","6","6","6","3","2","7","3","7","7","7","7","3","5","2","2","7","7","6","3","7","656564690050088960","张","358","Male","[""坏他"",""好他"",""好我"",""坏我""]","[""弱他"",""强他"",""强我"",""弱我""]","","","","","","","","yes","","","","","","","","","SRET","EW_formal","","key","f","16.66279999999996","768","428","朋友","礼貌","Positive","morality","","","","","","","","","","",""
"1302","","j","psychophysics","27","356025","0.0-7.0-3.0-0.13","7","5","5","6","6","5","4","5","5","5","4","2","0","2","1","-2","2","1","0","4","5","5","5","5","4","5","5","4","5","8","7","7","8","5","6","7","8","8","6","6","3","7","7","5","6","2","7","5","1","6","5","7","2","5","6","6","1","2","7","6","6","6","3","2","7","3","7","7","7","7","3","5","2","2","7","7","6","3","7","656564690050088960","张","358","Male","[""坏他"",""好他"",""好我"",""坏我""]","[""弱他"",""强他"",""强我"",""弱我""]","","","","","","","","no","","","","","","","","","SRET","EW_formal","","key","j","16.657956204379666","768","428","朋友","愚蠢","Negative","ability","","","","","","","","","","",""
"979","","f","psychophysics","28","358008","0.0-7.0-3.0-0.14","7","5","5","6","6","5","4","5","5","5","4","2","0","2","1","-2","2","1","0","4","5","5","5","5","4","5","5","4","5","8","7","7","8","5","6","7","8","8","6","6","3","7","7","5","6","2","7","5","1","6","5","7","2","5","6","6","1","2","7","6","6","6","3","2","7","3","7","7","7","7","3","5","2","2","7","7","6","3","7","656564690050088960","张","358","Male","[""坏他"",""好他"",""好我"",""坏我""]","[""弱他"",""强他"",""强我"",""弱我""]","","","","","","","","yes","","","","","","","","","SRET","EW_formal","","key","f","16.65926271186445","768","428","自己","清廉","Positive","morality","","","","","","","","","","",""
"928","","j","psychophysics","29","359936","0.0-7.0-3.0-0.15","7","5","5","6","6","5","4","5","5","5","4","2","0","2","1","-2","2","1","0","4","5","5","5","5","4","5","5","4","5","8","7","7","8","5","6","7","8","8","6","6","3","7","7","5","6","2","7","5","1","6","5","7","2","5","6","6","1","2","7","6","6","6","3","2","7","3","7","7","7","7","3","5","2","2","7","7","6","3","7","656564690050088960","张","358","Male","[""坏他"",""好他"",""好我"",""坏我""]","[""弱他"",""强他"",""强我"",""弱我""]","","","","","","","","no","","","","","","","","","SRET","EW_formal","","key","j","16.65954782608694","768","428","自己","贪污","Negative","morality","","","","","","","","","","",""
"1782","","j","psychophysics","30","362720","0.0-7.0-3.0-0.16","7","5","5","6","6","5","4","5","5","5","4","2","0","2","1","-2","2","1","0","4","5","5","5","5","4","5","5","4","5","8","7","7","8","5","6","7","8","8","6","6","3","7","7","5","6","2","7","5","1","6","5","7","2","5","6","6","1","2","7","6","6","6","3","2","7","3","7","7","7","7","3","5","2","2","7","7","6","3","7","656564690050088960","张","358","Male","[""坏他"",""好他"",""好我"",""坏我""]","[""弱他"",""强他"",""强我"",""弱我""]","","","","","","","","no","","","","","","","","","SRET","EW_formal","","key","j","16.66032530120483","768","428","朋友","腐败","Negative","morality","","","","","","","","","","",""
"839","","j","psychophysics","31","364560","0.0-7.0-3.0-0.17","7","5","5","6","6","5","4","5","5","5","4","2","0","2","1","-2","2","1","0","4","5","5","5","5","4","5","5","4","5","8","7","7","8","5","6","7","8","8","6","6","3","7","7","5","6","2","7","5","1","6","5","7","2","5","6","6","1","2","7","6","6","6","3","2","7","3","7","7","7","7","3","5","2","2","7","7","6","3","7","656564690050088960","张","358","Male","[""坏他"",""好他"",""好我"",""坏我""]","[""弱他"",""强他"",""强我"",""弱我""]","","","","","","","","no","","","","","","","","","SRET","EW_formal","","key","j","16.660834862384945","768","428","自己","窝囊","Negative","ability","","","","","","","","","","",""
"1280","","f","psychophysics","32","366841","0.0-7.0-3.0-0.18","7","5","5","6","6","5","4","5","5","5","4","2","0","2","1","-2","2","1","0","4","5","5","5","5","4","5","5","4","5","8","7","7","8","5","6","7","8","8","6","6","3","7","7","5","6","2","7","5","1","6","5","7","2","5","6","6","1","2","7","6","6","6","3","2","7","3","7","7","7","7","3","5","2","2","7","7","6","3","7","656564690050088960","张","358","Male","[""坏他"",""好他"",""好我"",""坏我""]","[""弱他"",""强他"",""强我"",""弱我""]","","","","","","","","yes","","","","","","","","","SRET","EW_formal","","key","f","16.661066176470793","768","428","自己","逞能","Negative","ability","","","","","","","","","","",""
"1038","","j","psychophysics","33","368880","0.0-7.0-3.0-0.19","7","5","5","6","6","5","4","5","5","5","4","2","0","2","1","-2","2","1","0","4","5","5","5","5","4","5","5","4","5","8","7","7","8","5","6","7","8","8","6","6","3","7","7","5","6","2","7","5","1","6","5","7","2","5","6","6","1","2","7","6","6","6","3","2","7","3","7","7","7","7","3","5","2","2","7","7","6","3","7","656564690050088960","张","358","Male","[""坏他"",""好他"",""好我"",""坏我""]","[""弱他"",""强他"",""强我"",""弱我""]","","","","","","","","no","","","","","","","","","SRET","EW_formal","","key","j","16.660735537189787","768","428","朋友","不良","Negative","morality","","","","","","","","","","",""
"1087","","f","psychophysics","34","370968","0.0-7.0-3.0-0.20","7","5","5","6","6","5","4","5","5","5","4","2","0","2","1","-2","2","1","0","4","5","5","5","5","4","5","5","4","5","8","7","7","8","5","6","7","8","8","6","6","3","7","7","5","6","2","7","5","1","6","5","7","2","5","6","6","1","2","7","6","6","6","3","2","7","3","7","7","7","7","3","5","2","2","7","7","6","3","7","656564690050088960","张","358","Male","[""坏他"",""好他"",""好我"",""坏我""]","[""弱他"",""强他"",""强我"",""弱我""]","","","","","","","","yes","","","","","","","","","SRET","EW_formal","","key","f","16.66182400000002","768","428","朋友","稳健","Positive","ability","","","","","","","","","","",""
"1263","","f","psychophysics","35","373232","0.0-7.0-3.0-0.21","7","5","5","6","6","5","4","5","5","5","4","2","0","2","1","-2","2","1","0","4","5","5","5","5","4","5","5","4","5","8","7","7","8","5","6","7","8","8","6","6","3","7","7","5","6","2","7","5","1","6","5","7","2","5","6","6","1","2","7","6","6","6","3","2","7","3","7","7","7","7","3","5","2","2","7","7","6","3","7","656564690050088960","张","358","Male","[""坏他"",""好他"",""好我"",""坏我""]","[""弱他"",""强他"",""强我"",""弱我""]","","","","","","","","yes","","","","","","","","","SRET","EW_formal","","key","f","16.660874074074027","768","428","自己","廉明","Positive","morality","","","","","","","","","","",""
"1071","","f","psychophysics","36","375304","0.0-7.0-3.0-0.22","7","5","5","6","6","5","4","5","5","5","4","2","0","2","1","-2","2","1","0","4","5","5","5","5","4","5","5","4","5","8","7","7","8","5","6","7","8","8","6","6","3","7","7","5","6","2","7","5","1","6","5","7","2","5","6","6","1","2","7","6","6","6","3","2","7","3","7","7","7","7","3","5","2","2","7","7","6","3","7","656564690050088960","张","358","Male","[""坏他"",""好他"",""好我"",""坏我""]","[""弱他"",""强他"",""强我"",""弱我""]","","","","","","","","yes","","","","","","","","","SRET","EW_formal","","key","f","16.660861788618064","768","428","自己","沉着","Positive","ability","","","","","","","","","","",""
"1118","","f","psychophysics","37","377425","0.0-7.0-3.0-0.23","7","5","5","6","6","5","4","5","5","5","4","2","0","2","1","-2","2","1","0","4","5","5","5","5","4","5","5","4","5","8","7","7","8","5","6","7","8","8","6","6","3","7","7","5","6","2","7","5","1","6","5","7","2","5","6","6","1","2","7","6","6","6","3","2","7","3","7","7","7","7","3","5","2","2","7","7","6","3","7","656564690050088960","张","358","Male","[""坏他"",""好他"",""好我"",""坏我""]","[""弱他"",""强他"",""强我"",""弱我""]","","","","","","","","yes","","","","","","","","","SRET","EW_formal","","key","f","16.660563492063257","768","428","朋友","宽容","Positive","morality","","","","","","","","","","",""
"720","","f","psychophysics","38","379145","0.0-7.0-3.0-0.24","7","5","5","6","6","5","4","5","5","5","4","2","0","2","1","-2","2","1","0","4","5","5","5","5","4","5","5","4","5","8","7","7","8","5","6","7","8","8","6","6","3","7","7","5","6","2","7","5","1","6","5","7","2","5","6","6","1","2","7","6","6","6","3","2","7","3","7","7","7","7","3","5","2","2","7","7","6","3","7","656564690050088960","张","358","Male","[""坏他"",""好他"",""好我"",""坏我""]","[""弱他"",""强他"",""强我"",""弱我""]","","","","","","","","yes","","","","","","","","","SRET","EW_formal","","key","f","16.661495145631264","768","428","朋友","侠义","Positive","morality","","","","","","","","","","",""
"709","","j","psychophysics","39","380856","0.0-7.0-3.0-0.25","7","5","5","6","6","5","4","5","5","5","4","2","0","2","1","-2","2","1","0","4","5","5","5","5","4","5","5","4","5","8","7","7","8","5","6","7","8","8","6","6","3","7","7","5","6","2","7","5","1","6","5","7","2","5","6","6","1","2","7","6","6","6","3","2","7","3","7","7","7","7","3","5","2","2","7","7","6","3","7","656564690050088960","张","358","Male","[""坏他"",""好他"",""好我"",""坏我""]","[""弱他"",""强他"",""强我"",""弱我""]","","","","","","","","no","","","","","","","","","SRET","EW_formal","","key","j","16.66109900990107","768","428","朋友","奸诈","Negative","morality","","","","","","","","","","",""
"950","","j","psychophysics","40","382808","0.0-7.0-3.0-0.26","7","5","5","6","6","5","4","5","5","5","4","2","0","2","1","-2","2","1","0","4","5","5","5","5","4","5","5","4","5","8","7","7","8","5","6","7","8","8","6","6","3","7","7","5","6","2","7","5","1","6","5","7","2","5","6","6","1","2","7","6","6","6","3","2","7","3","7","7","7","7","3","5","2","2","7","7","6","3","7","656564690050088960","张","358","Male","[""坏他"",""好他"",""好我"",""坏我""]","[""弱他"",""强他"",""强我"",""弱我""]","","","","","","","","no","","","","","","","","","SRET","EW_formal","","key","j","16.66219827586209","768","428","朋友","势利","Negative","morality","","","","","","","","","","",""
"1239","","f","psychophysics","41","385048","0.0-7.0-3.0-0.27","7","5","5","6","6","5","4","5","5","5","4","2","0","2","1","-2","2","1","0","4","5","5","5","5","4","5","5","4","5","8","7","7","8","5","6","7","8","8","6","6","3","7","7","5","6","2","7","5","1","6","5","7","2","5","6","6","1","2","7","6","6","6","3","2","7","3","7","7","7","7","3","5","2","2","7","7","6","3","7","656564690050088960","张","358","Male","[""坏他"",""好他"",""好我"",""坏我""]","[""弱他"",""强他"",""强我"",""弱我""]","","","","","","","","yes","","","","","","","","","SRET","EW_formal","","key","f","16.662216417910617","768","428","自己","好心","Positive","morality","","","","","","","","","","",""
"871","","f","psychophysics","42","386920","0.0-7.0-3.0-0.28","7","5","5","6","6","5","4","5","5","5","4","2","0","2","1","-2","2","1","0","4","5","5","5","5","4","5","5","4","5","8","7","7","8","5","6","7","8","8","6","6","3","7","7","5","6","2","7","5","1","6","5","7","2","5","6","6","1","2","7","6","6","6","3","2","7","3","7","7","7","7","3","5","2","2","7","7","6","3","7","656564690050088960","张","358","Male","[""坏他"",""好他"",""好我"",""坏我""]","[""弱他"",""强他"",""强我"",""弱我""]","","","","","","","","yes","","","","","","","","","SRET","EW_formal","","key","f","16.659342342342654","768","428","朋友","努力","Positive","ability","","","","","","","","","","",""
"807","","f","psychophysics","43","388729","0.0-7.0-3.0-0.29","7","5","5","6","6","5","4","5","5","5","4","2","0","2","1","-2","2","1","0","4","5","5","5","5","4","5","5","4","5","8","7","7","8","5","6","7","8","8","6","6","3","7","7","5","6","2","7","5","1","6","5","7","2","5","6","6","1","2","7","6","6","6","3","2","7","3","7","7","7","7","3","5","2","2","7","7","6","3","7","656564690050088960","张","358","Male","[""坏他"",""好他"",""好我"",""坏我""]","[""弱他"",""强他"",""强我"",""弱我""]","","","","","","","","yes","","","","","","","","","SRET","EW_formal","","key","f","16.662361111111412","768","428","朋友","仁爱","Positive","morality","","","","","","","","","","",""
"806","","f","psychophysics","44","390536","0.0-7.0-3.0-0.30","7","5","5","6","6","5","4","5","5","5","4","2","0","2","1","-2","2","1","0","4","5","5","5","5","4","5","5","4","5","8","7","7","8","5","6","7","8","8","6","6","3","7","7","5","6","2","7","5","1","6","5","7","2","5","6","6","1","2","7","6","6","6","3","2","7","3","7","7","7","7","3","5","2","2","7","7","6","3","7","656564690050088960","张","358","Male","[""坏他"",""好他"",""好我"",""坏我""]","[""弱他"",""强他"",""强我"",""弱我""]","","","","","","","","yes","","","","","","","","","SRET","EW_formal","","key","f","16.661841121495694","768","428","自己","刚正","Positive","morality","","","","","","","","","","",""
"983","","f","psychophysics","45","392520","0.0-7.0-3.0-0.31","7","5","5","6","6","5","4","5","5","5","4","2","0","2","1","-2","2","1","0","4","5","5","5","5","4","5","5","4","5","8","7","7","8","5","6","7","8","8","6","6","3","7","7","5","6","2","7","5","1","6","5","7","2","5","6","6","1","2","7","6","6","6","3","2","7","3","7","7","7","7","3","5","2","2","7","7","6","3","7","656564690050088960","张","358","Male","[""坏他"",""好他"",""好我"",""坏我""]","[""弱他"",""强他"",""强我"",""弱我""]","","","","","","","","yes","","","","","","","","","SRET","EW_formal","","key","f","16.664008474576296","768","428","朋友","高明","Positive","ability","","","","","","","","","","",""
"759","","f","psychophysics","46","394280","0.0-7.0-3.0-0.32","7","5","5","6","6","5","4","5","5","5","4","2","0","2","1","-2","2","1","0","4","5","5","5","5","4","5","5","4","5","8","7","7","8","5","6","7","8","8","6","6","3","7","7","5","6","2","7","5","1","6","5","7","2","5","6","6","1","2","7","6","6","6","3","2","7","3","7","7","7","7","3","5","2","2","7","7","6","3","7","656564690050088960","张","358","Male","[""坏他"",""好他"",""好我"",""坏我""]","[""弱他"",""强他"",""强我"",""弱我""]","","","","","","","","yes","","","","","","","","","SRET","EW_formal","","key","f","16.660028571428708","768","428","朋友","有力","Positive","ability","","","","","","","","","","",""
"679","","j","psychophysics","47","395960","0.0-7.0-3.0-0.33","7","5","5","6","6","5","4","5","5","5","4","2","0","2","1","-2","2","1","0","4","5","5","5","5","4","5","5","4","5","8","7","7","8","5","6","7","8","8","6","6","3","7","7","5","6","2","7","5","1","6","5","7","2","5","6","6","1","2","7","6","6","6","3","2","7","3","7","7","7","7","3","5","2","2","7","7","6","3","7","656564690050088960","张","358","Male","[""坏他"",""好他"",""好我"",""坏我""]","[""弱他"",""强他"",""强我"",""弱我""]","","","","","","","","no","","","","","","","","","SRET","EW_formal","","key","j","16.660929999999937","768","428","朋友","迂拙","Negative","ability","","","","","","","","","","",""
"839","","j","psychophysics","48","397800","0.0-7.0-3.0-0.34","7","5","5","6","6","5","4","5","5","5","4","2","0","2","1","-2","2","1","0","4","5","5","5","5","4","5","5","4","5","8","7","7","8","5","6","7","8","8","6","6","3","7","7","5","6","2","7","5","1","6","5","7","2","5","6","6","1","2","7","6","6","6","3","2","7","3","7","7","7","7","3","5","2","2","7","7","6","3","7","656564690050088960","张","358","Male","[""坏他"",""好他"",""好我"",""坏我""]","[""弱他"",""强他"",""强我"",""弱我""]","","","","","","","","no","","","","","","","","","SRET","EW_formal","","key","j","16.660614678898927","768","428","自己","盲目","Negative","ability","","","","","","","","","","",""
"703","","f","psychophysics","49","399505","0.0-7.0-3.0-0.35","7","5","5","6","6","5","4","5","5","5","4","2","0","2","1","-2","2","1","0","4","5","5","5","5","4","5","5","4","5","8","7","7","8","5","6","7","8","8","6","6","3","7","7","5","6","2","7","5","1","6","5","7","2","5","6","6","1","2","7","6","6","6","3","2","7","3","7","7","7","7","3","5","2","2","7","7","6","3","7","656564690050088960","张","358","Male","[""坏他"",""好他"",""好我"",""坏我""]","[""弱他"",""强他"",""强我"",""弱我""]","","","","","","","","yes","","","","","","","","","SRET","EW_formal","","key","f","16.661303921568997","768","428","自己","自律","Positive","ability","","","","","","","","","","",""
"662","","j","psychophysics","50","401168","0.0-7.0-3.0-0.36","7","5","5","6","6","5","4","5","5","5","4","2","0","2","1","-2","2","1","0","4","5","5","5","5","4","5","5","4","5","8","7","7","8","5","6","7","8","8","6","6","3","7","7","5","6","2","7","5","1","6","5","7","2","5","6","6","1","2","7","6","6","6","3","2","7","3","7","7","7","7","3","5","2","2","7","7","6","3","7","656564690050088960","张","358","Male","[""坏他"",""好他"",""好我"",""坏我""]","[""弱他"",""强他"",""强我"",""弱我""]","","","","","","","","no","","","","","","","","","SRET","EW_formal","","key","j","16.66075510204038","768","428","自己","奸险","Negative","morality","","","","","","","","","","",""
"926","","j","psychophysics","51","403096","0.0-7.0-3.0-0.37","7","5","5","6","6","5","4","5","5","5","4","2","0","2","1","-2","2","1","0","4","5","5","5","5","4","5","5","4","5","8","7","7","8","5","6","7","8","8","6","6","3","7","7","5","6","2","7","5","1","6","5","7","2","5","6","6","1","2","7","6","6","6","3","2","7","3","7","7","7","7","3","5","2","2","7","7","6","3","7","656564690050088960","张","358","Male","[""坏他"",""好他"",""好我"",""坏我""]","[""弱他"",""强他"",""强我"",""弱我""]","","","","","","","","no","","","","","","","","","SRET","EW_formal","","key","j","16.662426086956554","768","428","朋友","拖延","Negative","ability","","","","","","","","","","",""
"1054","","f","psychophysics","52","405152","0.0-7.0-3.0-0.38","7","5","5","6","6","5","4","5","5","5","4","2","0","2","1","-2","2","1","0","4","5","5","5","5","4","5","5","4","5","8","7","7","8","5","6","7","8","8","6","6","3","7","7","5","6","2","7","5","1","6","5","7","2","5","6","6","1","2","7","6","6","6","3","2","7","3","7","7","7","7","3","5","2","2","7","7","6","3","7","656564690050088960","张","358","Male","[""坏他"",""好他"",""好我"",""坏我""]","[""弱他"",""强他"",""强我"",""弱我""]","","","","","","","","yes","","","","","","","","","SRET","EW_formal","","key","f","16.661276422764224","768","428","朋友","谦逊","Positive","morality","","","","","","","","","","",""
"1263","","j","psychophysics","53","407416","0.0-7.0-3.0-0.39","7","5","5","6","6","5","4","5","5","5","4","2","0","2","1","-2","2","1","0","4","5","5","5","5","4","5","5","4","5","8","7","7","8","5","6","7","8","8","6","6","3","7","7","5","6","2","7","5","1","6","5","7","2","5","6","6","1","2","7","6","6","6","3","2","7","3","7","7","7","7","3","5","2","2","7","7","6","3","7","656564690050088960","张","358","Male","[""坏他"",""好他"",""好我"",""坏我""]","[""弱他"",""强他"",""强我"",""弱我""]","","","","","","","","no","","","","","","","","","SRET","EW_formal","","key","j","16.660537313432744","768","428","自己","怠惰","Negative","ability","","","","","","","","","","",""
"697","","j","psychophysics","54","409114","0.0-7.0-3.0-0.40","7","5","5","6","6","5","4","5","5","5","4","2","0","2","1","-2","2","1","0","4","5","5","5","5","4","5","5","4","5","8","7","7","8","5","6","7","8","8","6","6","3","7","7","5","6","2","7","5","1","6","5","7","2","5","6","6","1","2","7","6","6","6","3","2","7","3","7","7","7","7","3","5","2","2","7","7","6","3","7","656564690050088960","张","358","Male","[""坏他"",""好他"",""好我"",""坏我""]","[""弱他"",""强他"",""强我"",""弱我""]","","","","","","","","no","","","","","","","","","SRET","EW_formal","","key","j","16.661940594059114","768","428","自己","不端","Negative","morality","","","","","","","","","","",""
"964","","j","psychophysics","55","411081","0.0-7.0-3.0-0.41","7","5","5","6","6","5","4","5","5","5","4","2","0","2","1","-2","2","1","0","4","5","5","5","5","4","5","5","4","5","8","7","7","8","5","6","7","8","8","6","6","3","7","7","5","6","2","7","5","1","6","5","7","2","5","6","6","1","2","7","6","6","6","3","2","7","3","7","7","7","7","3","5","2","2","7","7","6","3","7","656564690050088960","张","358","Male","[""坏他"",""好他"",""好我"",""坏我""]","[""弱他"",""强他"",""强我"",""弱我""]","","","","","","","","no","","","","","","","","","SRET","EW_formal","","key","j","16.66229914529916","768","428","朋友","无助","Negative","ability","","","","","","","","","","",""
"1103","","j","psychophysics","56","413184","0.0-7.0-3.0-0.42","7","5","5","6","6","5","4","5","5","5","4","2","0","2","1","-2","2","1","0","4","5","5","5","5","4","5","5","4","5","8","7","7","8","5","6","7","8","8","6","6","3","7","7","5","6","2","7","5","1","6","5","7","2","5","6","6","1","2","7","6","6","6","3","2","7","3","7","7","7","7","3","5","2","2","7","7","6","3","7","656564690050088960","张","358","Male","[""坏他"",""好他"",""好我"",""坏我""]","[""弱他"",""强他"",""强我"",""弱我""]","","","","","","","","no","","","","","","","","","SRET","EW_formal","","key","j","16.661912698412337","768","428","朋友","利己","Negative","morality","","","","","","","","","","",""
"856","","f","psychophysics","57","415040","0.0-7.0-3.0-0.43","7","5","5","6","6","5","4","5","5","5","4","2","0","2","1","-2","2","1","0","4","5","5","5","5","4","5","5","4","5","8","7","7","8","5","6","7","8","8","6","6","3","7","7","5","6","2","7","5","1","6","5","7","2","5","6","6","1","2","7","6","6","6","3","2","7","3","7","7","7","7","3","5","2","2","7","7","6","3","7","656564690050088960","张","358","Male","[""坏他"",""好他"",""好我"",""坏我""]","[""弱他"",""强他"",""强我"",""弱我""]","","","","","","","","yes","","","","","","","","","SRET","EW_formal","","key","f","16.661463636363624","768","428","朋友","依靠","Negative","ability","","","","","","","","","","",""
"711","","f","psychophysics","58","416752","0.0-7.0-3.0-0.44","7","5","5","6","6","5","4","5","5","5","4","2","0","2","1","-2","2","1","0","4","5","5","5","5","4","5","5","4","5","8","7","7","8","5","6","7","8","8","6","6","3","7","7","5","6","2","7","5","1","6","5","7","2","5","6","6","1","2","7","6","6","6","3","2","7","3","7","7","7","7","3","5","2","2","7","7","6","3","7","656564690050088960","张","358","Male","[""坏他"",""好他"",""好我"",""坏我""]","[""弱他"",""强他"",""强我"",""弱我""]","","","","","","","","yes","","","","","","","","","SRET","EW_formal","","key","f","16.661852941176097","768","428","自己","利落","Positive","ability","","","","","","","","","","",""
"582","","j","psychophysics","59","418336","0.0-7.0-3.0-0.45","7","5","5","6","6","5","4","5","5","5","4","2","0","2","1","-2","2","1","0","4","5","5","5","5","4","5","5","4","5","8","7","7","8","5","6","7","8","8","6","6","3","7","7","5","6","2","7","5","1","6","5","7","2","5","6","6","1","2","7","6","6","6","3","2","7","3","7","7","7","7","3","5","2","2","7","7","6","3","7","656564690050088960","张","358","Male","[""坏他"",""好他"",""好我"",""坏我""]","[""弱他"",""强他"",""强我"",""弱我""]","","","","","","","","no","","","","","","","","","SRET","EW_formal","","key","j","16.660925531915286","768","428","朋友","背叛","Negative","morality","","","","","","","","","","",""
"1273","","j","psychophysics","60","420610","0.0-7.0-3.0-0.46","7","5","5","6","6","5","4","5","5","5","4","2","0","2","1","-2","2","1","0","4","5","5","5","5","4","5","5","4","5","8","7","7","8","5","6","7","8","8","6","6","3","7","7","5","6","2","7","5","1","6","5","7","2","5","6","6","1","2","7","6","6","6","3","2","7","3","7","7","7","7","3","5","2","2","7","7","6","3","7","656564690050088960","张","358","Male","[""坏他"",""好他"",""好我"",""坏我""]","[""弱他"",""强他"",""强我"",""弱我""]","","","","","","","","no","","","","","","","","","SRET","EW_formal","","key","j","16.660555555555902","768","428","朋友","新手","Negative","ability","","","","","","","","","","",""
"1085","","f","psychophysics","61","422697","0.0-7.0-3.0-0.47","7","5","5","6","6","5","4","5","5","5","4","2","0","2","1","-2","2","1","0","4","5","5","5","5","4","5","5","4","5","8","7","7","8","5","6","7","8","8","6","6","3","7","7","5","6","2","7","5","1","6","5","7","2","5","6","6","1","2","7","6","6","6","3","2","7","3","7","7","7","7","3","5","2","2","7","7","6","3","7","656564690050088960","张","358","Male","[""坏他"",""好他"",""好我"",""坏我""]","[""弱他"",""强他"",""强我"",""弱我""]","","","","","","","","yes","","","","","","","","","SRET","EW_formal","","key","f","16.66127199999988","768","428","朋友","懂行","Positive","ability","","","","","","","","","","",""
"1214","","f","psychophysics","62","424913","0.0-7.0-3.0-0.48","7","5","5","6","6","5","4","5","5","5","4","2","0","2","1","-2","2","1","0","4","5","5","5","5","4","5","5","4","5","8","7","7","8","5","6","7","8","8","6","6","3","7","7","5","6","2","7","5","1","6","5","7","2","5","6","6","1","2","7","6","6","6","3","2","7","3","7","7","7","7","3","5","2","2","7","7","6","3","7","656564690050088960","张","358","Male","[""坏他"",""好他"",""好我"",""坏我""]","[""弱他"",""强他"",""强我"",""弱我""]","","","","","","","","yes","","","","","","","","","SRET","EW_formal","","key","f","16.660931818181503","768","428","自己","博识","Positive","ability","","","","","","","","","","",""
"881","","f","psychophysics","63","426795","0.0-7.0-3.0-0.49","7","5","5","6","6","5","4","5","5","5","4","2","0","2","1","-2","2","1","0","4","5","5","5","5","4","5","5","4","5","8","7","7","8","5","6","7","8","8","6","6","3","7","7","5","6","2","7","5","1","6","5","7","2","5","6","6","1","2","7","6","6","6","3","2","7","3","7","7","7","7","3","5","2","2","7","7","6","3","7","656564690050088960","张","358","Male","[""坏他"",""好他"",""好我"",""坏我""]","[""弱他"",""强他"",""强我"",""弱我""]","","","","","","","","yes","","","","","","","","","SRET","EW_formal","","key","f","16.661026785714057","768","428","朋友","仗义","Positive","morality","","","","","","","","","","",""
"1043","","f","psychophysics","64","428840","0.0-7.0-3.0-0.50","7","5","5","6","6","5","4","5","5","5","4","2","0","2","1","-2","2","1","0","4","5","5","5","5","4","5","5","4","5","8","7","7","8","5","6","7","8","8","6","6","3","7","7","5","6","2","7","5","1","6","5","7","2","5","6","6","1","2","7","6","6","6","3","2","7","3","7","7","7","7","3","5","2","2","7","7","6","3","7","656564690050088960","张","358","Male","[""坏他"",""好他"",""好我"",""坏我""]","[""弱他"",""强他"",""强我"",""弱我""]","","","","","","","","yes","","","","","","","","","SRET","EW_formal","","key","f","16.659611570247648","768","428","朋友","奉献","Positive","morality","","","","","","","","","","",""
"687","","j","psychophysics","65","430528","0.0-7.0-3.0-0.51","7","5","5","6","6","5","4","5","5","5","4","2","0","2","1","-2","2","1","0","4","5","5","5","5","4","5","5","4","5","8","7","7","8","5","6","7","8","8","6","6","3","7","7","5","6","2","7","5","1","6","5","7","2","5","6","6","1","2","7","6","6","6","3","2","7","3","7","7","7","7","3","5","2","2","7","7","6","3","7","656564690050088960","张","358","Male","[""坏他"",""好他"",""好我"",""坏我""]","[""弱他"",""强他"",""强我"",""弱我""]","","","","","","","","no","","","","","","","","","SRET","EW_formal","","key","j","16.665544554455746","768","428","自己","逞强","Negative","ability","","","","","","","","","","",""
"726","","j","psychophysics","66","432256","0.0-7.0-3.0-0.52","7","5","5","6","6","5","4","5","5","5","4","2","0","2","1","-2","2","1","0","4","5","5","5","5","4","5","5","4","5","8","7","7","8","5","6","7","8","8","6","6","3","7","7","5","6","2","7","5","1","6","5","7","2","5","6","6","1","2","7","6","6","6","3","2","7","3","7","7","7","7","3","5","2","2","7","7","6","3","7","656564690050088960","张","358","Male","[""坏他"",""好他"",""好我"",""坏我""]","[""弱他"",""强他"",""强我"",""弱我""]","","","","","","","","no","","","","","","","","","SRET","EW_formal","","key","j","16.658529411764547","768","428","朋友","罪恶","Negative","morality","","","","","","","","","","",""
"1400","","j","psychophysics","67","434656","0.0-7.0-3.0-0.53","7","5","5","6","6","5","4","5","5","5","4","2","0","2","1","-2","2","1","0","4","5","5","5","5","4","5","5","4","5","8","7","7","8","5","6","7","8","8","6","6","3","7","7","5","6","2","7","5","1","6","5","7","2","5","6","6","1","2","7","6","6","6","3","2","7","3","7","7","7","7","3","5","2","2","7","7","6","3","7","656564690050088960","张","358","Male","[""坏他"",""好他"",""好我"",""坏我""]","[""弱他"",""强他"",""强我"",""弱我""]","","","","","","","","no","","","","","","","","","SRET","EW_formal","","key","j","16.661713286713287","768","428","自己","无耻","Negative","morality","","","","","","","","","","",""
"998","","f","psychophysics","68","436656","0.0-7.0-3.0-0.54","7","5","5","6","6","5","4","5","5","5","4","2","0","2","1","-2","2","1","0","4","5","5","5","5","4","5","5","4","5","8","7","7","8","5","6","7","8","8","6","6","3","7","7","5","6","2","7","5","1","6","5","7","2","5","6","6","1","2","7","6","6","6","3","2","7","3","7","7","7","7","3","5","2","2","7","7","6","3","7","656564690050088960","张","358","Male","[""坏他"",""好他"",""好我"",""坏我""]","[""弱他"",""强他"",""强我"",""弱我""]","","","","","","","","yes","","","","","","","","","SRET","EW_formal","","key","f","16.66112605042016","768","428","自己","善心","Positive","morality","","","","","","","","","","",""
"647","","j","psychophysics","69","438304","0.0-7.0-3.0-0.55","7","5","5","6","6","5","4","5","5","5","4","2","0","2","1","-2","2","1","0","4","5","5","5","5","4","5","5","4","5","8","7","7","8","5","6","7","8","8","6","6","3","7","7","5","6","2","7","5","1","6","5","7","2","5","6","6","1","2","7","6","6","6","3","2","7","3","7","7","7","7","3","5","2","2","7","7","6","3","7","656564690050088960","张","358","Male","[""坏他"",""好他"",""好我"",""坏我""]","[""弱他"",""强他"",""强我"",""弱我""]","","","","","","","","no","","","","","","","","","SRET","EW_formal","","key","j","16.662153061224522","768","428","自己","刻薄","Negative","morality","","","","","","","","","","",""
"719","","f","psychophysics","70","440024","0.0-7.0-3.0-0.56","7","5","5","6","6","5","4","5","5","5","4","2","0","2","1","-2","2","1","0","4","5","5","5","5","4","5","5","4","5","8","7","7","8","5","6","7","8","8","6","6","3","7","7","5","6","2","7","5","1","6","5","7","2","5","6","6","1","2","7","6","6","6","3","2","7","3","7","7","7","7","3","5","2","2","7","7","6","3","7","656564690050088960","张","358","Male","[""坏他"",""好他"",""好我"",""坏我""]","[""弱他"",""强他"",""强我"",""弱我""]","","","","","","","","yes","","","","","","","","","SRET","EW_formal","","key","f","16.66261165048554","768","428","自己","细心","Positive","ability","","","","","","","","","","",""
"735","","f","psychophysics","71","441760","0.0-7.0-3.0-0.57","7","5","5","6","6","5","4","5","5","5","4","2","0","2","1","-2","2","1","0","4","5","5","5","5","4","5","5","4","5","8","7","7","8","5","6","7","8","8","6","6","3","7","7","5","6","2","7","5","1","6","5","7","2","5","6","6","1","2","7","6","6","6","3","2","7","3","7","7","7","7","3","5","2","2","7","7","6","3","7","656564690050088960","张","358","Male","[""坏他"",""好他"",""好我"",""坏我""]","[""弱他"",""强他"",""强我"",""弱我""]","","","","","","","","yes","","","","","","","","","SRET","EW_formal","","key","f","16.660747572815822","768","428","朋友","热心","Positive","morality","","","","","","","","","","",""
"734","","f","psychophysics","72","443496","0.0-7.0-3.0-0.58","7","5","5","6","6","5","4","5","5","5","4","2","0","2","1","-2","2","1","0","4","5","5","5","5","4","5","5","4","5","8","7","7","8","5","6","7","8","8","6","6","3","7","7","5","6","2","7","5","1","6","5","7","2","5","6","6","1","2","7","6","6","6","3","2","7","3","7","7","7","7","3","5","2","2","7","7","6","3","7","656564690050088960","张","358","Male","[""坏他"",""好他"",""好我"",""坏我""]","[""弱他"",""强他"",""强我"",""弱我""]","","","","","","","","yes","","","","","","","","","SRET","EW_formal","","key","f","16.66070873786422","768","428","朋友","上进","Positive","ability","","","","","","","","","","",""
"656","","f","psychophysics","73","445153","0.0-7.0-3.0-0.59","7","5","5","6","6","5","4","5","5","5","4","2","0","2","1","-2","2","1","0","4","5","5","5","5","4","5","5","4","5","8","7","7","8","5","6","7","8","8","6","6","3","7","7","5","6","2","7","5","1","6","5","7","2","5","6","6","1","2","7","6","6","6","3","2","7","3","7","7","7","7","3","5","2","2","7","7","6","3","7","656564690050088960","张","358","Male","[""坏他"",""好他"",""好我"",""坏我""]","[""弱他"",""强他"",""强我"",""弱我""]","","","","","","","","yes","","","","","","","","","SRET","EW_formal","","key","f","16.65937755102047","768","428","自己","守信","Positive","morality","","","","","","","","","","",""
"687","","f","psychophysics","74","446840","0.0-7.0-3.0-0.60","7","5","5","6","6","5","4","5","5","5","4","2","0","2","1","-2","2","1","0","4","5","5","5","5","4","5","5","4","5","8","7","7","8","5","6","7","8","8","6","6","3","7","7","5","6","2","7","5","1","6","5","7","2","5","6","6","1","2","7","6","6","6","3","2","7","3","7","7","7","7","3","5","2","2","7","7","6","3","7","656564690050088960","张","358","Male","[""坏他"",""好他"",""好我"",""坏我""]","[""弱他"",""强他"",""强我"",""弱我""]","","","","","","","","yes","","","","","","","","","SRET","EW_formal","","key","f","16.662386138613986","768","428","自己","能干","Positive","ability","","","","","","","","","","",""
"927","","f","psychophysics","75","448768","0.0-7.0-3.0-0.61","7","5","5","6","6","5","4","5","5","5","4","2","0","2","1","-2","2","1","0","4","5","5","5","5","4","5","5","4","5","8","7","7","8","5","6","7","8","8","6","6","3","7","7","5","6","2","7","5","1","6","5","7","2","5","6","6","1","2","7","6","6","6","3","2","7","3","7","7","7","7","3","5","2","2","7","7","6","3","7","656564690050088960","张","358","Male","[""坏他"",""好他"",""好我"",""坏我""]","[""弱他"",""强他"",""强我"",""弱我""]","","","","","","","","yes","","","","","","","","","SRET","EW_formal","","key","f","16.660043859649083","768","428","朋友","混账","Negative","morality","","","","","","","","","","",""
"1191","","f","psychophysics","76","450960","0.0-7.0-3.0-0.62","7","5","5","6","6","5","4","5","5","5","4","2","0","2","1","-2","2","1","0","4","5","5","5","5","4","5","5","4","5","8","7","7","8","5","6","7","8","8","6","6","3","7","7","5","6","2","7","5","1","6","5","7","2","5","6","6","1","2","7","6","6","6","3","2","7","3","7","7","7","7","3","5","2","2","7","7","6","3","7","656564690050088960","张","358","Male","[""坏他"",""好他"",""好我"",""坏我""]","[""弱他"",""强他"",""强我"",""弱我""]","","","","","","","","yes","","","","","","","","","SRET","EW_formal","","key","f","16.660610687023183","768","428","朋友","全才","Positive","ability","","","","","","","","","","",""
"1248","","j","psychophysics","77","453209","0.0-7.0-3.0-0.63","7","5","5","6","6","5","4","5","5","5","4","2","0","2","1","-2","2","1","0","4","5","5","5","5","4","5","5","4","5","8","7","7","8","5","6","7","8","8","6","6","3","7","7","5","6","2","7","5","1","6","5","7","2","5","6","6","1","2","7","6","6","6","3","2","7","3","7","7","7","7","3","5","2","2","7","7","6","3","7","656564690050088960","张","358","Male","[""坏他"",""好他"",""好我"",""坏我""]","[""弱他"",""强他"",""强我"",""弱我""]","","","","","","","","no","","","","","","","","","SRET","EW_formal","","key","j","16.661111940298344","768","428","自己","短视","Negative","ability","","","","","","","","","","",""
"686","","f","psychophysics","78","454896","0.0-7.0-3.0-0.64","7","5","5","6","6","5","4","5","5","5","4","2","0","2","1","-2","2","1","0","4","5","5","5","5","4","5","5","4","5","8","7","7","8","5","6","7","8","8","6","6","3","7","7","5","6","2","7","5","1","6","5","7","2","5","6","6","1","2","7","6","6","6","3","2","7","3","7","7","7","7","3","5","2","2","7","7","6","3","7","656564690050088960","张","358","Male","[""坏他"",""好他"",""好我"",""坏我""]","[""弱他"",""强他"",""强我"",""弱我""]","","","","","","","","yes","","","","","","","","","SRET","EW_formal","","key","f","16.66140000000014","768","428","自己","专注","Positive","ability","","","","","","","","","","",""
"704","","f","psychophysics","79","456601","0.0-7.0-3.0-0.65","7","5","5","6","6","5","4","5","5","5","4","2","0","2","1","-2","2","1","0","4","5","5","5","5","4","5","5","4","5","8","7","7","8","5","6","7","8","8","6","6","3","7","7","5","6","2","7","5","1","6","5","7","2","5","6","6","1","2","7","6","6","6","3","2","7","3","7","7","7","7","3","5","2","2","7","7","6","3","7","656564690050088960","张","358","Male","[""坏他"",""好他"",""好我"",""坏我""]","[""弱他"",""强他"",""强我"",""弱我""]","","","","","","","","yes","","","","","","","","","SRET","EW_formal","","key","f","16.660803921568647","768","428","朋友","忠勇","Positive","morality","","","","","","","","","","",""
"735","","j","psychophysics","80","458337","0.0-7.0-3.0-0.66","7","5","5","6","6","5","4","5","5","5","4","2","0","2","1","-2","2","1","0","4","5","5","5","5","4","5","5","4","5","8","7","7","8","5","6","7","8","8","6","6","3","7","7","5","6","2","7","5","1","6","5","7","2","5","6","6","1","2","7","6","6","6","3","2","7","3","7","7","7","7","3","5","2","2","7","7","6","3","7","656564690050088960","张","358","Male","[""坏他"",""好他"",""好我"",""坏我""]","[""弱他"",""强他"",""强我"",""弱我""]","","","","","","","","no","","","","","","","","","SRET","EW_formal","","key","j","16.660776699029103","768","428","自己","阴毒","Negative","morality","","","","","","","","","","",""
"854","","j","psychophysics","81","460192","0.0-7.0-3.0-0.67","7","5","5","6","6","5","4","5","5","5","4","2","0","2","1","-2","2","1","0","4","5","5","5","5","4","5","5","4","5","8","7","7","8","5","6","7","8","8","6","6","3","7","7","5","6","2","7","5","1","6","5","7","2","5","6","6","1","2","7","6","6","6","3","2","7","3","7","7","7","7","3","5","2","2","7","7","6","3","7","656564690050088960","张","358","Male","[""坏他"",""好他"",""好我"",""坏我""]","[""弱他"",""强他"",""强我"",""弱我""]","","","","","","","","no","","","","","","","","","SRET","EW_formal","","key","j","16.661954545454567","768","428","朋友","愚痴","Negative","ability","","","","","","","","","","",""
"710","","j","psychophysics","82","461904","0.0-7.0-3.0-0.68","7","5","5","6","6","5","4","5","5","5","4","2","0","2","1","-2","2","1","0","4","5","5","5","5","4","5","5","4","5","8","7","7","8","5","6","7","8","8","6","6","3","7","7","5","6","2","7","5","1","6","5","7","2","5","6","6","1","2","7","6","6","6","3","2","7","3","7","7","7","7","3","5","2","2","7","7","6","3","7","656564690050088960","张","358","Male","[""坏他"",""好他"",""好我"",""坏我""]","[""弱他"",""强他"",""强我"",""弱我""]","","","","","","","","no","","","","","","","","","SRET","EW_formal","","key","j","16.66214705882343","768","428","自己","无敌","Positive","ability","","","","","","","","","","",""
"1095","","j","psychophysics","83","464000","0.0-7.0-3.0-0.69","7","5","5","6","6","5","4","5","5","5","4","2","0","2","1","-2","2","1","0","4","5","5","5","5","4","5","5","4","5","8","7","7","8","5","6","7","8","8","6","6","3","7","7","5","6","2","7","5","1","6","5","7","2","5","6","6","1","2","7","6","6","6","3","2","7","3","7","7","7","7","3","5","2","2","7","7","6","3","7","656564690050088960","张","358","Male","[""坏他"",""好他"",""好我"",""坏我""]","[""弱他"",""强他"",""强我"",""弱我""]","","","","","","","","no","","","","","","","","","SRET","EW_formal","","key","j","16.66191200000001","768","428","自己","不孝","Negative","morality","","","","","","","","","","",""
"1023","","j","psychophysics","84","466024","0.0-7.0-3.0-0.70","7","5","5","6","6","5","4","5","5","5","4","2","0","2","1","-2","2","1","0","4","5","5","5","5","4","5","5","4","5","8","7","7","8","5","6","7","8","8","6","6","3","7","7","5","6","2","7","5","1","6","5","7","2","5","6","6","1","2","7","6","6","6","3","2","7","3","7","7","7","7","3","5","2","2","7","7","6","3","7","656564690050088960","张","358","Male","[""坏他"",""好他"",""好我"",""坏我""]","[""弱他"",""强他"",""强我"",""弱我""]","","","","","","","","no","","","","","","","","","SRET","EW_formal","","key","j","16.66202499999975","768","428","自己","卑鄙","Negative","morality","","","","","","","","","","",""
"707","","j","psychophysics","85","467732","0.0-7.0-3.0-0.71","7","5","5","6","6","5","4","5","5","5","4","2","0","2","1","-2","2","1","0","4","5","5","5","5","4","5","5","4","5","8","7","7","8","5","6","7","8","8","6","6","3","7","7","5","6","2","7","5","1","6","5","7","2","5","6","6","1","2","7","6","6","6","3","2","7","3","7","7","7","7","3","5","2","2","7","7","6","3","7","656564690050088960","张","358","Male","[""坏他"",""好他"",""好我"",""坏我""]","[""弱他"",""强他"",""强我"",""弱我""]","","","","","","","","no","","","","","","","","","SRET","EW_formal","","key","j","16.661264705882","768","428","朋友","无能","Negative","ability","","","","","","","","","","",""
"786","","f","psychophysics","86","469520","0.0-7.0-3.0-0.72","7","5","5","6","6","5","4","5","5","5","4","2","0","2","1","-2","2","1","0","4","5","5","5","5","4","5","5","4","5","8","7","7","8","5","6","7","8","8","6","6","3","7","7","5","6","2","7","5","1","6","5","7","2","5","6","6","1","2","7","6","6","6","3","2","7","3","7","7","7","7","3","5","2","2","7","7","6","3","7","656564690050088960","张","358","Male","[""坏他"",""好他"",""好我"",""坏我""]","[""弱他"",""强他"",""强我"",""弱我""]","","","","","","","","yes","","","","","","","","","SRET","EW_formal","","key","f","16.660150943395905","768","428","朋友","智慧","Positive","ability","","","","","","","","","","",""
"751","","j","psychophysics","87","471272","0.0-7.0-3.0-0.73","7","5","5","6","6","5","4","5","5","5","4","2","0","2","1","-2","2","1","0","4","5","5","5","5","4","5","5","4","5","8","7","7","8","5","6","7","8","8","6","6","3","7","7","5","6","2","7","5","1","6","5","7","2","5","6","6","1","2","7","6","6","6","3","2","7","3","7","7","7","7","3","5","2","2","7","7","6","3","7","656564690050088960","张","358","Male","[""坏他"",""好他"",""好我"",""坏我""]","[""弱他"",""强他"",""强我"",""弱我""]","","","","","","","","no","","","","","","","","","SRET","EW_formal","","key","j","16.660644230769183","768","428","自己","敏捷","Positive","ability","","","","","","","","","","",""
"679","","f","psychophysics","88","472952","0.0-7.0-3.0-0.74","7","5","5","6","6","5","4","5","5","5","4","2","0","2","1","-2","2","1","0","4","5","5","5","5","4","5","5","4","5","8","7","7","8","5","6","7","8","8","6","6","3","7","7","5","6","2","7","5","1","6","5","7","2","5","6","6","1","2","7","6","6","6","3","2","7","3","7","7","7","7","3","5","2","2","7","7","6","3","7","656564690050088960","张","358","Male","[""坏他"",""好他"",""好我"",""坏我""]","[""弱他"",""强他"",""强我"",""弱我""]","","","","","","","","yes","","","","","","","","","SRET","EW_formal","","key","f","16.661970000000437","768","428","朋友","厚道","Positive","morality","","","","","","","","","","",""
"1543","","j","psychophysics","89","475496","0.0-7.0-3.0-0.75","7","5","5","6","6","5","4","5","5","5","4","2","0","2","1","-2","2","1","0","4","5","5","5","5","4","5","5","4","5","8","7","7","8","5","6","7","8","8","6","6","3","7","7","5","6","2","7","5","1","6","5","7","2","5","6","6","1","2","7","6","6","6","3","2","7","3","7","7","7","7","3","5","2","2","7","7","6","3","7","656564690050088960","张","358","Male","[""坏他"",""好他"",""好我"",""坏我""]","[""弱他"",""强他"",""强我"",""弱我""]","","","","","","","","no","","","","","","","","","SRET","EW_formal","","key","j","16.661453947368212","768","428","自己","坦荡","Positive","morality","","","","","","","","","","",""
"1029","","j","psychophysics","90","477528","0.0-7.0-3.0-0.76","7","5","5","6","6","5","4","5","5","5","4","2","0","2","1","-2","2","1","0","4","5","5","5","5","4","5","5","4","5","8","7","7","8","5","6","7","8","8","6","6","3","7","7","5","6","2","7","5","1","6","5","7","2","5","6","6","1","2","7","6","6","6","3","2","7","3","7","7","7","7","3","5","2","2","7","7","6","3","7","656564690050088960","张","358","Male","[""坏他"",""好他"",""好我"",""坏我""]","[""弱他"",""强他"",""强我"",""弱我""]","","","","","","","","no","","","","","","","","","SRET","EW_formal","","key","j","16.660355371900753","768","428","朋友","拙笨","Negative","ability","","","","","","","","","","",""
"1007","","j","psychophysics","91","479537","0.0-7.0-3.0-0.77","7","5","5","6","6","5","4","5","5","5","4","2","0","2","1","-2","2","1","0","4","5","5","5","5","4","5","5","4","5","8","7","7","8","5","6","7","8","8","6","6","3","7","7","5","6","2","7","5","1","6","5","7","2","5","6","6","1","2","7","6","6","6","3","2","7","3","7","7","7","7","3","5","2","2","7","7","6","3","7","656564690050088960","张","358","Male","[""坏他"",""好他"",""好我"",""坏我""]","[""弱他"",""强他"",""强我"",""弱我""]","","","","","","","","no","","","","","","","","","SRET","EW_formal","","key","j","16.659873949580028","768","428","自己","犹豫","Negative","ability","","","","","","","","","","",""
"797","","j","psychophysics","92","481336","0.0-7.0-3.0-0.78","7","5","5","6","6","5","4","5","5","5","4","2","0","2","1","-2","2","1","0","4","5","5","5","5","4","5","5","4","5","8","7","7","8","5","6","7","8","8","6","6","3","7","7","5","6","2","7","5","1","6","5","7","2","5","6","6","1","2","7","6","6","6","3","2","7","3","7","7","7","7","3","5","2","2","7","7","6","3","7","656564690050088960","张","358","Male","[""坏他"",""好他"",""好我"",""坏我""]","[""弱他"",""强他"",""强我"",""弱我""]","","","","","","","","no","","","","","","","","","SRET","EW_formal","","key","j","16.66218691588832","768","428","朋友","毛糙","Negative","ability","","","","","","","","","","",""
"674","","f","psychophysics","93","483011","0.0-7.0-3.0-0.79","7","5","5","6","6","5","4","5","5","5","4","2","0","2","1","-2","2","1","0","4","5","5","5","5","4","5","5","4","5","8","7","7","8","5","6","7","8","8","6","6","3","7","7","5","6","2","7","5","1","6","5","7","2","5","6","6","1","2","7","6","6","6","3","2","7","3","7","7","7","7","3","5","2","2","7","7","6","3","7","656564690050088960","张","358","Male","[""坏他"",""好他"",""好我"",""坏我""]","[""弱他"",""强他"",""强我"",""弱我""]","","","","","","","","yes","","","","","","","","","SRET","EW_formal","","key","f","16.66283999999985","768","428","自己","诚信","Positive","morality","","","","","","","","","","",""
"811","","j","psychophysics","94","484824","0.0-7.0-3.0-0.80","7","5","5","6","6","5","4","5","5","5","4","2","0","2","1","-2","2","1","0","4","5","5","5","5","4","5","5","4","5","8","7","7","8","5","6","7","8","8","6","6","3","7","7","5","6","2","7","5","1","6","5","7","2","5","6","6","1","2","7","6","6","6","3","2","7","3","7","7","7","7","3","5","2","2","7","7","6","3","7","656564690050088960","张","358","Male","[""坏他"",""好他"",""好我"",""坏我""]","[""弱他"",""强他"",""强我"",""弱我""]","","","","","","","","no","","","","","","","","","SRET","EW_formal","","key","j","16.660175925925916","768","428","朋友","贪腐","Negative","morality","","","","","","","","","","",""
"1039","","j","psychophysics","95","486864","0.0-7.0-3.0-0.81","7","5","5","6","6","5","4","5","5","5","4","2","0","2","1","-2","2","1","0","4","5","5","5","5","4","5","5","4","5","8","7","7","8","5","6","7","8","8","6","6","3","7","7","5","6","2","7","5","1","6","5","7","2","5","6","6","1","2","7","6","6","6","3","2","7","3","7","7","7","7","3","5","2","2","7","7","6","3","7","656564690050088960","张","358","Male","[""坏他"",""好他"",""好我"",""坏我""]","[""弱他"",""强他"",""强我"",""弱我""]","","","","","","","","no","","","","","","","","","SRET","EW_formal","","key","j","16.660628099173447","768","428","自己","黑心","Negative","morality","","","","","","","","","","",""
"927","","j","psychophysics","96","488792","0.0-7.0-3.0-0.82","7","5","5","6","6","5","4","5","5","5","4","2","0","2","1","-2","2","1","0","4","5","5","5","5","4","5","5","4","5","8","7","7","8","5","6","7","8","8","6","6","3","7","7","5","6","2","7","5","1","6","5","7","2","5","6","6","1","2","7","6","6","6","3","2","7","3","7","7","7","7","3","5","2","2","7","7","6","3","7","656564690050088960","张","358","Male","[""坏他"",""好他"",""好我"",""坏我""]","[""弱他"",""强他"",""强我"",""弱我""]","","","","","","","","no","","","","","","","","","SRET","EW_formal","","key","j","16.661495652174295","768","428","自己","弱智","Negative","ability","","","","","","","","","","",""
"919","","f","psychophysics","97","490713","0.0-7.0-3.0-0.83","7","5","5","6","6","5","4","5","5","5","4","2","0","2","1","-2","2","1","0","4","5","5","5","5","4","5","5","4","5","8","7","7","8","5","6","7","8","8","6","6","3","7","7","5","6","2","7","5","1","6","5","7","2","5","6","6","1","2","7","6","6","6","3","2","7","3","7","7","7","7","3","5","2","2","7","7","6","3","7","656564690050088960","张","358","Male","[""坏他"",""好他"",""好我"",""坏我""]","[""弱他"",""强他"",""强我"",""弱我""]","","","","","","","","yes","","","","","","","","","SRET","EW_formal","","key","f","16.661999999999942","768","428","自己","仁厚","Positive","morality","","","","","","","","","","",""
"1319","","j","psychophysics","98","493032","0.0-7.0-3.0-0.84","7","5","5","6","6","5","4","5","5","5","4","2","0","2","1","-2","2","1","0","4","5","5","5","5","4","5","5","4","5","8","7","7","8","5","6","7","8","8","6","6","3","7","7","5","6","2","7","5","1","6","5","7","2","5","6","6","1","2","7","6","6","6","3","2","7","3","7","7","7","7","3","5","2","2","7","7","6","3","7","656564690050088960","张","358","Male","[""坏他"",""好他"",""好我"",""坏我""]","[""弱他"",""强他"",""强我"",""弱我""]","","","","","","","","no","","","","","","","","","SRET","EW_formal","","key","j","16.660550724637805","768","428","自己","缓慢","Negative","ability","","","","","","","","","","",""
"991","","f","psychophysics","99","495024","0.0-7.0-3.0-0.85","7","5","5","6","6","5","4","5","5","5","4","2","0","2","1","-2","2","1","0","4","5","5","5","5","4","5","5","4","5","8","7","7","8","5","6","7","8","8","6","6","3","7","7","5","6","2","7","5","1","6","5","7","2","5","6","6","1","2","7","6","6","6","3","2","7","3","7","7","7","7","3","5","2","2","7","7","6","3","7","656564690050088960","张","358","Male","[""坏他"",""好他"",""好我"",""坏我""]","[""弱他"",""强他"",""强我"",""弱我""]","","","","","","","","yes","","","","","","","","","SRET","EW_formal","","key","f","16.662226890756244","768","428","自己","主见","Positive","ability","","","","","","","","","","",""
"1807","","f","psychophysics","100","497832","0.0-7.0-3.0-0.86","7","5","5","6","6","5","4","5","5","5","4","2","0","2","1","-2","2","1","0","4","5","5","5","5","4","5","5","4","5","8","7","7","8","5","6","7","8","8","6","6","3","7","7","5","6","2","7","5","1","6","5","7","2","5","6","6","1","2","7","6","6","6","3","2","7","3","7","7","7","7","3","5","2","2","7","7","6","3","7","656564690050088960","张","358","Male","[""坏他"",""好他"",""好我"",""坏我""]","[""弱他"",""强他"",""强我"",""弱我""]","","","","","","","","yes","","","","","","","","","SRET","EW_formal","","key","f","16.66097005988014","768","428","朋友","素养","Positive","morality","","","","","","","","","","",""
"735","","j","psychophysics","101","499570","0.0-7.0-3.0-0.87","7","5","5","6","6","5","4","5","5","5","4","2","0","2","1","-2","2","1","0","4","5","5","5","5","4","5","5","4","5","8","7","7","8","5","6","7","8","8","6","6","3","7","7","5","6","2","7","5","1","6","5","7","2","5","6","6","1","2","7","6","6","6","3","2","7","3","7","7","7","7","3","5","2","2","7","7","6","3","7","656564690050088960","张","358","Male","[""坏他"",""好他"",""好我"",""坏我""]","[""弱他"",""强他"",""强我"",""弱我""]","","","","","","","","no","","","","","","","","","SRET","EW_formal","","key","j","16.661355769230934","768","428","朋友","低俗","Negative","morality","","","","","","","","","","",""
"19198","
    <p><div style='color:white;font-size:35px; line-height:20px;'>计算任务</div></p><br>
    <p><div style='color:red;font-size:25px; line-height:20px;'>接下来，您将看到一些四则运算题，<b>请从键盘选择 0-9 进行反应。</b></div></p>
    <p><div style='color:red;font-size:25px; line-height:20px;'>请尽可能快地进行计算，计算的速度和正确率将影响报酬的发放。</div></p>
    <p><div class='footer' style='color:white;font-size:25px; line-height:20px;'>如果对本实验还有不清楚之处，请立即向实验员咨询。</p><p style='color:white;font-size:25px; line-height:20px;'>如果您明白了规则：</p><p style='color:white;font-size:22px; line-height:20px;'>请按 继续 进入练习</p>
    </div>
    ","0","html-button-response","102","518769","0.0-7.0-4.0","7","5","5","6","6","5","4","5","5","5","4","2","0","2","1","-2","2","1","0","4","5","5","5","5","4","5","5","4","5","8","7","7","8","5","6","7","8","8","6","6","3","7","7","5","6","2","7","5","1","6","5","7","2","5","6","6","1","2","7","6","6","6","3","2","7","3","7","7","7","7","3","5","2","2","7","7","6","3","7","656564690050088960","张","358","Male","[""坏他"",""好他"",""好我"",""坏我""]","[""弱他"",""强他"",""强我"",""弱我""]","","","","","","","","","","","","","","","","","SRET_math","math_instructions","Sat Dec 09 2023 22:17:24 GMT+0800 (中国标准时间)","","","","","","","","","","","","","","","","","","","",""
"3005","","2","psychophysics","103","521776","0.0-7.0-5.0-0.0","7","5","5","6","6","5","4","5","5","5","4","2","0","2","1","-2","2","1","0","4","5","5","5","5","4","5","5","4","5","8","7","7","8","5","6","7","8","8","6","6","3","7","7","5","6","2","7","5","1","6","5","7","2","5","6","6","1","2","7","6","6","6","3","2","7","3","7","7","7","7","3","5","2","2","7","7","6","3","7","656564690050088960","张","358","Male","[""坏他"",""好他"",""好我"",""坏我""]","[""弱他"",""强他"",""强我"",""弱我""]","","","","","","","","2","","","","","","","","","SRET","SRET_math_calculate","","key","2","16.66052777777788","768","428","","","","","5-3= ?","2","1","","","","","","","",""
"2127","","0","psychophysics","104","523905","0.0-7.0-5.0-0.1","7","5","5","6","6","5","4","5","5","5","4","2","0","2","1","-2","2","1","0","4","5","5","5","5","4","5","5","4","5","8","7","7","8","5","6","7","8","8","6","6","3","7","7","5","6","2","7","5","1","6","5","7","2","5","6","6","1","2","7","6","6","6","3","2","7","3","7","7","7","7","3","5","2","2","7","7","6","3","7","656564690050088960","张","358","Male","[""坏他"",""好他"",""好我"",""坏我""]","[""弱他"",""强他"",""强我"",""弱我""]","","","","","","","","0","","","","","","","","","SRET","SRET_math_calculate","","key","0","16.661622047244194","768","428","","","","","9-9= ?","0","1","","","","","","","",""
"5889","","8","psychophysics","105","529795","0.0-7.0-5.0-0.2","7","5","5","6","6","5","4","5","5","5","4","2","0","2","1","-2","2","1","0","4","5","5","5","5","4","5","5","4","5","8","7","7","8","5","6","7","8","8","6","6","3","7","7","5","6","2","7","5","1","6","5","7","2","5","6","6","1","2","7","6","6","6","3","2","7","3","7","7","7","7","3","5","2","2","7","7","6","3","7","656564690050088960","张","358","Male","[""坏他"",""好他"",""好我"",""坏我""]","[""弱他"",""强他"",""强我"",""弱我""]","","","","","","","","8","","","","","","","","","SRET","SRET_math_calculate","","key","8","16.661192634560777","768","428","","","","","11-3= ?","8","1","","","","","","","",""
"2524","","4","psychophysics","106","532321","0.0-7.0-5.0-0.3","7","5","5","6","6","5","4","5","5","5","4","2","0","2","1","-2","2","1","0","4","5","5","5","5","4","5","5","4","5","8","7","7","8","5","6","7","8","8","6","6","3","7","7","5","6","2","7","5","1","6","5","7","2","5","6","6","1","2","7","6","6","6","3","2","7","3","7","7","7","7","3","5","2","2","7","7","6","3","7","656564690050088960","张","358","Male","[""坏他"",""好他"",""好我"",""坏我""]","[""弱他"",""强他"",""强我"",""弱我""]","","","","","","","","4","","","","","","","","","SRET","SRET_math_calculate","","key","4","16.66061333333297","768","428","","","","","16-11= ?","5","0","","","","","","","",""
"2094","","2","psychophysics","107","534416","0.0-7.0-5.0-0.4","7","5","5","6","6","5","4","5","5","5","4","2","0","2","1","-2","2","1","0","4","5","5","5","5","4","5","5","4","5","8","7","7","8","5","6","7","8","8","6","6","3","7","7","5","6","2","7","5","1","6","5","7","2","5","6","6","1","2","7","6","6","6","3","2","7","3","7","7","7","7","3","5","2","2","7","7","6","3","7","656564690050088960","张","358","Male","[""坏他"",""好他"",""好我"",""坏我""]","[""弱他"",""强他"",""强我"",""弱我""]","","","","","","","","2","","","","","","","","","SRET","SRET_math_calculate","","key","2","16.661112000000664","768","428","","","","","9-7= ?","2","1","","","","","","","",""
"4559","","0","psychophysics","108","538976","0.0-7.0-5.0-0.5","7","5","5","6","6","5","4","5","5","5","4","2","0","2","1","-2","2","1","0","4","5","5","5","5","4","5","5","4","5","8","7","7","8","5","6","7","8","8","6","6","3","7","7","5","6","2","7","5","1","6","5","7","2","5","6","6","1","2","7","6","6","6","3","2","7","3","7","7","7","7","3","5","2","2","7","7","6","3","7","656564690050088960","张","358","Male","[""坏他"",""好他"",""好我"",""坏我""]","[""弱他"",""强他"",""强我"",""弱我""]","","","","","","","","0","","","","","","","","","SRET","SRET_math_calculate","","key","0","16.660835164835362","768","428","","","","","32-32= ?","0","1","","","","","","","",""
"1984","","5","psychophysics","109","540961","0.0-7.0-5.0-0.6","7","5","5","6","6","5","4","5","5","5","4","2","0","2","1","-2","2","1","0","4","5","5","5","5","4","5","5","4","5","8","7","7","8","5","6","7","8","8","6","6","3","7","7","5","6","2","7","5","1","6","5","7","2","5","6","6","1","2","7","6","6","6","3","2","7","3","7","7","7","7","3","5","2","2","7","7","6","3","7","656564690050088960","张","358","Male","[""坏他"",""好他"",""好我"",""坏我""]","[""弱他"",""强他"",""强我"",""弱我""]","","","","","","","","5","","","","","","","","","SRET","SRET_math_calculate","","key","5","16.661652542372487","768","428","","","","","10-5= ?","5","1","","","","","","","",""
"1718","","0","psychophysics","110","542680","0.0-7.0-5.0-0.7","7","5","5","6","6","5","4","5","5","5","4","2","0","2","1","-2","2","1","0","4","5","5","5","5","4","5","5","4","5","8","7","7","8","5","6","7","8","8","6","6","3","7","7","5","6","2","7","5","1","6","5","7","2","5","6","6","1","2","7","6","6","6","3","2","7","3","7","7","7","7","3","5","2","2","7","7","6","3","7","656564690050088960","张","358","Male","[""坏他"",""好他"",""好我"",""坏我""]","[""弱他"",""强他"",""强我"",""弱我""]","","","","","","","","0","","","","","","","","","SRET","SRET_math_calculate","","key","0","16.66176470588235","768","428","","","","","22-22= ?","0","1","","","","","","","",""
"2423","","5","psychophysics","111","545104","0.0-7.0-5.0-0.8","7","5","5","6","6","5","4","5","5","5","4","2","0","2","1","-2","2","1","0","4","5","5","5","5","4","5","5","4","5","8","7","7","8","5","6","7","8","8","6","6","3","7","7","5","6","2","7","5","1","6","5","7","2","5","6","6","1","2","7","6","6","6","3","2","7","3","7","7","7","7","3","5","2","2","7","7","6","3","7","656564690050088960","张","358","Male","[""坏他"",""好他"",""好我"",""坏我""]","[""弱他"",""强他"",""强我"",""弱我""]","","","","","","","","5","","","","","","","","","SRET","SRET_math_calculate","","key","5","16.661268965516978","768","428","","","","","14-9= ?","5","1","","","","","","","",""
"2199","","4","psychophysics","112","547304","0.0-7.0-5.0-0.9","7","5","5","6","6","5","4","5","5","5","4","2","0","2","1","-2","2","1","0","4","5","5","5","5","4","5","5","4","5","8","7","7","8","5","6","7","8","8","6","6","3","7","7","5","6","2","7","5","1","6","5","7","2","5","6","6","1","2","7","6","6","6","3","2","7","3","7","7","7","7","3","5","2","2","7","7","6","3","7","656564690050088960","张","358","Male","[""坏他"",""好他"",""好我"",""坏我""]","[""弱他"",""强他"",""强我"",""弱我""]","","","","","","","","4","","","","","","","","","SRET","SRET_math_calculate","","key","4","16.66079389312987","768","428","","","","","13-9= ?","4","1","","","","","","","",""
"2159","","9","psychophysics","113","549464","0.0-7.0-5.0-0.10","7","5","5","6","6","5","4","5","5","5","4","2","0","2","1","-2","2","1","0","4","5","5","5","5","4","5","5","4","5","8","7","7","8","5","6","7","8","8","6","6","3","7","7","5","6","2","7","5","1","6","5","7","2","5","6","6","1","2","7","6","6","6","3","2","7","3","7","7","7","7","3","5","2","2","7","7","6","3","7","656564690050088960","张","358","Male","[""坏他"",""好他"",""好我"",""坏我""]","[""弱他"",""强他"",""强我"",""弱我""]","","","","","","","","9","","","","","","","","","SRET","SRET_math_calculate","","key","9","16.92419841269859","768","428","","","","","3+6= ?","9","1","","","","","","","",""
"2424","","2","psychophysics","114","551889","0.0-7.0-5.0-0.11","7","5","5","6","6","5","4","5","5","5","4","2","0","2","1","-2","2","1","0","4","5","5","5","5","4","5","5","4","5","8","7","7","8","5","6","7","8","8","6","6","3","7","7","5","6","2","7","5","1","6","5","7","2","5","6","6","1","2","7","6","6","6","3","2","7","3","7","7","7","7","3","5","2","2","7","7","6","3","7","656564690050088960","张","358","Male","[""坏他"",""好他"",""好我"",""坏我""]","[""弱他"",""强他"",""强我"",""弱我""]","","","","","","","","2","","","","","","","","","SRET","SRET_math_calculate","","key","2","16.6615034482763","768","428","","","","","12/6= ?","2","1","","","","","","","",""
"2144","","6","psychophysics","115","554034","0.0-7.0-5.0-0.12","7","5","5","6","6","5","4","5","5","5","4","2","0","2","1","-2","2","1","0","4","5","5","5","5","4","5","5","4","5","8","7","7","8","5","6","7","8","8","6","6","3","7","7","5","6","2","7","5","1","6","5","7","2","5","6","6","1","2","7","6","6","6","3","2","7","3","7","7","7","7","3","5","2","2","7","7","6","3","7","656564690050088960","张","358","Male","[""坏他"",""好他"",""好我"",""坏我""]","[""弱他"",""强他"",""强我"",""弱我""]","","","","","","","","6","","","","","","","","","SRET","SRET_math_calculate","","key","6","16.660921874999985","768","428","","","","","5+1= ?","6","1","","","","","","","",""
"2318","","2","psychophysics","116","556353","0.0-7.0-5.0-0.13","7","5","5","6","6","5","4","5","5","5","4","2","0","2","1","-2","2","1","0","4","5","5","5","5","4","5","5","4","5","8","7","7","8","5","6","7","8","8","6","6","3","7","7","5","6","2","7","5","1","6","5","7","2","5","6","6","1","2","7","6","6","6","3","2","7","3","7","7","7","7","3","5","2","2","7","7","6","3","7","656564690050088960","张","358","Male","[""坏他"",""好他"",""好我"",""坏我""]","[""弱他"",""强他"",""强我"",""弱我""]","","","","","","","","2","","","","","","","","","SRET","SRET_math_calculate","","key","2","16.661804347826283","768","428","","","","","18/9= ?","2","1","","","","","","","",""
"2070","","0","psychophysics","117","558424","0.0-7.0-5.0-0.14","7","5","5","6","6","5","4","5","5","5","4","2","0","2","1","-2","2","1","0","4","5","5","5","5","4","5","5","4","5","8","7","7","8","5","6","7","8","8","6","6","3","7","7","5","6","2","7","5","1","6","5","7","2","5","6","6","1","2","7","6","6","6","3","2","7","3","7","7","7","7","3","5","2","2","7","7","6","3","7","656564690050088960","张","358","Male","[""坏他"",""好他"",""好我"",""坏我""]","[""弱他"",""强他"",""强我"",""弱我""]","","","","","","","","0","","","","","","","","","SRET","SRET_math_calculate","","key","0","16.66067479674731","768","428","","","","","6*0= ?","0","1","","","","","","","",""
"2015","","9","psychophysics","118","560440","0.0-7.0-5.0-0.15","7","5","5","6","6","5","4","5","5","5","4","2","0","2","1","-2","2","1","0","4","5","5","5","5","4","5","5","4","5","8","7","7","8","5","6","7","8","8","6","6","3","7","7","5","6","2","7","5","1","6","5","7","2","5","6","6","1","2","7","6","6","6","3","2","7","3","7","7","7","7","3","5","2","2","7","7","6","3","7","656564690050088960","张","358","Male","[""坏他"",""好他"",""好我"",""坏我""]","[""弱他"",""强他"",""强我"",""弱我""]","","","","","","","","9","","","","","","","","","SRET","SRET_math_calculate","","key","9","16.660083333333024","768","428","","","","","4+5= ?","9","1","","","","","","","",""
"1992","","5","psychophysics","119","562433","0.0-7.0-5.0-0.16","7","5","5","6","6","5","4","5","5","5","4","2","0","2","1","-2","2","1","0","4","5","5","5","5","4","5","5","4","5","8","7","7","8","5","6","7","8","8","6","6","3","7","7","5","6","2","7","5","1","6","5","7","2","5","6","6","1","2","7","6","6","6","3","2","7","3","7","7","7","7","3","5","2","2","7","7","6","3","7","656564690050088960","张","358","Male","[""坏他"",""好他"",""好我"",""坏我""]","[""弱他"",""强他"",""强我"",""弱我""]","","","","","","","","5","","","","","","","","","SRET","SRET_math_calculate","","key","5","16.661823529411624","768","428","","","","","3+2= ?","5","1","","","","","","","",""
"1918","","0","psychophysics","120","564352","0.0-7.0-5.0-0.17","7","5","5","6","6","5","4","5","5","5","4","2","0","2","1","-2","2","1","0","4","5","5","5","5","4","5","5","4","5","8","7","7","8","5","6","7","8","8","6","6","3","7","7","5","6","2","7","5","1","6","5","7","2","5","6","6","1","2","7","6","6","6","3","2","7","3","7","7","7","7","3","5","2","2","7","7","6","3","7","656564690050088960","张","358","Male","[""坏他"",""好他"",""好我"",""坏我""]","[""弱他"",""强他"",""强我"",""弱我""]","","","","","","","","0","","","","","","","","","SRET","SRET_math_calculate","","key","0","16.66062280701743","768","428","","","","","5*0= ?","0","1","","","","","","","",""
"1903","","5","psychophysics","121","566256","0.0-7.0-5.0-0.18","7","5","5","6","6","5","4","5","5","5","4","2","0","2","1","-2","2","1","0","4","5","5","5","5","4","5","5","4","5","8","7","7","8","5","6","7","8","8","6","6","3","7","7","5","6","2","7","5","1","6","5","7","2","5","6","6","1","2","7","6","6","6","3","2","7","3","7","7","7","7","3","5","2","2","7","7","6","3","7","656564690050088960","张","358","Male","[""坏他"",""好他"",""好我"",""坏我""]","[""弱他"",""强他"",""强我"",""弱我""]","","","","","","","","5","","","","","","","","","SRET","SRET_math_calculate","","key","5","16.662079646018235","768","428","","","","","4+1= ?","5","1","","","","","","","",""
"2215","","7","psychophysics","122","568472","0.0-7.0-5.0-0.19","7","5","5","6","6","5","4","5","5","5","4","2","0","2","1","-2","2","1","0","4","5","5","5","5","4","5","5","4","5","8","7","7","8","5","6","7","8","8","6","6","3","7","7","5","6","2","7","5","1","6","5","7","2","5","6","6","1","2","7","6","6","6","3","2","7","3","7","7","7","7","3","5","2","2","7","7","6","3","7","656564690050088960","张","358","Male","[""坏他"",""好他"",""好我"",""坏我""]","[""弱他"",""强他"",""强我"",""弱我""]","","","","","","","","7","","","","","","","","","SRET","SRET_math_calculate","","key","7","16.661818181818077","768","428","","","","","9-2= ?","7","1","","","","","","","",""
"1967","","7","psychophysics","123","570440","0.0-7.0-5.0-0.20","7","5","5","6","6","5","4","5","5","5","4","2","0","2","1","-2","2","1","0","4","5","5","5","5","4","5","5","4","5","8","7","7","8","5","6","7","8","8","6","6","3","7","7","5","6","2","7","5","1","6","5","7","2","5","6","6","1","2","7","6","6","6","3","2","7","3","7","7","7","7","3","5","2","2","7","7","6","3","7","656564690050088960","张","358","Male","[""坏他"",""好他"",""好我"",""坏我""]","[""弱他"",""强他"",""强我"",""弱我""]","","","","","","","","7","","","","","","","","","SRET","SRET_math_calculate","","key","7","16.662042735043006","768","428","","","","","4+3= ?","7","1","","","","","","","",""
"2240","","3","psychophysics","124","572681","0.0-7.0-5.0-0.21","7","5","5","6","6","5","4","5","5","5","4","2","0","2","1","-2","2","1","0","4","5","5","5","5","4","5","5","4","5","8","7","7","8","5","6","7","8","8","6","6","3","7","7","5","6","2","7","5","1","6","5","7","2","5","6","6","1","2","7","6","6","6","3","2","7","3","7","7","7","7","3","5","2","2","7","7","6","3","7","656564690050088960","张","358","Male","[""坏他"",""好他"",""好我"",""坏我""]","[""弱他"",""强他"",""强我"",""弱我""]","","","","","","","","3","","","","","","","","","SRET","SRET_math_calculate","","key","3","16.662231343283157","768","428","","","","","3*1= ?","3","1","","","","","","","",""
"2327","","2","psychophysics","125","575009","0.0-7.0-5.0-0.22","7","5","5","6","6","5","4","5","5","5","4","2","0","2","1","-2","2","1","0","4","5","5","5","5","4","5","5","4","5","8","7","7","8","5","6","7","8","8","6","6","3","7","7","5","6","2","7","5","1","6","5","7","2","5","6","6","1","2","7","6","6","6","3","2","7","3","7","7","7","7","3","5","2","2","7","7","6","3","7","656564690050088960","张","358","Male","[""坏他"",""好他"",""好我"",""坏我""]","[""弱他"",""强他"",""强我"",""弱我""]","","","","","","","","2","","","","","","","","","SRET","SRET_math_calculate","","key","2","16.661589928057627","768","428","","","","","29-27= ?","2","1","","","","","","","",""
"2023","","5","psychophysics","126","577033","0.0-7.0-5.0-0.23","7","5","5","6","6","5","4","5","5","5","4","2","0","2","1","-2","2","1","0","4","5","5","5","5","4","5","5","4","5","8","7","7","8","5","6","7","8","8","6","6","3","7","7","5","6","2","7","5","1","6","5","7","2","5","6","6","1","2","7","6","6","6","3","2","7","3","7","7","7","7","3","5","2","2","7","7","6","3","7","656564690050088960","张","358","Male","[""坏他"",""好他"",""好我"",""坏我""]","[""弱他"",""强他"",""强我"",""弱我""]","","","","","","","","5","","","","","","","","","SRET","SRET_math_calculate","","key","5","16.66038333333369","768","428","","","","","8-3= ? ","5","1","","","","","","","",""
"2038","","5","psychophysics","127","579072","0.0-7.0-5.0-0.24","7","5","5","6","6","5","4","5","5","5","4","2","0","2","1","-2","2","1","0","4","5","5","5","5","4","5","5","4","5","8","7","7","8","5","6","7","8","8","6","6","3","7","7","5","6","2","7","5","1","6","5","7","2","5","6","6","1","2","7","6","6","6","3","2","7","3","7","7","7","7","3","5","2","2","7","7","6","3","7","656564690050088960","张","358","Male","[""坏他"",""好他"",""好我"",""坏我""]","[""弱他"",""强他"",""强我"",""弱我""]","","","","","","","","5","","","","","","","","","SRET","SRET_math_calculate","","key","5","16.664454545455307","768","428","","","","","5/1= ?","5","1","","","","","","","",""
"2053","","4","psychophysics","128","581128","0.0-7.0-5.0-0.25","7","5","5","6","6","5","4","5","5","5","4","2","0","2","1","-2","2","1","0","4","5","5","5","5","4","5","5","4","5","8","7","7","8","5","6","7","8","8","6","6","3","7","7","5","6","2","7","5","1","6","5","7","2","5","6","6","1","2","7","6","6","6","3","2","7","3","7","7","7","7","3","5","2","2","7","7","6","3","7","656564690050088960","张","358","Male","[""坏他"",""好他"",""好我"",""坏我""]","[""弱他"",""强他"",""强我"",""弱我""]","","","","","","","","4","","","","","","","","","SRET","SRET_math_calculate","","key","4","16.661869918699452","768","428","","","","","3+1= ?","4","1","","","","","","","",""
"2376","","7","psychophysics","129","583505","0.0-7.0-5.0-0.26","7","5","5","6","6","5","4","5","5","5","4","2","0","2","1","-2","2","1","0","4","5","5","5","5","4","5","5","4","5","8","7","7","8","5","6","7","8","8","6","6","3","7","7","5","6","2","7","5","1","6","5","7","2","5","6","6","1","2","7","6","6","6","3","2","7","3","7","7","7","7","3","5","2","2","7","7","6","3","7","656564690050088960","张","358","Male","[""坏他"",""好他"",""好我"",""坏我""]","[""弱他"",""强他"",""强我"",""弱我""]","","","","","","","","7","","","","","","","","","SRET","SRET_math_calculate","","key","7","16.66062676056344","768","428","","","","","7*1=  ?","7","1","","","","","","","",""
"2135","","8","psychophysics","130","585640","0.0-7.0-5.0-0.27","7","5","5","6","6","5","4","5","5","5","4","2","0","2","1","-2","2","1","0","4","5","5","5","5","4","5","5","4","5","8","7","7","8","5","6","7","8","8","6","6","3","7","7","5","6","2","7","5","1","6","5","7","2","5","6","6","1","2","7","6","6","6","3","2","7","3","7","7","7","7","3","5","2","2","7","7","6","3","7","656564690050088960","张","358","Male","[""坏他"",""好他"",""好我"",""坏我""]","[""弱他"",""强他"",""强我"",""弱我""]","","","","","","","","8","","","","","","","","","SRET","SRET_math_calculate","","key","8","16.660881889763097","768","428","","","","","1*8= ?","8","1","","","","","","","",""
"2039","","9","psychophysics","131","587680","0.0-7.0-5.0-0.28","7","5","5","6","6","5","4","5","5","5","4","2","0","2","1","-2","2","1","0","4","5","5","5","5","4","5","5","4","5","8","7","7","8","5","6","7","8","8","6","6","3","7","7","5","6","2","7","5","1","6","5","7","2","5","6","6","1","2","7","6","6","6","3","2","7","3","7","7","7","7","3","5","2","2","7","7","6","3","7","656564690050088960","张","358","Male","[""坏他"",""好他"",""好我"",""坏我""]","[""弱他"",""强他"",""强我"",""弱我""]","","","","","","","","9","","","","","","","","","SRET","SRET_math_calculate","","key","9","16.66065289256209","768","428","","","","","1+8= ?","9","1","","","","","","","",""
"1919","","8","psychophysics","132","589600","0.0-7.0-5.0-0.29","7","5","5","6","6","5","4","5","5","5","4","2","0","2","1","-2","2","1","0","4","5","5","5","5","4","5","5","4","5","8","7","7","8","5","6","7","8","8","6","6","3","7","7","5","6","2","7","5","1","6","5","7","2","5","6","6","1","2","7","6","6","6","3","2","7","3","7","7","7","7","3","5","2","2","7","7","6","3","7","656564690050088960","张","358","Male","[""坏他"",""好他"",""好我"",""坏我""]","[""弱他"",""强他"",""强我"",""弱我""]","","","","","","","","8","","","","","","","","","SRET","SRET_math_calculate","","key","8","16.66058771929851","768","428","","","","","3+5= ?","8","1","","","","","","","",""
"2079","","7","psychophysics","133","591680","0.0-7.0-5.0-0.30","7","5","5","6","6","5","4","5","5","5","4","2","0","2","1","-2","2","1","0","4","5","5","5","5","4","5","5","4","5","8","7","7","8","5","6","7","8","8","6","6","3","7","7","5","6","2","7","5","1","6","5","7","2","5","6","6","1","2","7","6","6","6","3","2","7","3","7","7","7","7","3","5","2","2","7","7","6","3","7","656564690050088960","张","358","Male","[""坏他"",""好他"",""好我"",""坏我""]","[""弱他"",""强他"",""强我"",""弱我""]","","","","","","","","7","","","","","","","","","SRET","SRET_math_calculate","","key","7","16.662072580644764","768","428","","","","","8-1= ?","7","1","","","","","","","",""
"1815","","8","psychophysics","134","593496","0.0-7.0-5.0-0.31","7","5","5","6","6","5","4","5","5","5","4","2","0","2","1","-2","2","1","0","4","5","5","5","5","4","5","5","4","5","8","7","7","8","5","6","7","8","8","6","6","3","7","7","5","6","2","7","5","1","6","5","7","2","5","6","6","1","2","7","6","6","6","3","2","7","3","7","7","7","7","3","5","2","2","7","7","6","3","7","656564690050088960","张","358","Male","[""坏他"",""好他"",""好我"",""坏我""]","[""弱他"",""强他"",""强我"",""弱我""]","","","","","","","","8","","","","","","","","","SRET","SRET_math_calculate","","key","8","16.66196296296268","768","428","","","","","1+7= ?","8","1","","","","","","","",""
"3689","","8","psychophysics","135","597186","0.0-7.0-5.0-0.32","7","5","5","6","6","5","4","5","5","5","4","2","0","2","1","-2","2","1","0","4","5","5","5","5","4","5","5","4","5","8","7","7","8","5","6","7","8","8","6","6","3","7","7","5","6","2","7","5","1","6","5","7","2","5","6","6","1","2","7","6","6","6","3","2","7","3","7","7","7","7","3","5","2","2","7","7","6","3","7","656564690050088960","张","358","Male","[""坏他"",""好他"",""好我"",""坏我""]","[""弱他"",""强他"",""强我"",""弱我""]","","","","","","","","8","","","","","","","","","SRET","SRET_math_calculate","","key","8","16.661063348416164","768","428","","","","","72/9= ?","8","1","","","","","","","",""
"2111","","7","psychophysics","136","599298","0.0-7.0-5.0-0.33","7","5","5","6","6","5","4","5","5","5","4","2","0","2","1","-2","2","1","0","4","5","5","5","5","4","5","5","4","5","8","7","7","8","5","6","7","8","8","6","6","3","7","7","5","6","2","7","5","1","6","5","7","2","5","6","6","1","2","7","6","6","6","3","2","7","3","7","7","7","7","3","5","2","2","7","7","6","3","7","656564690050088960","张","358","Male","[""坏他"",""好他"",""好我"",""坏我""]","[""弱他"",""强他"",""强我"",""弱我""]","","","","","","","","7","","","","","","","","","SRET","SRET_math_calculate","","key","7","16.660904000000098","768","428","","","","","1+6= ?","7","1","","","","","","","",""
"2158","","2","psychophysics","137","601456","0.0-7.0-5.0-0.34","7","5","5","6","6","5","4","5","5","5","4","2","0","2","1","-2","2","1","0","4","5","5","5","5","4","5","5","4","5","8","7","7","8","5","6","7","8","8","6","6","3","7","7","5","6","2","7","5","1","6","5","7","2","5","6","6","1","2","7","6","6","6","3","2","7","3","7","7","7","7","3","5","2","2","7","7","6","3","7","656564690050088960","张","358","Male","[""坏他"",""好他"",""好我"",""坏我""]","[""弱他"",""强他"",""强我"",""弱我""]","","","","","","","","2","","","","","","","","","SRET","SRET_math_calculate","","key","2","16.66120930232537","768","428","","","","","19-17= ?","2","1","","","","","","","",""
"2018","","1","psychophysics","138","603480","0.0-7.0-5.0-0.35","7","5","5","6","6","5","4","5","5","5","4","2","0","2","1","-2","2","1","0","4","5","5","5","5","4","5","5","4","5","8","7","7","8","5","6","7","8","8","6","6","3","7","7","5","6","2","7","5","1","6","5","7","2","5","6","6","1","2","7","6","6","6","3","2","7","3","7","7","7","7","3","5","2","2","7","7","6","3","7","656564690050088960","张","358","Male","[""坏他"",""好他"",""好我"",""坏我""]","[""弱他"",""强他"",""强我"",""弱我""]","","","","","","","","1","","","","","","","","","SRET","SRET_math_calculate","","key","1","16.660975000000327","768","428","","","","","10-9= ?","1","1","","","","","","","",""
"2033","","2","psychophysics","139","605514","0.0-7.0-5.0-0.36","7","5","5","6","6","5","4","5","5","5","4","2","0","2","1","-2","2","1","0","4","5","5","5","5","4","5","5","4","5","8","7","7","8","5","6","7","8","8","6","6","3","7","7","5","6","2","7","5","1","6","5","7","2","5","6","6","1","2","7","6","6","6","3","2","7","3","7","7","7","7","3","5","2","2","7","7","6","3","7","656564690050088960","张","358","Male","[""坏他"",""好他"",""好我"",""坏我""]","[""弱他"",""强他"",""强我"",""弱我""]","","","","","","","","2","","","","","","","","","SRET","SRET_math_calculate","","key","2","16.660500000000045","768","428","","","","","8-6= ?","2","1","","","","","","","",""
"2413","","3","psychophysics","140","607929","0.0-7.0-5.0-0.37","7","5","5","6","6","5","4","5","5","5","4","2","0","2","1","-2","2","1","0","4","5","5","5","5","4","5","5","4","5","8","7","7","8","5","6","7","8","8","6","6","3","7","7","5","6","2","7","5","1","6","5","7","2","5","6","6","1","2","7","6","6","6","3","2","7","3","7","7","7","7","3","5","2","2","7","7","6","3","7","656564690050088960","张","358","Male","[""坏他"",""好他"",""好我"",""坏我""]","[""弱他"",""强他"",""强我"",""弱我""]","","","","","","","","3","","","","","","","","","SRET","SRET_math_calculate","","key","3","16.660853146852997","768","428","","","","","8-5= ?","3","1","","","","","","","",""
"2374","","6","psychophysics","141","610304","0.0-7.0-5.0-0.38","7","5","5","6","6","5","4","5","5","5","4","2","0","2","1","-2","2","1","0","4","5","5","5","5","4","5","5","4","5","8","7","7","8","5","6","7","8","8","6","6","3","7","7","5","6","2","7","5","1","6","5","7","2","5","6","6","1","2","7","6","6","6","3","2","7","3","7","7","7","7","3","5","2","2","7","7","6","3","7","656564690050088960","张","358","Male","[""坏他"",""好他"",""好我"",""坏我""]","[""弱他"",""强他"",""强我"",""弱我""]","","","","","","","","6","","","","","","","","","SRET","SRET_math_calculate","","key","6","16.660683098591825","768","428","","","","","11-5= ?","6","1","","","","","","","",""
"2455","","7","psychophysics","142","612760","0.0-7.0-5.0-0.39","7","5","5","6","6","5","4","5","5","5","4","2","0","2","1","-2","2","1","0","4","5","5","5","5","4","5","5","4","5","8","7","7","8","5","6","7","8","8","6","6","3","7","7","5","6","2","7","5","1","6","5","7","2","5","6","6","1","2","7","6","6","6","3","2","7","3","7","7","7","7","3","5","2","2","7","7","6","3","7","656564690050088960","张","358","Male","[""坏他"",""好他"",""好我"",""坏我""]","[""弱他"",""强他"",""强我"",""弱我""]","","","","","","","","7","","","","","","","","","SRET","SRET_math_calculate","","key","7","16.66208219178075","768","428","","","","","49/7 = ?","7","1","","","","","","","",""
