"rt","stimulus","response","trial_type","trial_index","time_elapsed","internal_node_id","ses_1","ses_2","ses_3","ses_4","ses_5","ses_6","ses_7","ses_8","ses_9","ses_10","coreself_1","coreself_2","coreself_3","coreself_4","coreself_5","coreself_6","coreself_7","coreself_8","coreself_9","coreself_10","SGPS_1","SGPS_2","SGPS_3","SGPS_4","SGPS_5","SGPS_6","SGPS_7","SGPS_8","SGPS_9","NPI1","NPI2","NPI3","NPI4","NPI5","NPI6","NPI7","NPI8","NPI9","NPI10","NPI11","NPI12","NPI13","NPI14","NPI15","hsns_1","hsns_2","hsns_3","hsns_4","hsns_5","hsns_6","hsns_7","hsns_8","hsns_9","hsns_10","subj_idx","friend_name","ParticipantID","value","success","user_agent","responses","item_order","radio_event_ids","radio_event_times","key_event_times","mouse_event_times","straightlining","zigzagging","honeypot","timeout","failed_images","failed_audio","failed_video","version_attrib2","version_target2","correct","IAT","screen_id","task_id","RT","condition","word","varname","summary","version_attrib","version_target","time_stamp","view_history","response_type","key_press","avg_frame_time","center_x","center_y","correct_response","identity","Image","question_order"
"137523","
   <p><div style = ""color: white;font-size:25px;"">您好，欢迎参加本次实验。</div> </p>
   <p><div style = ""color: white;font-size:25px;"">为充分保障您的权利，请确保您已经知晓并同意《参与实验同意书》以及《数据公开知情同意书》。</div></p>
   <p><div style = ""color: white;font-size:25px;"">如果您未见过上述内容，请咨询实验员。</div></p>
   <p><div style = ""color: white;font-size:25px;"">如果您选择继续实验，则表示您已经清楚两份知情同意书的内容并同意。</div></p>
   <p><div style = ""color: red;font-size:30px;"">请确保您记得day0的实验编号，您将在本次实验输入该编号，若您忘记，请咨询实验员后作答。</div></p>
   <p> <div style = ""color: green;font-size:25px;""><按空格键至下页></div> </p>
   "," ","html-keyboard-response","0","137521","0.0-0.0","4","4","4","4","4","4","4","4","4","4","4","2","3","4","4","4","5","3","4","5","4","3","2","2","3","2","2","2","2","0","0","1","1","0","0","0","1","0","1","1","0","0","1","1","4","1","1","2","2","4","4","3","4","2","680051628862078976","庞","460","","","","","","","","","","","","","","","","","","","","","","","","","","","","","","","","","","","","","","","",""
"","","","call-function","1","137523","0.0-1.0-0.0","4","4","4","4","4","4","4","4","4","4","4","2","3","4","4","4","5","3","4","5","4","3","2","2","3","2","2","2","2","0","0","1","1","0","0","0","1","0","1","1","0","0","1","1","4","1","1","2","2","4","4","3","4","2","680051628862078976","庞","460","","","","","","","","","","","","","","","","","","","","","","","","","","","","","","","","","","","","","","","",""
"20352","","{""friend_name"":""庞"",""ParticipantID"":""460""}","survey-html-form","2","157877","0.0-1.0-1.0","4","4","4","4","4","4","4","4","4","4","4","2","3","4","4","4","5","3","4","5","4","3","2","2","3","2","2","2","2","0","0","1","1","0","0","0","1","0","1","1","0","0","1","1","4","1","1","2","2","4","4","3","4","2","680051628862078976","庞","460","","","","","","","","","","","","","","","","","","","","","","","","","","","","","","","","","","","","","","","",""
"","","","fullscreen","3","180815","0.0-2.0","4","4","4","4","4","4","4","4","4","4","4","2","3","4","4","4","5","3","4","5","4","3","2","2","3","2","2","2","2","0","0","1","1","0","0","0","1","0","1","1","0","0","1","1","4","1","1","2","2","4","4","3","4","2","680051628862078976","庞","460","","true","{}","","","","","","","","","","","","","","","","","","","","","","","","","","","","","","","","","","","","",""
"38685","","{""Q01"":""4"",""Q02"":""4"",""Q03"":""4"",""Q04"":""4"",""Q05"":""4"",""Q06"":""4"",""Q07"":""4"",""Q08"":""4"",""Q09"":""4"",""Q10"":""4""}","survey-template","4","219504","0.0-3.0","4","4","4","4","4","4","4","4","4","4","4","2","3","4","4","4","5","3","4","5","4","3","2","2","3","2","2","2","2","0","0","1","1","0","0","0","1","0","1","1","0","0","1","1","4","1","1","2","2","4","4","3","4","2","680051628862078976","庞","460","","","","{""Q01"":""4"",""Q02"":""4"",""Q03"":""4"",""Q04"":""4"",""Q05"":""4"",""Q06"":""4"",""Q07"":""4"",""Q08"":""4"",""Q09"":""4"",""Q10"":""4""}","[0,1,2,3,4,5,6,7,8,9]","[""Q01"",""Q02"",""Q03"",""Q04"",""Q05"",""Q06"",""Q07"",""Q08"",""Q09"",""Q10""]","[8690.599999964237,10788.300000011921,14297.800000011921,18840.5,21331.599999964237,24141.5,26407.5,29767.30000001192,33336.69999998808,36192.89999997616]","[]","[8690.599999964237,10788.300000011921,14297.800000011921,18840.5,21331.599999964237,24141.5,26407.5,29767.30000001192,33336.69999998808,36192.89999997616,38683.5]","0.5","0.5555555555555556","0","","","","","","","","","","","","","","","","","","","","","","","","","","","",""
"47768.80000001192","","{""Q01"":""4"",""Q02"":""2"",""Q03"":""3"",""Q04"":""4"",""Q05"":""4"",""Q06"":""4"",""Q07"":""5"",""Q08"":""3"",""Q09"":""4"",""Q10"":""5""}","survey-template","5","267281","0.0-4.0","4","4","4","4","4","4","4","4","4","4","4","2","3","4","4","4","5","3","4","5","4","3","2","2","3","2","2","2","2","0","0","1","1","0","0","0","1","0","1","1","0","0","1","1","4","1","1","2","2","4","4","3","4","2","680051628862078976","庞","460","","","","{""Q01"":""4"",""Q02"":""2"",""Q03"":""3"",""Q04"":""4"",""Q05"":""4"",""Q06"":""4"",""Q07"":""5"",""Q08"":""3"",""Q09"":""4"",""Q10"":""5""}","[0,1,2,3,4,5,6,7,8,9]","[""Q01"",""Q02"",""Q03"",""Q04"",""Q05"",""Q06"",""Q07"",""Q08"",""Q09"",""Q10""]","[8461.300000011921,16108.800000011921,20081.400000035763,23441.5,27011.5,29138.900000035763,34737.69999998808,40512.80000001192,43776.60000002384,46269.69999998808]","[]","[8461.300000011921,16108.800000011921,20081.400000035763,23441.5,27011.5,29138.900000035763,34737.69999998808,40512.80000001192,43776.60000002384,46269.69999998808,47767.10000002384]","0.5","0.3333333333333333","0","","","","","","","","","","","","","","","","","","","","","","","","","","","",""
"","","","preload","6","267825","0.0-5.0","4","4","4","4","4","4","4","4","4","4","4","2","3","4","4","4","5","3","4","5","4","3","2","2","3","2","2","2","2","0","0","1","1","0","0","0","1","0","1","1","0","0","1","1","4","1","1","2","2","4","4","3","4","2","680051628862078976","庞","460","","true","","","","","","","","","","","false","[]","[]","[]","","","","","","","","","","","","","","","","","","","","","","","",""
"14256","
    <h3>词语分类任务</h3>
    <p>在接下来的任务中，你需要对一系列词语进行分类。<p/>
    请先熟悉这些词语，这有利于你完成接下来的任务。</p>
    <table align=""center"" border=1 cellpadding=3 cellspacing=0>
    <tr> <th>类别</th> <th>词语</th> </tr>
    <tr> <td>&emsp;积极&emsp;</td> <td>&emsp;高尚、诚信、善良、君子、廉正、正直&emsp;</td> </tr>
    <tr> <td>&emsp;消极&emsp;</td> <td>&emsp;缺德、卑鄙、不孝、不仁、小人、黑心&emsp;</td> </tr>
    <tr> <td>&emsp;自我&emsp;</td> <td>&emsp;我、我的、自己、自己的、本人、本人的&emsp;</td> </tr>
    <tr> <td>&emsp;他人&emsp;</td> <td>&emsp;他、他的、别人、别人的、他人、他人的&emsp;</td> </tr>
    </table><br/>","0","html-button-response","7","282084","0.0-6.0-1.0-0.0","4","4","4","4","4","4","4","4","4","4","4","2","3","4","4","4","5","3","4","5","4","3","2","2","3","2","2","2","2","0","0","1","1","0","0","0","1","0","1","1","0","0","1","1","4","1","1","2","2","4","4","3","4","2","680051628862078976","庞","460","","","","","","","","","","","","","","","","","1","2","","","","","","","","","","","","","","","","","","","","","",""
"25443","
    <div class=""tag-bottom""><p>
    —— 任务1：对“他人”词和“自我”词分类 ——<p/>
    不同词语会出现在屏幕中央，类别标签将始终显示在屏幕上方<p/>   
    <span style=""color:#FFD866""><b>请根据上方标签的提示，尽可能正确并且快速地做出按键反应</b></span><p/>
    当按键错误时屏幕中会出现<span style=""color:red""> X </span>，需要按另一个键纠正才能继续<br/><p/>
    请把双手食指分别放在键盘的“E”键和“I”键上<p/>
    按<空格键>开始
    </p></div>"," ","html-keyboard-response","8","307525","0.0-6.0-1.0-1.0","4","4","4","4","4","4","4","4","4","4","4","2","3","4","4","4","5","3","4","5","4","3","2","2","3","2","2","2","2","0","0","1","1","0","0","0","1","0","1","1","0","0","1","1","4","1","1","2","2","4","4","3","4","2","680051628862078976","庞","460","","","","","","","","","","","","","","","","","","","","","","","","","","","","","","","","","","","","","","","",""
"null","","null","html-keyboard-response","9","307777","0.0-6.0-1.0-2.0-0.0","4","4","4","4","4","4","4","4","4","4","4","2","3","4","4","4","5","3","4","5","4","3","2","2","3","2","2","2","2","0","0","1","1","0","0","0","1","0","1","1","0","0","1","1","4","1","1","2","2","4","4","3","4","2","680051628862078976","庞","460","","","","","","","","","","","","","","","","","","","","","","","","","","","","","","","","","","","","","","","",""
"1546","<p style=""color:rgb(150, 250, 100); font-size: 35px;"">本人的</p>","i","categorize-html","10","309331","0.0-6.0-1.0-2.0-1.0","4","4","4","4","4","4","4","4","4","4","4","2","3","4","4","4","5","3","4","5","4","3","2","2","3","2","2","2","2","0","0","1","1","0","0","0","1","0","1","1","0","0","1","1","4","1","1","2","2","4","4","3","4","2","680051628862078976","庞","460","","","","","","","","","","","","","","","","","","","true","11","1","moral","1546","self","本人的","","","","","","","","","","","","","","",""
"null","","null","html-keyboard-response","11","309584","0.0-6.0-1.0-2.0-0.1","4","4","4","4","4","4","4","4","4","4","4","2","3","4","4","4","5","3","4","5","4","3","2","2","3","2","2","2","2","0","0","1","1","0","0","0","1","0","1","1","0","0","1","1","4","1","1","2","2","4","4","3","4","2","680051628862078976","庞","460","","","","","","","","","","","","","","","","","","","","","","","","","","","","","","","","","","","","","","","",""
"748","<p style=""color:rgb(150, 250, 100); font-size: 35px;"">他人的</p>","e","categorize-html","12","310334","0.0-6.0-1.0-2.0-1.1","4","4","4","4","4","4","4","4","4","4","4","2","3","4","4","4","5","3","4","5","4","3","2","2","3","2","2","2","2","0","0","1","1","0","0","0","1","0","1","1","0","0","1","1","4","1","1","2","2","4","4","3","4","2","680051628862078976","庞","460","","","","","","","","","","","","","","","","","","","true","11","1","moral","748","other","他人的","","","","","","","","","","","","","","",""
"null","","null","html-keyboard-response","13","310587","0.0-6.0-1.0-2.0-0.2","4","4","4","4","4","4","4","4","4","4","4","2","3","4","4","4","5","3","4","5","4","3","2","2","3","2","2","2","2","0","0","1","1","0","0","0","1","0","1","1","0","0","1","1","4","1","1","2","2","4","4","3","4","2","680051628862078976","庞","460","","","","","","","","","","","","","","","","","","","","","","","","","","","","","","","","","","","","","","","",""
"632","<p style=""color:rgb(150, 250, 100); font-size: 35px;"">本人</p>","i","categorize-html","14","311225","0.0-6.0-1.0-2.0-1.2","4","4","4","4","4","4","4","4","4","4","4","2","3","4","4","4","5","3","4","5","4","3","2","2","3","2","2","2","2","0","0","1","1","0","0","0","1","0","1","1","0","0","1","1","4","1","1","2","2","4","4","3","4","2","680051628862078976","庞","460","","","","","","","","","","","","","","","","","","","true","11","1","moral","632","self","本人","","","","","","","","","","","","","","",""
"null","","null","html-keyboard-response","15","311481","0.0-6.0-1.0-2.0-0.3","4","4","4","4","4","4","4","4","4","4","4","2","3","4","4","4","5","3","4","5","4","3","2","2","3","2","2","2","2","0","0","1","1","0","0","0","1","0","1","1","0","0","1","1","4","1","1","2","2","4","4","3","4","2","680051628862078976","庞","460","","","","","","","","","","","","","","","","","","","","","","","","","","","","","","","","","","","","","","","",""
"633","<p style=""color:rgb(150, 250, 100); font-size: 35px;"">我</p>","i","categorize-html","16","312119","0.0-6.0-1.0-2.0-1.3","4","4","4","4","4","4","4","4","4","4","4","2","3","4","4","4","5","3","4","5","4","3","2","2","3","2","2","2","2","0","0","1","1","0","0","0","1","0","1","1","0","0","1","1","4","1","1","2","2","4","4","3","4","2","680051628862078976","庞","460","","","","","","","","","","","","","","","","","","","true","11","1","moral","633","self","我","","","","","","","","","","","","","","",""
"null","","null","html-keyboard-response","17","312374","0.0-6.0-1.0-2.0-0.4","4","4","4","4","4","4","4","4","4","4","4","2","3","4","4","4","5","3","4","5","4","3","2","2","3","2","2","2","2","0","0","1","1","0","0","0","1","0","1","1","0","0","1","1","4","1","1","2","2","4","4","3","4","2","680051628862078976","庞","460","","","","","","","","","","","","","","","","","","","","","","","","","","","","","","","","","","","","","","","",""
"655","<p style=""color:rgb(150, 250, 100); font-size: 35px;"">他</p>","e","categorize-html","18","313033","0.0-6.0-1.0-2.0-1.4","4","4","4","4","4","4","4","4","4","4","4","2","3","4","4","4","5","3","4","5","4","3","2","2","3","2","2","2","2","0","0","1","1","0","0","0","1","0","1","1","0","0","1","1","4","1","1","2","2","4","4","3","4","2","680051628862078976","庞","460","","","","","","","","","","","","","","","","","","","true","11","1","moral","655","other","他","","","","","","","","","","","","","","",""
"null","","null","html-keyboard-response","19","313284","0.0-6.0-1.0-2.0-0.5","4","4","4","4","4","4","4","4","4","4","4","2","3","4","4","4","5","3","4","5","4","3","2","2","3","2","2","2","2","0","0","1","1","0","0","0","1","0","1","1","0","0","1","1","4","1","1","2","2","4","4","3","4","2","680051628862078976","庞","460","","","","","","","","","","","","","","","","","","","","","","","","","","","","","","","","","","","","","","","",""
"667","<p style=""color:rgb(150, 250, 100); font-size: 35px;"">他的</p>","e","categorize-html","20","313956","0.0-6.0-1.0-2.0-1.5","4","4","4","4","4","4","4","4","4","4","4","2","3","4","4","4","5","3","4","5","4","3","2","2","3","2","2","2","2","0","0","1","1","0","0","0","1","0","1","1","0","0","1","1","4","1","1","2","2","4","4","3","4","2","680051628862078976","庞","460","","","","","","","","","","","","","","","","","","","true","11","1","moral","667","other","他的","","","","","","","","","","","","","","",""
"null","","null","html-keyboard-response","21","314210","0.0-6.0-1.0-2.0-0.6","4","4","4","4","4","4","4","4","4","4","4","2","3","4","4","4","5","3","4","5","4","3","2","2","3","2","2","2","2","0","0","1","1","0","0","0","1","0","1","1","0","0","1","1","4","1","1","2","2","4","4","3","4","2","680051628862078976","庞","460","","","","","","","","","","","","","","","","","","","","","","","","","","","","","","","","","","","","","","","",""
"599","<p style=""color:rgb(150, 250, 100); font-size: 35px;"">自己</p>","i","categorize-html","22","314811","0.0-6.0-1.0-2.0-1.6","4","4","4","4","4","4","4","4","4","4","4","2","3","4","4","4","5","3","4","5","4","3","2","2","3","2","2","2","2","0","0","1","1","0","0","0","1","0","1","1","0","0","1","1","4","1","1","2","2","4","4","3","4","2","680051628862078976","庞","460","","","","","","","","","","","","","","","","","","","true","11","1","moral","599","self","自己","","","","","","","","","","","","","","",""
"null","","null","html-keyboard-response","23","315068","0.0-6.0-1.0-2.0-0.7","4","4","4","4","4","4","4","4","4","4","4","2","3","4","4","4","5","3","4","5","4","3","2","2","3","2","2","2","2","0","0","1","1","0","0","0","1","0","1","1","0","0","1","1","4","1","1","2","2","4","4","3","4","2","680051628862078976","庞","460","","","","","","","","","","","","","","","","","","","","","","","","","","","","","","","","","","","","","","","",""
"752","<p style=""color:rgb(150, 250, 100); font-size: 35px;"">别人的</p>","e","categorize-html","24","315825","0.0-6.0-1.0-2.0-1.7","4","4","4","4","4","4","4","4","4","4","4","2","3","4","4","4","5","3","4","5","4","3","2","2","3","2","2","2","2","0","0","1","1","0","0","0","1","0","1","1","0","0","1","1","4","1","1","2","2","4","4","3","4","2","680051628862078976","庞","460","","","","","","","","","","","","","","","","","","","true","11","1","moral","752","other","别人的","","","","","","","","","","","","","","",""
"null","","null","html-keyboard-response","25","316080","0.0-6.0-1.0-2.0-0.8","4","4","4","4","4","4","4","4","4","4","4","2","3","4","4","4","5","3","4","5","4","3","2","2","3","2","2","2","2","0","0","1","1","0","0","0","1","0","1","1","0","0","1","1","4","1","1","2","2","4","4","3","4","2","680051628862078976","庞","460","","","","","","","","","","","","","","","","","","","","","","","","","","","","","","","","","","","","","","","",""
"853","<p style=""color:rgb(150, 250, 100); font-size: 35px;"">他人</p>","e","categorize-html","26","316938","0.0-6.0-1.0-2.0-1.8","4","4","4","4","4","4","4","4","4","4","4","2","3","4","4","4","5","3","4","5","4","3","2","2","3","2","2","2","2","0","0","1","1","0","0","0","1","0","1","1","0","0","1","1","4","1","1","2","2","4","4","3","4","2","680051628862078976","庞","460","","","","","","","","","","","","","","","","","","","true","11","1","moral","853","other","他人","","","","","","","","","","","","","","",""
"null","","null","html-keyboard-response","27","317192","0.0-6.0-1.0-2.0-0.9","4","4","4","4","4","4","4","4","4","4","4","2","3","4","4","4","5","3","4","5","4","3","2","2","3","2","2","2","2","0","0","1","1","0","0","0","1","0","1","1","0","0","1","1","4","1","1","2","2","4","4","3","4","2","680051628862078976","庞","460","","","","","","","","","","","","","","","","","","","","","","","","","","","","","","","","","","","","","","","",""
"510","<p style=""color:rgb(150, 250, 100); font-size: 35px;"">我的</p>","i","categorize-html","28","317708","0.0-6.0-1.0-2.0-1.9","4","4","4","4","4","4","4","4","4","4","4","2","3","4","4","4","5","3","4","5","4","3","2","2","3","2","2","2","2","0","0","1","1","0","0","0","1","0","1","1","0","0","1","1","4","1","1","2","2","4","4","3","4","2","680051628862078976","庞","460","","","","","","","","","","","","","","","","","","","true","11","1","moral","510","self","我的","","","","","","","","","","","","","","",""
"null","","null","html-keyboard-response","29","317962","0.0-6.0-1.0-2.0-0.10","4","4","4","4","4","4","4","4","4","4","4","2","3","4","4","4","5","3","4","5","4","3","2","2","3","2","2","2","2","0","0","1","1","0","0","0","1","0","1","1","0","0","1","1","4","1","1","2","2","4","4","3","4","2","680051628862078976","庞","460","","","","","","","","","","","","","","","","","","","","","","","","","","","","","","","","","","","","","","","",""
"811","<p style=""color:rgb(150, 250, 100); font-size: 35px;"">别人</p>","e","categorize-html","30","318778","0.0-6.0-1.0-2.0-1.10","4","4","4","4","4","4","4","4","4","4","4","2","3","4","4","4","5","3","4","5","4","3","2","2","3","2","2","2","2","0","0","1","1","0","0","0","1","0","1","1","0","0","1","1","4","1","1","2","2","4","4","3","4","2","680051628862078976","庞","460","","","","","","","","","","","","","","","","","","","true","11","1","moral","811","other","别人","","","","","","","","","","","","","","",""
"null","","null","html-keyboard-response","31","319030","0.0-6.0-1.0-2.0-0.11","4","4","4","4","4","4","4","4","4","4","4","2","3","4","4","4","5","3","4","5","4","3","2","2","3","2","2","2","2","0","0","1","1","0","0","0","1","0","1","1","0","0","1","1","4","1","1","2","2","4","4","3","4","2","680051628862078976","庞","460","","","","","","","","","","","","","","","","","","","","","","","","","","","","","","","","","","","","","","","",""
"564","<p style=""color:rgb(150, 250, 100); font-size: 35px;"">自己的</p>","i","categorize-html","32","319599","0.0-6.0-1.0-2.0-1.11","4","4","4","4","4","4","4","4","4","4","4","2","3","4","4","4","5","3","4","5","4","3","2","2","3","2","2","2","2","0","0","1","1","0","0","0","1","0","1","1","0","0","1","1","4","1","1","2","2","4","4","3","4","2","680051628862078976","庞","460","","","","","","","","","","","","","","","","","","","true","11","1","moral","564","self","自己的","","","","","","","","","","","","","","",""
"7349","
    <div class=""tag-bottom""><p>
    —— 任务2：对“积极”词和“消极”词分类 ——<p/>   
    <span style=""color:#78DCE8""><b>注意上方，类别标签和需要分类的词语都已经改变</b></span><p/>
    <span style=""color:#FFD866""><b>请根据上方标签的提示，尽可能正确并且快速地做出按键反应</b></span><p/>
    当按键错误时屏幕中会出现<span style=""color:red""> X </span>，需要按另一个键纠正才能继续<br/><p/>
    请把双手食指分别放在键盘的“E”键和“I”键上<p/>
    按<空格键>开始
    </p></div>"," ","html-keyboard-response","33","326949","0.0-6.0-1.0-3.0","4","4","4","4","4","4","4","4","4","4","4","2","3","4","4","4","5","3","4","5","4","3","2","2","3","2","2","2","2","0","0","1","1","0","0","0","1","0","1","1","0","0","1","1","4","1","1","2","2","4","4","3","4","2","680051628862078976","庞","460","","","","","","","","","","","","","","","","","","","","","","","","","","","","","","","","","","","","","","","",""
"null","","null","html-keyboard-response","34","327213","0.0-6.0-1.0-4.0-0.0","4","4","4","4","4","4","4","4","4","4","4","2","3","4","4","4","5","3","4","5","4","3","2","2","3","2","2","2","2","0","0","1","1","0","0","0","1","0","1","1","0","0","1","1","4","1","1","2","2","4","4","3","4","2","680051628862078976","庞","460","","","","","","","","","","","","","","","","","","","","","","","","","","","","","","","","","","","","","","","",""
"1080","<p style=""color:white; font-size: 35px;"">缺德</p>","i","categorize-html","35","328299","0.0-6.0-1.0-4.0-1.0","4","4","4","4","4","4","4","4","4","4","4","2","3","4","4","4","5","3","4","5","4","3","2","2","3","2","2","2","2","0","0","1","1","0","0","0","1","0","1","1","0","0","1","1","4","1","1","2","2","4","4","3","4","2","680051628862078976","庞","460","","","","","","","","","","","","","","","","","","","true","12","2","moral","1080","negative","缺德","","","","","","","","","","","","","","",""
"null","","null","html-keyboard-response","36","328551","0.0-6.0-1.0-4.0-0.1","4","4","4","4","4","4","4","4","4","4","4","2","3","4","4","4","5","3","4","5","4","3","2","2","3","2","2","2","2","0","0","1","1","0","0","0","1","0","1","1","0","0","1","1","4","1","1","2","2","4","4","3","4","2","680051628862078976","庞","460","","","","","","","","","","","","","","","","","","","","","","","","","","","","","","","","","","","","","","","",""
"642","<p style=""color:white; font-size: 35px;"">不仁</p>","i","categorize-html","37","329198","0.0-6.0-1.0-4.0-1.1","4","4","4","4","4","4","4","4","4","4","4","2","3","4","4","4","5","3","4","5","4","3","2","2","3","2","2","2","2","0","0","1","1","0","0","0","1","0","1","1","0","0","1","1","4","1","1","2","2","4","4","3","4","2","680051628862078976","庞","460","","","","","","","","","","","","","","","","","","","true","12","2","moral","642","negative","不仁","","","","","","","","","","","","","","",""
"null","","null","html-keyboard-response","38","329452","0.0-6.0-1.0-4.0-0.2","4","4","4","4","4","4","4","4","4","4","4","2","3","4","4","4","5","3","4","5","4","3","2","2","3","2","2","2","2","0","0","1","1","0","0","0","1","0","1","1","0","0","1","1","4","1","1","2","2","4","4","3","4","2","680051628862078976","庞","460","","","","","","","","","","","","","","","","","","","","","","","","","","","","","","","","","","","","","","","",""
"654","<p style=""color:white; font-size: 35px;"">廉正</p>","e","categorize-html","39","330111","0.0-6.0-1.0-4.0-1.2","4","4","4","4","4","4","4","4","4","4","4","2","3","4","4","4","5","3","4","5","4","3","2","2","3","2","2","2","2","0","0","1","1","0","0","0","1","0","1","1","0","0","1","1","4","1","1","2","2","4","4","3","4","2","680051628862078976","庞","460","","","","","","","","","","","","","","","","","","","true","12","2","moral","654","positive","廉正","","","","","","","","","","","","","","",""
"null","","null","html-keyboard-response","40","330365","0.0-6.0-1.0-4.0-0.3","4","4","4","4","4","4","4","4","4","4","4","2","3","4","4","4","5","3","4","5","4","3","2","2","3","2","2","2","2","0","0","1","1","0","0","0","1","0","1","1","0","0","1","1","4","1","1","2","2","4","4","3","4","2","680051628862078976","庞","460","","","","","","","","","","","","","","","","","","","","","","","","","","","","","","","","","","","","","","","",""
"695","<p style=""color:white; font-size: 35px;"">君子</p>","e","categorize-html","41","331065","0.0-6.0-1.0-4.0-1.3","4","4","4","4","4","4","4","4","4","4","4","2","3","4","4","4","5","3","4","5","4","3","2","2","3","2","2","2","2","0","0","1","1","0","0","0","1","0","1","1","0","0","1","1","4","1","1","2","2","4","4","3","4","2","680051628862078976","庞","460","","","","","","","","","","","","","","","","","","","true","12","2","moral","695","positive","君子","","","","","","","","","","","","","","",""
"null","","null","html-keyboard-response","42","331318","0.0-6.0-1.0-4.0-0.4","4","4","4","4","4","4","4","4","4","4","4","2","3","4","4","4","5","3","4","5","4","3","2","2","3","2","2","2","2","0","0","1","1","0","0","0","1","0","1","1","0","0","1","1","4","1","1","2","2","4","4","3","4","2","680051628862078976","庞","460","","","","","","","","","","","","","","","","","","","","","","","","","","","","","","","","","","","","","","","",""
"637","<p style=""color:white; font-size: 35px;"">不孝</p>","i","categorize-html","43","331959","0.0-6.0-1.0-4.0-1.4","4","4","4","4","4","4","4","4","4","4","4","2","3","4","4","4","5","3","4","5","4","3","2","2","3","2","2","2","2","0","0","1","1","0","0","0","1","0","1","1","0","0","1","1","4","1","1","2","2","4","4","3","4","2","680051628862078976","庞","460","","","","","","","","","","","","","","","","","","","true","12","2","moral","637","negative","不孝","","","","","","","","","","","","","","",""
"null","","null","html-keyboard-response","44","332212","0.0-6.0-1.0-4.0-0.5","4","4","4","4","4","4","4","4","4","4","4","2","3","4","4","4","5","3","4","5","4","3","2","2","3","2","2","2","2","0","0","1","1","0","0","0","1","0","1","1","0","0","1","1","4","1","1","2","2","4","4","3","4","2","680051628862078976","庞","460","","","","","","","","","","","","","","","","","","","","","","","","","","","","","","","","","","","","","","","",""
"656","<p style=""color:white; font-size: 35px;"">善良</p>","e","categorize-html","45","332873","0.0-6.0-1.0-4.0-1.5","4","4","4","4","4","4","4","4","4","4","4","2","3","4","4","4","5","3","4","5","4","3","2","2","3","2","2","2","2","0","0","1","1","0","0","0","1","0","1","1","0","0","1","1","4","1","1","2","2","4","4","3","4","2","680051628862078976","庞","460","","","","","","","","","","","","","","","","","","","true","12","2","moral","656","positive","善良","","","","","","","","","","","","","","",""
"null","","null","html-keyboard-response","46","333127","0.0-6.0-1.0-4.0-0.6","4","4","4","4","4","4","4","4","4","4","4","2","3","4","4","4","5","3","4","5","4","3","2","2","3","2","2","2","2","0","0","1","1","0","0","0","1","0","1","1","0","0","1","1","4","1","1","2","2","4","4","3","4","2","680051628862078976","庞","460","","","","","","","","","","","","","","","","","","","","","","","","","","","","","","","","","","","","","","","",""
"620","<p style=""color:white; font-size: 35px;"">诚信</p>","e","categorize-html","47","333751","0.0-6.0-1.0-4.0-1.6","4","4","4","4","4","4","4","4","4","4","4","2","3","4","4","4","5","3","4","5","4","3","2","2","3","2","2","2","2","0","0","1","1","0","0","0","1","0","1","1","0","0","1","1","4","1","1","2","2","4","4","3","4","2","680051628862078976","庞","460","","","","","","","","","","","","","","","","","","","true","12","2","moral","620","positive","诚信","","","","","","","","","","","","","","",""
"null","","null","html-keyboard-response","48","334006","0.0-6.0-1.0-4.0-0.7","4","4","4","4","4","4","4","4","4","4","4","2","3","4","4","4","5","3","4","5","4","3","2","2","3","2","2","2","2","0","0","1","1","0","0","0","1","0","1","1","0","0","1","1","4","1","1","2","2","4","4","3","4","2","680051628862078976","庞","460","","","","","","","","","","","","","","","","","","","","","","","","","","","","","","","","","","","","","","","",""
"613","<p style=""color:white; font-size: 35px;"">正直</p>","e","categorize-html","49","334620","0.0-6.0-1.0-4.0-1.7","4","4","4","4","4","4","4","4","4","4","4","2","3","4","4","4","5","3","4","5","4","3","2","2","3","2","2","2","2","0","0","1","1","0","0","0","1","0","1","1","0","0","1","1","4","1","1","2","2","4","4","3","4","2","680051628862078976","庞","460","","","","","","","","","","","","","","","","","","","true","12","2","moral","613","positive","正直","","","","","","","","","","","","","","",""
"null","","null","html-keyboard-response","50","334872","0.0-6.0-1.0-4.0-0.8","4","4","4","4","4","4","4","4","4","4","4","2","3","4","4","4","5","3","4","5","4","3","2","2","3","2","2","2","2","0","0","1","1","0","0","0","1","0","1","1","0","0","1","1","4","1","1","2","2","4","4","3","4","2","680051628862078976","庞","460","","","","","","","","","","","","","","","","","","","","","","","","","","","","","","","","","","","","","","","",""
"500","<p style=""color:white; font-size: 35px;"">高尚</p>","e","categorize-html","51","335374","0.0-6.0-1.0-4.0-1.8","4","4","4","4","4","4","4","4","4","4","4","2","3","4","4","4","5","3","4","5","4","3","2","2","3","2","2","2","2","0","0","1","1","0","0","0","1","0","1","1","0","0","1","1","4","1","1","2","2","4","4","3","4","2","680051628862078976","庞","460","","","","","","","","","","","","","","","","","","","true","12","2","moral","500","positive","高尚","","","","","","","","","","","","","","",""
"null","","null","html-keyboard-response","52","335630","0.0-6.0-1.0-4.0-0.9","4","4","4","4","4","4","4","4","4","4","4","2","3","4","4","4","5","3","4","5","4","3","2","2","3","2","2","2","2","0","0","1","1","0","0","0","1","0","1","1","0","0","1","1","4","1","1","2","2","4","4","3","4","2","680051628862078976","庞","460","","","","","","","","","","","","","","","","","","","","","","","","","","","","","","","","","","","","","","","",""
"646","<p style=""color:white; font-size: 35px;"">黑心</p>","i","categorize-html","53","336281","0.0-6.0-1.0-4.0-1.9","4","4","4","4","4","4","4","4","4","4","4","2","3","4","4","4","5","3","4","5","4","3","2","2","3","2","2","2","2","0","0","1","1","0","0","0","1","0","1","1","0","0","1","1","4","1","1","2","2","4","4","3","4","2","680051628862078976","庞","460","","","","","","","","","","","","","","","","","","","true","12","2","moral","646","negative","黑心","","","","","","","","","","","","","","",""
"null","","null","html-keyboard-response","54","336545","0.0-6.0-1.0-4.0-0.10","4","4","4","4","4","4","4","4","4","4","4","2","3","4","4","4","5","3","4","5","4","3","2","2","3","2","2","2","2","0","0","1","1","0","0","0","1","0","1","1","0","0","1","1","4","1","1","2","2","4","4","3","4","2","680051628862078976","庞","460","","","","","","","","","","","","","","","","","","","","","","","","","","","","","","","","","","","","","","","",""
"502","<p style=""color:white; font-size: 35px;"">小人</p>","i","categorize-html","55","337051","0.0-6.0-1.0-4.0-1.10","4","4","4","4","4","4","4","4","4","4","4","2","3","4","4","4","5","3","4","5","4","3","2","2","3","2","2","2","2","0","0","1","1","0","0","0","1","0","1","1","0","0","1","1","4","1","1","2","2","4","4","3","4","2","680051628862078976","庞","460","","","","","","","","","","","","","","","","","","","true","12","2","moral","502","negative","小人","","","","","","","","","","","","","","",""
"null","","null","html-keyboard-response","56","337307","0.0-6.0-1.0-4.0-0.11","4","4","4","4","4","4","4","4","4","4","4","2","3","4","4","4","5","3","4","5","4","3","2","2","3","2","2","2","2","0","0","1","1","0","0","0","1","0","1","1","0","0","1","1","4","1","1","2","2","4","4","3","4","2","680051628862078976","庞","460","","","","","","","","","","","","","","","","","","","","","","","","","","","","","","","","","","","","","","","",""
"554","<p style=""color:white; font-size: 35px;"">卑鄙</p>","i","categorize-html","57","337866","0.0-6.0-1.0-4.0-1.11","4","4","4","4","4","4","4","4","4","4","4","2","3","4","4","4","5","3","4","5","4","3","2","2","3","2","2","2","2","0","0","1","1","0","0","0","1","0","1","1","0","0","1","1","4","1","1","2","2","4","4","3","4","2","680051628862078976","庞","460","","","","","","","","","","","","","","","","","","","true","12","2","moral","554","negative","卑鄙","","","","","","","","","","","","","","",""
"10505","
    <div class=""tag-bottom""><p>
    —— 任务3：对“他人/积极”词和“自我/消极”词分类 ——<p/>
    <span style=""color:#78DCE8""><b>注意上方，之前的四类词语将混合在一起交替呈现</b></span><p/>
    <span style=""color:#FFD866""><b>请根据上方标签的提示，尽可能正确并且快速地做出按键反应</b></span><p/>
    当按键错误时屏幕中会出现<span style=""color:red""> X </span>，需要按另一个键纠正才能继续<br/><p/>
    请把双手食指分别放在键盘的“E”键和“I”键上<p/>
    按<空格键>开始
    </p></div>"," ","html-keyboard-response","58","348371","0.0-6.0-1.0-5.0","4","4","4","4","4","4","4","4","4","4","4","2","3","4","4","4","5","3","4","5","4","3","2","2","3","2","2","2","2","0","0","1","1","0","0","0","1","0","1","1","0","0","1","1","4","1","1","2","2","4","4","3","4","2","680051628862078976","庞","460","","","","","","","","","","","","","","","","","","","","","","","","","","","","","","","","","","","","","","","",""
"null","","null","html-keyboard-response","59","348631","0.0-6.0-1.0-6.0-0.0","4","4","4","4","4","4","4","4","4","4","4","2","3","4","4","4","5","3","4","5","4","3","2","2","3","2","2","2","2","0","0","1","1","0","0","0","1","0","1","1","0","0","1","1","4","1","1","2","2","4","4","3","4","2","680051628862078976","庞","460","","","","","","","","","","","","","","","","","","","","","","","","","","","","","","","","","","","","","","","",""
"1005","<p style=""color:rgb(150, 250, 100); font-size: 35px;"">他</p>","e","categorize-html","60","349640","0.0-6.0-1.0-6.0-1.0","4","4","4","4","4","4","4","4","4","4","4","2","3","4","4","4","5","3","4","5","4","3","2","2","3","2","2","2","2","0","0","1","1","0","0","0","1","0","1","1","0","0","1","1","4","1","1","2","2","4","4","3","4","2","680051628862078976","庞","460","","","","","","","","","","","","","","","","","","","true","13","3","moral","1005","other","他","","","","","","","","","","","","","","",""
"null","","null","html-keyboard-response","61","349895","0.0-6.0-1.0-6.0-0.1","4","4","4","4","4","4","4","4","4","4","4","2","3","4","4","4","5","3","4","5","4","3","2","2","3","2","2","2","2","0","0","1","1","0","0","0","1","0","1","1","0","0","1","1","4","1","1","2","2","4","4","3","4","2","680051628862078976","庞","460","","","","","","","","","","","","","","","","","","","","","","","","","","","","","","","","","","","","","","","",""
"3240","<p style=""color:white; font-size: 35px;"">正直</p>","e","categorize-html","62","353140","0.0-6.0-1.0-6.0-1.1","4","4","4","4","4","4","4","4","4","4","4","2","3","4","4","4","5","3","4","5","4","3","2","2","3","2","2","2","2","0","0","1","1","0","0","0","1","0","1","1","0","0","1","1","4","1","1","2","2","4","4","3","4","2","680051628862078976","庞","460","","","","","","","","","","","","","","","","","","","true","13","3","moral","3240","positive","正直","","","","","","","","","","","","","","",""
"null","","null","html-keyboard-response","63","353392","0.0-6.0-1.0-6.0-0.2","4","4","4","4","4","4","4","4","4","4","4","2","3","4","4","4","5","3","4","5","4","3","2","2","3","2","2","2","2","0","0","1","1","0","0","0","1","0","1","1","0","0","1","1","4","1","1","2","2","4","4","3","4","2","680051628862078976","庞","460","","","","","","","","","","","","","","","","","","","","","","","","","","","","","","","","","","","","","","","",""
"856","<p style=""color:rgb(150, 250, 100); font-size: 35px;"">自己</p>","i","categorize-html","64","354250","0.0-6.0-1.0-6.0-1.2","4","4","4","4","4","4","4","4","4","4","4","2","3","4","4","4","5","3","4","5","4","3","2","2","3","2","2","2","2","0","0","1","1","0","0","0","1","0","1","1","0","0","1","1","4","1","1","2","2","4","4","3","4","2","680051628862078976","庞","460","","","","","","","","","","","","","","","","","","","true","13","3","moral","856","self","自己","","","","","","","","","","","","","","",""
"null","","null","html-keyboard-response","65","354506","0.0-6.0-1.0-6.0-0.3","4","4","4","4","4","4","4","4","4","4","4","2","3","4","4","4","5","3","4","5","4","3","2","2","3","2","2","2","2","0","0","1","1","0","0","0","1","0","1","1","0","0","1","1","4","1","1","2","2","4","4","3","4","2","680051628862078976","庞","460","","","","","","","","","","","","","","","","","","","","","","","","","","","","","","","","","","","","","","","",""
"789","<p style=""color:white; font-size: 35px;"">不孝</p>","i","categorize-html","66","355300","0.0-6.0-1.0-6.0-1.3","4","4","4","4","4","4","4","4","4","4","4","2","3","4","4","4","5","3","4","5","4","3","2","2","3","2","2","2","2","0","0","1","1","0","0","0","1","0","1","1","0","0","1","1","4","1","1","2","2","4","4","3","4","2","680051628862078976","庞","460","","","","","","","","","","","","","","","","","","","true","13","3","moral","789","negative","不孝","","","","","","","","","","","","","","",""
"null","","null","html-keyboard-response","67","355553","0.0-6.0-1.0-6.0-0.4","4","4","4","4","4","4","4","4","4","4","4","2","3","4","4","4","5","3","4","5","4","3","2","2","3","2","2","2","2","0","0","1","1","0","0","0","1","0","1","1","0","0","1","1","4","1","1","2","2","4","4","3","4","2","680051628862078976","庞","460","","","","","","","","","","","","","","","","","","","","","","","","","","","","","","","","","","","","","","","",""
"943","<p style=""color:rgb(150, 250, 100); font-size: 35px;"">我</p>","i","categorize-html","68","356501","0.0-6.0-1.0-6.0-1.4","4","4","4","4","4","4","4","4","4","4","4","2","3","4","4","4","5","3","4","5","4","3","2","2","3","2","2","2","2","0","0","1","1","0","0","0","1","0","1","1","0","0","1","1","4","1","1","2","2","4","4","3","4","2","680051628862078976","庞","460","","","","","","","","","","","","","","","","","","","true","13","3","moral","943","self","我","","","","","","","","","","","","","","",""
"null","","null","html-keyboard-response","69","356764","0.0-6.0-1.0-6.0-0.5","4","4","4","4","4","4","4","4","4","4","4","2","3","4","4","4","5","3","4","5","4","3","2","2","3","2","2","2","2","0","0","1","1","0","0","0","1","0","1","1","0","0","1","1","4","1","1","2","2","4","4","3","4","2","680051628862078976","庞","460","","","","","","","","","","","","","","","","","","","","","","","","","","","","","","","","","","","","","","","",""
"587","<p style=""color:white; font-size: 35px;"">不仁</p>","i","categorize-html","70","357356","0.0-6.0-1.0-6.0-1.5","4","4","4","4","4","4","4","4","4","4","4","2","3","4","4","4","5","3","4","5","4","3","2","2","3","2","2","2","2","0","0","1","1","0","0","0","1","0","1","1","0","0","1","1","4","1","1","2","2","4","4","3","4","2","680051628862078976","庞","460","","","","","","","","","","","","","","","","","","","true","13","3","moral","587","negative","不仁","","","","","","","","","","","","","","",""
"null","","null","html-keyboard-response","71","357610","0.0-6.0-1.0-6.0-0.6","4","4","4","4","4","4","4","4","4","4","4","2","3","4","4","4","5","3","4","5","4","3","2","2","3","2","2","2","2","0","0","1","1","0","0","0","1","0","1","1","0","0","1","1","4","1","1","2","2","4","4","3","4","2","680051628862078976","庞","460","","","","","","","","","","","","","","","","","","","","","","","","","","","","","","","","","","","","","","","",""
"1397","<p style=""color:rgb(150, 250, 100); font-size: 35px;"">别人的</p>","e","categorize-html","72","359012","0.0-6.0-1.0-6.0-1.6","4","4","4","4","4","4","4","4","4","4","4","2","3","4","4","4","5","3","4","5","4","3","2","2","3","2","2","2","2","0","0","1","1","0","0","0","1","0","1","1","0","0","1","1","4","1","1","2","2","4","4","3","4","2","680051628862078976","庞","460","","","","","","","","","","","","","","","","","","","true","13","3","moral","1397","other","别人的","","","","","","","","","","","","","","",""
"null","","null","html-keyboard-response","73","359272","0.0-6.0-1.0-6.0-0.7","4","4","4","4","4","4","4","4","4","4","4","2","3","4","4","4","5","3","4","5","4","3","2","2","3","2","2","2","2","0","0","1","1","0","0","0","1","0","1","1","0","0","1","1","4","1","1","2","2","4","4","3","4","2","680051628862078976","庞","460","","","","","","","","","","","","","","","","","","","","","","","","","","","","","","","","","","","","","","","",""
"659","<p style=""color:white; font-size: 35px;"">善良</p>","e","categorize-html","74","359936","0.0-6.0-1.0-6.0-1.7","4","4","4","4","4","4","4","4","4","4","4","2","3","4","4","4","5","3","4","5","4","3","2","2","3","2","2","2","2","0","0","1","1","0","0","0","1","0","1","1","0","0","1","1","4","1","1","2","2","4","4","3","4","2","680051628862078976","庞","460","","","","","","","","","","","","","","","","","","","true","13","3","moral","659","positive","善良","","","","","","","","","","","","","","",""
"null","","null","html-keyboard-response","75","360194","0.0-6.0-1.0-6.0-0.8","4","4","4","4","4","4","4","4","4","4","4","2","3","4","4","4","5","3","4","5","4","3","2","2","3","2","2","2","2","0","0","1","1","0","0","0","1","0","1","1","0","0","1","1","4","1","1","2","2","4","4","3","4","2","680051628862078976","庞","460","","","","","","","","","","","","","","","","","","","","","","","","","","","","","","","","","","","","","","","",""
"921","<p style=""color:rgb(150, 250, 100); font-size: 35px;"">本人的</p>","i","categorize-html","76","361121","0.0-6.0-1.0-6.0-1.8","4","4","4","4","4","4","4","4","4","4","4","2","3","4","4","4","5","3","4","5","4","3","2","2","3","2","2","2","2","0","0","1","1","0","0","0","1","0","1","1","0","0","1","1","4","1","1","2","2","4","4","3","4","2","680051628862078976","庞","460","","","","","","","","","","","","","","","","","","","true","13","3","moral","921","self","本人的","","","","","","","","","","","","","","",""
"null","","null","html-keyboard-response","77","361378","0.0-6.0-1.0-6.0-0.9","4","4","4","4","4","4","4","4","4","4","4","2","3","4","4","4","5","3","4","5","4","3","2","2","3","2","2","2","2","0","0","1","1","0","0","0","1","0","1","1","0","0","1","1","4","1","1","2","2","4","4","3","4","2","680051628862078976","庞","460","","","","","","","","","","","","","","","","","","","","","","","","","","","","","","","","","","","","","","","",""
"767","<p style=""color:white; font-size: 35px;"">小人</p>","i","categorize-html","78","362150","0.0-6.0-1.0-6.0-1.9","4","4","4","4","4","4","4","4","4","4","4","2","3","4","4","4","5","3","4","5","4","3","2","2","3","2","2","2","2","0","0","1","1","0","0","0","1","0","1","1","0","0","1","1","4","1","1","2","2","4","4","3","4","2","680051628862078976","庞","460","","","","","","","","","","","","","","","","","","","true","13","3","moral","767","negative","小人","","","","","","","","","","","","","","",""
"null","","null","html-keyboard-response","79","362409","0.0-6.0-1.0-6.0-0.10","4","4","4","4","4","4","4","4","4","4","4","2","3","4","4","4","5","3","4","5","4","3","2","2","3","2","2","2","2","0","0","1","1","0","0","0","1","0","1","1","0","0","1","1","4","1","1","2","2","4","4","3","4","2","680051628862078976","庞","460","","","","","","","","","","","","","","","","","","","","","","","","","","","","","","","","","","","","","","","",""
"815","<p style=""color:rgb(150, 250, 100); font-size: 35px;"">别人</p>","e","categorize-html","80","363229","0.0-6.0-1.0-6.0-1.10","4","4","4","4","4","4","4","4","4","4","4","2","3","4","4","4","5","3","4","5","4","3","2","2","3","2","2","2","2","0","0","1","1","0","0","0","1","0","1","1","0","0","1","1","4","1","1","2","2","4","4","3","4","2","680051628862078976","庞","460","","","","","","","","","","","","","","","","","","","true","13","3","moral","815","other","别人","","","","","","","","","","","","","","",""
"null","","null","html-keyboard-response","81","363482","0.0-6.0-1.0-6.0-0.11","4","4","4","4","4","4","4","4","4","4","4","2","3","4","4","4","5","3","4","5","4","3","2","2","3","2","2","2","2","0","0","1","1","0","0","0","1","0","1","1","0","0","1","1","4","1","1","2","2","4","4","3","4","2","680051628862078976","庞","460","","","","","","","","","","","","","","","","","","","","","","","","","","","","","","","","","","","","","","","",""
"820","<p style=""color:white; font-size: 35px;"">高尚</p>","e","categorize-html","82","364307","0.0-6.0-1.0-6.0-1.11","4","4","4","4","4","4","4","4","4","4","4","2","3","4","4","4","5","3","4","5","4","3","2","2","3","2","2","2","2","0","0","1","1","0","0","0","1","0","1","1","0","0","1","1","4","1","1","2","2","4","4","3","4","2","680051628862078976","庞","460","","","","","","","","","","","","","","","","","","","true","13","3","moral","820","positive","高尚","","","","","","","","","","","","","","",""
"null","","null","html-keyboard-response","83","364574","0.0-6.0-1.0-6.0-0.12","4","4","4","4","4","4","4","4","4","4","4","2","3","4","4","4","5","3","4","5","4","3","2","2","3","2","2","2","2","0","0","1","1","0","0","0","1","0","1","1","0","0","1","1","4","1","1","2","2","4","4","3","4","2","680051628862078976","庞","460","","","","","","","","","","","","","","","","","","","","","","","","","","","","","","","","","","","","","","","",""
"856","<p style=""color:rgb(150, 250, 100); font-size: 35px;"">本人</p>","i","categorize-html","84","365435","0.0-6.0-1.0-6.0-1.12","4","4","4","4","4","4","4","4","4","4","4","2","3","4","4","4","5","3","4","5","4","3","2","2","3","2","2","2","2","0","0","1","1","0","0","0","1","0","1","1","0","0","1","1","4","1","1","2","2","4","4","3","4","2","680051628862078976","庞","460","","","","","","","","","","","","","","","","","","","true","13","3","moral","856","self","本人","","","","","","","","","","","","","","",""
"null","","null","html-keyboard-response","85","365690","0.0-6.0-1.0-6.0-0.13","4","4","4","4","4","4","4","4","4","4","4","2","3","4","4","4","5","3","4","5","4","3","2","2","3","2","2","2","2","0","0","1","1","0","0","0","1","0","1","1","0","0","1","1","4","1","1","2","2","4","4","3","4","2","680051628862078976","庞","460","","","","","","","","","","","","","","","","","","","","","","","","","","","","","","","","","","","","","","","",""
"685","<p style=""color:white; font-size: 35px;"">缺德</p>","i","categorize-html","86","366379","0.0-6.0-1.0-6.0-1.13","4","4","4","4","4","4","4","4","4","4","4","2","3","4","4","4","5","3","4","5","4","3","2","2","3","2","2","2","2","0","0","1","1","0","0","0","1","0","1","1","0","0","1","1","4","1","1","2","2","4","4","3","4","2","680051628862078976","庞","460","","","","","","","","","","","","","","","","","","","true","13","3","moral","685","negative","缺德","","","","","","","","","","","","","","",""
"null","","null","html-keyboard-response","87","366631","0.0-6.0-1.0-6.0-0.14","4","4","4","4","4","4","4","4","4","4","4","2","3","4","4","4","5","3","4","5","4","3","2","2","3","2","2","2","2","0","0","1","1","0","0","0","1","0","1","1","0","0","1","1","4","1","1","2","2","4","4","3","4","2","680051628862078976","庞","460","","","","","","","","","","","","","","","","","","","","","","","","","","","","","","","","","","","","","","","",""
"844","<p style=""color:rgb(150, 250, 100); font-size: 35px;"">他的</p>","e","categorize-html","88","367479","0.0-6.0-1.0-6.0-1.14","4","4","4","4","4","4","4","4","4","4","4","2","3","4","4","4","5","3","4","5","4","3","2","2","3","2","2","2","2","0","0","1","1","0","0","0","1","0","1","1","0","0","1","1","4","1","1","2","2","4","4","3","4","2","680051628862078976","庞","460","","","","","","","","","","","","","","","","","","","true","13","3","moral","844","other","他的","","","","","","","","","","","","","","",""
"null","","null","html-keyboard-response","89","367743","0.0-6.0-1.0-6.0-0.15","4","4","4","4","4","4","4","4","4","4","4","2","3","4","4","4","5","3","4","5","4","3","2","2","3","2","2","2","2","0","0","1","1","0","0","0","1","0","1","1","0","0","1","1","4","1","1","2","2","4","4","3","4","2","680051628862078976","庞","460","","","","","","","","","","","","","","","","","","","","","","","","","","","","","","","","","","","","","","","",""
"630","<p style=""color:white; font-size: 35px;"">君子</p>","e","categorize-html","90","368378","0.0-6.0-1.0-6.0-1.15","4","4","4","4","4","4","4","4","4","4","4","2","3","4","4","4","5","3","4","5","4","3","2","2","3","2","2","2","2","0","0","1","1","0","0","0","1","0","1","1","0","0","1","1","4","1","1","2","2","4","4","3","4","2","680051628862078976","庞","460","","","","","","","","","","","","","","","","","","","true","13","3","moral","630","positive","君子","","","","","","","","","","","","","","",""
"null","","null","html-keyboard-response","91","368633","0.0-6.0-1.0-6.0-0.16","4","4","4","4","4","4","4","4","4","4","4","2","3","4","4","4","5","3","4","5","4","3","2","2","3","2","2","2","2","0","0","1","1","0","0","0","1","0","1","1","0","0","1","1","4","1","1","2","2","4","4","3","4","2","680051628862078976","庞","460","","","","","","","","","","","","","","","","","","","","","","","","","","","","","","","","","","","","","","","",""
"610","<p style=""color:rgb(150, 250, 100); font-size: 35px;"">他人的</p>","e","categorize-html","92","369247","0.0-6.0-1.0-6.0-1.16","4","4","4","4","4","4","4","4","4","4","4","2","3","4","4","4","5","3","4","5","4","3","2","2","3","2","2","2","2","0","0","1","1","0","0","0","1","0","1","1","0","0","1","1","4","1","1","2","2","4","4","3","4","2","680051628862078976","庞","460","","","","","","","","","","","","","","","","","","","true","13","3","moral","610","other","他人的","","","","","","","","","","","","","","",""
"null","","null","html-keyboard-response","93","369505","0.0-6.0-1.0-6.0-0.17","4","4","4","4","4","4","4","4","4","4","4","2","3","4","4","4","5","3","4","5","4","3","2","2","3","2","2","2","2","0","0","1","1","0","0","0","1","0","1","1","0","0","1","1","4","1","1","2","2","4","4","3","4","2","680051628862078976","庞","460","","","","","","","","","","","","","","","","","","","","","","","","","","","","","","","","","","","","","","","",""
"842","<p style=""color:white; font-size: 35px;"">卑鄙</p>","i","categorize-html","94","370352","0.0-6.0-1.0-6.0-1.17","4","4","4","4","4","4","4","4","4","4","4","2","3","4","4","4","5","3","4","5","4","3","2","2","3","2","2","2","2","0","0","1","1","0","0","0","1","0","1","1","0","0","1","1","4","1","1","2","2","4","4","3","4","2","680051628862078976","庞","460","","","","","","","","","","","","","","","","","","","true","13","3","moral","842","negative","卑鄙","","","","","","","","","","","","","","",""
"null","","null","html-keyboard-response","95","370604","0.0-6.0-1.0-6.0-0.18","4","4","4","4","4","4","4","4","4","4","4","2","3","4","4","4","5","3","4","5","4","3","2","2","3","2","2","2","2","0","0","1","1","0","0","0","1","0","1","1","0","0","1","1","4","1","1","2","2","4","4","3","4","2","680051628862078976","庞","460","","","","","","","","","","","","","","","","","","","","","","","","","","","","","","","","","","","","","","","",""
"677","<p style=""color:rgb(150, 250, 100); font-size: 35px;"">我的</p>","i","categorize-html","96","371287","0.0-6.0-1.0-6.0-1.18","4","4","4","4","4","4","4","4","4","4","4","2","3","4","4","4","5","3","4","5","4","3","2","2","3","2","2","2","2","0","0","1","1","0","0","0","1","0","1","1","0","0","1","1","4","1","1","2","2","4","4","3","4","2","680051628862078976","庞","460","","","","","","","","","","","","","","","","","","","true","13","3","moral","677","self","我的","","","","","","","","","","","","","","",""
"null","","null","html-keyboard-response","97","371540","0.0-6.0-1.0-6.0-0.19","4","4","4","4","4","4","4","4","4","4","4","2","3","4","4","4","5","3","4","5","4","3","2","2","3","2","2","2","2","0","0","1","1","0","0","0","1","0","1","1","0","0","1","1","4","1","1","2","2","4","4","3","4","2","680051628862078976","庞","460","","","","","","","","","","","","","","","","","","","","","","","","","","","","","","","","","","","","","","","",""
"1126","<p style=""color:white; font-size: 35px;"">诚信</p>","e","categorize-html","98","372671","0.0-6.0-1.0-6.0-1.19","4","4","4","4","4","4","4","4","4","4","4","2","3","4","4","4","5","3","4","5","4","3","2","2","3","2","2","2","2","0","0","1","1","0","0","0","1","0","1","1","0","0","1","1","4","1","1","2","2","4","4","3","4","2","680051628862078976","庞","460","","","","","","","","","","","","","","","","","","","true","13","3","moral","1126","positive","诚信","","","","","","","","","","","","","","",""
"null","","null","html-keyboard-response","99","372925","0.0-6.0-1.0-6.0-0.20","4","4","4","4","4","4","4","4","4","4","4","2","3","4","4","4","5","3","4","5","4","3","2","2","3","2","2","2","2","0","0","1","1","0","0","0","1","0","1","1","0","0","1","1","4","1","1","2","2","4","4","3","4","2","680051628862078976","庞","460","","","","","","","","","","","","","","","","","","","","","","","","","","","","","","","","","","","","","","","",""
"1192","<p style=""color:rgb(150, 250, 100); font-size: 35px;"">他人</p>","e","categorize-html","100","374122","0.0-6.0-1.0-6.0-1.20","4","4","4","4","4","4","4","4","4","4","4","2","3","4","4","4","5","3","4","5","4","3","2","2","3","2","2","2","2","0","0","1","1","0","0","0","1","0","1","1","0","0","1","1","4","1","1","2","2","4","4","3","4","2","680051628862078976","庞","460","","","","","","","","","","","","","","","","","","","true","13","3","moral","1192","other","他人","","","","","","","","","","","","","","",""
"null","","null","html-keyboard-response","101","374385","0.0-6.0-1.0-6.0-0.21","4","4","4","4","4","4","4","4","4","4","4","2","3","4","4","4","5","3","4","5","4","3","2","2","3","2","2","2","2","0","0","1","1","0","0","0","1","0","1","1","0","0","1","1","4","1","1","2","2","4","4","3","4","2","680051628862078976","庞","460","","","","","","","","","","","","","","","","","","","","","","","","","","","","","","","","","","","","","","","",""
"1327","<p style=""color:white; font-size: 35px;"">黑心</p>","i","categorize-html","102","375718","0.0-6.0-1.0-6.0-1.21","4","4","4","4","4","4","4","4","4","4","4","2","3","4","4","4","5","3","4","5","4","3","2","2","3","2","2","2","2","0","0","1","1","0","0","0","1","0","1","1","0","0","1","1","4","1","1","2","2","4","4","3","4","2","680051628862078976","庞","460","","","","","","","","","","","","","","","","","","","true","13","3","moral","1327","negative","黑心","","","","","","","","","","","","","","",""
"null","","null","html-keyboard-response","103","375975","0.0-6.0-1.0-6.0-0.22","4","4","4","4","4","4","4","4","4","4","4","2","3","4","4","4","5","3","4","5","4","3","2","2","3","2","2","2","2","0","0","1","1","0","0","0","1","0","1","1","0","0","1","1","4","1","1","2","2","4","4","3","4","2","680051628862078976","庞","460","","","","","","","","","","","","","","","","","","","","","","","","","","","","","","","","","","","","","","","",""
"863","<p style=""color:rgb(150, 250, 100); font-size: 35px;"">自己的</p>","i","categorize-html","104","376843","0.0-6.0-1.0-6.0-1.22","4","4","4","4","4","4","4","4","4","4","4","2","3","4","4","4","5","3","4","5","4","3","2","2","3","2","2","2","2","0","0","1","1","0","0","0","1","0","1","1","0","0","1","1","4","1","1","2","2","4","4","3","4","2","680051628862078976","庞","460","","","","","","","","","","","","","","","","","","","true","13","3","moral","863","self","自己的","","","","","","","","","","","","","","",""
"null","","null","html-keyboard-response","105","377098","0.0-6.0-1.0-6.0-0.23","4","4","4","4","4","4","4","4","4","4","4","2","3","4","4","4","5","3","4","5","4","3","2","2","3","2","2","2","2","0","0","1","1","0","0","0","1","0","1","1","0","0","1","1","4","1","1","2","2","4","4","3","4","2","680051628862078976","庞","460","","","","","","","","","","","","","","","","","","","","","","","","","","","","","","","","","","","","","","","",""
"654","<p style=""color:white; font-size: 35px;"">廉正</p>","e","categorize-html","106","377757","0.0-6.0-1.0-6.0-1.23","4","4","4","4","4","4","4","4","4","4","4","2","3","4","4","4","5","3","4","5","4","3","2","2","3","2","2","2","2","0","0","1","1","0","0","0","1","0","1","1","0","0","1","1","4","1","1","2","2","4","4","3","4","2","680051628862078976","庞","460","","","","","","","","","","","","","","","","","","","true","13","3","moral","654","positive","廉正","","","","","","","","","","","","","","",""
"9561","
    <div class=""tag-bottom""><p>
    —— 任务4：对“他人/积极”词和“自我/消极”词分类 ——<p/>
    <span style=""color:#78DCE8""><b>与刚才的任务完全相同，请再次对这四类词语分类</b></span><p/>
    <span style=""color:#FFD866""><b>请根据上方标签的提示，尽可能正确并且快速地做出按键反应</b></span><p/>
    当按键错误时屏幕中会出现<span style=""color:red""> X </span>，需要按另一个键纠正才能继续<br/><p/>
    请把双手食指分别放在键盘的“E”键和“I”键上<p/>
    按<空格键>开始
    </p></div>"," ","html-keyboard-response","107","387319","0.0-6.0-1.0-7.0","4","4","4","4","4","4","4","4","4","4","4","2","3","4","4","4","5","3","4","5","4","3","2","2","3","2","2","2","2","0","0","1","1","0","0","0","1","0","1","1","0","0","1","1","4","1","1","2","2","4","4","3","4","2","680051628862078976","庞","460","","","","","","","","","","","","","","","","","","","","","","","","","","","","","","","","","","","","","","","",""
"null","","null","html-keyboard-response","108","387573","0.0-6.0-1.0-8.0-0.0","4","4","4","4","4","4","4","4","4","4","4","2","3","4","4","4","5","3","4","5","4","3","2","2","3","2","2","2","2","0","0","1","1","0","0","0","1","0","1","1","0","0","1","1","4","1","1","2","2","4","4","3","4","2","680051628862078976","庞","460","","","","","","","","","","","","","","","","","","","","","","","","","","","","","","","","","","","","","","","",""
"943","<p style=""color:rgb(150, 250, 100); font-size: 35px;"">别人的</p>","e","categorize-html","109","388518","0.0-6.0-1.0-8.0-1.0","4","4","4","4","4","4","4","4","4","4","4","2","3","4","4","4","5","3","4","5","4","3","2","2","3","2","2","2","2","0","0","1","1","0","0","0","1","0","1","1","0","0","1","1","4","1","1","2","2","4","4","3","4","2","680051628862078976","庞","460","","","","","","","","","","","","","","","","","","","true","14","4","moral","943","other","别人的","","","","","","","","","","","","","","",""
"null","","null","html-keyboard-response","110","388777","0.0-6.0-1.0-8.0-0.1","4","4","4","4","4","4","4","4","4","4","4","2","3","4","4","4","5","3","4","5","4","3","2","2","3","2","2","2","2","0","0","1","1","0","0","0","1","0","1","1","0","0","1","1","4","1","1","2","2","4","4","3","4","2","680051628862078976","庞","460","","","","","","","","","","","","","","","","","","","","","","","","","","","","","","","","","","","","","","","",""
"713","<p style=""color:white; font-size: 35px;"">黑心</p>","i","categorize-html","111","389495","0.0-6.0-1.0-8.0-1.1","4","4","4","4","4","4","4","4","4","4","4","2","3","4","4","4","5","3","4","5","4","3","2","2","3","2","2","2","2","0","0","1","1","0","0","0","1","0","1","1","0","0","1","1","4","1","1","2","2","4","4","3","4","2","680051628862078976","庞","460","","","","","","","","","","","","","","","","","","","true","14","4","moral","713","negative","黑心","","","","","","","","","","","","","","",""
"null","","null","html-keyboard-response","112","389753","0.0-6.0-1.0-8.0-0.2","4","4","4","4","4","4","4","4","4","4","4","2","3","4","4","4","5","3","4","5","4","3","2","2","3","2","2","2","2","0","0","1","1","0","0","0","1","0","1","1","0","0","1","1","4","1","1","2","2","4","4","3","4","2","680051628862078976","庞","460","","","","","","","","","","","","","","","","","","","","","","","","","","","","","","","","","","","","","","","",""
"843","<p style=""color:rgb(150, 250, 100); font-size: 35px;"">本人</p>","i","categorize-html","113","390602","0.0-6.0-1.0-8.0-1.2","4","4","4","4","4","4","4","4","4","4","4","2","3","4","4","4","5","3","4","5","4","3","2","2","3","2","2","2","2","0","0","1","1","0","0","0","1","0","1","1","0","0","1","1","4","1","1","2","2","4","4","3","4","2","680051628862078976","庞","460","","","","","","","","","","","","","","","","","","","true","14","4","moral","843","self","本人","","","","","","","","","","","","","","",""
"null","","null","html-keyboard-response","114","390857","0.0-6.0-1.0-8.0-0.3","4","4","4","4","4","4","4","4","4","4","4","2","3","4","4","4","5","3","4","5","4","3","2","2","3","2","2","2","2","0","0","1","1","0","0","0","1","0","1","1","0","0","1","1","4","1","1","2","2","4","4","3","4","2","680051628862078976","庞","460","","","","","","","","","","","","","","","","","","","","","","","","","","","","","","","","","","","","","","","",""
"838","<p style=""color:white; font-size: 35px;"">诚信</p>","e","categorize-html","115","391700","0.0-6.0-1.0-8.0-1.3","4","4","4","4","4","4","4","4","4","4","4","2","3","4","4","4","5","3","4","5","4","3","2","2","3","2","2","2","2","0","0","1","1","0","0","0","1","0","1","1","0","0","1","1","4","1","1","2","2","4","4","3","4","2","680051628862078976","庞","460","","","","","","","","","","","","","","","","","","","true","14","4","moral","838","positive","诚信","","","","","","","","","","","","","","",""
"null","","null","html-keyboard-response","116","391954","0.0-6.0-1.0-8.0-0.4","4","4","4","4","4","4","4","4","4","4","4","2","3","4","4","4","5","3","4","5","4","3","2","2","3","2","2","2","2","0","0","1","1","0","0","0","1","0","1","1","0","0","1","1","4","1","1","2","2","4","4","3","4","2","680051628862078976","庞","460","","","","","","","","","","","","","","","","","","","","","","","","","","","","","","","","","","","","","","","",""
"733","<p style=""color:rgb(150, 250, 100); font-size: 35px;"">他人</p>","e","categorize-html","117","392692","0.0-6.0-1.0-8.0-1.4","4","4","4","4","4","4","4","4","4","4","4","2","3","4","4","4","5","3","4","5","4","3","2","2","3","2","2","2","2","0","0","1","1","0","0","0","1","0","1","1","0","0","1","1","4","1","1","2","2","4","4","3","4","2","680051628862078976","庞","460","","","","","","","","","","","","","","","","","","","true","14","4","moral","733","other","他人","","","","","","","","","","","","","","",""
"null","","null","html-keyboard-response","118","392945","0.0-6.0-1.0-8.0-0.5","4","4","4","4","4","4","4","4","4","4","4","2","3","4","4","4","5","3","4","5","4","3","2","2","3","2","2","2","2","0","0","1","1","0","0","0","1","0","1","1","0","0","1","1","4","1","1","2","2","4","4","3","4","2","680051628862078976","庞","460","","","","","","","","","","","","","","","","","","","","","","","","","","","","","","","","","","","","","","","",""
"746","<p style=""color:white; font-size: 35px;"">卑鄙</p>","i","categorize-html","119","393697","0.0-6.0-1.0-8.0-1.5","4","4","4","4","4","4","4","4","4","4","4","2","3","4","4","4","5","3","4","5","4","3","2","2","3","2","2","2","2","0","0","1","1","0","0","0","1","0","1","1","0","0","1","1","4","1","1","2","2","4","4","3","4","2","680051628862078976","庞","460","","","","","","","","","","","","","","","","","","","true","14","4","moral","746","negative","卑鄙","","","","","","","","","","","","","","",""
"null","","null","html-keyboard-response","120","393952","0.0-6.0-1.0-8.0-0.6","4","4","4","4","4","4","4","4","4","4","4","2","3","4","4","4","5","3","4","5","4","3","2","2","3","2","2","2","2","0","0","1","1","0","0","0","1","0","1","1","0","0","1","1","4","1","1","2","2","4","4","3","4","2","680051628862078976","庞","460","","","","","","","","","","","","","","","","","","","","","","","","","","","","","","","","","","","","","","","",""
"715","<p style=""color:rgb(150, 250, 100); font-size: 35px;"">我的</p>","i","categorize-html","121","394672","0.0-6.0-1.0-8.0-1.6","4","4","4","4","4","4","4","4","4","4","4","2","3","4","4","4","5","3","4","5","4","3","2","2","3","2","2","2","2","0","0","1","1","0","0","0","1","0","1","1","0","0","1","1","4","1","1","2","2","4","4","3","4","2","680051628862078976","庞","460","","","","","","","","","","","","","","","","","","","true","14","4","moral","715","self","我的","","","","","","","","","","","","","","",""
"null","","null","html-keyboard-response","122","394931","0.0-6.0-1.0-8.0-0.7","4","4","4","4","4","4","4","4","4","4","4","2","3","4","4","4","5","3","4","5","4","3","2","2","3","2","2","2","2","0","0","1","1","0","0","0","1","0","1","1","0","0","1","1","4","1","1","2","2","4","4","3","4","2","680051628862078976","庞","460","","","","","","","","","","","","","","","","","","","","","","","","","","","","","","","","","","","","","","","",""
"750","<p style=""color:white; font-size: 35px;"">君子</p>","e","categorize-html","123","395686","0.0-6.0-1.0-8.0-1.7","4","4","4","4","4","4","4","4","4","4","4","2","3","4","4","4","5","3","4","5","4","3","2","2","3","2","2","2","2","0","0","1","1","0","0","0","1","0","1","1","0","0","1","1","4","1","1","2","2","4","4","3","4","2","680051628862078976","庞","460","","","","","","","","","","","","","","","","","","","true","14","4","moral","750","positive","君子","","","","","","","","","","","","","","",""
"null","","null","html-keyboard-response","124","395939","0.0-6.0-1.0-8.0-0.8","4","4","4","4","4","4","4","4","4","4","4","2","3","4","4","4","5","3","4","5","4","3","2","2","3","2","2","2","2","0","0","1","1","0","0","0","1","0","1","1","0","0","1","1","4","1","1","2","2","4","4","3","4","2","680051628862078976","庞","460","","","","","","","","","","","","","","","","","","","","","","","","","","","","","","","","","","","","","","","",""
"850","<p style=""color:rgb(150, 250, 100); font-size: 35px;"">他人</p>","e","categorize-html","125","396795","0.0-6.0-1.0-8.0-1.8","4","4","4","4","4","4","4","4","4","4","4","2","3","4","4","4","5","3","4","5","4","3","2","2","3","2","2","2","2","0","0","1","1","0","0","0","1","0","1","1","0","0","1","1","4","1","1","2","2","4","4","3","4","2","680051628862078976","庞","460","","","","","","","","","","","","","","","","","","","true","14","4","moral","850","other","他人","","","","","","","","","","","","","","",""
"null","","null","html-keyboard-response","126","397052","0.0-6.0-1.0-8.0-0.9","4","4","4","4","4","4","4","4","4","4","4","2","3","4","4","4","5","3","4","5","4","3","2","2","3","2","2","2","2","0","0","1","1","0","0","0","1","0","1","1","0","0","1","1","4","1","1","2","2","4","4","3","4","2","680051628862078976","庞","460","","","","","","","","","","","","","","","","","","","","","","","","","","","","","","","","","","","","","","","",""
"797","<p style=""color:white; font-size: 35px;"">正直</p>","e","categorize-html","127","397854","0.0-6.0-1.0-8.0-1.9","4","4","4","4","4","4","4","4","4","4","4","2","3","4","4","4","5","3","4","5","4","3","2","2","3","2","2","2","2","0","0","1","1","0","0","0","1","0","1","1","0","0","1","1","4","1","1","2","2","4","4","3","4","2","680051628862078976","庞","460","","","","","","","","","","","","","","","","","","","true","14","4","moral","797","positive","正直","","","","","","","","","","","","","","",""
"null","","null","html-keyboard-response","128","398109","0.0-6.0-1.0-8.0-0.10","4","4","4","4","4","4","4","4","4","4","4","2","3","4","4","4","5","3","4","5","4","3","2","2","3","2","2","2","2","0","0","1","1","0","0","0","1","0","1","1","0","0","1","1","4","1","1","2","2","4","4","3","4","2","680051628862078976","庞","460","","","","","","","","","","","","","","","","","","","","","","","","","","","","","","","","","","","","","","","",""
"784","<p style=""color:rgb(150, 250, 100); font-size: 35px;"">自己的</p>","i","categorize-html","129","398898","0.0-6.0-1.0-8.0-1.10","4","4","4","4","4","4","4","4","4","4","4","2","3","4","4","4","5","3","4","5","4","3","2","2","3","2","2","2","2","0","0","1","1","0","0","0","1","0","1","1","0","0","1","1","4","1","1","2","2","4","4","3","4","2","680051628862078976","庞","460","","","","","","","","","","","","","","","","","","","true","14","4","moral","784","self","自己的","","","","","","","","","","","","","","",""
"null","","null","html-keyboard-response","130","399150","0.0-6.0-1.0-8.0-0.11","4","4","4","4","4","4","4","4","4","4","4","2","3","4","4","4","5","3","4","5","4","3","2","2","3","2","2","2","2","0","0","1","1","0","0","0","1","0","1","1","0","0","1","1","4","1","1","2","2","4","4","3","4","2","680051628862078976","庞","460","","","","","","","","","","","","","","","","","","","","","","","","","","","","","","","","","","","","","","","",""
"691","<p style=""color:white; font-size: 35px;"">不仁</p>","i","categorize-html","131","399846","0.0-6.0-1.0-8.0-1.11","4","4","4","4","4","4","4","4","4","4","4","2","3","4","4","4","5","3","4","5","4","3","2","2","3","2","2","2","2","0","0","1","1","0","0","0","1","0","1","1","0","0","1","1","4","1","1","2","2","4","4","3","4","2","680051628862078976","庞","460","","","","","","","","","","","","","","","","","","","true","14","4","moral","691","negative","不仁","","","","","","","","","","","","","","",""
"null","","null","html-keyboard-response","132","400100","0.0-6.0-1.0-8.0-0.12","4","4","4","4","4","4","4","4","4","4","4","2","3","4","4","4","5","3","4","5","4","3","2","2","3","2","2","2","2","0","0","1","1","0","0","0","1","0","1","1","0","0","1","1","4","1","1","2","2","4","4","3","4","2","680051628862078976","庞","460","","","","","","","","","","","","","","","","","","","","","","","","","","","","","","","","","","","","","","","",""
"618","<p style=""color:rgb(150, 250, 100); font-size: 35px;"">他的</p>","e","categorize-html","133","400723","0.0-6.0-1.0-8.0-1.12","4","4","4","4","4","4","4","4","4","4","4","2","3","4","4","4","5","3","4","5","4","3","2","2","3","2","2","2","2","0","0","1","1","0","0","0","1","0","1","1","0","0","1","1","4","1","1","2","2","4","4","3","4","2","680051628862078976","庞","460","","","","","","","","","","","","","","","","","","","true","14","4","moral","618","other","他的","","","","","","","","","","","","","","",""
"null","","null","html-keyboard-response","134","400975","0.0-6.0-1.0-8.0-0.13","4","4","4","4","4","4","4","4","4","4","4","2","3","4","4","4","5","3","4","5","4","3","2","2","3","2","2","2","2","0","0","1","1","0","0","0","1","0","1","1","0","0","1","1","4","1","1","2","2","4","4","3","4","2","680051628862078976","庞","460","","","","","","","","","","","","","","","","","","","","","","","","","","","","","","","","","","","","","","","",""
"677","<p style=""color:white; font-size: 35px;"">小人</p>","i","categorize-html","135","401655","0.0-6.0-1.0-8.0-1.13","4","4","4","4","4","4","4","4","4","4","4","2","3","4","4","4","5","3","4","5","4","3","2","2","3","2","2","2","2","0","0","1","1","0","0","0","1","0","1","1","0","0","1","1","4","1","1","2","2","4","4","3","4","2","680051628862078976","庞","460","","","","","","","","","","","","","","","","","","","true","14","4","moral","677","negative","小人","","","","","","","","","","","","","","",""
"null","","null","html-keyboard-response","136","401907","0.0-6.0-1.0-8.0-0.14","4","4","4","4","4","4","4","4","4","4","4","2","3","4","4","4","5","3","4","5","4","3","2","2","3","2","2","2","2","0","0","1","1","0","0","0","1","0","1","1","0","0","1","1","4","1","1","2","2","4","4","3","4","2","680051628862078976","庞","460","","","","","","","","","","","","","","","","","","","","","","","","","","","","","","","","","","","","","","","",""
"670","<p style=""color:rgb(150, 250, 100); font-size: 35px;"">我的</p>","i","categorize-html","137","402582","0.0-6.0-1.0-8.0-1.14","4","4","4","4","4","4","4","4","4","4","4","2","3","4","4","4","5","3","4","5","4","3","2","2","3","2","2","2","2","0","0","1","1","0","0","0","1","0","1","1","0","0","1","1","4","1","1","2","2","4","4","3","4","2","680051628862078976","庞","460","","","","","","","","","","","","","","","","","","","true","14","4","moral","670","self","我的","","","","","","","","","","","","","","",""
"null","","null","html-keyboard-response","138","402834","0.0-6.0-1.0-8.0-0.15","4","4","4","4","4","4","4","4","4","4","4","2","3","4","4","4","5","3","4","5","4","3","2","2","3","2","2","2","2","0","0","1","1","0","0","0","1","0","1","1","0","0","1","1","4","1","1","2","2","4","4","3","4","2","680051628862078976","庞","460","","","","","","","","","","","","","","","","","","","","","","","","","","","","","","","","","","","","","","","",""
"694","<p style=""color:white; font-size: 35px;"">高尚</p>","e","categorize-html","139","403533","0.0-6.0-1.0-8.0-1.15","4","4","4","4","4","4","4","4","4","4","4","2","3","4","4","4","5","3","4","5","4","3","2","2","3","2","2","2","2","0","0","1","1","0","0","0","1","0","1","1","0","0","1","1","4","1","1","2","2","4","4","3","4","2","680051628862078976","庞","460","","","","","","","","","","","","","","","","","","","true","14","4","moral","694","positive","高尚","","","","","","","","","","","","","","",""
"null","","null","html-keyboard-response","140","403790","0.0-6.0-1.0-8.0-0.16","4","4","4","4","4","4","4","4","4","4","4","2","3","4","4","4","5","3","4","5","4","3","2","2","3","2","2","2","2","0","0","1","1","0","0","0","1","0","1","1","0","0","1","1","4","1","1","2","2","4","4","3","4","2","680051628862078976","庞","460","","","","","","","","","","","","","","","","","","","","","","","","","","","","","","","","","","","","","","","",""
"611","<p style=""color:rgb(150, 250, 100); font-size: 35px;"">我</p>","i","categorize-html","141","404404","0.0-6.0-1.0-8.0-1.16","4","4","4","4","4","4","4","4","4","4","4","2","3","4","4","4","5","3","4","5","4","3","2","2","3","2","2","2","2","0","0","1","1","0","0","0","1","0","1","1","0","0","1","1","4","1","1","2","2","4","4","3","4","2","680051628862078976","庞","460","","","","","","","","","","","","","","","","","","","true","14","4","moral","611","self","我","","","","","","","","","","","","","","",""
"null","","null","html-keyboard-response","142","404658","0.0-6.0-1.0-8.0-0.17","4","4","4","4","4","4","4","4","4","4","4","2","3","4","4","4","5","3","4","5","4","3","2","2","3","2","2","2","2","0","0","1","1","0","0","0","1","0","1","1","0","0","1","1","4","1","1","2","2","4","4","3","4","2","680051628862078976","庞","460","","","","","","","","","","","","","","","","","","","","","","","","","","","","","","","","","","","","","","","",""
"1176","<p style=""color:white; font-size: 35px;"">廉正</p>","e","categorize-html","143","405839","0.0-6.0-1.0-8.0-1.17","4","4","4","4","4","4","4","4","4","4","4","2","3","4","4","4","5","3","4","5","4","3","2","2","3","2","2","2","2","0","0","1","1","0","0","0","1","0","1","1","0","0","1","1","4","1","1","2","2","4","4","3","4","2","680051628862078976","庞","460","","","","","","","","","","","","","","","","","","","true","14","4","moral","1176","positive","廉正","","","","","","","","","","","","","","",""
"null","","null","html-keyboard-response","144","406091","0.0-6.0-1.0-8.0-0.18","4","4","4","4","4","4","4","4","4","4","4","2","3","4","4","4","5","3","4","5","4","3","2","2","3","2","2","2","2","0","0","1","1","0","0","0","1","0","1","1","0","0","1","1","4","1","1","2","2","4","4","3","4","2","680051628862078976","庞","460","","","","","","","","","","","","","","","","","","","","","","","","","","","","","","","","","","","","","","","",""
"875","<p style=""color:rgb(150, 250, 100); font-size: 35px;"">他人的</p>","e","categorize-html","145","406971","0.0-6.0-1.0-8.0-1.18","4","4","4","4","4","4","4","4","4","4","4","2","3","4","4","4","5","3","4","5","4","3","2","2","3","2","2","2","2","0","0","1","1","0","0","0","1","0","1","1","0","0","1","1","4","1","1","2","2","4","4","3","4","2","680051628862078976","庞","460","","","","","","","","","","","","","","","","","","","true","14","4","moral","875","other","他人的","","","","","","","","","","","","","","",""
"null","","null","html-keyboard-response","146","407225","0.0-6.0-1.0-8.0-0.19","4","4","4","4","4","4","4","4","4","4","4","2","3","4","4","4","5","3","4","5","4","3","2","2","3","2","2","2","2","0","0","1","1","0","0","0","1","0","1","1","0","0","1","1","4","1","1","2","2","4","4","3","4","2","680051628862078976","庞","460","","","","","","","","","","","","","","","","","","","","","","","","","","","","","","","","","","","","","","","",""
"664","<p style=""color:white; font-size: 35px;"">不孝</p>","i","categorize-html","147","407894","0.0-6.0-1.0-8.0-1.19","4","4","4","4","4","4","4","4","4","4","4","2","3","4","4","4","5","3","4","5","4","3","2","2","3","2","2","2","2","0","0","1","1","0","0","0","1","0","1","1","0","0","1","1","4","1","1","2","2","4","4","3","4","2","680051628862078976","庞","460","","","","","","","","","","","","","","","","","","","true","14","4","moral","664","negative","不孝","","","","","","","","","","","","","","",""
"null","","null","html-keyboard-response","148","408150","0.0-6.0-1.0-8.0-0.20","4","4","4","4","4","4","4","4","4","4","4","2","3","4","4","4","5","3","4","5","4","3","2","2","3","2","2","2","2","0","0","1","1","0","0","0","1","0","1","1","0","0","1","1","4","1","1","2","2","4","4","3","4","2","680051628862078976","庞","460","","","","","","","","","","","","","","","","","","","","","","","","","","","","","","","","","","","","","","","",""
"1271","<p style=""color:rgb(150, 250, 100); font-size: 35px;"">别人的</p>","e","categorize-html","149","409426","0.0-6.0-1.0-8.0-1.20","4","4","4","4","4","4","4","4","4","4","4","2","3","4","4","4","5","3","4","5","4","3","2","2","3","2","2","2","2","0","0","1","1","0","0","0","1","0","1","1","0","0","1","1","4","1","1","2","2","4","4","3","4","2","680051628862078976","庞","460","","","","","","","","","","","","","","","","","","","true","14","4","moral","1271","other","别人的","","","","","","","","","","","","","","",""
"null","","null","html-keyboard-response","150","409678","0.0-6.0-1.0-8.0-0.21","4","4","4","4","4","4","4","4","4","4","4","2","3","4","4","4","5","3","4","5","4","3","2","2","3","2","2","2","2","0","0","1","1","0","0","0","1","0","1","1","0","0","1","1","4","1","1","2","2","4","4","3","4","2","680051628862078976","庞","460","","","","","","","","","","","","","","","","","","","","","","","","","","","","","","","","","","","","","","","",""
"842","<p style=""color:white; font-size: 35px;"">卑鄙</p>","i","categorize-html","151","410524","0.0-6.0-1.0-8.0-1.21","4","4","4","4","4","4","4","4","4","4","4","2","3","4","4","4","5","3","4","5","4","3","2","2","3","2","2","2","2","0","0","1","1","0","0","0","1","0","1","1","0","0","1","1","4","1","1","2","2","4","4","3","4","2","680051628862078976","庞","460","","","","","","","","","","","","","","","","","","","true","14","4","moral","842","negative","卑鄙","","","","","","","","","","","","","","",""
"null","","null","html-keyboard-response","152","410783","0.0-6.0-1.0-8.0-0.22","4","4","4","4","4","4","4","4","4","4","4","2","3","4","4","4","5","3","4","5","4","3","2","2","3","2","2","2","2","0","0","1","1","0","0","0","1","0","1","1","0","0","1","1","4","1","1","2","2","4","4","3","4","2","680051628862078976","庞","460","","","","","","","","","","","","","","","","","","","","","","","","","","","","","","","","","","","","","","","",""
"580","<p style=""color:rgb(150, 250, 100); font-size: 35px;"">我</p>","i","categorize-html","153","411369","0.0-6.0-1.0-8.0-1.22","4","4","4","4","4","4","4","4","4","4","4","2","3","4","4","4","5","3","4","5","4","3","2","2","3","2","2","2","2","0","0","1","1","0","0","0","1","0","1","1","0","0","1","1","4","1","1","2","2","4","4","3","4","2","680051628862078976","庞","460","","","","","","","","","","","","","","","","","","","true","14","4","moral","580","self","我","","","","","","","","","","","","","","",""
"null","","null","html-keyboard-response","154","411620","0.0-6.0-1.0-8.0-0.23","4","4","4","4","4","4","4","4","4","4","4","2","3","4","4","4","5","3","4","5","4","3","2","2","3","2","2","2","2","0","0","1","1","0","0","0","1","0","1","1","0","0","1","1","4","1","1","2","2","4","4","3","4","2","680051628862078976","庞","460","","","","","","","","","","","","","","","","","","","","","","","","","","","","","","","","","","","","","","","",""
"763","<p style=""color:white; font-size: 35px;"">诚信</p>","e","categorize-html","155","412389","0.0-6.0-1.0-8.0-1.23","4","4","4","4","4","4","4","4","4","4","4","2","3","4","4","4","5","3","4","5","4","3","2","2","3","2","2","2","2","0","0","1","1","0","0","0","1","0","1","1","0","0","1","1","4","1","1","2","2","4","4","3","4","2","680051628862078976","庞","460","","","","","","","","","","","","","","","","","","","true","14","4","moral","763","positive","诚信","","","","","","","","","","","","","","",""
"null","","null","html-keyboard-response","156","412641","0.0-6.0-1.0-8.0-0.24","4","4","4","4","4","4","4","4","4","4","4","2","3","4","4","4","5","3","4","5","4","3","2","2","3","2","2","2","2","0","0","1","1","0","0","0","1","0","1","1","0","0","1","1","4","1","1","2","2","4","4","3","4","2","680051628862078976","庞","460","","","","","","","","","","","","","","","","","","","","","","","","","","","","","","","","","","","","","","","",""
"1122","<p style=""color:rgb(150, 250, 100); font-size: 35px;"">他人的</p>","e","categorize-html","157","413768","0.0-6.0-1.0-8.0-1.24","4","4","4","4","4","4","4","4","4","4","4","2","3","4","4","4","5","3","4","5","4","3","2","2","3","2","2","2","2","0","0","1","1","0","0","0","1","0","1","1","0","0","1","1","4","1","1","2","2","4","4","3","4","2","680051628862078976","庞","460","","","","","","","","","","","","","","","","","","","true","14","4","moral","1122","other","他人的","","","","","","","","","","","","","","",""
"null","","null","html-keyboard-response","158","414026","0.0-6.0-1.0-8.0-0.25","4","4","4","4","4","4","4","4","4","4","4","2","3","4","4","4","5","3","4","5","4","3","2","2","3","2","2","2","2","0","0","1","1","0","0","0","1","0","1","1","0","0","1","1","4","1","1","2","2","4","4","3","4","2","680051628862078976","庞","460","","","","","","","","","","","","","","","","","","","","","","","","","","","","","","","","","","","","","","","",""
"747","<p style=""color:white; font-size: 35px;"">缺德</p>","i","categorize-html","159","414777","0.0-6.0-1.0-8.0-1.25","4","4","4","4","4","4","4","4","4","4","4","2","3","4","4","4","5","3","4","5","4","3","2","2","3","2","2","2","2","0","0","1","1","0","0","0","1","0","1","1","0","0","1","1","4","1","1","2","2","4","4","3","4","2","680051628862078976","庞","460","","","","","","","","","","","","","","","","","","","true","14","4","moral","747","negative","缺德","","","","","","","","","","","","","","",""
"null","","null","html-keyboard-response","160","415029","0.0-6.0-1.0-8.0-0.26","4","4","4","4","4","4","4","4","4","4","4","2","3","4","4","4","5","3","4","5","4","3","2","2","3","2","2","2","2","0","0","1","1","0","0","0","1","0","1","1","0","0","1","1","4","1","1","2","2","4","4","3","4","2","680051628862078976","庞","460","","","","","","","","","","","","","","","","","","","","","","","","","","","","","","","","","","","","","","","",""
"805","<p style=""color:rgb(150, 250, 100); font-size: 35px;"">自己</p>","i","categorize-html","161","415839","0.0-6.0-1.0-8.0-1.26","4","4","4","4","4","4","4","4","4","4","4","2","3","4","4","4","5","3","4","5","4","3","2","2","3","2","2","2","2","0","0","1","1","0","0","0","1","0","1","1","0","0","1","1","4","1","1","2","2","4","4","3","4","2","680051628862078976","庞","460","","","","","","","","","","","","","","","","","","","true","14","4","moral","805","self","自己","","","","","","","","","","","","","","",""
"null","","null","html-keyboard-response","162","416095","0.0-6.0-1.0-8.0-0.27","4","4","4","4","4","4","4","4","4","4","4","2","3","4","4","4","5","3","4","5","4","3","2","2","3","2","2","2","2","0","0","1","1","0","0","0","1","0","1","1","0","0","1","1","4","1","1","2","2","4","4","3","4","2","680051628862078976","庞","460","","","","","","","","","","","","","","","","","","","","","","","","","","","","","","","","","","","","","","","",""
"621","<p style=""color:white; font-size: 35px;"">正直</p>","e","categorize-html","163","416721","0.0-6.0-1.0-8.0-1.27","4","4","4","4","4","4","4","4","4","4","4","2","3","4","4","4","5","3","4","5","4","3","2","2","3","2","2","2","2","0","0","1","1","0","0","0","1","0","1","1","0","0","1","1","4","1","1","2","2","4","4","3","4","2","680051628862078976","庞","460","","","","","","","","","","","","","","","","","","","true","14","4","moral","621","positive","正直","","","","","","","","","","","","","","",""
"null","","null","html-keyboard-response","164","416980","0.0-6.0-1.0-8.0-0.28","4","4","4","4","4","4","4","4","4","4","4","2","3","4","4","4","5","3","4","5","4","3","2","2","3","2","2","2","2","0","0","1","1","0","0","0","1","0","1","1","0","0","1","1","4","1","1","2","2","4","4","3","4","2","680051628862078976","庞","460","","","","","","","","","","","","","","","","","","","","","","","","","","","","","","","","","","","","","","","",""
"672","<p style=""color:rgb(150, 250, 100); font-size: 35px;"">自己的</p>","i","categorize-html","165","417655","0.0-6.0-1.0-8.0-1.28","4","4","4","4","4","4","4","4","4","4","4","2","3","4","4","4","5","3","4","5","4","3","2","2","3","2","2","2","2","0","0","1","1","0","0","0","1","0","1","1","0","0","1","1","4","1","1","2","2","4","4","3","4","2","680051628862078976","庞","460","","","","","","","","","","","","","","","","","","","true","14","4","moral","672","self","自己的","","","","","","","","","","","","","","",""
"null","","null","html-keyboard-response","166","417909","0.0-6.0-1.0-8.0-0.29","4","4","4","4","4","4","4","4","4","4","4","2","3","4","4","4","5","3","4","5","4","3","2","2","3","2","2","2","2","0","0","1","1","0","0","0","1","0","1","1","0","0","1","1","4","1","1","2","2","4","4","3","4","2","680051628862078976","庞","460","","","","","","","","","","","","","","","","","","","","","","","","","","","","","","","","","","","","","","","",""
"749","<p style=""color:white; font-size: 35px;"">廉正</p>","e","categorize-html","167","418662","0.0-6.0-1.0-8.0-1.29","4","4","4","4","4","4","4","4","4","4","4","2","3","4","4","4","5","3","4","5","4","3","2","2","3","2","2","2","2","0","0","1","1","0","0","0","1","0","1","1","0","0","1","1","4","1","1","2","2","4","4","3","4","2","680051628862078976","庞","460","","","","","","","","","","","","","","","","","","","true","14","4","moral","749","positive","廉正","","","","","","","","","","","","","","",""
"null","","null","html-keyboard-response","168","418920","0.0-6.0-1.0-8.0-0.30","4","4","4","4","4","4","4","4","4","4","4","2","3","4","4","4","5","3","4","5","4","3","2","2","3","2","2","2","2","0","0","1","1","0","0","0","1","0","1","1","0","0","1","1","4","1","1","2","2","4","4","3","4","2","680051628862078976","庞","460","","","","","","","","","","","","","","","","","","","","","","","","","","","","","","","","","","","","","","","",""
"1140","<p style=""color:rgb(150, 250, 100); font-size: 35px;"">别人</p>","e","categorize-html","169","420065","0.0-6.0-1.0-8.0-1.30","4","4","4","4","4","4","4","4","4","4","4","2","3","4","4","4","5","3","4","5","4","3","2","2","3","2","2","2","2","0","0","1","1","0","0","0","1","0","1","1","0","0","1","1","4","1","1","2","2","4","4","3","4","2","680051628862078976","庞","460","","","","","","","","","","","","","","","","","","","true","14","4","moral","1140","other","别人","","","","","","","","","","","","","","",""
"null","","null","html-keyboard-response","170","420318","0.0-6.0-1.0-8.0-0.31","4","4","4","4","4","4","4","4","4","4","4","2","3","4","4","4","5","3","4","5","4","3","2","2","3","2","2","2","2","0","0","1","1","0","0","0","1","0","1","1","0","0","1","1","4","1","1","2","2","4","4","3","4","2","680051628862078976","庞","460","","","","","","","","","","","","","","","","","","","","","","","","","","","","","","","","","","","","","","","",""
"759","<p style=""color:white; font-size: 35px;"">黑心</p>","i","categorize-html","171","421082","0.0-6.0-1.0-8.0-1.31","4","4","4","4","4","4","4","4","4","4","4","2","3","4","4","4","5","3","4","5","4","3","2","2","3","2","2","2","2","0","0","1","1","0","0","0","1","0","1","1","0","0","1","1","4","1","1","2","2","4","4","3","4","2","680051628862078976","庞","460","","","","","","","","","","","","","","","","","","","true","14","4","moral","759","negative","黑心","","","","","","","","","","","","","","",""
"null","","null","html-keyboard-response","172","421336","0.0-6.0-1.0-8.0-0.32","4","4","4","4","4","4","4","4","4","4","4","2","3","4","4","4","5","3","4","5","4","3","2","2","3","2","2","2","2","0","0","1","1","0","0","0","1","0","1","1","0","0","1","1","4","1","1","2","2","4","4","3","4","2","680051628862078976","庞","460","","","","","","","","","","","","","","","","","","","","","","","","","","","","","","","","","","","","","","","",""
"580","<p style=""color:rgb(150, 250, 100); font-size: 35px;"">自己</p>","i","categorize-html","173","421921","0.0-6.0-1.0-8.0-1.32","4","4","4","4","4","4","4","4","4","4","4","2","3","4","4","4","5","3","4","5","4","3","2","2","3","2","2","2","2","0","0","1","1","0","0","0","1","0","1","1","0","0","1","1","4","1","1","2","2","4","4","3","4","2","680051628862078976","庞","460","","","","","","","","","","","","","","","","","","","true","14","4","moral","580","self","自己","","","","","","","","","","","","","","",""
"null","","null","html-keyboard-response","174","422180","0.0-6.0-1.0-8.0-0.33","4","4","4","4","4","4","4","4","4","4","4","2","3","4","4","4","5","3","4","5","4","3","2","2","3","2","2","2","2","0","0","1","1","0","0","0","1","0","1","1","0","0","1","1","4","1","1","2","2","4","4","3","4","2","680051628862078976","庞","460","","","","","","","","","","","","","","","","","","","","","","","","","","","","","","","","","","","","","","","",""
"613","<p style=""color:white; font-size: 35px;"">君子</p>","e","categorize-html","175","422798","0.0-6.0-1.0-8.0-1.33","4","4","4","4","4","4","4","4","4","4","4","2","3","4","4","4","5","3","4","5","4","3","2","2","3","2","2","2","2","0","0","1","1","0","0","0","1","0","1","1","0","0","1","1","4","1","1","2","2","4","4","3","4","2","680051628862078976","庞","460","","","","","","","","","","","","","","","","","","","true","14","4","moral","613","positive","君子","","","","","","","","","","","","","","",""
"null","","null","html-keyboard-response","176","423053","0.0-6.0-1.0-8.0-0.34","4","4","4","4","4","4","4","4","4","4","4","2","3","4","4","4","5","3","4","5","4","3","2","2","3","2","2","2","2","0","0","1","1","0","0","0","1","0","1","1","0","0","1","1","4","1","1","2","2","4","4","3","4","2","680051628862078976","庞","460","","","","","","","","","","","","","","","","","","","","","","","","","","","","","","","","","","","","","","","",""
"678","<p style=""color:rgb(150, 250, 100); font-size: 35px;"">他的</p>","e","categorize-html","177","423735","0.0-6.0-1.0-8.0-1.34","4","4","4","4","4","4","4","4","4","4","4","2","3","4","4","4","5","3","4","5","4","3","2","2","3","2","2","2","2","0","0","1","1","0","0","0","1","0","1","1","0","0","1","1","4","1","1","2","2","4","4","3","4","2","680051628862078976","庞","460","","","","","","","","","","","","","","","","","","","true","14","4","moral","678","other","他的","","","","","","","","","","","","","","",""
"null","","null","html-keyboard-response","178","423993","0.0-6.0-1.0-8.0-0.35","4","4","4","4","4","4","4","4","4","4","4","2","3","4","4","4","5","3","4","5","4","3","2","2","3","2","2","2","2","0","0","1","1","0","0","0","1","0","1","1","0","0","1","1","4","1","1","2","2","4","4","3","4","2","680051628862078976","庞","460","","","","","","","","","","","","","","","","","","","","","","","","","","","","","","","","","","","","","","","",""
"646","<p style=""color:white; font-size: 35px;"">不孝</p>","i","categorize-html","179","424644","0.0-6.0-1.0-8.0-1.35","4","4","4","4","4","4","4","4","4","4","4","2","3","4","4","4","5","3","4","5","4","3","2","2","3","2","2","2","2","0","0","1","1","0","0","0","1","0","1","1","0","0","1","1","4","1","1","2","2","4","4","3","4","2","680051628862078976","庞","460","","","","","","","","","","","","","","","","","","","true","14","4","moral","646","negative","不孝","","","","","","","","","","","","","","",""
"null","","null","html-keyboard-response","180","424899","0.0-6.0-1.0-8.0-0.36","4","4","4","4","4","4","4","4","4","4","4","2","3","4","4","4","5","3","4","5","4","3","2","2","3","2","2","2","2","0","0","1","1","0","0","0","1","0","1","1","0","0","1","1","4","1","1","2","2","4","4","3","4","2","680051628862078976","庞","460","","","","","","","","","","","","","","","","","","","","","","","","","","","","","","","","","","","","","","","",""
"861","<p style=""color:rgb(150, 250, 100); font-size: 35px;"">别人</p>","e","categorize-html","181","425765","0.0-6.0-1.0-8.0-1.36","4","4","4","4","4","4","4","4","4","4","4","2","3","4","4","4","5","3","4","5","4","3","2","2","3","2","2","2","2","0","0","1","1","0","0","0","1","0","1","1","0","0","1","1","4","1","1","2","2","4","4","3","4","2","680051628862078976","庞","460","","","","","","","","","","","","","","","","","","","true","14","4","moral","861","other","别人","","","","","","","","","","","","","","",""
"null","","null","html-keyboard-response","182","426016","0.0-6.0-1.0-8.0-0.37","4","4","4","4","4","4","4","4","4","4","4","2","3","4","4","4","5","3","4","5","4","3","2","2","3","2","2","2","2","0","0","1","1","0","0","0","1","0","1","1","0","0","1","1","4","1","1","2","2","4","4","3","4","2","680051628862078976","庞","460","","","","","","","","","","","","","","","","","","","","","","","","","","","","","","","","","","","","","","","",""
"729","<p style=""color:white; font-size: 35px;"">缺德</p>","i","categorize-html","183","426749","0.0-6.0-1.0-8.0-1.37","4","4","4","4","4","4","4","4","4","4","4","2","3","4","4","4","5","3","4","5","4","3","2","2","3","2","2","2","2","0","0","1","1","0","0","0","1","0","1","1","0","0","1","1","4","1","1","2","2","4","4","3","4","2","680051628862078976","庞","460","","","","","","","","","","","","","","","","","","","true","14","4","moral","729","negative","缺德","","","","","","","","","","","","","","",""
"null","","null","html-keyboard-response","184","427009","0.0-6.0-1.0-8.0-0.38","4","4","4","4","4","4","4","4","4","4","4","2","3","4","4","4","5","3","4","5","4","3","2","2","3","2","2","2","2","0","0","1","1","0","0","0","1","0","1","1","0","0","1","1","4","1","1","2","2","4","4","3","4","2","680051628862078976","庞","460","","","","","","","","","","","","","","","","","","","","","","","","","","","","","","","","","","","","","","","",""
"670","<p style=""color:rgb(150, 250, 100); font-size: 35px;"">本人的</p>","i","categorize-html","185","427684","0.0-6.0-1.0-8.0-1.38","4","4","4","4","4","4","4","4","4","4","4","2","3","4","4","4","5","3","4","5","4","3","2","2","3","2","2","2","2","0","0","1","1","0","0","0","1","0","1","1","0","0","1","1","4","1","1","2","2","4","4","3","4","2","680051628862078976","庞","460","","","","","","","","","","","","","","","","","","","true","14","4","moral","670","self","本人的","","","","","","","","","","","","","","",""
"null","","null","html-keyboard-response","186","427941","0.0-6.0-1.0-8.0-0.39","4","4","4","4","4","4","4","4","4","4","4","2","3","4","4","4","5","3","4","5","4","3","2","2","3","2","2","2","2","0","0","1","1","0","0","0","1","0","1","1","0","0","1","1","4","1","1","2","2","4","4","3","4","2","680051628862078976","庞","460","","","","","","","","","","","","","","","","","","","","","","","","","","","","","","","","","","","","","","","",""
"741","<p style=""color:white; font-size: 35px;"">善良</p>","e","categorize-html","187","428687","0.0-6.0-1.0-8.0-1.39","4","4","4","4","4","4","4","4","4","4","4","2","3","4","4","4","5","3","4","5","4","3","2","2","3","2","2","2","2","0","0","1","1","0","0","0","1","0","1","1","0","0","1","1","4","1","1","2","2","4","4","3","4","2","680051628862078976","庞","460","","","","","","","","","","","","","","","","","","","true","14","4","moral","741","positive","善良","","","","","","","","","","","","","","",""
"null","","null","html-keyboard-response","188","428942","0.0-6.0-1.0-8.0-0.40","4","4","4","4","4","4","4","4","4","4","4","2","3","4","4","4","5","3","4","5","4","3","2","2","3","2","2","2","2","0","0","1","1","0","0","0","1","0","1","1","0","0","1","1","4","1","1","2","2","4","4","3","4","2","680051628862078976","庞","460","","","","","","","","","","","","","","","","","","","","","","","","","","","","","","","","","","","","","","","",""
"704","<p style=""color:rgb(150, 250, 100); font-size: 35px;"">本人</p>","i","categorize-html","189","429649","0.0-6.0-1.0-8.0-1.40","4","4","4","4","4","4","4","4","4","4","4","2","3","4","4","4","5","3","4","5","4","3","2","2","3","2","2","2","2","0","0","1","1","0","0","0","1","0","1","1","0","0","1","1","4","1","1","2","2","4","4","3","4","2","680051628862078976","庞","460","","","","","","","","","","","","","","","","","","","true","14","4","moral","704","self","本人","","","","","","","","","","","","","","",""
"null","","null","html-keyboard-response","190","429900","0.0-6.0-1.0-8.0-0.41","4","4","4","4","4","4","4","4","4","4","4","2","3","4","4","4","5","3","4","5","4","3","2","2","3","2","2","2","2","0","0","1","1","0","0","0","1","0","1","1","0","0","1","1","4","1","1","2","2","4","4","3","4","2","680051628862078976","庞","460","","","","","","","","","","","","","","","","","","","","","","","","","","","","","","","","","","","","","","","",""
"701","<p style=""color:white; font-size: 35px;"">高尚</p>","e","categorize-html","191","430603","0.0-6.0-1.0-8.0-1.41","4","4","4","4","4","4","4","4","4","4","4","2","3","4","4","4","5","3","4","5","4","3","2","2","3","2","2","2","2","0","0","1","1","0","0","0","1","0","1","1","0","0","1","1","4","1","1","2","2","4","4","3","4","2","680051628862078976","庞","460","","","","","","","","","","","","","","","","","","","true","14","4","moral","701","positive","高尚","","","","","","","","","","","","","","",""
"null","","null","html-keyboard-response","192","430854","0.0-6.0-1.0-8.0-0.42","4","4","4","4","4","4","4","4","4","4","4","2","3","4","4","4","5","3","4","5","4","3","2","2","3","2","2","2","2","0","0","1","1","0","0","0","1","0","1","1","0","0","1","1","4","1","1","2","2","4","4","3","4","2","680051628862078976","庞","460","","","","","","","","","","","","","","","","","","","","","","","","","","","","","","","","","","","","","","","",""
"833","<p style=""color:rgb(150, 250, 100); font-size: 35px;"">他</p>","e","categorize-html","193","431692","0.0-6.0-1.0-8.0-1.42","4","4","4","4","4","4","4","4","4","4","4","2","3","4","4","4","5","3","4","5","4","3","2","2","3","2","2","2","2","0","0","1","1","0","0","0","1","0","1","1","0","0","1","1","4","1","1","2","2","4","4","3","4","2","680051628862078976","庞","460","","","","","","","","","","","","","","","","","","","true","14","4","moral","833","other","他","","","","","","","","","","","","","","",""
"null","","null","html-keyboard-response","194","431951","0.0-6.0-1.0-8.0-0.43","4","4","4","4","4","4","4","4","4","4","4","2","3","4","4","4","5","3","4","5","4","3","2","2","3","2","2","2","2","0","0","1","1","0","0","0","1","0","1","1","0","0","1","1","4","1","1","2","2","4","4","3","4","2","680051628862078976","庞","460","","","","","","","","","","","","","","","","","","","","","","","","","","","","","","","","","","","","","","","",""
"714","<p style=""color:white; font-size: 35px;"">不仁</p>","i","categorize-html","195","432668","0.0-6.0-1.0-8.0-1.43","4","4","4","4","4","4","4","4","4","4","4","2","3","4","4","4","5","3","4","5","4","3","2","2","3","2","2","2","2","0","0","1","1","0","0","0","1","0","1","1","0","0","1","1","4","1","1","2","2","4","4","3","4","2","680051628862078976","庞","460","","","","","","","","","","","","","","","","","","","true","14","4","moral","714","negative","不仁","","","","","","","","","","","","","","",""
"null","","null","html-keyboard-response","196","432927","0.0-6.0-1.0-8.0-0.44","4","4","4","4","4","4","4","4","4","4","4","2","3","4","4","4","5","3","4","5","4","3","2","2","3","2","2","2","2","0","0","1","1","0","0","0","1","0","1","1","0","0","1","1","4","1","1","2","2","4","4","3","4","2","680051628862078976","庞","460","","","","","","","","","","","","","","","","","","","","","","","","","","","","","","","","","","","","","","","",""
"1260","<p style=""color:rgb(150, 250, 100); font-size: 35px;"">本人的</p>","i","categorize-html","197","434191","0.0-6.0-1.0-8.0-1.44","4","4","4","4","4","4","4","4","4","4","4","2","3","4","4","4","5","3","4","5","4","3","2","2","3","2","2","2","2","0","0","1","1","0","0","0","1","0","1","1","0","0","1","1","4","1","1","2","2","4","4","3","4","2","680051628862078976","庞","460","","","","","","","","","","","","","","","","","","","true","14","4","moral","1260","self","本人的","","","","","","","","","","","","","","",""
