"rt","stimulus","response","trial_type","trial_index","time_elapsed","internal_node_id","ses_1","ses_2","ses_3","ses_4","ses_5","ses_6","ses_7","ses_8","ses_9","ses_10","coreself_1","coreself_2","coreself_3","coreself_4","coreself_5","coreself_6","coreself_7","coreself_8","coreself_9","coreself_10","SGPS_1","SGPS_2","SGPS_3","SGPS_4","SGPS_5","SGPS_6","SGPS_7","SGPS_8","SGPS_9","NPI1","NPI2","NPI3","NPI4","NPI5","NPI6","NPI7","NPI8","NPI9","NPI10","NPI11","NPI12","NPI13","NPI14","NPI15","hsns_1","hsns_2","hsns_3","hsns_4","hsns_5","hsns_6","hsns_7","hsns_8","hsns_9","hsns_10","subj_idx","friend_name","ParticipantID","value","success","user_agent","responses","item_order","radio_event_ids","radio_event_times","key_event_times","mouse_event_times","straightlining","zigzagging","honeypot","timeout","failed_images","failed_audio","failed_video","view_history","response_type","key_press","avg_frame_time","center_x","center_y","correct_response","correct","identity","Image","word","condition","task_id","screen_id","time_stamp","version_attrib","version_target","IAT","RT","varname","summary","version_attrib2","version_target2","question_order"
"20754","
   <p><div style = ""color: white;font-size:25px;"">您好，欢迎参加本次实验。</div> </p>
   <p><div style = ""color: white;font-size:25px;"">为充分保障您的权利，请确保您已经知晓并同意《参与实验同意书》以及《数据公开知情同意书》。</div></p>
   <p><div style = ""color: white;font-size:25px;"">如果您未见过上述内容，请咨询实验员。</div></p>
   <p><div style = ""color: white;font-size:25px;"">如果您选择继续实验，则表示您已经清楚两份知情同意书的内容并同意。</div></p>
   <p><div style = ""color: red;font-size:30px;"">请确保您记得day0的实验编号，您将在本次实验输入该编号，若您忘记，请咨询实验员后作答。</div></p>
   <p> <div style = ""color: green;font-size:25px;""><按空格键至下页></div> </p>
   "," ","html-keyboard-response","0","20756","0.0-0.0","4","4","4","4","4","4","4","4","4","4","5","5","3","5","4","5","5","5","5","5","1","1","1","1","1","1","1","5","1","0","1","0","0","1","1","0","0","0","0","0","0","0","0","0","5","3","3","1","1","5","3","5","4","1","770428348274053122","刘","20231101","","","","","","","","","","","","","","","","","","","","","","","","","","","","","","","","","","","","","","","",""
"","","","call-function","1","20757","0.0-1.0-0.0","4","4","4","4","4","4","4","4","4","4","5","5","3","5","4","5","5","5","5","5","1","1","1","1","1","1","1","5","1","0","1","0","0","1","1","0","0","0","0","0","0","0","0","0","5","3","3","1","1","5","3","5","4","1","770428348274053122","刘","20231101","","","","","","","","","","","","","","","","","","","","","","","","","","","","","","","","","","","","","","","",""
"332932","","{""friend_name"":""刘"",""ParticipantID"":""20231101""}","survey-html-form","2","353689","0.0-1.0-1.0","4","4","4","4","4","4","4","4","4","4","5","5","3","5","4","5","5","5","5","5","1","1","1","1","1","1","1","5","1","0","1","0","0","1","1","0","0","0","0","0","0","0","0","0","5","3","3","1","1","5","3","5","4","1","770428348274053122","刘","20231101","","","","","","","","","","","","","","","","","","","","","","","","","","","","","","","","","","","","","","","",""
"","","","fullscreen","3","382393","0.0-2.0","4","4","4","4","4","4","4","4","4","4","5","5","3","5","4","5","5","5","5","5","1","1","1","1","1","1","1","5","1","0","1","0","0","1","1","0","0","0","0","0","0","0","0","0","5","3","3","1","1","5","3","5","4","1","770428348274053122","刘","20231101","","true","{}","","","","","","","","","","","","","","","","","","","","","","","","","","","","","","","","","","","","",""
"54871.89999999991","","{""Q01"":""4"",""Q02"":""4"",""Q03"":""4"",""Q04"":""4"",""Q05"":""4"",""Q06"":""4"",""Q07"":""4"",""Q08"":""4"",""Q09"":""4"",""Q10"":""4""}","survey-template","4","437267","0.0-3.0","4","4","4","4","4","4","4","4","4","4","5","5","3","5","4","5","5","5","5","5","1","1","1","1","1","1","1","5","1","0","1","0","0","1","1","0","0","0","0","0","0","0","0","0","5","3","3","1","1","5","3","5","4","1","770428348274053122","刘","20231101","","","","{""Q01"":""4"",""Q02"":""4"",""Q03"":""4"",""Q04"":""4"",""Q05"":""4"",""Q06"":""4"",""Q07"":""4"",""Q08"":""4"",""Q09"":""4"",""Q10"":""4""}","[0,1,2,3,4,5,6,7,8,9]","[""Q01"",""Q02"",""Q03"",""Q04"",""Q05"",""Q06"",""Q07"",""Q08"",""Q09"",""Q10""]","[10722.300000000047,15362.5,23651.399999999907,27003.600000000093,31028.199999999953,37324.69999999995,40709.10000000009,47981.80000000005,50518.10000000009,53062.39999999991]","[]","[10722.300000000047,15362.5,23651.399999999907,27003.600000000093,31028.199999999953,37324.69999999995,40709.10000000009,47981.80000000005,50518.10000000009,53062.39999999991,54870.80000000005]","0.5","0.5555555555555556","0","","","","","","","","","","","","","","","","","","","","","","","","","","","",""
"60506.30000000005","","{""Q01"":""5"",""Q02"":""5"",""Q03"":""3"",""Q04"":""5"",""Q05"":""4"",""Q06"":""5"",""Q07"":""5"",""Q08"":""5"",""Q09"":""5"",""Q10"":""5""}","survey-template","5","497777","0.0-4.0","4","4","4","4","4","4","4","4","4","4","5","5","3","5","4","5","5","5","5","5","1","1","1","1","1","1","1","5","1","0","1","0","0","1","1","0","0","0","0","0","0","0","0","0","5","3","3","1","1","5","3","5","4","1","770428348274053122","刘","20231101","","","","{""Q01"":""5"",""Q02"":""5"",""Q03"":""3"",""Q04"":""5"",""Q05"":""4"",""Q06"":""5"",""Q07"":""5"",""Q08"":""5"",""Q09"":""5"",""Q10"":""5""}","[0,1,2,3,4,5,6,7,8,9]","[""Q01"",""Q02"",""Q03"",""Q04"",""Q05"",""Q06"",""Q07"",""Q08"",""Q09"",""Q10""]","[4995.59999999986,12580,17732.800000000047,21685.09999999986,29341.800000000047,31846.09999999986,46879.69999999995,50872.19999999995,52872.30000000005,58713]","[]","[4995.59999999986,12580,17732.800000000047,21685.09999999986,29341.800000000047,31846.09999999986,46879.69999999995,50872.19999999995,52872.30000000005,58713,60505.09999999986]","0.4","0.4444444444444444","0","","","","","","","","","","","","","","","","","","","","","","","","","","","",""
"","","","preload","6","497990","0.0-5.0","4","4","4","4","4","4","4","4","4","4","5","5","3","5","4","5","5","5","5","5","1","1","1","1","1","1","1","5","1","0","1","0","0","1","1","0","0","0","0","0","0","0","0","0","5","3","3","1","1","5","3","5","4","1","770428348274053122","刘","20231101","","true","","","","","","","","","","","false","[]","[]","[]","","","","","","","","","","","","","","","","","","","","","","","",""
"25205","","","instructions","7","523195","0.0-6.0","4","4","4","4","4","4","4","4","4","4","5","5","3","5","4","5","5","5","5","5","1","1","1","1","1","1","1","5","1","0","1","0","0","1","1","0","0","0","0","0","0","0","0","0","5","3","3","1","1","5","3","5","4","1","770428348274053122","刘","20231101","","","","","","","","","","","","","","","","","[{""page_index"":0,""viewing_time"":25204}]","","","","","","","","","","","","","","","","","","","","","","",""
"97985","","","instructions","8","621181","0.0-7.0-0.0-0.0","4","4","4","4","4","4","4","4","4","4","5","5","3","5","4","5","5","5","5","5","1","1","1","1","1","1","1","5","1","0","1","0","0","1","1","0","0","0","0","0","0","0","0","0","5","3","3","1","1","5","3","5","4","1","770428348274053122","刘","20231101","","","","","","","","","","","","","","","","","[{""page_index"":0,""viewing_time"":90496},{""page_index"":1,""viewing_time"":4768},{""page_index"":2,""viewing_time"":2720}]","","","","","","","","","","","","","","","","","","","","","","",""
"null","","null","psychophysics","9","623386","0.0-7.0-0.0-1.0-0.0-0.0","4","4","4","4","4","4","4","4","4","4","5","5","3","5","4","5","5","5","5","5","1","1","1","1","1","1","1","5","1","0","1","0","0","1","1","0","0","0","0","0","0","0","0","0","5","3","3","1","1","5","3","5","4","1","770428348274053122","刘","20231101","","","","null","","","","","","","","","","","","","","key","null","8.364669201520675","960","536","f","false","nonmatch","img/trapezoid.png","五边","梯形","ALT1_1","prac_ALT1_1","","","","","","","","","",""
"null","<span class='add_' style='color:yellow; font-size: 70px;'> 太慢! </span>","null","html-keyboard-response","10","623887","0.0-7.0-0.0-1.0-0.0-1.0","4","4","4","4","4","4","4","4","4","4","5","5","3","5","4","5","5","5","5","5","1","1","1","1","1","1","1","5","1","0","1","0","0","1","1","0","0","0","0","0","0","0","0","0","5","3","3","1","1","5","3","5","4","1","770428348274053122","刘","20231101","","","","","","","","","","","","","","","","","","","","","","","","","","","","","","feedback_test","","","","","","","","","",""
"null","","null","psychophysics","11","626090","0.0-7.0-0.0-1.0-0.0-0.1","4","4","4","4","4","4","4","4","4","4","5","5","3","5","4","5","5","5","5","5","1","1","1","1","1","1","1","5","1","0","1","0","0","1","1","0","0","0","0","0","0","0","0","0","5","3","3","1","1","5","3","5","4","1","770428348274053122","刘","20231101","","","","null","","","","","","","","","","","","","","key","null","8.332988593155896","960","536","f","false","nonmatch","img/pentagon.png","圆形","五边","ALT1_1","prac_ALT1_1","","","","","","","","","",""
"null","<span class='add_' style='color:yellow; font-size: 70px;'> 太慢! </span>","null","html-keyboard-response","12","626591","0.0-7.0-0.0-1.0-0.0-1.1","4","4","4","4","4","4","4","4","4","4","5","5","3","5","4","5","5","5","5","5","1","1","1","1","1","1","1","5","1","0","1","0","0","1","1","0","0","0","0","0","0","0","0","0","5","3","3","1","1","5","3","5","4","1","770428348274053122","刘","20231101","","","","","","","","","","","","","","","","","","","","","","","","","","","","","","feedback_test","","","","","","","","","",""
"null","","null","psychophysics","13","628792","0.0-7.0-0.0-1.0-0.0-0.2","4","4","4","4","4","4","4","4","4","4","5","5","3","5","4","5","5","5","5","5","1","1","1","1","1","1","1","5","1","0","1","0","0","1","1","0","0","0","0","0","0","0","0","0","5","3","3","1","1","5","3","5","4","1","770428348274053122","刘","20231101","","","","null","","","","","","","","","","","","","","key","null","8.332859315589413","960","536","f","false","nonmatch","img/diamond.png","梯形","菱形","ALT1_1","prac_ALT1_1","","","","","","","","","",""
"null","<span class='add_' style='color:yellow; font-size: 70px;'> 太慢! </span>","null","html-keyboard-response","14","629293","0.0-7.0-0.0-1.0-0.0-1.2","4","4","4","4","4","4","4","4","4","4","5","5","3","5","4","5","5","5","5","5","1","1","1","1","1","1","1","5","1","0","1","0","0","1","1","0","0","0","0","0","0","0","0","0","5","3","3","1","1","5","3","5","4","1","770428348274053122","刘","20231101","","","","","","","","","","","","","","","","","","","","","","","","","","","","","","feedback_test","","","","","","","","","",""
"null","","null","psychophysics","15","631495","0.0-7.0-0.0-1.0-0.0-0.3","4","4","4","4","4","4","4","4","4","4","5","5","3","5","4","5","5","5","5","5","1","1","1","1","1","1","1","5","1","0","1","0","0","1","1","0","0","0","0","0","0","0","0","0","5","3","3","1","1","5","3","5","4","1","770428348274053122","刘","20231101","","","","null","","","","","","","","","","","","","","key","null","8.364690839695097","960","536","j","false","match","img/diamond.png","菱形","菱形","ALT1_1","prac_ALT1_1","","","","","","","","","",""
"null","<span class='add_' style='color:yellow; font-size: 70px;'> 太慢! </span>","null","html-keyboard-response","16","631996","0.0-7.0-0.0-1.0-0.0-1.3","4","4","4","4","4","4","4","4","4","4","5","5","3","5","4","5","5","5","5","5","1","1","1","1","1","1","1","5","1","0","1","0","0","1","1","0","0","0","0","0","0","0","0","0","5","3","3","1","1","5","3","5","4","1","770428348274053122","刘","20231101","","","","","","","","","","","","","","","","","","","","","","","","","","","","","","feedback_test","","","","","","","","","",""
"null","","null","psychophysics","17","634198","0.0-7.0-0.0-1.0-0.0-0.4","4","4","4","4","4","4","4","4","4","4","5","5","3","5","4","5","5","5","5","5","1","1","1","1","1","1","1","5","1","0","1","0","0","1","1","0","0","0","0","0","0","0","0","0","5","3","3","1","1","5","3","5","4","1","770428348274053122","刘","20231101","","","","null","","","","","","","","","","","","","","key","null","8.333015209125858","960","536","f","false","nonmatch","img/diamond.png","五边","菱形","ALT1_1","prac_ALT1_1","","","","","","","","","",""
"null","<span class='add_' style='color:yellow; font-size: 70px;'> 太慢! </span>","null","html-keyboard-response","18","634699","0.0-7.0-0.0-1.0-0.0-1.4","4","4","4","4","4","4","4","4","4","4","5","5","3","5","4","5","5","5","5","5","1","1","1","1","1","1","1","5","1","0","1","0","0","1","1","0","0","0","0","0","0","0","0","0","5","3","3","1","1","5","3","5","4","1","770428348274053122","刘","20231101","","","","","","","","","","","","","","","","","","","","","","","","","","","","","","feedback_test","","","","","","","","","",""
"null","","null","psychophysics","19","636902","0.0-7.0-0.0-1.0-0.0-0.5","4","4","4","4","4","4","4","4","4","4","5","5","3","5","4","5","5","5","5","5","1","1","1","1","1","1","1","5","1","0","1","0","0","1","1","0","0","0","0","0","0","0","0","0","5","3","3","1","1","5","3","5","4","1","770428348274053122","刘","20231101","","","","null","","","","","","","","","","","","","","key","null","8.332916349809999","960","536","j","false","match","img/pentagon.png","五边","五边","ALT1_1","prac_ALT1_1","","","","","","","","","",""
"null","<span class='add_' style='color:yellow; font-size: 70px;'> 太慢! </span>","null","html-keyboard-response","20","637403","0.0-7.0-0.0-1.0-0.0-1.5","4","4","4","4","4","4","4","4","4","4","5","5","3","5","4","5","5","5","5","5","1","1","1","1","1","1","1","5","1","0","1","0","0","1","1","0","0","0","0","0","0","0","0","0","5","3","3","1","1","5","3","5","4","1","770428348274053122","刘","20231101","","","","","","","","","","","","","","","","","","","","","","","","","","","","","","feedback_test","","","","","","","","","",""
"null","","null","psychophysics","21","639605","0.0-7.0-0.0-1.0-0.0-0.6","4","4","4","4","4","4","4","4","4","4","5","5","3","5","4","5","5","5","5","5","1","1","1","1","1","1","1","5","1","0","1","0","0","1","1","0","0","0","0","0","0","0","0","0","5","3","3","1","1","5","3","5","4","1","770428348274053122","刘","20231101","","","","null","","","","","","","","","","","","","","key","null","8.332965779467928","960","536","j","false","match","img/circle.png","圆形","圆形","ALT1_1","prac_ALT1_1","","","","","","","","","",""
"null","<span class='add_' style='color:yellow; font-size: 70px;'> 太慢! </span>","null","html-keyboard-response","22","640107","0.0-7.0-0.0-1.0-0.0-1.6","4","4","4","4","4","4","4","4","4","4","5","5","3","5","4","5","5","5","5","5","1","1","1","1","1","1","1","5","1","0","1","0","0","1","1","0","0","0","0","0","0","0","0","0","5","3","3","1","1","5","3","5","4","1","770428348274053122","刘","20231101","","","","","","","","","","","","","","","","","","","","","","","","","","","","","","feedback_test","","","","","","","","","",""
"null","","null","psychophysics","23","642309","0.0-7.0-0.0-1.0-0.0-0.7","4","4","4","4","4","4","4","4","4","4","5","5","3","5","4","5","5","5","5","5","1","1","1","1","1","1","1","5","1","0","1","0","0","1","1","0","0","0","0","0","0","0","0","0","5","3","3","1","1","5","3","5","4","1","770428348274053122","刘","20231101","","","","null","","","","","","","","","","","","","","key","null","8.332813688213035","960","536","j","false","match","img/trapezoid.png","梯形","梯形","ALT1_1","prac_ALT1_1","","","","","","","","","",""
"null","<span class='add_' style='color:yellow; font-size: 70px;'> 太慢! </span>","null","html-keyboard-response","24","642810","0.0-7.0-0.0-1.0-0.0-1.7","4","4","4","4","4","4","4","4","4","4","5","5","3","5","4","5","5","5","5","5","1","1","1","1","1","1","1","5","1","0","1","0","0","1","1","0","0","0","0","0","0","0","0","0","5","3","3","1","1","5","3","5","4","1","770428348274053122","刘","20231101","","","","","","","","","","","","","","","","","","","","","","","","","","","","","","feedback_test","","","","","","","","","",""
"null","","null","psychophysics","25","645013","0.0-7.0-0.0-1.0-0.0-0.8","4","4","4","4","4","4","4","4","4","4","5","5","3","5","4","5","5","5","5","5","1","1","1","1","1","1","1","5","1","0","1","0","0","1","1","0","0","0","0","0","0","0","0","0","5","3","3","1","1","5","3","5","4","1","770428348274053122","刘","20231101","","","","null","","","","","","","","","","","","","","key","null","8.333060836501796","960","536","f","false","nonmatch","img/pentagon.png","梯形","五边","ALT1_1","prac_ALT1_1","","","","","","","","","",""
"null","<span class='add_' style='color:yellow; font-size: 70px;'> 太慢! </span>","null","html-keyboard-response","26","645513","0.0-7.0-0.0-1.0-0.0-1.8","4","4","4","4","4","4","4","4","4","4","5","5","3","5","4","5","5","5","5","5","1","1","1","1","1","1","1","5","1","0","1","0","0","1","1","0","0","0","0","0","0","0","0","0","5","3","3","1","1","5","3","5","4","1","770428348274053122","刘","20231101","","","","","","","","","","","","","","","","","","","","","","","","","","","","","","feedback_test","","","","","","","","","",""
"null","","null","psychophysics","27","647714","0.0-7.0-0.0-1.0-0.0-0.9","4","4","4","4","4","4","4","4","4","4","5","5","3","5","4","5","5","5","5","5","1","1","1","1","1","1","1","5","1","0","1","0","0","1","1","0","0","0","0","0","0","0","0","0","5","3","3","1","1","5","3","5","4","1","770428348274053122","刘","20231101","","","","null","","","","","","","","","","","","","","key","null","8.364786259541626","960","536","f","false","nonmatch","img/diamond.png","圆形","菱形","ALT1_1","prac_ALT1_1","","","","","","","","","",""
"null","<span class='add_' style='color:yellow; font-size: 70px;'> 太慢! </span>","null","html-keyboard-response","28","648216","0.0-7.0-0.0-1.0-0.0-1.9","4","4","4","4","4","4","4","4","4","4","5","5","3","5","4","5","5","5","5","5","1","1","1","1","1","1","1","5","1","0","1","0","0","1","1","0","0","0","0","0","0","0","0","0","5","3","3","1","1","5","3","5","4","1","770428348274053122","刘","20231101","","","","","","","","","","","","","","","","","","","","","","","","","","","","","","feedback_test","","","","","","","","","",""
"null","","null","psychophysics","29","650418","0.0-7.0-0.0-1.0-0.0-0.10","4","4","4","4","4","4","4","4","4","4","5","5","3","5","4","5","5","5","5","5","1","1","1","1","1","1","1","5","1","0","1","0","0","1","1","0","0","0","0","0","0","0","0","0","5","3","3","1","1","5","3","5","4","1","770428348274053122","刘","20231101","","","","null","","","","","","","","","","","","","","key","null","8.332988593155896","960","536","f","false","nonmatch","img/circle.png","五边","圆形","ALT1_1","prac_ALT1_1","","","","","","","","","",""
"null","<span class='add_' style='color:yellow; font-size: 70px;'> 太慢! </span>","null","html-keyboard-response","30","650919","0.0-7.0-0.0-1.0-0.0-1.10","4","4","4","4","4","4","4","4","4","4","5","5","3","5","4","5","5","5","5","5","1","1","1","1","1","1","1","5","1","0","1","0","0","1","1","0","0","0","0","0","0","0","0","0","5","3","3","1","1","5","3","5","4","1","770428348274053122","刘","20231101","","","","","","","","","","","","","","","","","","","","","","","","","","","","","","feedback_test","","","","","","","","","",""
"null","","null","psychophysics","31","653121","0.0-7.0-0.0-1.0-0.0-0.11","4","4","4","4","4","4","4","4","4","4","5","5","3","5","4","5","5","5","5","5","1","1","1","1","1","1","1","5","1","0","1","0","0","1","1","0","0","0","0","0","0","0","0","0","5","3","3","1","1","5","3","5","4","1","770428348274053122","刘","20231101","","","","null","","","","","","","","","","","","","","key","null","8.364393129770622","960","536","f","false","nonmatch","img/trapezoid.png","圆形","梯形","ALT1_1","prac_ALT1_1","","","","","","","","","",""
"null","<span class='add_' style='color:yellow; font-size: 70px;'> 太慢! </span>","null","html-keyboard-response","32","653622","0.0-7.0-0.0-1.0-0.0-1.11","4","4","4","4","4","4","4","4","4","4","5","5","3","5","4","5","5","5","5","5","1","1","1","1","1","1","1","5","1","0","1","0","0","1","1","0","0","0","0","0","0","0","0","0","5","3","3","1","1","5","3","5","4","1","770428348274053122","刘","20231101","","","","","","","","","","","","","","","","","","","","","","","","","","","","","","feedback_test","","","","","","","","","",""
"302","","j","psychophysics","33","654925","0.0-7.0-0.0-1.0-0.0-0.12","4","4","4","4","4","4","4","4","4","4","5","5","3","5","4","5","5","5","5","5","1","1","1","1","1","1","1","5","1","0","1","0","0","1","1","0","0","0","0","0","0","0","0","0","5","3","3","1","1","5","3","5","4","1","770428348274053122","刘","20231101","","","","match","","","","","","","","","","","","","","key","j","8.324522580645016","960","536","j","true","match","img/pentagon.png","五边","五边","ALT1_1","prac_ALT1_1","","","","","","","","","",""
"null","<span style='color:GreenYellow; font-size: 70px;'>正确! </span>","null","html-keyboard-response","34","655426","0.0-7.0-0.0-1.0-0.0-1.12","4","4","4","4","4","4","4","4","4","4","5","5","3","5","4","5","5","5","5","5","1","1","1","1","1","1","1","5","1","0","1","0","0","1","1","0","0","0","0","0","0","0","0","0","5","3","3","1","1","5","3","5","4","1","770428348274053122","刘","20231101","","","","","","","","","","","","","","","","","","","","","","","","","","","","","","feedback_test","","","","","","","","","",""
"365","","f","psychophysics","35","656792","0.0-7.0-0.0-1.0-0.0-0.13","4","4","4","4","4","4","4","4","4","4","5","5","3","5","4","5","5","5","5","5","1","1","1","1","1","1","1","5","1","0","1","0","0","1","1","0","0","0","0","0","0","0","0","0","5","3","3","1","1","5","3","5","4","1","770428348274053122","刘","20231101","","","","nonmatch","","","","","","","","","","","","","","key","f","8.384339506173058","960","536","f","true","nonmatch","img/circle.png","梯形","圆形","ALT1_1","prac_ALT1_1","","","","","","","","","",""
"null","<span style='color:GreenYellow; font-size: 70px;'>正确! </span>","null","html-keyboard-response","36","657293","0.0-7.0-0.0-1.0-0.0-1.13","4","4","4","4","4","4","4","4","4","4","5","5","3","5","4","5","5","5","5","5","1","1","1","1","1","1","1","5","1","0","1","0","0","1","1","0","0","0","0","0","0","0","0","0","5","3","3","1","1","5","3","5","4","1","770428348274053122","刘","20231101","","","","","","","","","","","","","","","","","","","","","","","","","","","","","","feedback_test","","","","","","","","","",""
"259","","j","psychophysics","37","658553","0.0-7.0-0.0-1.0-0.0-0.14","4","4","4","4","4","4","4","4","4","4","5","5","3","5","4","5","5","5","5","5","1","1","1","1","1","1","1","5","1","0","1","0","0","1","1","0","0","0","0","0","0","0","0","0","5","3","3","1","1","5","3","5","4","1","770428348274053122","刘","20231101","","","","match","","","","","","","","","","","","","","key","j","8.333026666666846","960","536","j","true","match","img/trapezoid.png","梯形","梯形","ALT1_1","prac_ALT1_1","","","","","","","","","",""
"null","<span style='color:GreenYellow; font-size: 70px;'>正确! </span>","null","html-keyboard-response","38","659054","0.0-7.0-0.0-1.0-0.0-1.14","4","4","4","4","4","4","4","4","4","4","5","5","3","5","4","5","5","5","5","5","1","1","1","1","1","1","1","5","1","0","1","0","0","1","1","0","0","0","0","0","0","0","0","0","5","3","3","1","1","5","3","5","4","1","770428348274053122","刘","20231101","","","","","","","","","","","","","","","","","","","","","","","","","","","","","","feedback_test","","","","","","","","","",""
"308","","f","psychophysics","39","660363","0.0-7.0-0.0-1.0-0.0-0.15","4","4","4","4","4","4","4","4","4","4","5","5","3","5","4","5","5","5","5","5","1","1","1","1","1","1","1","5","1","0","1","0","0","1","1","0","0","0","0","0","0","0","0","0","5","3","3","1","1","5","3","5","4","1","770428348274053122","刘","20231101","","","","nonmatch","","","","","","","","","","","","","","key","f","8.333166666666212","960","536","f","true","nonmatch","img/pentagon.png","菱形","五边","ALT1_1","prac_ALT1_1","","","","","","","","","",""
"null","<span style='color:GreenYellow; font-size: 70px;'>正确! </span>","null","html-keyboard-response","40","660864","0.0-7.0-0.0-1.0-0.0-1.15","4","4","4","4","4","4","4","4","4","4","5","5","3","5","4","5","5","5","5","5","1","1","1","1","1","1","1","5","1","0","1","0","0","1","1","0","0","0","0","0","0","0","0","0","5","3","3","1","1","5","3","5","4","1","770428348274053122","刘","20231101","","","","","","","","","","","","","","","","","","","","","","","","","","","","","","feedback_test","","","","","","","","","",""
"null","","null","psychophysics","41","663066","0.0-7.0-0.0-1.0-0.0-0.16","4","4","4","4","4","4","4","4","4","4","5","5","3","5","4","5","5","5","5","5","1","1","1","1","1","1","1","5","1","0","1","0","0","1","1","0","0","0","0","0","0","0","0","0","5","3","3","1","1","5","3","5","4","1","770428348274053122","刘","20231101","","","","null","","","","","","","","","","","","","","key","null","8.364702290076432","960","536","j","false","match","img/diamond.png","菱形","菱形","ALT1_1","prac_ALT1_1","","","","","","","","","",""
"null","<span class='add_' style='color:yellow; font-size: 70px;'> 太慢! </span>","null","html-keyboard-response","42","663567","0.0-7.0-0.0-1.0-0.0-1.16","4","4","4","4","4","4","4","4","4","4","5","5","3","5","4","5","5","5","5","5","1","1","1","1","1","1","1","5","1","0","1","0","0","1","1","0","0","0","0","0","0","0","0","0","5","3","3","1","1","5","3","5","4","1","770428348274053122","刘","20231101","","","","","","","","","","","","","","","","","","","","","","","","","","","","","","feedback_test","","","","","","","","","",""
"682","","j","psychophysics","43","665250","0.0-7.0-0.0-1.0-0.0-0.17","4","4","4","4","4","4","4","4","4","4","5","5","3","5","4","5","5","5","5","5","1","1","1","1","1","1","1","5","1","0","1","0","0","1","1","0","0","0","0","0","0","0","0","0","5","3","3","1","1","5","3","5","4","1","770428348274053122","刘","20231101","","","","match","","","","","","","","","","","","","","key","j","8.332935323382713","960","536","j","true","match","img/diamond.png","菱形","菱形","ALT1_1","prac_ALT1_1","","","","","","","","","",""
"null","<span style='color:GreenYellow; font-size: 70px;'>正确! </span>","null","html-keyboard-response","44","665751","0.0-7.0-0.0-1.0-0.0-1.17","4","4","4","4","4","4","4","4","4","4","5","5","3","5","4","5","5","5","5","5","1","1","1","1","1","1","1","5","1","0","1","0","0","1","1","0","0","0","0","0","0","0","0","0","5","3","3","1","1","5","3","5","4","1","770428348274053122","刘","20231101","","","","","","","","","","","","","","","","","","","","","","","","","","","","","","feedback_test","","","","","","","","","",""
"560","","f","psychophysics","45","667312","0.0-7.0-0.0-1.0-0.0-0.18","4","4","4","4","4","4","4","4","4","4","5","5","3","5","4","5","5","5","5","5","1","1","1","1","1","1","1","5","1","0","1","0","0","1","1","0","0","0","0","0","0","0","0","0","5","3","3","1","1","5","3","5","4","1","770428348274053122","刘","20231101","","","","nonmatch","","","","","","","","","","","","","","key","f","8.332865591398164","960","536","j","false","match","img/trapezoid.png","梯形","梯形","ALT1_1","prac_ALT1_1","","","","","","","","","",""
"null","<span style='color:red; font-size: 70px;'>错误! </span>","null","html-keyboard-response","46","667813","0.0-7.0-0.0-1.0-0.0-1.18","4","4","4","4","4","4","4","4","4","4","5","5","3","5","4","5","5","5","5","5","1","1","1","1","1","1","1","5","1","0","1","0","0","1","1","0","0","0","0","0","0","0","0","0","5","3","3","1","1","5","3","5","4","1","770428348274053122","刘","20231101","","","","","","","","","","","","","","","","","","","","","","","","","","","","","","feedback_test","","","","","","","","","",""
"378","","j","psychophysics","47","669192","0.0-7.0-0.0-1.0-0.0-0.19","4","4","4","4","4","4","4","4","4","4","5","5","3","5","4","5","5","5","5","5","1","1","1","1","1","1","1","5","1","0","1","0","0","1","1","0","0","0","0","0","0","0","0","0","5","3","3","1","1","5","3","5","4","1","770428348274053122","刘","20231101","","","","match","","","","","","","","","","","","","","key","j","8.323469512195116","960","536","f","false","nonmatch","img/trapezoid.png","菱形","梯形","ALT1_1","prac_ALT1_1","","","","","","","","","",""
"null","<span style='color:red; font-size: 70px;'>错误! </span>","null","html-keyboard-response","48","669692","0.0-7.0-0.0-1.0-0.0-1.19","4","4","4","4","4","4","4","4","4","4","5","5","3","5","4","5","5","5","5","5","1","1","1","1","1","1","1","5","1","0","1","0","0","1","1","0","0","0","0","0","0","0","0","0","5","3","3","1","1","5","3","5","4","1","770428348274053122","刘","20231101","","","","","","","","","","","","","","","","","","","","","","","","","","","","","","feedback_test","","","","","","","","","",""
"826","","j","psychophysics","49","671519","0.0-7.0-0.0-1.0-0.0-0.20","4","4","4","4","4","4","4","4","4","4","5","5","3","5","4","5","5","5","5","5","1","1","1","1","1","1","1","5","1","0","1","0","0","1","1","0","0","0","0","0","0","0","0","0","5","3","3","1","1","5","3","5","4","1","770428348274053122","刘","20231101","","","","match","","","","","","","","","","","","","","key","j","8.333059633027874","960","536","j","true","match","img/circle.png","圆形","圆形","ALT1_1","prac_ALT1_1","","","","","","","","","",""
"null","<span style='color:GreenYellow; font-size: 70px;'>正确! </span>","null","html-keyboard-response","50","672020","0.0-7.0-0.0-1.0-0.0-1.20","4","4","4","4","4","4","4","4","4","4","5","5","3","5","4","5","5","5","5","5","1","1","1","1","1","1","1","5","1","0","1","0","0","1","1","0","0","0","0","0","0","0","0","0","5","3","3","1","1","5","3","5","4","1","770428348274053122","刘","20231101","","","","","","","","","","","","","","","","","","","","","","","","","","","","","","feedback_test","","","","","","","","","",""
"970","","f","psychophysics","51","673990","0.0-7.0-0.0-1.0-0.0-0.21","4","4","4","4","4","4","4","4","4","4","5","5","3","5","4","5","5","5","5","5","1","1","1","1","1","1","1","5","1","0","1","0","0","1","1","0","0","0","0","0","0","0","0","0","5","3","3","1","1","5","3","5","4","1","770428348274053122","刘","20231101","","","","nonmatch","","","","","","","","","","","","","","key","f","8.33286016949125","960","536","j","false","match","img/circle.png","圆形","圆形","ALT1_1","prac_ALT1_1","","","","","","","","","",""
"null","<span style='color:red; font-size: 70px;'>错误! </span>","null","html-keyboard-response","52","674492","0.0-7.0-0.0-1.0-0.0-1.21","4","4","4","4","4","4","4","4","4","4","5","5","3","5","4","5","5","5","5","5","1","1","1","1","1","1","1","5","1","0","1","0","0","1","1","0","0","0","0","0","0","0","0","0","5","3","3","1","1","5","3","5","4","1","770428348274053122","刘","20231101","","","","","","","","","","","","","","","","","","","","","","","","","","","","","","feedback_test","","","","","","","","","",""
"431","","j","psychophysics","53","675923","0.0-7.0-0.0-1.0-0.0-0.22","4","4","4","4","4","4","4","4","4","4","5","5","3","5","4","5","5","5","5","5","1","1","1","1","1","1","1","5","1","0","1","0","0","1","1","0","0","0","0","0","0","0","0","0","5","3","3","1","1","5","3","5","4","1","770428348274053122","刘","20231101","","","","match","","","","","","","","","","","","","","key","j","8.333058479532044","960","536","j","true","match","img/pentagon.png","五边","五边","ALT1_1","prac_ALT1_1","","","","","","","","","",""
"null","<span style='color:GreenYellow; font-size: 70px;'>正确! </span>","null","html-keyboard-response","54","676424","0.0-7.0-0.0-1.0-0.0-1.22","4","4","4","4","4","4","4","4","4","4","5","5","3","5","4","5","5","5","5","5","1","1","1","1","1","1","1","5","1","0","1","0","0","1","1","0","0","0","0","0","0","0","0","0","5","3","3","1","1","5","3","5","4","1","770428348274053122","刘","20231101","","","","","","","","","","","","","","","","","","","","","","","","","","","","","","feedback_test","","","","","","","","","",""
"null","","null","psychophysics","55","678626","0.0-7.0-0.0-1.0-0.0-0.23","4","4","4","4","4","4","4","4","4","4","5","5","3","5","4","5","5","5","5","5","1","1","1","1","1","1","1","5","1","0","1","0","0","1","1","0","0","0","0","0","0","0","0","0","5","3","3","1","1","5","3","5","4","1","770428348274053122","刘","20231101","","","","null","","","","","","","","","","","","","","key","null","8.332946768061067","960","536","f","false","nonmatch","img/circle.png","菱形","圆形","ALT1_1","prac_ALT1_1","","","","","","","","","",""
"null","<span class='add_' style='color:yellow; font-size: 70px;'> 太慢! </span>","null","html-keyboard-response","56","679127","0.0-7.0-0.0-1.0-0.0-1.23","4","4","4","4","4","4","4","4","4","4","5","5","3","5","4","5","5","5","5","5","1","1","1","1","1","1","1","5","1","0","1","0","0","1","1","0","0","0","0","0","0","0","0","0","5","3","3","1","1","5","3","5","4","1","770428348274053122","刘","20231101","","","","","","","","","","","","","","","","","","","","","","","","","","","","","","feedback_test","","","","","","","","","",""
"null","","null","psychophysics","57","681329","0.0-7.0-0.0-1.0-0.0-0.24","4","4","4","4","4","4","4","4","4","4","5","5","3","5","4","5","5","5","5","5","1","1","1","1","1","1","1","5","1","0","1","0","0","1","1","0","0","0","0","0","0","0","0","0","5","3","3","1","1","5","3","5","4","1","770428348274053122","刘","20231101","","","","null","","","","","","","","","","","","","","key","null","8.332973384030584","960","536","j","false","match","img/circle.png","圆形","圆形","ALT1_1","prac_ALT1_1","","","","","","","","","",""
"null","<span class='add_' style='color:yellow; font-size: 70px;'> 太慢! </span>","null","html-keyboard-response","58","681830","0.0-7.0-0.0-1.0-0.0-1.24","4","4","4","4","4","4","4","4","4","4","5","5","3","5","4","5","5","5","5","5","1","1","1","1","1","1","1","5","1","0","1","0","0","1","1","0","0","0","0","0","0","0","0","0","5","3","3","1","1","5","3","5","4","1","770428348274053122","刘","20231101","","","","","","","","","","","","","","","","","","","","","","","","","","","","","","feedback_test","","","","","","","","","",""
"null","","null","psychophysics","59","684031","0.0-7.0-0.0-1.0-0.0-0.25","4","4","4","4","4","4","4","4","4","4","5","5","3","5","4","5","5","5","5","5","1","1","1","1","1","1","1","5","1","0","1","0","0","1","1","0","0","0","0","0","0","0","0","0","5","3","3","1","1","5","3","5","4","1","770428348274053122","刘","20231101","","","","null","","","","","","","","","","","","","","key","null","8.327950570342386","960","536","f","false","nonmatch","img/circle.png","五边","圆形","ALT1_1","prac_ALT1_1","","","","","","","","","",""
"null","<span class='add_' style='color:yellow; font-size: 70px;'> 太慢! </span>","null","html-keyboard-response","60","684533","0.0-7.0-0.0-1.0-0.0-1.25","4","4","4","4","4","4","4","4","4","4","5","5","3","5","4","5","5","5","5","5","1","1","1","1","1","1","1","5","1","0","1","0","0","1","1","0","0","0","0","0","0","0","0","0","5","3","3","1","1","5","3","5","4","1","770428348274053122","刘","20231101","","","","","","","","","","","","","","","","","","","","","","","","","","","","","","feedback_test","","","","","","","","","",""
"null","","null","psychophysics","61","686735","0.0-7.0-0.0-1.0-0.0-0.26","4","4","4","4","4","4","4","4","4","4","5","5","3","5","4","5","5","5","5","5","1","1","1","1","1","1","1","5","1","0","1","0","0","1","1","0","0","0","0","0","0","0","0","0","5","3","3","1","1","5","3","5","4","1","770428348274053122","刘","20231101","","","","null","","","","","","","","","","","","","","key","null","8.332969581749035","960","536","f","false","nonmatch","img/pentagon.png","圆形","五边","ALT1_1","prac_ALT1_1","","","","","","","","","",""
"null","<span class='add_' style='color:yellow; font-size: 70px;'> 太慢! </span>","null","html-keyboard-response","62","687235","0.0-7.0-0.0-1.0-0.0-1.26","4","4","4","4","4","4","4","4","4","4","5","5","3","5","4","5","5","5","5","5","1","1","1","1","1","1","1","5","1","0","1","0","0","1","1","0","0","0","0","0","0","0","0","0","5","3","3","1","1","5","3","5","4","1","770428348274053122","刘","20231101","","","","","","","","","","","","","","","","","","","","","","","","","","","","","","feedback_test","","","","","","","","","",""
"773","","j","psychophysics","63","689010","0.0-7.0-0.0-1.0-0.0-0.27","4","4","4","4","4","4","4","4","4","4","5","5","3","5","4","5","5","5","5","5","1","1","1","1","1","1","1","5","1","0","1","0","0","1","1","0","0","0","0","0","0","0","0","0","5","3","3","1","1","5","3","5","4","1","770428348274053122","刘","20231101","","","","match","","","","","","","","","","","","","","key","j","8.33305660377362","960","536","j","true","match","img/diamond.png","菱形","菱形","ALT1_1","prac_ALT1_1","","","","","","","","","",""
"null","<span style='color:GreenYellow; font-size: 70px;'>正确! </span>","null","html-keyboard-response","64","689510","0.0-7.0-0.0-1.0-0.0-1.27","4","4","4","4","4","4","4","4","4","4","5","5","3","5","4","5","5","5","5","5","1","1","1","1","1","1","1","5","1","0","1","0","0","1","1","0","0","0","0","0","0","0","0","0","5","3","3","1","1","5","3","5","4","1","770428348274053122","刘","20231101","","","","","","","","","","","","","","","","","","","","","","","","","","","","","","feedback_test","","","","","","","","","",""
"704","","j","psychophysics","65","691215","0.0-7.0-0.0-1.0-0.0-0.28","4","4","4","4","4","4","4","4","4","4","5","5","3","5","4","5","5","5","5","5","1","1","1","1","1","1","1","5","1","0","1","0","0","1","1","0","0","0","0","0","0","0","0","0","5","3","3","1","1","5","3","5","4","1","770428348274053122","刘","20231101","","","","match","","","","","","","","","","","","","","key","j","8.333078431372426","960","536","j","true","match","img/trapezoid.png","梯形","梯形","ALT1_1","prac_ALT1_1","","","","","","","","","",""
"null","<span style='color:GreenYellow; font-size: 70px;'>正确! </span>","null","html-keyboard-response","66","691716","0.0-7.0-0.0-1.0-0.0-1.28","4","4","4","4","4","4","4","4","4","4","5","5","3","5","4","5","5","5","5","5","1","1","1","1","1","1","1","5","1","0","1","0","0","1","1","0","0","0","0","0","0","0","0","0","5","3","3","1","1","5","3","5","4","1","770428348274053122","刘","20231101","","","","","","","","","","","","","","","","","","","","","","","","","","","","","","feedback_test","","","","","","","","","",""
"643","","j","psychophysics","67","693360","0.0-7.0-0.0-1.0-0.0-0.29","4","4","4","4","4","4","4","4","4","4","5","5","3","5","4","5","5","5","5","5","1","1","1","1","1","1","1","5","1","0","1","0","0","1","1","0","0","0","0","0","0","0","0","0","5","3","3","1","1","5","3","5","4","1","770428348274053122","刘","20231101","","","","match","","","","","","","","","","","","","","key","j","8.37529230769246","960","536","f","false","nonmatch","img/trapezoid.png","菱形","梯形","ALT1_1","prac_ALT1_1","","","","","","","","","",""
"null","<span style='color:red; font-size: 70px;'>错误! </span>","null","html-keyboard-response","68","693861","0.0-7.0-0.0-1.0-0.0-1.29","4","4","4","4","4","4","4","4","4","4","5","5","3","5","4","5","5","5","5","5","1","1","1","1","1","1","1","5","1","0","1","0","0","1","1","0","0","0","0","0","0","0","0","0","5","3","3","1","1","5","3","5","4","1","770428348274053122","刘","20231101","","","","","","","","","","","","","","","","","","","","","","","","","","","","","","feedback_test","","","","","","","","","",""
"667","","j","psychophysics","69","695529","0.0-7.0-0.0-1.0-0.0-0.30","4","4","4","4","4","4","4","4","4","4","5","5","3","5","4","5","5","5","5","5","1","1","1","1","1","1","1","5","1","0","1","0","0","1","1","0","0","0","0","0","0","0","0","0","5","3","3","1","1","5","3","5","4","1","770428348274053122","刘","20231101","","","","match","","","","","","","","","","","","","","key","j","8.33305025125629","960","536","j","true","match","img/trapezoid.png","梯形","梯形","ALT1_1","prac_ALT1_1","","","","","","","","","",""
"null","<span style='color:GreenYellow; font-size: 70px;'>正确! </span>","null","html-keyboard-response","70","696030","0.0-7.0-0.0-1.0-0.0-1.30","4","4","4","4","4","4","4","4","4","4","5","5","3","5","4","5","5","5","5","5","1","1","1","1","1","1","1","5","1","0","1","0","0","1","1","0","0","0","0","0","0","0","0","0","5","3","3","1","1","5","3","5","4","1","770428348274053122","刘","20231101","","","","","","","","","","","","","","","","","","","","","","","","","","","","","","feedback_test","","","","","","","","","",""
"702","","j","psychophysics","71","697733","0.0-7.0-0.0-1.0-0.0-0.31","4","4","4","4","4","4","4","4","4","4","5","5","3","5","4","5","5","5","5","5","1","1","1","1","1","1","1","5","1","0","1","0","0","1","1","0","0","0","0","0","0","0","0","0","5","3","3","1","1","5","3","5","4","1","770428348274053122","刘","20231101","","","","match","","","","","","","","","","","","","","key","j","8.3738861386134","960","536","f","false","nonmatch","img/circle.png","梯形","圆形","ALT1_1","prac_ALT1_1","","","","","","","","","",""
"null","<span style='color:red; font-size: 70px;'>错误! </span>","null","html-keyboard-response","72","698234","0.0-7.0-0.0-1.0-0.0-1.31","4","4","4","4","4","4","4","4","4","4","5","5","3","5","4","5","5","5","5","5","1","1","1","1","1","1","1","5","1","0","1","0","0","1","1","0","0","0","0","0","0","0","0","0","5","3","3","1","1","5","3","5","4","1","770428348274053122","刘","20231101","","","","","","","","","","","","","","","","","","","","","","","","","","","","","","feedback_test","","","","","","","","","",""
"null","","null","psychophysics","73","700435","0.0-7.0-0.0-1.0-0.0-0.32","4","4","4","4","4","4","4","4","4","4","5","5","3","5","4","5","5","5","5","5","1","1","1","1","1","1","1","5","1","0","1","0","0","1","1","0","0","0","0","0","0","0","0","0","5","3","3","1","1","5","3","5","4","1","770428348274053122","刘","20231101","","","","null","","","","","","","","","","","","","","key","null","8.333057034220246","960","536","j","false","match","img/pentagon.png","五边","五边","ALT1_1","prac_ALT1_1","","","","","","","","","",""
"null","<span class='add_' style='color:yellow; font-size: 70px;'> 太慢! </span>","null","html-keyboard-response","74","700937","0.0-7.0-0.0-1.0-0.0-1.32","4","4","4","4","4","4","4","4","4","4","5","5","3","5","4","5","5","5","5","5","1","1","1","1","1","1","1","5","1","0","1","0","0","1","1","0","0","0","0","0","0","0","0","0","5","3","3","1","1","5","3","5","4","1","770428348274053122","刘","20231101","","","","","","","","","","","","","","","","","","","","","","","","","","","","","","feedback_test","","","","","","","","","",""
"460","","j","psychophysics","75","702398","0.0-7.0-0.0-1.0-0.0-0.33","4","4","4","4","4","4","4","4","4","4","5","5","3","5","4","5","5","5","5","5","1","1","1","1","1","1","1","5","1","0","1","0","0","1","1","0","0","0","0","0","0","0","0","0","5","3","3","1","1","5","3","5","4","1","770428348274053122","刘","20231101","","","","match","","","","","","","","","","","","","","key","j","8.323511494252692","960","536","f","false","nonmatch","img/circle.png","菱形","圆形","ALT1_1","prac_ALT1_1","","","","","","","","","",""
"null","<span style='color:red; font-size: 70px;'>错误! </span>","null","html-keyboard-response","76","702899","0.0-7.0-0.0-1.0-0.0-1.33","4","4","4","4","4","4","4","4","4","4","5","5","3","5","4","5","5","5","5","5","1","1","1","1","1","1","1","5","1","0","1","0","0","1","1","0","0","0","0","0","0","0","0","0","5","3","3","1","1","5","3","5","4","1","770428348274053122","刘","20231101","","","","","","","","","","","","","","","","","","","","","","","","","","","","","","feedback_test","","","","","","","","","",""
"701","","j","psychophysics","77","704601","0.0-7.0-0.0-1.0-0.0-0.34","4","4","4","4","4","4","4","4","4","4","5","5","3","5","4","5","5","5","5","5","1","1","1","1","1","1","1","5","1","0","1","0","0","1","1","0","0","0","0","0","0","0","0","0","5","3","3","1","1","5","3","5","4","1","770428348274053122","刘","20231101","","","","match","","","","","","","","","","","","","","key","j","8.332980295566365","960","536","f","false","nonmatch","img/trapezoid.png","圆形","梯形","ALT1_1","prac_ALT1_1","","","","","","","","","",""
"null","<span style='color:red; font-size: 70px;'>错误! </span>","null","html-keyboard-response","78","705102","0.0-7.0-0.0-1.0-0.0-1.34","4","4","4","4","4","4","4","4","4","4","5","5","3","5","4","5","5","5","5","5","1","1","1","1","1","1","1","5","1","0","1","0","0","1","1","0","0","0","0","0","0","0","0","0","5","3","3","1","1","5","3","5","4","1","770428348274053122","刘","20231101","","","","","","","","","","","","","","","","","","","","","","","","","","","","","","feedback_test","","","","","","","","","",""
"null","","null","psychophysics","79","707303","0.0-7.0-0.0-1.0-0.0-0.35","4","4","4","4","4","4","4","4","4","4","5","5","3","5","4","5","5","5","5","5","1","1","1","1","1","1","1","5","1","0","1","0","0","1","1","0","0","0","0","0","0","0","0","0","5","3","3","1","1","5","3","5","4","1","770428348274053122","刘","20231101","","","","null","","","","","","","","","","","","","","key","null","8.332969581749035","960","536","f","false","nonmatch","img/trapezoid.png","五边","梯形","ALT1_1","prac_ALT1_1","","","","","","","","","",""
"null","<span class='add_' style='color:yellow; font-size: 70px;'> 太慢! </span>","null","html-keyboard-response","80","707805","0.0-7.0-0.0-1.0-0.0-1.35","4","4","4","4","4","4","4","4","4","4","5","5","3","5","4","5","5","5","5","5","1","1","1","1","1","1","1","5","1","0","1","0","0","1","1","0","0","0","0","0","0","0","0","0","5","3","3","1","1","5","3","5","4","1","770428348274053122","刘","20231101","","","","","","","","","","","","","","","","","","","","","","","","","","","","","","feedback_test","","","","","","","","","",""
"491","","f","psychophysics","81","709297","0.0-7.0-0.0-1.0-0.0-0.36","4","4","4","4","4","4","4","4","4","4","5","5","3","5","4","5","5","5","5","5","1","1","1","1","1","1","1","5","1","0","1","0","0","1","1","0","0","0","0","0","0","0","0","0","5","3","3","1","1","5","3","5","4","1","770428348274053122","刘","20231101","","","","nonmatch","","","","","","","","","","","","","","key","f","8.332994382022068","960","536","j","false","match","img/circle.png","圆形","圆形","ALT1_1","prac_ALT1_1","","","","","","","","","",""
"null","<span style='color:red; font-size: 70px;'>错误! </span>","null","html-keyboard-response","82","709798","0.0-7.0-0.0-1.0-0.0-1.36","4","4","4","4","4","4","4","4","4","4","5","5","3","5","4","5","5","5","5","5","1","1","1","1","1","1","1","5","1","0","1","0","0","1","1","0","0","0","0","0","0","0","0","0","5","3","3","1","1","5","3","5","4","1","770428348274053122","刘","20231101","","","","","","","","","","","","","","","","","","","","","","","","","","","","","","feedback_test","","","","","","","","","",""
"439","","j","psychophysics","83","711238","0.0-7.0-0.0-1.0-0.0-0.37","4","4","4","4","4","4","4","4","4","4","5","5","3","5","4","5","5","5","5","5","1","1","1","1","1","1","1","5","1","0","1","0","0","1","1","0","0","0","0","0","0","0","0","0","5","3","3","1","1","5","3","5","4","1","770428348274053122","刘","20231101","","","","match","","","","","","","","","","","","","","key","j","8.333139534883992","960","536","j","true","match","img/circle.png","圆形","圆形","ALT1_1","prac_ALT1_1","","","","","","","","","",""
"null","<span style='color:GreenYellow; font-size: 70px;'>正确! </span>","null","html-keyboard-response","84","711739","0.0-7.0-0.0-1.0-0.0-1.37","4","4","4","4","4","4","4","4","4","4","5","5","3","5","4","5","5","5","5","5","1","1","1","1","1","1","1","5","1","0","1","0","0","1","1","0","0","0","0","0","0","0","0","0","5","3","3","1","1","5","3","5","4","1","770428348274053122","刘","20231101","","","","","","","","","","","","","","","","","","","","","","","","","","","","","","feedback_test","","","","","","","","","",""
"789","","j","psychophysics","85","713530","0.0-7.0-0.0-1.0-0.0-0.38","4","4","4","4","4","4","4","4","4","4","5","5","3","5","4","5","5","5","5","5","1","1","1","1","1","1","1","5","1","0","1","0","0","1","1","0","0","0","0","0","0","0","0","0","5","3","3","1","1","5","3","5","4","1","770428348274053122","刘","20231101","","","","match","","","","","","","","","","","","","","key","j","8.332911214953349","960","536","f","false","nonmatch","img/diamond.png","梯形","菱形","ALT1_1","prac_ALT1_1","","","","","","","","","",""
"null","<span style='color:red; font-size: 70px;'>错误! </span>","null","html-keyboard-response","86","714030","0.0-7.0-0.0-1.0-0.0-1.38","4","4","4","4","4","4","4","4","4","4","5","5","3","5","4","5","5","5","5","5","1","1","1","1","1","1","1","5","1","0","1","0","0","1","1","0","0","0","0","0","0","0","0","0","5","3","3","1","1","5","3","5","4","1","770428348274053122","刘","20231101","","","","","","","","","","","","","","","","","","","","","","","","","","","","","","feedback_test","","","","","","","","","",""
"null","","null","psychophysics","87","716232","0.0-7.0-0.0-1.0-0.0-0.39","4","4","4","4","4","4","4","4","4","4","5","5","3","5","4","5","5","5","5","5","1","1","1","1","1","1","1","5","1","0","1","0","0","1","1","0","0","0","0","0","0","0","0","0","5","3","3","1","1","5","3","5","4","1","770428348274053122","刘","20231101","","","","null","","","","","","","","","","","","","","key","null","8.333129277566586","960","536","j","false","match","img/diamond.png","菱形","菱形","ALT1_1","prac_ALT1_1","","","","","","","","","",""
"null","<span class='add_' style='color:yellow; font-size: 70px;'> 太慢! </span>","null","html-keyboard-response","88","716734","0.0-7.0-0.0-1.0-0.0-1.39","4","4","4","4","4","4","4","4","4","4","5","5","3","5","4","5","5","5","5","5","1","1","1","1","1","1","1","5","1","0","1","0","0","1","1","0","0","0","0","0","0","0","0","0","5","3","3","1","1","5","3","5","4","1","770428348274053122","刘","20231101","","","","","","","","","","","","","","","","","","","","","","","","","","","","","","feedback_test","","","","","","","","","",""
"465","","j","psychophysics","89","718200","0.0-7.0-0.0-1.0-0.0-0.40","4","4","4","4","4","4","4","4","4","4","5","5","3","5","4","5","5","5","5","5","1","1","1","1","1","1","1","5","1","0","1","0","0","1","1","0","0","0","0","0","0","0","0","0","5","3","3","1","1","5","3","5","4","1","770428348274053122","刘","20231101","","","","match","","","","","","","","","","","","","","key","j","8.332942857142937","960","536","f","false","nonmatch","img/diamond.png","圆形","菱形","ALT1_1","prac_ALT1_1","","","","","","","","","",""
"null","<span style='color:red; font-size: 70px;'>错误! </span>","null","html-keyboard-response","90","718701","0.0-7.0-0.0-1.0-0.0-1.40","4","4","4","4","4","4","4","4","4","4","5","5","3","5","4","5","5","5","5","5","1","1","1","1","1","1","1","5","1","0","1","0","0","1","1","0","0","0","0","0","0","0","0","0","5","3","3","1","1","5","3","5","4","1","770428348274053122","刘","20231101","","","","","","","","","","","","","","","","","","","","","","","","","","","","","","feedback_test","","","","","","","","","",""
"733","","j","psychophysics","91","720435","0.0-7.0-0.0-1.0-0.0-0.41","4","4","4","4","4","4","4","4","4","4","5","5","3","5","4","5","5","5","5","5","1","1","1","1","1","1","1","5","1","0","1","0","0","1","1","0","0","0","0","0","0","0","0","0","5","3","3","1","1","5","3","5","4","1","770428348274053122","刘","20231101","","","","match","","","","","","","","","","","","","","key","j","8.332768115941615","960","536","j","true","match","img/pentagon.png","五边","五边","ALT1_1","prac_ALT1_1","","","","","","","","","",""
"null","<span style='color:GreenYellow; font-size: 70px;'>正确! </span>","null","html-keyboard-response","92","720936","0.0-7.0-0.0-1.0-0.0-1.41","4","4","4","4","4","4","4","4","4","4","5","5","3","5","4","5","5","5","5","5","1","1","1","1","1","1","1","5","1","0","1","0","0","1","1","0","0","0","0","0","0","0","0","0","5","3","3","1","1","5","3","5","4","1","770428348274053122","刘","20231101","","","","","","","","","","","","","","","","","","","","","","","","","","","","","","feedback_test","","","","","","","","","",""
"427","","f","psychophysics","93","722364","0.0-7.0-0.0-1.0-0.0-0.42","4","4","4","4","4","4","4","4","4","4","5","5","3","5","4","5","5","5","5","5","1","1","1","1","1","1","1","5","1","0","1","0","0","1","1","0","0","0","0","0","0","0","0","0","5","3","3","1","1","5","3","5","4","1","770428348274053122","刘","20231101","","","","nonmatch","","","","","","","","","","","","","","key","f","8.326447058823097","960","536","j","false","match","img/trapezoid.png","梯形","梯形","ALT1_1","prac_ALT1_1","","","","","","","","","",""
"null","<span style='color:red; font-size: 70px;'>错误! </span>","null","html-keyboard-response","94","722865","0.0-7.0-0.0-1.0-0.0-1.42","4","4","4","4","4","4","4","4","4","4","5","5","3","5","4","5","5","5","5","5","1","1","1","1","1","1","1","5","1","0","1","0","0","1","1","0","0","0","0","0","0","0","0","0","5","3","3","1","1","5","3","5","4","1","770428348274053122","刘","20231101","","","","","","","","","","","","","","","","","","","","","","","","","","","","","","feedback_test","","","","","","","","","",""
"885","","j","psychophysics","95","724751","0.0-7.0-0.0-1.0-0.0-0.43","4","4","4","4","4","4","4","4","4","4","5","5","3","5","4","5","5","5","5","5","1","1","1","1","1","1","1","5","1","0","1","0","0","1","1","0","0","0","0","0","0","0","0","0","5","3","3","1","1","5","3","5","4","1","770428348274053122","刘","20231101","","","","match","","","","","","","","","","","","","","key","j","8.33295555555572","960","536","f","false","nonmatch","img/pentagon.png","菱形","五边","ALT1_1","prac_ALT1_1","","","","","","","","","",""
"null","<span style='color:red; font-size: 70px;'>错误! </span>","null","html-keyboard-response","96","725252","0.0-7.0-0.0-1.0-0.0-1.43","4","4","4","4","4","4","4","4","4","4","5","5","3","5","4","5","5","5","5","5","1","1","1","1","1","1","1","5","1","0","1","0","0","1","1","0","0","0","0","0","0","0","0","0","5","3","3","1","1","5","3","5","4","1","770428348274053122","刘","20231101","","","","","","","","","","","","","","","","","","","","","","","","","","","","","","feedback_test","","","","","","","","","",""
"459","","j","psychophysics","97","726712","0.0-7.0-0.0-1.0-0.0-0.44","4","4","4","4","4","4","4","4","4","4","5","5","3","5","4","5","5","5","5","5","1","1","1","1","1","1","1","5","1","0","1","0","0","1","1","0","0","0","0","0","0","0","0","0","5","3","3","1","1","5","3","5","4","1","770428348274053122","刘","20231101","","","","match","","","","","","","","","","","","","","key","j","8.33314857142911","960","536","j","true","match","img/pentagon.png","五边","五边","ALT1_1","prac_ALT1_1","","","","","","","","","",""
"null","<span style='color:GreenYellow; font-size: 70px;'>正确! </span>","null","html-keyboard-response","98","727213","0.0-7.0-0.0-1.0-0.0-1.44","4","4","4","4","4","4","4","4","4","4","5","5","3","5","4","5","5","5","5","5","1","1","1","1","1","1","1","5","1","0","1","0","0","1","1","0","0","0","0","0","0","0","0","0","5","3","3","1","1","5","3","5","4","1","770428348274053122","刘","20231101","","","","","","","","","","","","","","","","","","","","","","","","","","","","","","feedback_test","","","","","","","","","",""
"610","","j","psychophysics","99","728824","0.0-7.0-0.0-1.0-0.0-0.45","4","4","4","4","4","4","4","4","4","4","5","5","3","5","4","5","5","5","5","5","1","1","1","1","1","1","1","5","1","0","1","0","0","1","1","0","0","0","0","0","0","0","0","0","5","3","3","1","1","5","3","5","4","1","770428348274053122","刘","20231101","","","","match","","","","","","","","","","","","","","key","j","8.332552083333212","960","536","f","false","nonmatch","img/diamond.png","五边","菱形","ALT1_1","prac_ALT1_1","","","","","","","","","",""
"null","<span style='color:red; font-size: 70px;'>错误! </span>","null","html-keyboard-response","100","729325","0.0-7.0-0.0-1.0-0.0-1.45","4","4","4","4","4","4","4","4","4","4","5","5","3","5","4","5","5","5","5","5","1","1","1","1","1","1","1","5","1","0","1","0","0","1","1","0","0","0","0","0","0","0","0","0","5","3","3","1","1","5","3","5","4","1","770428348274053122","刘","20231101","","","","","","","","","","","","","","","","","","","","","","","","","","","","","","feedback_test","","","","","","","","","",""
"null","","null","psychophysics","101","731527","0.0-7.0-0.0-1.0-0.0-0.46","4","4","4","4","4","4","4","4","4","4","5","5","3","5","4","5","5","5","5","5","1","1","1","1","1","1","1","5","1","0","1","0","0","1","1","0","0","0","0","0","0","0","0","0","5","3","3","1","1","5","3","5","4","1","770428348274053122","刘","20231101","","","","null","","","","","","","","","","","","","","key","null","8.33302661596962","960","536","f","false","nonmatch","img/pentagon.png","梯形","五边","ALT1_1","prac_ALT1_1","","","","","","","","","",""
"null","<span class='add_' style='color:yellow; font-size: 70px;'> 太慢! </span>","null","html-keyboard-response","102","732029","0.0-7.0-0.0-1.0-0.0-1.46","4","4","4","4","4","4","4","4","4","4","5","5","3","5","4","5","5","5","5","5","1","1","1","1","1","1","1","5","1","0","1","0","0","1","1","0","0","0","0","0","0","0","0","0","5","3","3","1","1","5","3","5","4","1","770428348274053122","刘","20231101","","","","","","","","","","","","","","","","","","","","","","","","","","","","","","feedback_test","","","","","","","","","",""
"563","","j","psychophysics","103","733593","0.0-7.0-0.0-1.0-0.0-0.47","4","4","4","4","4","4","4","4","4","4","5","5","3","5","4","5","5","5","5","5","1","1","1","1","1","1","1","5","1","0","1","0","0","1","1","0","0","0","0","0","0","0","0","0","5","3","3","1","1","5","3","5","4","1","770428348274053122","刘","20231101","","","","match","","","","","","","","","","","","","","key","j","8.332870967741881","960","536","j","true","match","img/diamond.png","菱形","菱形","ALT1_1","prac_ALT1_1","","","","","","","","","",""
"null","<span style='color:GreenYellow; font-size: 70px;'>正确! </span>","null","html-keyboard-response","104","734094","0.0-7.0-0.0-1.0-0.0-1.47","4","4","4","4","4","4","4","4","4","4","5","5","3","5","4","5","5","5","5","5","1","1","1","1","1","1","1","5","1","0","1","0","0","1","1","0","0","0","0","0","0","0","0","0","5","3","3","1","1","5","3","5","4","1","770428348274053122","刘","20231101","","","","","","","","","","","","","","","","","","","","","","","","","","","","","","feedback_test","","","","","","","","","",""
"7891","<style>.context{color:white; font-size: 35px; line-height:40px}</style>                            <div><p class='context'>您正确回答了29% 的试次。</p><p class='context'>您的平均反应时为537毫秒。</p><p class='context'>按空格键继续。</p></div>"," ","html-keyboard-response","105","741986","0.0-7.0-0.0-1.0-1.0-0.0","4","4","4","4","4","4","4","4","4","4","5","5","3","5","4","5","5","5","5","5","1","1","1","1","1","1","1","5","1","0","1","0","0","1","1","0","0","0","0","0","0","0","0","0","5","3","3","1","1","5","3","5","4","1","770428348274053122","刘","20231101","","","","","","","","","","","","","","","","","","","","","","","","","","","","","","","","","","","","","","","",""
"16728","","","instructions","106","758716","0.0-7.0-0.0-1.0-1.0-1.0","4","4","4","4","4","4","4","4","4","4","5","5","3","5","4","5","5","5","5","5","1","1","1","1","1","1","1","5","1","0","1","0","0","1","1","0","0","0","0","0","0","0","0","0","5","3","3","1","1","5","3","5","4","1","770428348274053122","刘","20231101","","","","","","","","","","","","","","","","","[{""page_index"":0,""viewing_time"":7487},{""page_index"":1,""viewing_time"":7265},{""page_index"":2,""viewing_time"":1976}]","","","","","","","","","","","","","","","","","","","","","","",""
"609","","f","psychophysics","107","760327","0.0-7.0-0.0-1.1-0.1-0.48","4","4","4","4","4","4","4","4","4","4","5","5","3","5","4","5","5","5","5","5","1","1","1","1","1","1","1","5","1","0","1","0","0","1","1","0","0","0","0","0","0","0","0","0","5","3","3","1","1","5","3","5","4","1","770428348274053122","刘","20231101","","","","nonmatch","","","","","","","","","","","","","","key","f","8.333078125000005","960","536","f","true","nonmatch","img/pentagon.png","梯形","五边","ALT1_1","prac_ALT1_1","","","","","","","","","",""
"null","<span style='color:GreenYellow; font-size: 70px;'>正确! </span>","null","html-keyboard-response","108","760828","0.0-7.0-0.0-1.1-0.1-1.48","4","4","4","4","4","4","4","4","4","4","5","5","3","5","4","5","5","5","5","5","1","1","1","1","1","1","1","5","1","0","1","0","0","1","1","0","0","0","0","0","0","0","0","0","5","3","3","1","1","5","3","5","4","1","770428348274053122","刘","20231101","","","","","","","","","","","","","","","","","","","","","","","","","","","","","","feedback_test","","","","","","","","","",""
"199","","f","psychophysics","109","762028","0.0-7.0-0.0-1.1-0.1-0.49","4","4","4","4","4","4","4","4","4","4","5","5","3","5","4","5","5","5","5","5","1","1","1","1","1","1","1","5","1","0","1","0","0","1","1","0","0","0","0","0","0","0","0","0","5","3","3","1","1","5","3","5","4","1","770428348274053122","刘","20231101","","","","nonmatch","","","","","","","","","","","","","","key","f","8.333104895104627","960","536","j","false","match","img/diamond.png","菱形","菱形","ALT1_1","prac_ALT1_1","","","","","","","","","",""
"null","<span style='color:yellow; font-size: 70px;'>过快! </span>","null","html-keyboard-response","110","762528","0.0-7.0-0.0-1.1-0.1-1.49","4","4","4","4","4","4","4","4","4","4","5","5","3","5","4","5","5","5","5","5","1","1","1","1","1","1","1","5","1","0","1","0","0","1","1","0","0","0","0","0","0","0","0","0","5","3","3","1","1","5","3","5","4","1","770428348274053122","刘","20231101","","","","","","","","","","","","","","","","","","","","","","","","","","","","","","feedback_test","","","","","","","","","",""
"233","","f","psychophysics","111","763762","0.0-7.0-0.0-1.1-0.1-0.50","4","4","4","4","4","4","4","4","4","4","5","5","3","5","4","5","5","5","5","5","1","1","1","1","1","1","1","5","1","0","1","0","0","1","1","0","0","0","0","0","0","0","0","0","5","3","3","1","1","5","3","5","4","1","770428348274053122","刘","20231101","","","","nonmatch","","","","","","","","","","","","","","key","f","8.389856164383524","960","536","j","false","match","img/trapezoid.png","梯形","梯形","ALT1_1","prac_ALT1_1","","","","","","","","","",""
"null","<span style='color:red; font-size: 70px;'>错误! </span>","null","html-keyboard-response","112","764263","0.0-7.0-0.0-1.1-0.1-1.50","4","4","4","4","4","4","4","4","4","4","5","5","3","5","4","5","5","5","5","5","1","1","1","1","1","1","1","5","1","0","1","0","0","1","1","0","0","0","0","0","0","0","0","0","5","3","3","1","1","5","3","5","4","1","770428348274053122","刘","20231101","","","","","","","","","","","","","","","","","","","","","","","","","","","","","","feedback_test","","","","","","","","","",""
"380","","j","psychophysics","113","765644","0.0-7.0-0.0-1.1-0.1-0.51","4","4","4","4","4","4","4","4","4","4","5","5","3","5","4","5","5","5","5","5","1","1","1","1","1","1","1","5","1","0","1","0","0","1","1","0","0","0","0","0","0","0","0","0","5","3","3","1","1","5","3","5","4","1","770428348274053122","刘","20231101","","","","match","","","","","","","","","","","","","","key","j","8.333030303030727","960","536","j","true","match","img/trapezoid.png","梯形","梯形","ALT1_1","prac_ALT1_1","","","","","","","","","",""
"null","<span style='color:GreenYellow; font-size: 70px;'>正确! </span>","null","html-keyboard-response","114","766145","0.0-7.0-0.0-1.1-0.1-1.51","4","4","4","4","4","4","4","4","4","4","5","5","3","5","4","5","5","5","5","5","1","1","1","1","1","1","1","5","1","0","1","0","0","1","1","0","0","0","0","0","0","0","0","0","5","3","3","1","1","5","3","5","4","1","770428348274053122","刘","20231101","","","","","","","","","","","","","","","","","","","","","","","","","","","","","","feedback_test","","","","","","","","","",""
"487","","f","psychophysics","115","767633","0.0-7.0-0.0-1.1-0.1-0.52","4","4","4","4","4","4","4","4","4","4","5","5","3","5","4","5","5","5","5","5","1","1","1","1","1","1","1","5","1","0","1","0","0","1","1","0","0","0","0","0","0","0","0","0","5","3","3","1","1","5","3","5","4","1","770428348274053122","刘","20231101","","","","nonmatch","","","","","","","","","","","","","","key","f","8.333050847458022","960","536","j","false","match","img/circle.png","圆形","圆形","ALT1_1","prac_ALT1_1","","","","","","","","","",""
"null","<span style='color:red; font-size: 70px;'>错误! </span>","null","html-keyboard-response","116","768134","0.0-7.0-0.0-1.1-0.1-1.52","4","4","4","4","4","4","4","4","4","4","5","5","3","5","4","5","5","5","5","5","1","1","1","1","1","1","1","5","1","0","1","0","0","1","1","0","0","0","0","0","0","0","0","0","5","3","3","1","1","5","3","5","4","1","770428348274053122","刘","20231101","","","","","","","","","","","","","","","","","","","","","","","","","","","","","","feedback_test","","","","","","","","","",""
"256","","j","psychophysics","117","769391","0.0-7.0-0.0-1.1-0.1-0.53","4","4","4","4","4","4","4","4","4","4","5","5","3","5","4","5","5","5","5","5","1","1","1","1","1","1","1","5","1","0","1","0","0","1","1","0","0","0","0","0","0","0","0","0","5","3","3","1","1","5","3","5","4","1","770428348274053122","刘","20231101","","","","match","","","","","","","","","","","","","","key","j","8.322510067114118","960","536","j","true","match","img/circle.png","圆形","圆形","ALT1_1","prac_ALT1_1","","","","","","","","","",""
"null","<span style='color:GreenYellow; font-size: 70px;'>正确! </span>","null","html-keyboard-response","118","769893","0.0-7.0-0.0-1.1-0.1-1.53","4","4","4","4","4","4","4","4","4","4","5","5","3","5","4","5","5","5","5","5","1","1","1","1","1","1","1","5","1","0","1","0","0","1","1","0","0","0","0","0","0","0","0","0","5","3","3","1","1","5","3","5","4","1","770428348274053122","刘","20231101","","","","","","","","","","","","","","","","","","","","","","","","","","","","","","feedback_test","","","","","","","","","",""
"488","","f","psychophysics","119","771381","0.0-7.0-0.0-1.1-0.1-0.54","4","4","4","4","4","4","4","4","4","4","5","5","3","5","4","5","5","5","5","5","1","1","1","1","1","1","1","5","1","0","1","0","0","1","1","0","0","0","0","0","0","0","0","0","5","3","3","1","1","5","3","5","4","1","770428348274053122","刘","20231101","","","","nonmatch","","","","","","","","","","","","","","key","f","8.333168539325863","960","536","f","true","nonmatch","img/circle.png","菱形","圆形","ALT1_1","prac_ALT1_1","","","","","","","","","",""
"null","<span style='color:GreenYellow; font-size: 70px;'>正确! </span>","null","html-keyboard-response","120","771881","0.0-7.0-0.0-1.1-0.1-1.54","4","4","4","4","4","4","4","4","4","4","5","5","3","5","4","5","5","5","5","5","1","1","1","1","1","1","1","5","1","0","1","0","0","1","1","0","0","0","0","0","0","0","0","0","5","3","3","1","1","5","3","5","4","1","770428348274053122","刘","20231101","","","","","","","","","","","","","","","","","","","","","","","","","","","","","","feedback_test","","","","","","","","","",""
"null","","null","psychophysics","121","774083","0.0-7.0-0.0-1.1-0.1-0.55","4","4","4","4","4","4","4","4","4","4","5","5","3","5","4","5","5","5","5","5","1","1","1","1","1","1","1","5","1","0","1","0","0","1","1","0","0","0","0","0","0","0","0","0","5","3","3","1","1","5","3","5","4","1","770428348274053122","刘","20231101","","","","null","","","","","","","","","","","","","","key","null","8.332984790874791","960","536","f","false","nonmatch","img/circle.png","五边","圆形","ALT1_1","prac_ALT1_1","","","","","","","","","",""
"null","<span class='add_' style='color:yellow; font-size: 70px;'> 太慢! </span>","null","html-keyboard-response","122","774585","0.0-7.0-0.0-1.1-0.1-1.55","4","4","4","4","4","4","4","4","4","4","5","5","3","5","4","5","5","5","5","5","1","1","1","1","1","1","1","5","1","0","1","0","0","1","1","0","0","0","0","0","0","0","0","0","5","3","3","1","1","5","3","5","4","1","770428348274053122","刘","20231101","","","","","","","","","","","","","","","","","","","","","","","","","","","","","","feedback_test","","","","","","","","","",""
"264","","f","psychophysics","123","775850","0.0-7.0-0.0-1.1-0.1-0.56","4","4","4","4","4","4","4","4","4","4","5","5","3","5","4","5","5","5","5","5","1","1","1","1","1","1","1","5","1","0","1","0","0","1","1","0","0","0","0","0","0","0","0","0","5","3","3","1","1","5","3","5","4","1","770428348274053122","刘","20231101","","","","nonmatch","","","","","","","","","","","","","","key","f","8.332933333333736","960","536","f","true","nonmatch","img/diamond.png","五边","菱形","ALT1_1","prac_ALT1_1","","","","","","","","","",""
"null","<span style='color:GreenYellow; font-size: 70px;'>正确! </span>","null","html-keyboard-response","124","776351","0.0-7.0-0.0-1.1-0.1-1.56","4","4","4","4","4","4","4","4","4","4","5","5","3","5","4","5","5","5","5","5","1","1","1","1","1","1","1","5","1","0","1","0","0","1","1","0","0","0","0","0","0","0","0","0","5","3","3","1","1","5","3","5","4","1","770428348274053122","刘","20231101","","","","","","","","","","","","","","","","","","","","","","","","","","","","","","feedback_test","","","","","","","","","",""
"346","","j","psychophysics","125","777698","0.0-7.0-0.0-1.1-0.1-0.57","4","4","4","4","4","4","4","4","4","4","5","5","3","5","4","5","5","5","5","5","1","1","1","1","1","1","1","5","1","0","1","0","0","1","1","0","0","0","0","0","0","0","0","0","5","3","3","1","1","5","3","5","4","1","770428348274053122","刘","20231101","","","","match","","","","","","","","","","","","","","key","j","8.32566874999975","960","536","j","true","match","img/pentagon.png","五边","五边","ALT1_1","prac_ALT1_1","","","","","","","","","",""
"null","<span style='color:GreenYellow; font-size: 70px;'>正确! </span>","null","html-keyboard-response","126","778199","0.0-7.0-0.0-1.1-0.1-1.57","4","4","4","4","4","4","4","4","4","4","5","5","3","5","4","5","5","5","5","5","1","1","1","1","1","1","1","5","1","0","1","0","0","1","1","0","0","0","0","0","0","0","0","0","5","3","3","1","1","5","3","5","4","1","770428348274053122","刘","20231101","","","","","","","","","","","","","","","","","","","","","","","","","","","","","","feedback_test","","","","","","","","","",""
"370","","f","psychophysics","127","779570","0.0-7.0-0.0-1.1-0.1-0.58","4","4","4","4","4","4","4","4","4","4","5","5","3","5","4","5","5","5","5","5","1","1","1","1","1","1","1","5","1","0","1","0","0","1","1","0","0","0","0","0","0","0","0","0","5","3","3","1","1","5","3","5","4","1","770428348274053122","刘","20231101","","","","nonmatch","","","","","","","","","","","","","","key","f","8.33290243902451","960","536","j","false","match","img/diamond.png","菱形","菱形","ALT1_1","prac_ALT1_1","","","","","","","","","",""
"null","<span style='color:red; font-size: 70px;'>错误! </span>","null","html-keyboard-response","128","780071","0.0-7.0-0.0-1.1-0.1-1.58","4","4","4","4","4","4","4","4","4","4","5","5","3","5","4","5","5","5","5","5","1","1","1","1","1","1","1","5","1","0","1","0","0","1","1","0","0","0","0","0","0","0","0","0","5","3","3","1","1","5","3","5","4","1","770428348274053122","刘","20231101","","","","","","","","","","","","","","","","","","","","","","","","","","","","","","feedback_test","","","","","","","","","",""
"401","","j","psychophysics","129","781472","0.0-7.0-0.0-1.1-0.1-0.59","4","4","4","4","4","4","4","4","4","4","5","5","3","5","4","5","5","5","5","5","1","1","1","1","1","1","1","5","1","0","1","0","0","1","1","0","0","0","0","0","0","0","0","0","5","3","3","1","1","5","3","5","4","1","770428348274053122","刘","20231101","","","","match","","","","","","","","","","","","","","key","j","8.33305389221554","960","536","j","true","match","img/diamond.png","菱形","菱形","ALT1_1","prac_ALT1_1","","","","","","","","","",""
"null","<span style='color:GreenYellow; font-size: 70px;'>正确! </span>","null","html-keyboard-response","130","781973","0.0-7.0-0.0-1.1-0.1-1.59","4","4","4","4","4","4","4","4","4","4","5","5","3","5","4","5","5","5","5","5","1","1","1","1","1","1","1","5","1","0","1","0","0","1","1","0","0","0","0","0","0","0","0","0","5","3","3","1","1","5","3","5","4","1","770428348274053122","刘","20231101","","","","","","","","","","","","","","","","","","","","","","","","","","","","","","feedback_test","","","","","","","","","",""
"108","","j","psychophysics","131","783082","0.0-7.0-0.0-1.1-0.1-0.60","4","4","4","4","4","4","4","4","4","4","5","5","3","5","4","5","5","5","5","5","1","1","1","1","1","1","1","5","1","0","1","0","0","1","1","0","0","0","0","0","0","0","0","0","5","3","3","1","1","5","3","5","4","1","770428348274053122","刘","20231101","","","","match","","","","","","","","","","","","","","key","j","8.396572519083977","960","536","f","false","nonmatch","img/pentagon.png","菱形","五边","ALT1_1","prac_ALT1_1","","","","","","","","","",""
"null","<span style='color:yellow; font-size: 70px;'>过快! </span>","null","html-keyboard-response","132","783583","0.0-7.0-0.0-1.1-0.1-1.60","4","4","4","4","4","4","4","4","4","4","5","5","3","5","4","5","5","5","5","5","1","1","1","1","1","1","1","5","1","0","1","0","0","1","1","0","0","0","0","0","0","0","0","0","5","3","3","1","1","5","3","5","4","1","770428348274053122","刘","20231101","","","","","","","","","","","","","","","","","","","","","","","","","","","","","","feedback_test","","","","","","","","","",""
"365","","f","psychophysics","133","784949","0.0-7.0-0.0-1.1-0.1-0.61","4","4","4","4","4","4","4","4","4","4","5","5","3","5","4","5","5","5","5","5","1","1","1","1","1","1","1","5","1","0","1","0","0","1","1","0","0","0","0","0","0","0","0","0","5","3","3","1","1","5","3","5","4","1","770428348274053122","刘","20231101","","","","nonmatch","","","","","","","","","","","","","","key","f","8.333122699386497","960","536","j","false","match","img/trapezoid.png","梯形","梯形","ALT1_1","prac_ALT1_1","","","","","","","","","",""
"null","<span style='color:red; font-size: 70px;'>错误! </span>","null","html-keyboard-response","134","785450","0.0-7.0-0.0-1.1-0.1-1.61","4","4","4","4","4","4","4","4","4","4","5","5","3","5","4","5","5","5","5","5","1","1","1","1","1","1","1","5","1","0","1","0","0","1","1","0","0","0","0","0","0","0","0","0","5","3","3","1","1","5","3","5","4","1","770428348274053122","刘","20231101","","","","","","","","","","","","","","","","","","","","","","","","","","","","","","feedback_test","","","","","","","","","",""
"321","","j","psychophysics","135","786772","0.0-7.0-0.0-1.1-0.1-0.62","4","4","4","4","4","4","4","4","4","4","5","5","3","5","4","5","5","5","5","5","1","1","1","1","1","1","1","5","1","0","1","0","0","1","1","0","0","0","0","0","0","0","0","0","5","3","3","1","1","5","3","5","4","1","770428348274053122","刘","20231101","","","","match","","","","","","","","","","","","","","key","j","8.333196202531763","960","536","j","true","match","img/pentagon.png","五边","五边","ALT1_1","prac_ALT1_1","","","","","","","","","",""
"null","<span style='color:GreenYellow; font-size: 70px;'>正确! </span>","null","html-keyboard-response","136","787273","0.0-7.0-0.0-1.1-0.1-1.62","4","4","4","4","4","4","4","4","4","4","5","5","3","5","4","5","5","5","5","5","1","1","1","1","1","1","1","5","1","0","1","0","0","1","1","0","0","0","0","0","0","0","0","0","5","3","3","1","1","5","3","5","4","1","770428348274053122","刘","20231101","","","","","","","","","","","","","","","","","","","","","","","","","","","","","","feedback_test","","","","","","","","","",""
"431","","j","psychophysics","137","788704","0.0-7.0-0.0-1.1-0.1-0.63","4","4","4","4","4","4","4","4","4","4","5","5","3","5","4","5","5","5","5","5","1","1","1","1","1","1","1","5","1","0","1","0","0","1","1","0","0","0","0","0","0","0","0","0","5","3","3","1","1","5","3","5","4","1","770428348274053122","刘","20231101","","","","match","","","","","","","","","","","","","","key","j","8.332941520467607","960","536","f","false","nonmatch","img/trapezoid.png","圆形","梯形","ALT1_1","prac_ALT1_1","","","","","","","","","",""
"null","<span style='color:red; font-size: 70px;'>错误! </span>","null","html-keyboard-response","138","789205","0.0-7.0-0.0-1.1-0.1-1.63","4","4","4","4","4","4","4","4","4","4","5","5","3","5","4","5","5","5","5","5","1","1","1","1","1","1","1","5","1","0","1","0","0","1","1","0","0","0","0","0","0","0","0","0","5","3","3","1","1","5","3","5","4","1","770428348274053122","刘","20231101","","","","","","","","","","","","","","","","","","","","","","","","","","","","","","feedback_test","","","","","","","","","",""
"256","","j","psychophysics","139","790462","0.0-7.0-0.0-1.1-0.1-0.64","4","4","4","4","4","4","4","4","4","4","5","5","3","5","4","5","5","5","5","5","1","1","1","1","1","1","1","5","1","0","1","0","0","1","1","0","0","0","0","0","0","0","0","0","5","3","3","1","1","5","3","5","4","1","770428348274053122","刘","20231101","","","","match","","","","","","","","","","","","","","key","j","8.333019999999863","960","536","f","false","nonmatch","img/diamond.png","梯形","菱形","ALT1_1","prac_ALT1_1","","","","","","","","","",""
"null","<span style='color:red; font-size: 70px;'>错误! </span>","null","html-keyboard-response","140","790963","0.0-7.0-0.0-1.1-0.1-1.64","4","4","4","4","4","4","4","4","4","4","5","5","3","5","4","5","5","5","5","5","1","1","1","1","1","1","1","5","1","0","1","0","0","1","1","0","0","0","0","0","0","0","0","0","5","3","3","1","1","5","3","5","4","1","770428348274053122","刘","20231101","","","","","","","","","","","","","","","","","","","","","","","","","","","","","","feedback_test","","","","","","","","","",""
"280","","j","psychophysics","141","792244","0.0-7.0-0.0-1.1-0.1-0.65","4","4","4","4","4","4","4","4","4","4","5","5","3","5","4","5","5","5","5","5","1","1","1","1","1","1","1","5","1","0","1","0","0","1","1","0","0","0","0","0","0","0","0","0","5","3","3","1","1","5","3","5","4","1","770428348274053122","刘","20231101","","","","match","","","","","","","","","","","","","","key","j","8.333065359477331","960","536","f","false","nonmatch","img/pentagon.png","圆形","五边","ALT1_1","prac_ALT1_1","","","","","","","","","",""
"null","<span style='color:red; font-size: 70px;'>错误! </span>","null","html-keyboard-response","142","792744","0.0-7.0-0.0-1.1-0.1-1.65","4","4","4","4","4","4","4","4","4","4","5","5","3","5","4","5","5","5","5","5","1","1","1","1","1","1","1","5","1","0","1","0","0","1","1","0","0","0","0","0","0","0","0","0","5","3","3","1","1","5","3","5","4","1","770428348274053122","刘","20231101","","","","","","","","","","","","","","","","","","","","","","","","","","","","","","feedback_test","","","","","","","","","",""
"307","","f","psychophysics","143","794053","0.0-7.0-0.0-1.1-0.1-0.66","4","4","4","4","4","4","4","4","4","4","5","5","3","5","4","5","5","5","5","5","1","1","1","1","1","1","1","5","1","0","1","0","0","1","1","0","0","0","0","0","0","0","0","0","5","3","3","1","1","5","3","5","4","1","770428348274053122","刘","20231101","","","","nonmatch","","","","","","","","","","","","","","key","f","8.386567741935892","960","536","f","true","nonmatch","img/trapezoid.png","五边","梯形","ALT1_1","prac_ALT1_1","","","","","","","","","",""
"null","<span style='color:GreenYellow; font-size: 70px;'>正确! </span>","null","html-keyboard-response","144","794554","0.0-7.0-0.0-1.1-0.1-1.66","4","4","4","4","4","4","4","4","4","4","5","5","3","5","4","5","5","5","5","5","1","1","1","1","1","1","1","5","1","0","1","0","0","1","1","0","0","0","0","0","0","0","0","0","5","3","3","1","1","5","3","5","4","1","770428348274053122","刘","20231101","","","","","","","","","","","","","","","","","","","","","","","","","","","","","","feedback_test","","","","","","","","","",""
"73","","f","psychophysics","145","795627","0.0-7.0-0.0-1.1-0.1-0.67","4","4","4","4","4","4","4","4","4","4","5","5","3","5","4","5","5","5","5","5","1","1","1","1","1","1","1","5","1","0","1","0","0","1","1","0","0","0","0","0","0","0","0","0","5","3","3","1","1","5","3","5","4","1","770428348274053122","刘","20231101","","","","nonmatch","","","","","","","","","","","","","","key","f","8.333320312500291","960","536","j","false","match","img/pentagon.png","五边","五边","ALT1_1","prac_ALT1_1","","","","","","","","","",""
"null","<span style='color:yellow; font-size: 70px;'>过快! </span>","null","html-keyboard-response","146","796128","0.0-7.0-0.0-1.1-0.1-1.67","4","4","4","4","4","4","4","4","4","4","5","5","3","5","4","5","5","5","5","5","1","1","1","1","1","1","1","5","1","0","1","0","0","1","1","0","0","0","0","0","0","0","0","0","5","3","3","1","1","5","3","5","4","1","770428348274053122","刘","20231101","","","","","","","","","","","","","","","","","","","","","","","","","","","","","","feedback_test","","","","","","","","","",""
"250","","f","psychophysics","147","797379","0.0-7.0-0.0-1.1-0.1-0.68","4","4","4","4","4","4","4","4","4","4","5","5","3","5","4","5","5","5","5","5","1","1","1","1","1","1","1","5","1","0","1","0","0","1","1","0","0","0","0","0","0","0","0","0","5","3","3","1","1","5","3","5","4","1","770428348274053122","刘","20231101","","","","nonmatch","","","","","","","","","","","","","","key","f","8.333033557046805","960","536","f","true","nonmatch","img/trapezoid.png","菱形","梯形","ALT1_1","prac_ALT1_1","","","","","","","","","",""
"null","<span style='color:GreenYellow; font-size: 70px;'>正确! </span>","null","html-keyboard-response","148","797880","0.0-7.0-0.0-1.1-0.1-1.68","4","4","4","4","4","4","4","4","4","4","5","5","3","5","4","5","5","5","5","5","1","1","1","1","1","1","1","5","1","0","1","0","0","1","1","0","0","0","0","0","0","0","0","0","5","3","3","1","1","5","3","5","4","1","770428348274053122","刘","20231101","","","","","","","","","","","","","","","","","","","","","","","","","","","","","","feedback_test","","","","","","","","","",""
"290","","j","psychophysics","149","799171","0.0-7.0-0.0-1.1-0.1-0.69","4","4","4","4","4","4","4","4","4","4","5","5","3","5","4","5","5","5","5","5","1","1","1","1","1","1","1","5","1","0","1","0","0","1","1","0","0","0","0","0","0","0","0","0","5","3","3","1","1","5","3","5","4","1","770428348274053122","刘","20231101","","","","match","","","","","","","","","","","","","","key","j","8.387405228758462","960","536","f","false","nonmatch","img/circle.png","梯形","圆形","ALT1_1","prac_ALT1_1","","","","","","","","","",""
"null","<span style='color:red; font-size: 70px;'>错误! </span>","null","html-keyboard-response","150","799672","0.0-7.0-0.0-1.1-0.1-1.69","4","4","4","4","4","4","4","4","4","4","5","5","3","5","4","5","5","5","5","5","1","1","1","1","1","1","1","5","1","0","1","0","0","1","1","0","0","0","0","0","0","0","0","0","5","3","3","1","1","5","3","5","4","1","770428348274053122","刘","20231101","","","","","","","","","","","","","","","","","","","","","","","","","","","","","","feedback_test","","","","","","","","","",""
"273","","f","psychophysics","151","800946","0.0-7.0-0.0-1.1-0.1-0.70","4","4","4","4","4","4","4","4","4","4","5","5","3","5","4","5","5","5","5","5","1","1","1","1","1","1","1","5","1","0","1","0","0","1","1","0","0","0","0","0","0","0","0","0","5","3","3","1","1","5","3","5","4","1","770428348274053122","刘","20231101","","","","nonmatch","","","","","","","","","","","","","","key","f","8.333203947369169","960","536","f","true","nonmatch","img/diamond.png","圆形","菱形","ALT1_1","prac_ALT1_1","","","","","","","","","",""
"null","<span style='color:GreenYellow; font-size: 70px;'>正确! </span>","null","html-keyboard-response","152","801447","0.0-7.0-0.0-1.1-0.1-1.70","4","4","4","4","4","4","4","4","4","4","5","5","3","5","4","5","5","5","5","5","1","1","1","1","1","1","1","5","1","0","1","0","0","1","1","0","0","0","0","0","0","0","0","0","5","3","3","1","1","5","3","5","4","1","770428348274053122","刘","20231101","","","","","","","","","","","","","","","","","","","","","","","","","","","","","","feedback_test","","","","","","","","","",""
"230","","j","psychophysics","153","802678","0.0-7.0-0.0-1.1-0.1-0.71","4","4","4","4","4","4","4","4","4","4","5","5","3","5","4","5","5","5","5","5","1","1","1","1","1","1","1","5","1","0","1","0","0","1","1","0","0","0","0","0","0","0","0","0","5","3","3","1","1","5","3","5","4","1","770428348274053122","刘","20231101","","","","match","","","","","","","","","","","","","","key","j","8.333224489796292","960","536","j","true","match","img/circle.png","圆形","圆形","ALT1_1","prac_ALT1_1","","","","","","","","","",""
"null","<span style='color:GreenYellow; font-size: 70px;'>正确! </span>","null","html-keyboard-response","154","803179","0.0-7.0-0.0-1.1-0.1-1.71","4","4","4","4","4","4","4","4","4","4","5","5","3","5","4","5","5","5","5","5","1","1","1","1","1","1","1","5","1","0","1","0","0","1","1","0","0","0","0","0","0","0","0","0","5","3","3","1","1","5","3","5","4","1","770428348274053122","刘","20231101","","","","","","","","","","","","","","","","","","","","","","","","","","","","","","feedback_test","","","","","","","","","",""
"125","","j","psychophysics","155","804306","0.0-7.0-0.0-1.1-0.1-0.72","4","4","4","4","4","4","4","4","4","4","5","5","3","5","4","5","5","5","5","5","1","1","1","1","1","1","1","5","1","0","1","0","0","1","1","0","0","0","0","0","0","0","0","0","5","3","3","1","1","5","3","5","4","1","770428348274053122","刘","20231101","","","","match","","","","","","","","","","","","","","key","j","8.333059701492573","960","536","j","true","match","img/circle.png","圆形","圆形","ALT1_1","prac_ALT1_1","","","","","","","","","",""
"null","<span style='color:yellow; font-size: 70px;'>过快! </span>","null","html-keyboard-response","156","804806","0.0-7.0-0.0-1.1-0.1-1.72","4","4","4","4","4","4","4","4","4","4","5","5","3","5","4","5","5","5","5","5","1","1","1","1","1","1","1","5","1","0","1","0","0","1","1","0","0","0","0","0","0","0","0","0","5","3","3","1","1","5","3","5","4","1","770428348274053122","刘","20231101","","","","","","","","","","","","","","","","","","","","","","","","","","","","","","feedback_test","","","","","","","","","",""
"321","","j","psychophysics","157","806129","0.0-7.0-0.0-1.1-0.1-0.73","4","4","4","4","4","4","4","4","4","4","5","5","3","5","4","5","5","5","5","5","1","1","1","1","1","1","1","5","1","0","1","0","0","1","1","0","0","0","0","0","0","0","0","0","5","3","3","1","1","5","3","5","4","1","770428348274053122","刘","20231101","","","","match","","","","","","","","","","","","","","key","j","8.332784810127054","960","536","f","false","nonmatch","img/diamond.png","圆形","菱形","ALT1_1","prac_ALT1_1","","","","","","","","","",""
"null","<span style='color:red; font-size: 70px;'>错误! </span>","null","html-keyboard-response","158","806630","0.0-7.0-0.0-1.1-0.1-1.73","4","4","4","4","4","4","4","4","4","4","5","5","3","5","4","5","5","5","5","5","1","1","1","1","1","1","1","5","1","0","1","0","0","1","1","0","0","0","0","0","0","0","0","0","5","3","3","1","1","5","3","5","4","1","770428348274053122","刘","20231101","","","","","","","","","","","","","","","","","","","","","","","","","","","","","","feedback_test","","","","","","","","","",""
"365","","f","psychophysics","159","807996","0.0-7.0-0.0-1.1-0.1-0.74","4","4","4","4","4","4","4","4","4","4","5","5","3","5","4","5","5","5","5","5","1","1","1","1","1","1","1","5","1","0","1","0","0","1","1","0","0","0","0","0","0","0","0","0","5","3","3","1","1","5","3","5","4","1","770428348274053122","刘","20231101","","","","nonmatch","","","","","","","","","","","","","","key","f","8.333092024539843","960","536","j","false","match","img/diamond.png","菱形","菱形","ALT1_1","prac_ALT1_1","","","","","","","","","",""
"null","<span style='color:red; font-size: 70px;'>错误! </span>","null","html-keyboard-response","160","808497","0.0-7.0-0.0-1.1-0.1-1.74","4","4","4","4","4","4","4","4","4","4","5","5","3","5","4","5","5","5","5","5","1","1","1","1","1","1","1","5","1","0","1","0","0","1","1","0","0","0","0","0","0","0","0","0","5","3","3","1","1","5","3","5","4","1","770428348274053122","刘","20231101","","","","","","","","","","","","","","","","","","","","","","","","","","","","","","feedback_test","","","","","","","","","",""
"415","","f","psychophysics","161","809913","0.0-7.0-0.0-1.1-0.1-0.75","4","4","4","4","4","4","4","4","4","4","5","5","3","5","4","5","5","5","5","5","1","1","1","1","1","1","1","5","1","0","1","0","0","1","1","0","0","0","0","0","0","0","0","0","5","3","3","1","1","5","3","5","4","1","770428348274053122","刘","20231101","","","","nonmatch","","","","","","","","","","","","","","key","f","8.332964497041123","960","536","j","false","match","img/trapezoid.png","梯形","梯形","ALT1_1","prac_ALT1_1","","","","","","","","","",""
"null","<span style='color:red; font-size: 70px;'>错误! </span>","null","html-keyboard-response","162","810413","0.0-7.0-0.0-1.1-0.1-1.75","4","4","4","4","4","4","4","4","4","4","5","5","3","5","4","5","5","5","5","5","1","1","1","1","1","1","1","5","1","0","1","0","0","1","1","0","0","0","0","0","0","0","0","0","5","3","3","1","1","5","3","5","4","1","770428348274053122","刘","20231101","","","","","","","","","","","","","","","","","","","","","","","","","","","","","","feedback_test","","","","","","","","","",""
"138","","f","psychophysics","163","811553","0.0-7.0-0.0-1.1-0.1-0.76","4","4","4","4","4","4","4","4","4","4","5","5","3","5","4","5","5","5","5","5","1","1","1","1","1","1","1","5","1","0","1","0","0","1","1","0","0","0","0","0","0","0","0","0","5","3","3","1","1","5","3","5","4","1","770428348274053122","刘","20231101","","","","nonmatch","","","","","","","","","","","","","","key","f","8.333213235294405","960","536","j","false","match","img/trapezoid.png","梯形","梯形","ALT1_1","prac_ALT1_1","","","","","","","","","",""
"null","<span style='color:yellow; font-size: 70px;'>过快! </span>","null","html-keyboard-response","164","812054","0.0-7.0-0.0-1.1-0.1-1.76","4","4","4","4","4","4","4","4","4","4","5","5","3","5","4","5","5","5","5","5","1","1","1","1","1","1","1","5","1","0","1","0","0","1","1","0","0","0","0","0","0","0","0","0","5","3","3","1","1","5","3","5","4","1","770428348274053122","刘","20231101","","","","","","","","","","","","","","","","","","","","","","","","","","","","","","feedback_test","","","","","","","","","",""
"249","","f","psychophysics","165","813304","0.0-7.0-0.0-1.1-0.1-0.77","4","4","4","4","4","4","4","4","4","4","5","5","3","5","4","5","5","5","5","5","1","1","1","1","1","1","1","5","1","0","1","0","0","1","1","0","0","0","0","0","0","0","0","0","5","3","3","1","1","5","3","5","4","1","770428348274053122","刘","20231101","","","","nonmatch","","","","","","","","","","","","","","key","f","8.333000000000576","960","536","f","true","nonmatch","img/pentagon.png","圆形","五边","ALT1_1","prac_ALT1_1","","","","","","","","","",""
"null","<span style='color:GreenYellow; font-size: 70px;'>正确! </span>","null","html-keyboard-response","166","813804","0.0-7.0-0.0-1.1-0.1-1.77","4","4","4","4","4","4","4","4","4","4","5","5","3","5","4","5","5","5","5","5","1","1","1","1","1","1","1","5","1","0","1","0","0","1","1","0","0","0","0","0","0","0","0","0","5","3","3","1","1","5","3","5","4","1","770428348274053122","刘","20231101","","","","","","","","","","","","","","","","","","","","","","","","","","","","","","feedback_test","","","","","","","","","",""
"286","","f","psychophysics","167","815092","0.0-7.0-0.0-1.1-0.1-0.78","4","4","4","4","4","4","4","4","4","4","5","5","3","5","4","5","5","5","5","5","1","1","1","1","1","1","1","5","1","0","1","0","0","1","1","0","0","0","0","0","0","0","0","0","5","3","3","1","1","5","3","5","4","1","770428348274053122","刘","20231101","","","","nonmatch","","","","","","","","","","","","","","key","f","8.333012987012891","960","536","f","true","nonmatch","img/trapezoid.png","菱形","梯形","ALT1_1","prac_ALT1_1","","","","","","","","","",""
"null","<span style='color:GreenYellow; font-size: 70px;'>正确! </span>","null","html-keyboard-response","168","815593","0.0-7.0-0.0-1.1-0.1-1.78","4","4","4","4","4","4","4","4","4","4","5","5","3","5","4","5","5","5","5","5","1","1","1","1","1","1","1","5","1","0","1","0","0","1","1","0","0","0","0","0","0","0","0","0","5","3","3","1","1","5","3","5","4","1","770428348274053122","刘","20231101","","","","","","","","","","","","","","","","","","","","","","","","","","","","","","feedback_test","","","","","","","","","",""
"312","","f","psychophysics","169","816907","0.0-7.0-0.0-1.1-0.1-0.79","4","4","4","4","4","4","4","4","4","4","5","5","3","5","4","5","5","5","5","5","1","1","1","1","1","1","1","5","1","0","1","0","0","1","1","0","0","0","0","0","0","0","0","0","5","3","3","1","1","5","3","5","4","1","770428348274053122","刘","20231101","","","","nonmatch","","","","","","","","","","","","","","key","f","8.33303205128192","960","536","f","true","nonmatch","img/pentagon.png","梯形","五边","ALT1_1","prac_ALT1_1","","","","","","","","","",""
"null","<span style='color:GreenYellow; font-size: 70px;'>正确! </span>","null","html-keyboard-response","170","817407","0.0-7.0-0.0-1.1-0.1-1.79","4","4","4","4","4","4","4","4","4","4","5","5","3","5","4","5","5","5","5","5","1","1","1","1","1","1","1","5","1","0","1","0","0","1","1","0","0","0","0","0","0","0","0","0","5","3","3","1","1","5","3","5","4","1","770428348274053122","刘","20231101","","","","","","","","","","","","","","","","","","","","","","","","","","","","","","feedback_test","","","","","","","","","",""
"436","","j","psychophysics","171","818844","0.0-7.0-0.0-1.1-0.1-0.80","4","4","4","4","4","4","4","4","4","4","5","5","3","5","4","5","5","5","5","5","1","1","1","1","1","1","1","5","1","0","1","0","0","1","1","0","0","0","0","0","0","0","0","0","5","3","3","1","1","5","3","5","4","1","770428348274053122","刘","20231101","","","","match","","","","","","","","","","","","","","key","j","8.376423529411584","960","536","j","true","match","img/diamond.png","菱形","菱形","ALT1_1","prac_ALT1_1","","","","","","","","","",""
"null","<span style='color:GreenYellow; font-size: 70px;'>正确! </span>","null","html-keyboard-response","172","819344","0.0-7.0-0.0-1.1-0.1-1.80","4","4","4","4","4","4","4","4","4","4","5","5","3","5","4","5","5","5","5","5","1","1","1","1","1","1","1","5","1","0","1","0","0","1","1","0","0","0","0","0","0","0","0","0","5","3","3","1","1","5","3","5","4","1","770428348274053122","刘","20231101","","","","","","","","","","","","","","","","","","","","","","","","","","","","","","feedback_test","","","","","","","","","",""
"161","","j","psychophysics","173","820507","0.0-7.0-0.0-1.1-0.1-0.81","4","4","4","4","4","4","4","4","4","4","5","5","3","5","4","5","5","5","5","5","1","1","1","1","1","1","1","5","1","0","1","0","0","1","1","0","0","0","0","0","0","0","0","0","5","3","3","1","1","5","3","5","4","1","770428348274053122","刘","20231101","","","","match","","","","","","","","","","","","","","key","j","8.333014492753664","960","536","j","true","match","img/circle.png","圆形","圆形","ALT1_1","prac_ALT1_1","","","","","","","","","",""
"null","<span style='color:yellow; font-size: 70px;'>过快! </span>","null","html-keyboard-response","174","821007","0.0-7.0-0.0-1.1-0.1-1.81","4","4","4","4","4","4","4","4","4","4","5","5","3","5","4","5","5","5","5","5","1","1","1","1","1","1","1","5","1","0","1","0","0","1","1","0","0","0","0","0","0","0","0","0","5","3","3","1","1","5","3","5","4","1","770428348274053122","刘","20231101","","","","","","","","","","","","","","","","","","","","","","","","","","","","","","feedback_test","","","","","","","","","",""
"262","","j","psychophysics","175","822271","0.0-7.0-0.0-1.1-0.1-0.82","4","4","4","4","4","4","4","4","4","4","5","5","3","5","4","5","5","5","5","5","1","1","1","1","1","1","1","5","1","0","1","0","0","1","1","0","0","0","0","0","0","0","0","0","5","3","3","1","1","5","3","5","4","1","770428348274053122","刘","20231101","","","","match","","","","","","","","","","","","","","key","j","8.324446666666772","960","536","f","false","nonmatch","img/trapezoid.png","五边","梯形","ALT1_1","prac_ALT1_1","","","","","","","","","",""
"null","<span style='color:red; font-size: 70px;'>错误! </span>","null","html-keyboard-response","176","822771","0.0-7.0-0.0-1.1-0.1-1.82","4","4","4","4","4","4","4","4","4","4","5","5","3","5","4","5","5","5","5","5","1","1","1","1","1","1","1","5","1","0","1","0","0","1","1","0","0","0","0","0","0","0","0","0","5","3","3","1","1","5","3","5","4","1","770428348274053122","刘","20231101","","","","","","","","","","","","","","","","","","","","","","","","","","","","","","feedback_test","","","","","","","","","",""
"350","","j","psychophysics","177","824122","0.0-7.0-0.0-1.1-0.1-0.83","4","4","4","4","4","4","4","4","4","4","5","5","3","5","4","5","5","5","5","5","1","1","1","1","1","1","1","5","1","0","1","0","0","1","1","0","0","0","0","0","0","0","0","0","5","3","3","1","1","5","3","5","4","1","770428348274053122","刘","20231101","","","","match","","","","","","","","","","","","","","key","j","8.332813664596175","960","536","j","true","match","img/pentagon.png","五边","五边","ALT1_1","prac_ALT1_1","","","","","","","","","",""
"null","<span style='color:GreenYellow; font-size: 70px;'>正确! </span>","null","html-keyboard-response","178","824622","0.0-7.0-0.0-1.1-0.1-1.83","4","4","4","4","4","4","4","4","4","4","5","5","3","5","4","5","5","5","5","5","1","1","1","1","1","1","1","5","1","0","1","0","0","1","1","0","0","0","0","0","0","0","0","0","5","3","3","1","1","5","3","5","4","1","770428348274053122","刘","20231101","","","","","","","","","","","","","","","","","","","","","","","","","","","","","","feedback_test","","","","","","","","","",""
"282","","j","psychophysics","179","825905","0.0-7.0-0.0-1.1-0.1-0.84","4","4","4","4","4","4","4","4","4","4","5","5","3","5","4","5","5","5","5","5","1","1","1","1","1","1","1","5","1","0","1","0","0","1","1","0","0","0","0","0","0","0","0","0","5","3","3","1","1","5","3","5","4","1","770428348274053122","刘","20231101","","","","match","","","","","","","","","","","","","","key","j","8.332869281045776","960","536","j","true","match","img/trapezoid.png","梯形","梯形","ALT1_1","prac_ALT1_1","","","","","","","","","",""
"null","<span style='color:GreenYellow; font-size: 70px;'>正确! </span>","null","html-keyboard-response","180","826406","0.0-7.0-0.0-1.1-0.1-1.84","4","4","4","4","4","4","4","4","4","4","5","5","3","5","4","5","5","5","5","5","1","1","1","1","1","1","1","5","1","0","1","0","0","1","1","0","0","0","0","0","0","0","0","0","5","3","3","1","1","5","3","5","4","1","770428348274053122","刘","20231101","","","","","","","","","","","","","","","","","","","","","","","","","","","","","","feedback_test","","","","","","","","","",""
"336","","f","psychophysics","181","827743","0.0-7.0-0.0-1.1-0.1-0.85","4","4","4","4","4","4","4","4","4","4","5","5","3","5","4","5","5","5","5","5","1","1","1","1","1","1","1","5","1","0","1","0","0","1","1","0","0","0","0","0","0","0","0","0","5","3","3","1","1","5","3","5","4","1","770428348274053122","刘","20231101","","","","nonmatch","","","","","","","","","","","","","","key","f","8.332993749999877","960","536","f","true","nonmatch","img/circle.png","五边","圆形","ALT1_1","prac_ALT1_1","","","","","","","","","",""
"null","<span style='color:GreenYellow; font-size: 70px;'>正确! </span>","null","html-keyboard-response","182","828244","0.0-7.0-0.0-1.1-0.1-1.85","4","4","4","4","4","4","4","4","4","4","5","5","3","5","4","5","5","5","5","5","1","1","1","1","1","1","1","5","1","0","1","0","0","1","1","0","0","0","0","0","0","0","0","0","5","3","3","1","1","5","3","5","4","1","770428348274053122","刘","20231101","","","","","","","","","","","","","","","","","","","","","","","","","","","","","","feedback_test","","","","","","","","","",""
"404","","j","psychophysics","183","829649","0.0-7.0-0.0-1.1-0.1-0.86","4","4","4","4","4","4","4","4","4","4","5","5","3","5","4","5","5","5","5","5","1","1","1","1","1","1","1","5","1","0","1","0","0","1","1","0","0","0","0","0","0","0","0","0","5","3","3","1","1","5","3","5","4","1","770428348274053122","刘","20231101","","","","match","","","","","","","","","","","","","","key","j","8.332892215568823","960","536","f","false","nonmatch","img/diamond.png","五边","菱形","ALT1_1","prac_ALT1_1","","","","","","","","","",""
