"rt","stimulus","response","trial_type","trial_index","time_elapsed","internal_node_id","ses_1","ses_2","ses_3","ses_4","ses_5","ses_6","ses_7","ses_8","ses_9","ses_10","coreself_1","coreself_2","coreself_3","coreself_4","coreself_5","coreself_6","coreself_7","coreself_8","coreself_9","coreself_10","SGPS_1","SGPS_2","SGPS_3","SGPS_4","SGPS_5","SGPS_6","SGPS_7","SGPS_8","SGPS_9","NPI1","NPI2","NPI3","NPI4","NPI5","NPI6","NPI7","NPI8","NPI9","NPI10","NPI11","NPI12","NPI13","NPI14","NPI15","hsns_1","hsns_2","hsns_3","hsns_4","hsns_5","hsns_6","hsns_7","hsns_8","hsns_9","hsns_10","subj_idx","friend_name","ParticipantID","value","success","user_agent","responses","item_order","radio_event_ids","radio_event_times","key_event_times","mouse_event_times","straightlining","zigzagging","honeypot","timeout","failed_images","failed_audio","failed_video","version_attrib2","version_target2","correct","IAT","screen_id","task_id","RT","condition","word","varname","summary","version_attrib","version_target","time_stamp","view_history","response_type","key_press","avg_frame_time","center_x","center_y","correct_response","identity","Image","question_order"
"3502","
   <p><div style = ""color: white;font-size:25px;"">您好，欢迎参加本次实验。</div> </p>
   <p><div style = ""color: white;font-size:25px;"">为充分保障您的权利，请确保您已经知晓并同意《参与实验同意书》以及《数据公开知情同意书》。</div></p>
   <p><div style = ""color: white;font-size:25px;"">如果您未见过上述内容，请咨询实验员。</div></p>
   <p><div style = ""color: white;font-size:25px;"">如果您选择继续实验，则表示您已经清楚两份知情同意书的内容并同意。</div></p>
   <p><div style = ""color: red;font-size:30px;"">请确保您记得day0的实验编号，您将在本次实验输入该编号，若您忘记，请咨询实验员后作答。</div></p>
   <p> <div style = ""color: green;font-size:25px;""><按空格键至下页></div> </p>
   "," ","html-keyboard-response","0","3503","0.0-0.0","4","4","4","4","4","4","4","3","4","4","5","5","5","5","5","5","5","5","5","5","1","1","1","1","1","1","1","1","1","0","1","0","0","0","0","0","1","0","0","0","0","1","0","1","5","1","1","1","1","1","3","1","3","1","718581844601208832","周","216","","","","","","","","","","","","","","","","","","","","","","","","","","","","","","","","","","","","","","","",""
"","","","call-function","1","3504","0.0-1.0-0.0","4","4","4","4","4","4","4","3","4","4","5","5","5","5","5","5","5","5","5","5","1","1","1","1","1","1","1","1","1","0","1","0","0","0","0","0","1","0","0","0","0","1","0","1","5","1","1","1","1","1","3","1","3","1","718581844601208832","周","216","","","","","","","","","","","","","","","","","","","","","","","","","","","","","","","","","","","","","","","",""
"51027","","{""friend_name"":""周"",""ParticipantID"":""216""}","survey-html-form","2","54531","0.0-1.0-1.0","4","4","4","4","4","4","4","3","4","4","5","5","5","5","5","5","5","5","5","5","1","1","1","1","1","1","1","1","1","0","1","0","0","0","0","0","1","0","0","0","0","1","0","1","5","1","1","1","1","1","3","1","3","1","718581844601208832","周","216","","","","","","","","","","","","","","","","","","","","","","","","","","","","","","","","","","","","","","","",""
"","","","fullscreen","3","61503","0.0-2.0","4","4","4","4","4","4","4","3","4","4","5","5","5","5","5","5","5","5","5","5","1","1","1","1","1","1","1","1","1","0","1","0","0","0","0","0","1","0","0","0","0","1","0","1","5","1","1","1","1","1","3","1","3","1","718581844601208832","周","216","","true","{}","","","","","","","","","","","","","","","","","","","","","","","","","","","","","","","","","","","","",""
"61915","","{""Q01"":""4"",""Q02"":""4"",""Q03"":""4"",""Q04"":""4"",""Q05"":""4"",""Q06"":""4"",""Q07"":""4"",""Q08"":""3"",""Q09"":""4"",""Q10"":""4""}","survey-template","4","123420","0.0-3.0","4","4","4","4","4","4","4","3","4","4","5","5","5","5","5","5","5","5","5","5","1","1","1","1","1","1","1","1","1","0","1","0","0","0","0","0","1","0","0","0","0","1","0","1","5","1","1","1","1","1","3","1","3","1","718581844601208832","周","216","","","","{""Q01"":""4"",""Q02"":""4"",""Q03"":""4"",""Q04"":""4"",""Q05"":""4"",""Q06"":""4"",""Q07"":""4"",""Q08"":""3"",""Q09"":""4"",""Q10"":""4""}","[0,1,2,3,4,5,6,7,8,9]","[""Q01"",""Q02"",""Q03"",""Q04"",""Q05"",""Q06"",""Q07"",""Q09"",""Q10"",""Q08""]","[3698.7999999523163,5570,8250.099999904633,11530.099999904633,14465.900000095367,16770,21985.900000095367,25402,26330.099999904633,41577.90000009537]","[]","[3698.7999999523163,5570,7466,8250.099999904633,11530.099999904633,14465.900000095367,16770,21474,21985.900000095367,24498.400000095367,25402,26330.099999904633,40866.09999990463,41577.90000009537,61914.200000047684]","0.5","0.5555555555555556","0","","","","","","","","","","","","","","","","","","","","","","","","","","","",""
"67896.70000004768","","{""Q01"":""5"",""Q02"":""5"",""Q03"":""5"",""Q04"":""5"",""Q05"":""5"",""Q06"":""5"",""Q07"":""5"",""Q08"":""5"",""Q09"":""5"",""Q10"":""5""}","survey-template","5","191320","0.0-4.0","4","4","4","4","4","4","4","3","4","4","5","5","5","5","5","5","5","5","5","5","1","1","1","1","1","1","1","1","1","0","1","0","0","0","0","0","1","0","0","0","0","1","0","1","5","1","1","1","1","1","3","1","3","1","718581844601208832","周","216","","","","{""Q01"":""5"",""Q02"":""5"",""Q03"":""5"",""Q04"":""5"",""Q05"":""5"",""Q06"":""5"",""Q07"":""5"",""Q08"":""5"",""Q09"":""5"",""Q10"":""5""}","[0,1,2,3,4,5,6,7,8,9]","[""Q01"",""Q02"",""Q03"",""Q04"",""Q05"",""Q06"",""Q07"",""Q08"",""Q09"",""Q10""]","[3917.5,6772.299999952316,7779.900000095367,13924.200000047684,16539.799999952316,17872.099999904633,19165.099999904633,23243.900000095367,27852.200000047684,39551.59999990463]","[]","[3917.5,6171.900000095367,6772.299999952316,7411.900000095367,7779.900000095367,13924.200000047684,16539.799999952316,17872.099999904633,19165.099999904633,23243.900000095367,27036.5,27852.200000047684,39551.59999990463,67895.90000009537]","0.6","0.7777777777777778","0","","","","","","","","","","","","","","","","","","","","","","","","","","","",""
"","","","preload","6","191328","0.0-5.0","4","4","4","4","4","4","4","3","4","4","5","5","5","5","5","5","5","5","5","5","1","1","1","1","1","1","1","1","1","0","1","0","0","0","0","0","1","0","0","0","0","1","0","1","5","1","1","1","1","1","3","1","3","1","718581844601208832","周","216","","true","","","","","","","","","","","false","[]","[]","[]","","","","","","","","","","","","","","","","","","","","","","","",""
"16599","
    <h3>词语分类任务</h3>
    <p>在接下来的任务中，你需要对一系列词语进行分类。<p/>
    请先熟悉这些词语，这有利于你完成接下来的任务。</p>
    <table align=""center"" border=1 cellpadding=3 cellspacing=0>
    <tr> <th>类别</th> <th>词语</th> </tr>
    <tr> <td>&emsp;积极&emsp;</td> <td>&emsp;高尚、诚信、善良、君子、廉正、正直&emsp;</td> </tr>
    <tr> <td>&emsp;消极&emsp;</td> <td>&emsp;缺德、卑鄙、不孝、不仁、小人、黑心&emsp;</td> </tr>
    <tr> <td>&emsp;自我&emsp;</td> <td>&emsp;我、我的、自己、自己的、本人、本人的&emsp;</td> </tr>
    <tr> <td>&emsp;他人&emsp;</td> <td>&emsp;他、他的、别人、别人的、他人、他人的&emsp;</td> </tr>
    </table><br/>","0","html-button-response","7","207927","0.0-6.0-1.0-0.0","4","4","4","4","4","4","4","3","4","4","5","5","5","5","5","5","5","5","5","5","1","1","1","1","1","1","1","1","1","0","1","0","0","0","0","0","1","0","0","0","0","1","0","1","5","1","1","1","1","1","3","1","3","1","718581844601208832","周","216","","","","","","","","","","","","","","","","","1","2","","","","","","","","","","","","","","","","","","","","","",""
"7150","
    <div class=""tag-bottom""><p>
    —— 任务1：对“他人”词和“自我”词分类 ——<p/>
    不同词语会出现在屏幕中央，类别标签将始终显示在屏幕上方<p/>   
    <span style=""color:#FFD866""><b>请根据上方标签的提示，尽可能正确并且快速地做出按键反应</b></span><p/>
    当按键错误时屏幕中会出现<span style=""color:red""> X </span>，需要按另一个键纠正才能继续<br/><p/>
    请把双手食指分别放在键盘的“E”键和“I”键上<p/>
    按<空格键>开始
    </p></div>"," ","html-keyboard-response","8","215078","0.0-6.0-1.0-1.0","4","4","4","4","4","4","4","3","4","4","5","5","5","5","5","5","5","5","5","5","1","1","1","1","1","1","1","1","1","0","1","0","0","0","0","0","1","0","0","0","0","1","0","1","5","1","1","1","1","1","3","1","3","1","718581844601208832","周","216","","","","","","","","","","","","","","","","","","","","","","","","","","","","","","","","","","","","","","","",""
"null","","null","html-keyboard-response","9","215335","0.0-6.0-1.0-2.0-0.0","4","4","4","4","4","4","4","3","4","4","5","5","5","5","5","5","5","5","5","5","1","1","1","1","1","1","1","1","1","0","1","0","0","0","0","0","1","0","0","0","0","1","0","1","5","1","1","1","1","1","3","1","3","1","718581844601208832","周","216","","","","","","","","","","","","","","","","","","","","","","","","","","","","","","","","","","","","","","","",""
"534","<p style=""color:rgb(150, 250, 100); font-size: 35px;"">他人</p>","e","categorize-html","10","215870","0.0-6.0-1.0-2.0-1.0","4","4","4","4","4","4","4","3","4","4","5","5","5","5","5","5","5","5","5","5","1","1","1","1","1","1","1","1","1","0","1","0","0","0","0","0","1","0","0","0","0","1","0","1","5","1","1","1","1","1","3","1","3","1","718581844601208832","周","216","","","","","","","","","","","","","","","","","","","true","11","1","moral","534","other","他人","","","","","","","","","","","","","","",""
"null","","null","html-keyboard-response","11","216128","0.0-6.0-1.0-2.0-0.1","4","4","4","4","4","4","4","3","4","4","5","5","5","5","5","5","5","5","5","5","1","1","1","1","1","1","1","1","1","0","1","0","0","0","0","0","1","0","0","0","0","1","0","1","5","1","1","1","1","1","3","1","3","1","718581844601208832","周","216","","","","","","","","","","","","","","","","","","","","","","","","","","","","","","","","","","","","","","","",""
"822","<p style=""color:rgb(150, 250, 100); font-size: 35px;"">我</p>","i","categorize-html","12","216951","0.0-6.0-1.0-2.0-1.1","4","4","4","4","4","4","4","3","4","4","5","5","5","5","5","5","5","5","5","5","1","1","1","1","1","1","1","1","1","0","1","0","0","0","0","0","1","0","0","0","0","1","0","1","5","1","1","1","1","1","3","1","3","1","718581844601208832","周","216","","","","","","","","","","","","","","","","","","","true","11","1","moral","822","self","我","","","","","","","","","","","","","","",""
"null","","null","html-keyboard-response","13","217202","0.0-6.0-1.0-2.0-0.2","4","4","4","4","4","4","4","3","4","4","5","5","5","5","5","5","5","5","5","5","1","1","1","1","1","1","1","1","1","0","1","0","0","0","0","0","1","0","0","0","0","1","0","1","5","1","1","1","1","1","3","1","3","1","718581844601208832","周","216","","","","","","","","","","","","","","","","","","","","","","","","","","","","","","","","","","","","","","","",""
"532","<p style=""color:rgb(150, 250, 100); font-size: 35px;"">自己</p>","i","categorize-html","14","217734","0.0-6.0-1.0-2.0-1.2","4","4","4","4","4","4","4","3","4","4","5","5","5","5","5","5","5","5","5","5","1","1","1","1","1","1","1","1","1","0","1","0","0","0","0","0","1","0","0","0","0","1","0","1","5","1","1","1","1","1","3","1","3","1","718581844601208832","周","216","","","","","","","","","","","","","","","","","","","true","11","1","moral","532","self","自己","","","","","","","","","","","","","","",""
"null","","null","html-keyboard-response","15","217992","0.0-6.0-1.0-2.0-0.3","4","4","4","4","4","4","4","3","4","4","5","5","5","5","5","5","5","5","5","5","1","1","1","1","1","1","1","1","1","0","1","0","0","0","0","0","1","0","0","0","0","1","0","1","5","1","1","1","1","1","3","1","3","1","718581844601208832","周","216","","","","","","","","","","","","","","","","","","","","","","","","","","","","","","","","","","","","","","","",""
"430","<p style=""color:rgb(150, 250, 100); font-size: 35px;"">他人的</p>","e","categorize-html","16","218423","0.0-6.0-1.0-2.0-1.3","4","4","4","4","4","4","4","3","4","4","5","5","5","5","5","5","5","5","5","5","1","1","1","1","1","1","1","1","1","0","1","0","0","0","0","0","1","0","0","0","0","1","0","1","5","1","1","1","1","1","3","1","3","1","718581844601208832","周","216","","","","","","","","","","","","","","","","","","","true","11","1","moral","430","other","他人的","","","","","","","","","","","","","","",""
"null","","null","html-keyboard-response","17","218674","0.0-6.0-1.0-2.0-0.4","4","4","4","4","4","4","4","3","4","4","5","5","5","5","5","5","5","5","5","5","1","1","1","1","1","1","1","1","1","0","1","0","0","0","0","0","1","0","0","0","0","1","0","1","5","1","1","1","1","1","3","1","3","1","718581844601208832","周","216","","","","","","","","","","","","","","","","","","","","","","","","","","","","","","","","","","","","","","","",""
"468","<p style=""color:rgb(150, 250, 100); font-size: 35px;"">本人</p>","i","categorize-html","18","219142","0.0-6.0-1.0-2.0-1.4","4","4","4","4","4","4","4","3","4","4","5","5","5","5","5","5","5","5","5","5","1","1","1","1","1","1","1","1","1","0","1","0","0","0","0","0","1","0","0","0","0","1","0","1","5","1","1","1","1","1","3","1","3","1","718581844601208832","周","216","","","","","","","","","","","","","","","","","","","true","11","1","moral","468","self","本人","","","","","","","","","","","","","","",""
"null","","null","html-keyboard-response","19","219400","0.0-6.0-1.0-2.0-0.5","4","4","4","4","4","4","4","3","4","4","5","5","5","5","5","5","5","5","5","5","1","1","1","1","1","1","1","1","1","0","1","0","0","0","0","0","1","0","0","0","0","1","0","1","5","1","1","1","1","1","3","1","3","1","718581844601208832","周","216","","","","","","","","","","","","","","","","","","","","","","","","","","","","","","","","","","","","","","","",""
"430","<p style=""color:rgb(150, 250, 100); font-size: 35px;"">他的</p>","e","categorize-html","20","219830","0.0-6.0-1.0-2.0-1.5","4","4","4","4","4","4","4","3","4","4","5","5","5","5","5","5","5","5","5","5","1","1","1","1","1","1","1","1","1","0","1","0","0","0","0","0","1","0","0","0","0","1","0","1","5","1","1","1","1","1","3","1","3","1","718581844601208832","周","216","","","","","","","","","","","","","","","","","","","true","11","1","moral","430","other","他的","","","","","","","","","","","","","","",""
"null","","null","html-keyboard-response","21","220087","0.0-6.0-1.0-2.0-0.6","4","4","4","4","4","4","4","3","4","4","5","5","5","5","5","5","5","5","5","5","1","1","1","1","1","1","1","1","1","0","1","0","0","0","0","0","1","0","0","0","0","1","0","1","5","1","1","1","1","1","3","1","3","1","718581844601208832","周","216","","","","","","","","","","","","","","","","","","","","","","","","","","","","","","","","","","","","","","","",""
"383","<p style=""color:rgb(150, 250, 100); font-size: 35px;"">他</p>","e","categorize-html","22","220471","0.0-6.0-1.0-2.0-1.6","4","4","4","4","4","4","4","3","4","4","5","5","5","5","5","5","5","5","5","5","1","1","1","1","1","1","1","1","1","0","1","0","0","0","0","0","1","0","0","0","0","1","0","1","5","1","1","1","1","1","3","1","3","1","718581844601208832","周","216","","","","","","","","","","","","","","","","","","","true","11","1","moral","383","other","他","","","","","","","","","","","","","","",""
"null","","null","html-keyboard-response","23","220723","0.0-6.0-1.0-2.0-0.7","4","4","4","4","4","4","4","3","4","4","5","5","5","5","5","5","5","5","5","5","1","1","1","1","1","1","1","1","1","0","1","0","0","0","0","0","1","0","0","0","0","1","0","1","5","1","1","1","1","1","3","1","3","1","718581844601208832","周","216","","","","","","","","","","","","","","","","","","","","","","","","","","","","","","","","","","","","","","","",""
"443","<p style=""color:rgb(150, 250, 100); font-size: 35px;"">本人的</p>","i","categorize-html","24","221166","0.0-6.0-1.0-2.0-1.7","4","4","4","4","4","4","4","3","4","4","5","5","5","5","5","5","5","5","5","5","1","1","1","1","1","1","1","1","1","0","1","0","0","0","0","0","1","0","0","0","0","1","0","1","5","1","1","1","1","1","3","1","3","1","718581844601208832","周","216","","","","","","","","","","","","","","","","","","","true","11","1","moral","443","self","本人的","","","","","","","","","","","","","","",""
"null","","null","html-keyboard-response","25","221423","0.0-6.0-1.0-2.0-0.8","4","4","4","4","4","4","4","3","4","4","5","5","5","5","5","5","5","5","5","5","1","1","1","1","1","1","1","1","1","0","1","0","0","0","0","0","1","0","0","0","0","1","0","1","5","1","1","1","1","1","3","1","3","1","718581844601208832","周","216","","","","","","","","","","","","","","","","","","","","","","","","","","","","","","","","","","","","","","","",""
"423","<p style=""color:rgb(150, 250, 100); font-size: 35px;"">自己的</p>","e","categorize-html","26","221943","0.0-6.0-1.0-2.0-1.8","4","4","4","4","4","4","4","3","4","4","5","5","5","5","5","5","5","5","5","5","1","1","1","1","1","1","1","1","1","0","1","0","0","0","0","0","1","0","0","0","0","1","0","1","5","1","1","1","1","1","3","1","3","1","718581844601208832","周","216","","","","","","","","","","","","","","","","","","","false","11","1","moral","423","self","自己的","","","","","","","","","","","","","","",""
"null","","null","html-keyboard-response","27","222200","0.0-6.0-1.0-2.0-0.9","4","4","4","4","4","4","4","3","4","4","5","5","5","5","5","5","5","5","5","5","1","1","1","1","1","1","1","1","1","0","1","0","0","0","0","0","1","0","0","0","0","1","0","1","5","1","1","1","1","1","3","1","3","1","718581844601208832","周","216","","","","","","","","","","","","","","","","","","","","","","","","","","","","","","","","","","","","","","","",""
"1094","<p style=""color:rgb(150, 250, 100); font-size: 35px;"">别人的</p>","e","categorize-html","28","223294","0.0-6.0-1.0-2.0-1.9","4","4","4","4","4","4","4","3","4","4","5","5","5","5","5","5","5","5","5","5","1","1","1","1","1","1","1","1","1","0","1","0","0","0","0","0","1","0","0","0","0","1","0","1","5","1","1","1","1","1","3","1","3","1","718581844601208832","周","216","","","","","","","","","","","","","","","","","","","true","11","1","moral","1094","other","别人的","","","","","","","","","","","","","","",""
"null","","null","html-keyboard-response","29","223552","0.0-6.0-1.0-2.0-0.10","4","4","4","4","4","4","4","3","4","4","5","5","5","5","5","5","5","5","5","5","1","1","1","1","1","1","1","1","1","0","1","0","0","0","0","0","1","0","0","0","0","1","0","1","5","1","1","1","1","1","3","1","3","1","718581844601208832","周","216","","","","","","","","","","","","","","","","","","","","","","","","","","","","","","","","","","","","","","","",""
"414","<p style=""color:rgb(150, 250, 100); font-size: 35px;"">我的</p>","i","categorize-html","30","223966","0.0-6.0-1.0-2.0-1.10","4","4","4","4","4","4","4","3","4","4","5","5","5","5","5","5","5","5","5","5","1","1","1","1","1","1","1","1","1","0","1","0","0","0","0","0","1","0","0","0","0","1","0","1","5","1","1","1","1","1","3","1","3","1","718581844601208832","周","216","","","","","","","","","","","","","","","","","","","true","11","1","moral","414","self","我的","","","","","","","","","","","","","","",""
"null","","null","html-keyboard-response","31","224217","0.0-6.0-1.0-2.0-0.11","4","4","4","4","4","4","4","3","4","4","5","5","5","5","5","5","5","5","5","5","1","1","1","1","1","1","1","1","1","0","1","0","0","0","0","0","1","0","0","0","0","1","0","1","5","1","1","1","1","1","3","1","3","1","718581844601208832","周","216","","","","","","","","","","","","","","","","","","","","","","","","","","","","","","","","","","","","","","","",""
"445","<p style=""color:rgb(150, 250, 100); font-size: 35px;"">别人</p>","e","categorize-html","32","224662","0.0-6.0-1.0-2.0-1.11","4","4","4","4","4","4","4","3","4","4","5","5","5","5","5","5","5","5","5","5","1","1","1","1","1","1","1","1","1","0","1","0","0","0","0","0","1","0","0","0","0","1","0","1","5","1","1","1","1","1","3","1","3","1","718581844601208832","周","216","","","","","","","","","","","","","","","","","","","true","11","1","moral","445","other","别人","","","","","","","","","","","","","","",""
"904","
    <div class=""tag-bottom""><p>
    —— 任务2：对“积极”词和“消极”词分类 ——<p/>   
    <span style=""color:#78DCE8""><b>注意上方，类别标签和需要分类的词语都已经改变</b></span><p/>
    <span style=""color:#FFD866""><b>请根据上方标签的提示，尽可能正确并且快速地做出按键反应</b></span><p/>
    当按键错误时屏幕中会出现<span style=""color:red""> X </span>，需要按另一个键纠正才能继续<br/><p/>
    请把双手食指分别放在键盘的“E”键和“I”键上<p/>
    按<空格键>开始
    </p></div>"," ","html-keyboard-response","33","225566","0.0-6.0-1.0-3.0","4","4","4","4","4","4","4","3","4","4","5","5","5","5","5","5","5","5","5","5","1","1","1","1","1","1","1","1","1","0","1","0","0","0","0","0","1","0","0","0","0","1","0","1","5","1","1","1","1","1","3","1","3","1","718581844601208832","周","216","","","","","","","","","","","","","","","","","","","","","","","","","","","","","","","","","","","","","","","",""
"null","","null","html-keyboard-response","34","225817","0.0-6.0-1.0-4.0-0.0","4","4","4","4","4","4","4","3","4","4","5","5","5","5","5","5","5","5","5","5","1","1","1","1","1","1","1","1","1","0","1","0","0","0","0","0","1","0","0","0","0","1","0","1","5","1","1","1","1","1","3","1","3","1","718581844601208832","周","216","","","","","","","","","","","","","","","","","","","","","","","","","","","","","","","","","","","","","","","",""
"1317","<p style=""color:white; font-size: 35px;"">廉正</p>","e","categorize-html","35","227141","0.0-6.0-1.0-4.0-1.0","4","4","4","4","4","4","4","3","4","4","5","5","5","5","5","5","5","5","5","5","1","1","1","1","1","1","1","1","1","0","1","0","0","0","0","0","1","0","0","0","0","1","0","1","5","1","1","1","1","1","3","1","3","1","718581844601208832","周","216","","","","","","","","","","","","","","","","","","","true","12","2","moral","1317","positive","廉正","","","","","","","","","","","","","","",""
"null","","null","html-keyboard-response","36","227392","0.0-6.0-1.0-4.0-0.1","4","4","4","4","4","4","4","3","4","4","5","5","5","5","5","5","5","5","5","5","1","1","1","1","1","1","1","1","1","0","1","0","0","0","0","0","1","0","0","0","0","1","0","1","5","1","1","1","1","1","3","1","3","1","718581844601208832","周","216","","","","","","","","","","","","","","","","","","","","","","","","","","","","","","","","","","","","","","","",""
"406","<p style=""color:white; font-size: 35px;"">善良</p>","e","categorize-html","37","227798","0.0-6.0-1.0-4.0-1.1","4","4","4","4","4","4","4","3","4","4","5","5","5","5","5","5","5","5","5","5","1","1","1","1","1","1","1","1","1","0","1","0","0","0","0","0","1","0","0","0","0","1","0","1","5","1","1","1","1","1","3","1","3","1","718581844601208832","周","216","","","","","","","","","","","","","","","","","","","true","12","2","moral","406","positive","善良","","","","","","","","","","","","","","",""
"null","","null","html-keyboard-response","38","228056","0.0-6.0-1.0-4.0-0.2","4","4","4","4","4","4","4","3","4","4","5","5","5","5","5","5","5","5","5","5","1","1","1","1","1","1","1","1","1","0","1","0","0","0","0","0","1","0","0","0","0","1","0","1","5","1","1","1","1","1","3","1","3","1","718581844601208832","周","216","","","","","","","","","","","","","","","","","","","","","","","","","","","","","","","","","","","","","","","",""
"398","<p style=""color:white; font-size: 35px;"">诚信</p>","e","categorize-html","39","228455","0.0-6.0-1.0-4.0-1.2","4","4","4","4","4","4","4","3","4","4","5","5","5","5","5","5","5","5","5","5","1","1","1","1","1","1","1","1","1","0","1","0","0","0","0","0","1","0","0","0","0","1","0","1","5","1","1","1","1","1","3","1","3","1","718581844601208832","周","216","","","","","","","","","","","","","","","","","","","true","12","2","moral","398","positive","诚信","","","","","","","","","","","","","","",""
"null","","null","html-keyboard-response","40","228705","0.0-6.0-1.0-4.0-0.3","4","4","4","4","4","4","4","3","4","4","5","5","5","5","5","5","5","5","5","5","1","1","1","1","1","1","1","1","1","0","1","0","0","0","0","0","1","0","0","0","0","1","0","1","5","1","1","1","1","1","3","1","3","1","718581844601208832","周","216","","","","","","","","","","","","","","","","","","","","","","","","","","","","","","","","","","","","","","","",""
"469","<p style=""color:white; font-size: 35px;"">缺德</p>","i","categorize-html","41","229175","0.0-6.0-1.0-4.0-1.3","4","4","4","4","4","4","4","3","4","4","5","5","5","5","5","5","5","5","5","5","1","1","1","1","1","1","1","1","1","0","1","0","0","0","0","0","1","0","0","0","0","1","0","1","5","1","1","1","1","1","3","1","3","1","718581844601208832","周","216","","","","","","","","","","","","","","","","","","","true","12","2","moral","469","negative","缺德","","","","","","","","","","","","","","",""
"null","","null","html-keyboard-response","42","229425","0.0-6.0-1.0-4.0-0.4","4","4","4","4","4","4","4","3","4","4","5","5","5","5","5","5","5","5","5","5","1","1","1","1","1","1","1","1","1","0","1","0","0","0","0","0","1","0","0","0","0","1","0","1","5","1","1","1","1","1","3","1","3","1","718581844601208832","周","216","","","","","","","","","","","","","","","","","","","","","","","","","","","","","","","","","","","","","","","",""
"413","<p style=""color:white; font-size: 35px;"">卑鄙</p>","i","categorize-html","43","229838","0.0-6.0-1.0-4.0-1.4","4","4","4","4","4","4","4","3","4","4","5","5","5","5","5","5","5","5","5","5","1","1","1","1","1","1","1","1","1","0","1","0","0","0","0","0","1","0","0","0","0","1","0","1","5","1","1","1","1","1","3","1","3","1","718581844601208832","周","216","","","","","","","","","","","","","","","","","","","true","12","2","moral","413","negative","卑鄙","","","","","","","","","","","","","","",""
"null","","null","html-keyboard-response","44","230095","0.0-6.0-1.0-4.0-0.5","4","4","4","4","4","4","4","3","4","4","5","5","5","5","5","5","5","5","5","5","1","1","1","1","1","1","1","1","1","0","1","0","0","0","0","0","1","0","0","0","0","1","0","1","5","1","1","1","1","1","3","1","3","1","718581844601208832","周","216","","","","","","","","","","","","","","","","","","","","","","","","","","","","","","","","","","","","","","","",""
"551","<p style=""color:white; font-size: 35px;"">君子</p>","e","categorize-html","45","230646","0.0-6.0-1.0-4.0-1.5","4","4","4","4","4","4","4","3","4","4","5","5","5","5","5","5","5","5","5","5","1","1","1","1","1","1","1","1","1","0","1","0","0","0","0","0","1","0","0","0","0","1","0","1","5","1","1","1","1","1","3","1","3","1","718581844601208832","周","216","","","","","","","","","","","","","","","","","","","true","12","2","moral","551","positive","君子","","","","","","","","","","","","","","",""
"null","","null","html-keyboard-response","46","230897","0.0-6.0-1.0-4.0-0.6","4","4","4","4","4","4","4","3","4","4","5","5","5","5","5","5","5","5","5","5","1","1","1","1","1","1","1","1","1","0","1","0","0","0","0","0","1","0","0","0","0","1","0","1","5","1","1","1","1","1","3","1","3","1","718581844601208832","周","216","","","","","","","","","","","","","","","","","","","","","","","","","","","","","","","","","","","","","","","",""
"525","<p style=""color:white; font-size: 35px;"">黑心</p>","i","categorize-html","47","231422","0.0-6.0-1.0-4.0-1.6","4","4","4","4","4","4","4","3","4","4","5","5","5","5","5","5","5","5","5","5","1","1","1","1","1","1","1","1","1","0","1","0","0","0","0","0","1","0","0","0","0","1","0","1","5","1","1","1","1","1","3","1","3","1","718581844601208832","周","216","","","","","","","","","","","","","","","","","","","true","12","2","moral","525","negative","黑心","","","","","","","","","","","","","","",""
"null","","null","html-keyboard-response","48","231673","0.0-6.0-1.0-4.0-0.7","4","4","4","4","4","4","4","3","4","4","5","5","5","5","5","5","5","5","5","5","1","1","1","1","1","1","1","1","1","0","1","0","0","0","0","0","1","0","0","0","0","1","0","1","5","1","1","1","1","1","3","1","3","1","718581844601208832","周","216","","","","","","","","","","","","","","","","","","","","","","","","","","","","","","","","","","","","","","","",""
"517","<p style=""color:white; font-size: 35px;"">高尚</p>","e","categorize-html","49","232190","0.0-6.0-1.0-4.0-1.7","4","4","4","4","4","4","4","3","4","4","5","5","5","5","5","5","5","5","5","5","1","1","1","1","1","1","1","1","1","0","1","0","0","0","0","0","1","0","0","0","0","1","0","1","5","1","1","1","1","1","3","1","3","1","718581844601208832","周","216","","","","","","","","","","","","","","","","","","","true","12","2","moral","517","positive","高尚","","","","","","","","","","","","","","",""
"null","","null","html-keyboard-response","50","232441","0.0-6.0-1.0-4.0-0.8","4","4","4","4","4","4","4","3","4","4","5","5","5","5","5","5","5","5","5","5","1","1","1","1","1","1","1","1","1","0","1","0","0","0","0","0","1","0","0","0","0","1","0","1","5","1","1","1","1","1","3","1","3","1","718581844601208832","周","216","","","","","","","","","","","","","","","","","","","","","","","","","","","","","","","","","","","","","","","",""
"981","<p style=""color:white; font-size: 35px;"">不仁</p>","i","categorize-html","51","233422","0.0-6.0-1.0-4.0-1.8","4","4","4","4","4","4","4","3","4","4","5","5","5","5","5","5","5","5","5","5","1","1","1","1","1","1","1","1","1","0","1","0","0","0","0","0","1","0","0","0","0","1","0","1","5","1","1","1","1","1","3","1","3","1","718581844601208832","周","216","","","","","","","","","","","","","","","","","","","true","12","2","moral","981","negative","不仁","","","","","","","","","","","","","","",""
"null","","null","html-keyboard-response","52","233680","0.0-6.0-1.0-4.0-0.9","4","4","4","4","4","4","4","3","4","4","5","5","5","5","5","5","5","5","5","5","1","1","1","1","1","1","1","1","1","0","1","0","0","0","0","0","1","0","0","0","0","1","0","1","5","1","1","1","1","1","3","1","3","1","718581844601208832","周","216","","","","","","","","","","","","","","","","","","","","","","","","","","","","","","","","","","","","","","","",""
"406","<p style=""color:white; font-size: 35px;"">小人</p>","i","categorize-html","53","234086","0.0-6.0-1.0-4.0-1.9","4","4","4","4","4","4","4","3","4","4","5","5","5","5","5","5","5","5","5","5","1","1","1","1","1","1","1","1","1","0","1","0","0","0","0","0","1","0","0","0","0","1","0","1","5","1","1","1","1","1","3","1","3","1","718581844601208832","周","216","","","","","","","","","","","","","","","","","","","true","12","2","moral","406","negative","小人","","","","","","","","","","","","","","",""
"null","","null","html-keyboard-response","54","234343","0.0-6.0-1.0-4.0-0.10","4","4","4","4","4","4","4","3","4","4","5","5","5","5","5","5","5","5","5","5","1","1","1","1","1","1","1","1","1","0","1","0","0","0","0","0","1","0","0","0","0","1","0","1","5","1","1","1","1","1","3","1","3","1","718581844601208832","周","216","","","","","","","","","","","","","","","","","","","","","","","","","","","","","","","","","","","","","","","",""
"455","<p style=""color:white; font-size: 35px;"">正直</p>","e","categorize-html","55","234799","0.0-6.0-1.0-4.0-1.10","4","4","4","4","4","4","4","3","4","4","5","5","5","5","5","5","5","5","5","5","1","1","1","1","1","1","1","1","1","0","1","0","0","0","0","0","1","0","0","0","0","1","0","1","5","1","1","1","1","1","3","1","3","1","718581844601208832","周","216","","","","","","","","","","","","","","","","","","","true","12","2","moral","455","positive","正直","","","","","","","","","","","","","","",""
"null","","null","html-keyboard-response","56","235050","0.0-6.0-1.0-4.0-0.11","4","4","4","4","4","4","4","3","4","4","5","5","5","5","5","5","5","5","5","5","1","1","1","1","1","1","1","1","1","0","1","0","0","0","0","0","1","0","0","0","0","1","0","1","5","1","1","1","1","1","3","1","3","1","718581844601208832","周","216","","","","","","","","","","","","","","","","","","","","","","","","","","","","","","","","","","","","","","","",""
"509","<p style=""color:white; font-size: 35px;"">不孝</p>","i","categorize-html","57","235558","0.0-6.0-1.0-4.0-1.11","4","4","4","4","4","4","4","3","4","4","5","5","5","5","5","5","5","5","5","5","1","1","1","1","1","1","1","1","1","0","1","0","0","0","0","0","1","0","0","0","0","1","0","1","5","1","1","1","1","1","3","1","3","1","718581844601208832","周","216","","","","","","","","","","","","","","","","","","","true","12","2","moral","509","negative","不孝","","","","","","","","","","","","","","",""
"4024","
    <div class=""tag-bottom""><p>
    —— 任务3：对“他人/积极”词和“自我/消极”词分类 ——<p/>
    <span style=""color:#78DCE8""><b>注意上方，之前的四类词语将混合在一起交替呈现</b></span><p/>
    <span style=""color:#FFD866""><b>请根据上方标签的提示，尽可能正确并且快速地做出按键反应</b></span><p/>
    当按键错误时屏幕中会出现<span style=""color:red""> X </span>，需要按另一个键纠正才能继续<br/><p/>
    请把双手食指分别放在键盘的“E”键和“I”键上<p/>
    按<空格键>开始
    </p></div>"," ","html-keyboard-response","58","239582","0.0-6.0-1.0-5.0","4","4","4","4","4","4","4","3","4","4","5","5","5","5","5","5","5","5","5","5","1","1","1","1","1","1","1","1","1","0","1","0","0","0","0","0","1","0","0","0","0","1","0","1","5","1","1","1","1","1","3","1","3","1","718581844601208832","周","216","","","","","","","","","","","","","","","","","","","","","","","","","","","","","","","","","","","","","","","",""
"null","","null","html-keyboard-response","59","239833","0.0-6.0-1.0-6.0-0.0","4","4","4","4","4","4","4","3","4","4","5","5","5","5","5","5","5","5","5","5","1","1","1","1","1","1","1","1","1","0","1","0","0","0","0","0","1","0","0","0","0","1","0","1","5","1","1","1","1","1","3","1","3","1","718581844601208832","周","216","","","","","","","","","","","","","","","","","","","","","","","","","","","","","","","","","","","","","","","",""
"765","<p style=""color:rgb(150, 250, 100); font-size: 35px;"">我的</p>","i","categorize-html","60","240598","0.0-6.0-1.0-6.0-1.0","4","4","4","4","4","4","4","3","4","4","5","5","5","5","5","5","5","5","5","5","1","1","1","1","1","1","1","1","1","0","1","0","0","0","0","0","1","0","0","0","0","1","0","1","5","1","1","1","1","1","3","1","3","1","718581844601208832","周","216","","","","","","","","","","","","","","","","","","","true","13","3","moral","765","self","我的","","","","","","","","","","","","","","",""
"null","","null","html-keyboard-response","61","240850","0.0-6.0-1.0-6.0-0.1","4","4","4","4","4","4","4","3","4","4","5","5","5","5","5","5","5","5","5","5","1","1","1","1","1","1","1","1","1","0","1","0","0","0","0","0","1","0","0","0","0","1","0","1","5","1","1","1","1","1","3","1","3","1","718581844601208832","周","216","","","","","","","","","","","","","","","","","","","","","","","","","","","","","","","","","","","","","","","",""
"484","<p style=""color:white; font-size: 35px;"">不仁</p>","i","categorize-html","62","241334","0.0-6.0-1.0-6.0-1.1","4","4","4","4","4","4","4","3","4","4","5","5","5","5","5","5","5","5","5","5","1","1","1","1","1","1","1","1","1","0","1","0","0","0","0","0","1","0","0","0","0","1","0","1","5","1","1","1","1","1","3","1","3","1","718581844601208832","周","216","","","","","","","","","","","","","","","","","","","true","13","3","moral","484","negative","不仁","","","","","","","","","","","","","","",""
"null","","null","html-keyboard-response","63","241585","0.0-6.0-1.0-6.0-0.2","4","4","4","4","4","4","4","3","4","4","5","5","5","5","5","5","5","5","5","5","1","1","1","1","1","1","1","1","1","0","1","0","0","0","0","0","1","0","0","0","0","1","0","1","5","1","1","1","1","1","3","1","3","1","718581844601208832","周","216","","","","","","","","","","","","","","","","","","","","","","","","","","","","","","","","","","","","","","","",""
"501","<p style=""color:rgb(150, 250, 100); font-size: 35px;"">别人的</p>","e","categorize-html","64","242086","0.0-6.0-1.0-6.0-1.2","4","4","4","4","4","4","4","3","4","4","5","5","5","5","5","5","5","5","5","5","1","1","1","1","1","1","1","1","1","0","1","0","0","0","0","0","1","0","0","0","0","1","0","1","5","1","1","1","1","1","3","1","3","1","718581844601208832","周","216","","","","","","","","","","","","","","","","","","","true","13","3","moral","501","other","别人的","","","","","","","","","","","","","","",""
"null","","null","html-keyboard-response","65","242343","0.0-6.0-1.0-6.0-0.3","4","4","4","4","4","4","4","3","4","4","5","5","5","5","5","5","5","5","5","5","1","1","1","1","1","1","1","1","1","0","1","0","0","0","0","0","1","0","0","0","0","1","0","1","5","1","1","1","1","1","3","1","3","1","718581844601208832","周","216","","","","","","","","","","","","","","","","","","","","","","","","","","","","","","","","","","","","","","","",""
"431","<p style=""color:white; font-size: 35px;"">诚信</p>","e","categorize-html","66","242774","0.0-6.0-1.0-6.0-1.3","4","4","4","4","4","4","4","3","4","4","5","5","5","5","5","5","5","5","5","5","1","1","1","1","1","1","1","1","1","0","1","0","0","0","0","0","1","0","0","0","0","1","0","1","5","1","1","1","1","1","3","1","3","1","718581844601208832","周","216","","","","","","","","","","","","","","","","","","","true","13","3","moral","431","positive","诚信","","","","","","","","","","","","","","",""
"null","","null","html-keyboard-response","67","243025","0.0-6.0-1.0-6.0-0.4","4","4","4","4","4","4","4","3","4","4","5","5","5","5","5","5","5","5","5","5","1","1","1","1","1","1","1","1","1","0","1","0","0","0","0","0","1","0","0","0","0","1","0","1","5","1","1","1","1","1","3","1","3","1","718581844601208832","周","216","","","","","","","","","","","","","","","","","","","","","","","","","","","","","","","","","","","","","","","",""
"437","<p style=""color:rgb(150, 250, 100); font-size: 35px;"">他人的</p>","e","categorize-html","68","243463","0.0-6.0-1.0-6.0-1.4","4","4","4","4","4","4","4","3","4","4","5","5","5","5","5","5","5","5","5","5","1","1","1","1","1","1","1","1","1","0","1","0","0","0","0","0","1","0","0","0","0","1","0","1","5","1","1","1","1","1","3","1","3","1","718581844601208832","周","216","","","","","","","","","","","","","","","","","","","true","13","3","moral","437","other","他人的","","","","","","","","","","","","","","",""
"null","","null","html-keyboard-response","69","243720","0.0-6.0-1.0-6.0-0.5","4","4","4","4","4","4","4","3","4","4","5","5","5","5","5","5","5","5","5","5","1","1","1","1","1","1","1","1","1","0","1","0","0","0","0","0","1","0","0","0","0","1","0","1","5","1","1","1","1","1","3","1","3","1","718581844601208832","周","216","","","","","","","","","","","","","","","","","","","","","","","","","","","","","","","","","","","","","","","",""
"606","<p style=""color:white; font-size: 35px;"">卑鄙</p>","i","categorize-html","70","244327","0.0-6.0-1.0-6.0-1.5","4","4","4","4","4","4","4","3","4","4","5","5","5","5","5","5","5","5","5","5","1","1","1","1","1","1","1","1","1","0","1","0","0","0","0","0","1","0","0","0","0","1","0","1","5","1","1","1","1","1","3","1","3","1","718581844601208832","周","216","","","","","","","","","","","","","","","","","","","true","13","3","moral","606","negative","卑鄙","","","","","","","","","","","","","","",""
"null","","null","html-keyboard-response","71","244577","0.0-6.0-1.0-6.0-0.6","4","4","4","4","4","4","4","3","4","4","5","5","5","5","5","5","5","5","5","5","1","1","1","1","1","1","1","1","1","0","1","0","0","0","0","0","1","0","0","0","0","1","0","1","5","1","1","1","1","1","3","1","3","1","718581844601208832","周","216","","","","","","","","","","","","","","","","","","","","","","","","","","","","","","","","","","","","","","","",""
"421","<p style=""color:rgb(150, 250, 100); font-size: 35px;"">我</p>","i","categorize-html","72","244999","0.0-6.0-1.0-6.0-1.6","4","4","4","4","4","4","4","3","4","4","5","5","5","5","5","5","5","5","5","5","1","1","1","1","1","1","1","1","1","0","1","0","0","0","0","0","1","0","0","0","0","1","0","1","5","1","1","1","1","1","3","1","3","1","718581844601208832","周","216","","","","","","","","","","","","","","","","","","","true","13","3","moral","421","self","我","","","","","","","","","","","","","","",""
"null","","null","html-keyboard-response","73","245255","0.0-6.0-1.0-6.0-0.7","4","4","4","4","4","4","4","3","4","4","5","5","5","5","5","5","5","5","5","5","1","1","1","1","1","1","1","1","1","0","1","0","0","0","0","0","1","0","0","0","0","1","0","1","5","1","1","1","1","1","3","1","3","1","718581844601208832","周","216","","","","","","","","","","","","","","","","","","","","","","","","","","","","","","","","","","","","","","","",""
"479","<p style=""color:white; font-size: 35px;"">高尚</p>","e","categorize-html","74","245734","0.0-6.0-1.0-6.0-1.7","4","4","4","4","4","4","4","3","4","4","5","5","5","5","5","5","5","5","5","5","1","1","1","1","1","1","1","1","1","0","1","0","0","0","0","0","1","0","0","0","0","1","0","1","5","1","1","1","1","1","3","1","3","1","718581844601208832","周","216","","","","","","","","","","","","","","","","","","","true","13","3","moral","479","positive","高尚","","","","","","","","","","","","","","",""
"null","","null","html-keyboard-response","75","245986","0.0-6.0-1.0-6.0-0.8","4","4","4","4","4","4","4","3","4","4","5","5","5","5","5","5","5","5","5","5","1","1","1","1","1","1","1","1","1","0","1","0","0","0","0","0","1","0","0","0","0","1","0","1","5","1","1","1","1","1","3","1","3","1","718581844601208832","周","216","","","","","","","","","","","","","","","","","","","","","","","","","","","","","","","","","","","","","","","",""
"412","<p style=""color:rgb(150, 250, 100); font-size: 35px;"">自己</p>","i","categorize-html","76","246399","0.0-6.0-1.0-6.0-1.8","4","4","4","4","4","4","4","3","4","4","5","5","5","5","5","5","5","5","5","5","1","1","1","1","1","1","1","1","1","0","1","0","0","0","0","0","1","0","0","0","0","1","0","1","5","1","1","1","1","1","3","1","3","1","718581844601208832","周","216","","","","","","","","","","","","","","","","","","","true","13","3","moral","412","self","自己","","","","","","","","","","","","","","",""
"null","","null","html-keyboard-response","77","246651","0.0-6.0-1.0-6.0-0.9","4","4","4","4","4","4","4","3","4","4","5","5","5","5","5","5","5","5","5","5","1","1","1","1","1","1","1","1","1","0","1","0","0","0","0","0","1","0","0","0","0","1","0","1","5","1","1","1","1","1","3","1","3","1","718581844601208832","周","216","","","","","","","","","","","","","","","","","","","","","","","","","","","","","","","","","","","","","","","",""
"532","<p style=""color:white; font-size: 35px;"">正直</p>","e","categorize-html","78","247183","0.0-6.0-1.0-6.0-1.9","4","4","4","4","4","4","4","3","4","4","5","5","5","5","5","5","5","5","5","5","1","1","1","1","1","1","1","1","1","0","1","0","0","0","0","0","1","0","0","0","0","1","0","1","5","1","1","1","1","1","3","1","3","1","718581844601208832","周","216","","","","","","","","","","","","","","","","","","","true","13","3","moral","532","positive","正直","","","","","","","","","","","","","","",""
"null","","null","html-keyboard-response","79","247439","0.0-6.0-1.0-6.0-0.10","4","4","4","4","4","4","4","3","4","4","5","5","5","5","5","5","5","5","5","5","1","1","1","1","1","1","1","1","1","0","1","0","0","0","0","0","1","0","0","0","0","1","0","1","5","1","1","1","1","1","3","1","3","1","718581844601208832","周","216","","","","","","","","","","","","","","","","","","","","","","","","","","","","","","","","","","","","","","","",""
"591","<p style=""color:rgb(150, 250, 100); font-size: 35px;"">他人</p>","e","categorize-html","80","248031","0.0-6.0-1.0-6.0-1.10","4","4","4","4","4","4","4","3","4","4","5","5","5","5","5","5","5","5","5","5","1","1","1","1","1","1","1","1","1","0","1","0","0","0","0","0","1","0","0","0","0","1","0","1","5","1","1","1","1","1","3","1","3","1","718581844601208832","周","216","","","","","","","","","","","","","","","","","","","true","13","3","moral","591","other","他人","","","","","","","","","","","","","","",""
"null","","null","html-keyboard-response","81","248282","0.0-6.0-1.0-6.0-0.11","4","4","4","4","4","4","4","3","4","4","5","5","5","5","5","5","5","5","5","5","1","1","1","1","1","1","1","1","1","0","1","0","0","0","0","0","1","0","0","0","0","1","0","1","5","1","1","1","1","1","3","1","3","1","718581844601208832","周","216","","","","","","","","","","","","","","","","","","","","","","","","","","","","","","","","","","","","","","","",""
"620","<p style=""color:white; font-size: 35px;"">不孝</p>","i","categorize-html","82","248902","0.0-6.0-1.0-6.0-1.11","4","4","4","4","4","4","4","3","4","4","5","5","5","5","5","5","5","5","5","5","1","1","1","1","1","1","1","1","1","0","1","0","0","0","0","0","1","0","0","0","0","1","0","1","5","1","1","1","1","1","3","1","3","1","718581844601208832","周","216","","","","","","","","","","","","","","","","","","","true","13","3","moral","620","negative","不孝","","","","","","","","","","","","","","",""
"null","","null","html-keyboard-response","83","249154","0.0-6.0-1.0-6.0-0.12","4","4","4","4","4","4","4","3","4","4","5","5","5","5","5","5","5","5","5","5","1","1","1","1","1","1","1","1","1","0","1","0","0","0","0","0","1","0","0","0","0","1","0","1","5","1","1","1","1","1","3","1","3","1","718581844601208832","周","216","","","","","","","","","","","","","","","","","","","","","","","","","","","","","","","","","","","","","","","",""
"2372","<p style=""color:rgb(150, 250, 100); font-size: 35px;"">别人</p>","e","categorize-html","84","251526","0.0-6.0-1.0-6.0-1.12","4","4","4","4","4","4","4","3","4","4","5","5","5","5","5","5","5","5","5","5","1","1","1","1","1","1","1","1","1","0","1","0","0","0","0","0","1","0","0","0","0","1","0","1","5","1","1","1","1","1","3","1","3","1","718581844601208832","周","216","","","","","","","","","","","","","","","","","","","true","13","3","moral","2372","other","别人","","","","","","","","","","","","","","",""
"null","","null","html-keyboard-response","85","251784","0.0-6.0-1.0-6.0-0.13","4","4","4","4","4","4","4","3","4","4","5","5","5","5","5","5","5","5","5","5","1","1","1","1","1","1","1","1","1","0","1","0","0","0","0","0","1","0","0","0","0","1","0","1","5","1","1","1","1","1","3","1","3","1","718581844601208832","周","216","","","","","","","","","","","","","","","","","","","","","","","","","","","","","","","","","","","","","","","",""
"494","<p style=""color:white; font-size: 35px;"">君子</p>","i","categorize-html","86","253574","0.0-6.0-1.0-6.0-1.13","4","4","4","4","4","4","4","3","4","4","5","5","5","5","5","5","5","5","5","5","1","1","1","1","1","1","1","1","1","0","1","0","0","0","0","0","1","0","0","0","0","1","0","1","5","1","1","1","1","1","3","1","3","1","718581844601208832","周","216","","","","","","","","","","","","","","","","","","","false","13","3","moral","1259.608695652174","positive","君子","","","","","","","","","","","","","","",""
"null","","null","html-keyboard-response","87","253831","0.0-6.0-1.0-6.0-0.14","4","4","4","4","4","4","4","3","4","4","5","5","5","5","5","5","5","5","5","5","1","1","1","1","1","1","1","1","1","0","1","0","0","0","0","0","1","0","0","0","0","1","0","1","5","1","1","1","1","1","3","1","3","1","718581844601208832","周","216","","","","","","","","","","","","","","","","","","","","","","","","","","","","","","","","","","","","","","","",""
"511","<p style=""color:rgb(150, 250, 100); font-size: 35px;"">本人的</p>","i","categorize-html","88","254342","0.0-6.0-1.0-6.0-1.14","4","4","4","4","4","4","4","3","4","4","5","5","5","5","5","5","5","5","5","5","1","1","1","1","1","1","1","1","1","0","1","0","0","0","0","0","1","0","0","0","0","1","0","1","5","1","1","1","1","1","3","1","3","1","718581844601208832","周","216","","","","","","","","","","","","","","","","","","","true","13","3","moral","511","self","本人的","","","","","","","","","","","","","","",""
"null","","null","html-keyboard-response","89","254599","0.0-6.0-1.0-6.0-0.15","4","4","4","4","4","4","4","3","4","4","5","5","5","5","5","5","5","5","5","5","1","1","1","1","1","1","1","1","1","0","1","0","0","0","0","0","1","0","0","0","0","1","0","1","5","1","1","1","1","1","3","1","3","1","718581844601208832","周","216","","","","","","","","","","","","","","","","","","","","","","","","","","","","","","","","","","","","","","","",""
"607","<p style=""color:white; font-size: 35px;"">黑心</p>","i","categorize-html","90","255206","0.0-6.0-1.0-6.0-1.15","4","4","4","4","4","4","4","3","4","4","5","5","5","5","5","5","5","5","5","5","1","1","1","1","1","1","1","1","1","0","1","0","0","0","0","0","1","0","0","0","0","1","0","1","5","1","1","1","1","1","3","1","3","1","718581844601208832","周","216","","","","","","","","","","","","","","","","","","","true","13","3","moral","607","negative","黑心","","","","","","","","","","","","","","",""
"null","","null","html-keyboard-response","91","255460","0.0-6.0-1.0-6.0-0.16","4","4","4","4","4","4","4","3","4","4","5","5","5","5","5","5","5","5","5","5","1","1","1","1","1","1","1","1","1","0","1","0","0","0","0","0","1","0","0","0","0","1","0","1","5","1","1","1","1","1","3","1","3","1","718581844601208832","周","216","","","","","","","","","","","","","","","","","","","","","","","","","","","","","","","","","","","","","","","",""
"506","<p style=""color:rgb(150, 250, 100); font-size: 35px;"">自己的</p>","i","categorize-html","92","255966","0.0-6.0-1.0-6.0-1.16","4","4","4","4","4","4","4","3","4","4","5","5","5","5","5","5","5","5","5","5","1","1","1","1","1","1","1","1","1","0","1","0","0","0","0","0","1","0","0","0","0","1","0","1","5","1","1","1","1","1","3","1","3","1","718581844601208832","周","216","","","","","","","","","","","","","","","","","","","true","13","3","moral","506","self","自己的","","","","","","","","","","","","","","",""
"null","","null","html-keyboard-response","93","256224","0.0-6.0-1.0-6.0-0.17","4","4","4","4","4","4","4","3","4","4","5","5","5","5","5","5","5","5","5","5","1","1","1","1","1","1","1","1","1","0","1","0","0","0","0","0","1","0","0","0","0","1","0","1","5","1","1","1","1","1","3","1","3","1","718581844601208832","周","216","","","","","","","","","","","","","","","","","","","","","","","","","","","","","","","","","","","","","","","",""
"438","<p style=""color:white; font-size: 35px;"">缺德</p>","i","categorize-html","94","256662","0.0-6.0-1.0-6.0-1.17","4","4","4","4","4","4","4","3","4","4","5","5","5","5","5","5","5","5","5","5","1","1","1","1","1","1","1","1","1","0","1","0","0","0","0","0","1","0","0","0","0","1","0","1","5","1","1","1","1","1","3","1","3","1","718581844601208832","周","216","","","","","","","","","","","","","","","","","","","true","13","3","moral","438","negative","缺德","","","","","","","","","","","","","","",""
"null","","null","html-keyboard-response","95","256920","0.0-6.0-1.0-6.0-0.18","4","4","4","4","4","4","4","3","4","4","5","5","5","5","5","5","5","5","5","5","1","1","1","1","1","1","1","1","1","0","1","0","0","0","0","0","1","0","0","0","0","1","0","1","5","1","1","1","1","1","3","1","3","1","718581844601208832","周","216","","","","","","","","","","","","","","","","","","","","","","","","","","","","","","","","","","","","","","","",""
"550","<p style=""color:rgb(150, 250, 100); font-size: 35px;"">他</p>","e","categorize-html","96","257471","0.0-6.0-1.0-6.0-1.18","4","4","4","4","4","4","4","3","4","4","5","5","5","5","5","5","5","5","5","5","1","1","1","1","1","1","1","1","1","0","1","0","0","0","0","0","1","0","0","0","0","1","0","1","5","1","1","1","1","1","3","1","3","1","718581844601208832","周","216","","","","","","","","","","","","","","","","","","","true","13","3","moral","550","other","他","","","","","","","","","","","","","","",""
"null","","null","html-keyboard-response","97","257726","0.0-6.0-1.0-6.0-0.19","4","4","4","4","4","4","4","3","4","4","5","5","5","5","5","5","5","5","5","5","1","1","1","1","1","1","1","1","1","0","1","0","0","0","0","0","1","0","0","0","0","1","0","1","5","1","1","1","1","1","3","1","3","1","718581844601208832","周","216","","","","","","","","","","","","","","","","","","","","","","","","","","","","","","","","","","","","","","","",""
"1840","<p style=""color:white; font-size: 35px;"">廉正</p>","e","categorize-html","98","259566","0.0-6.0-1.0-6.0-1.19","4","4","4","4","4","4","4","3","4","4","5","5","5","5","5","5","5","5","5","5","1","1","1","1","1","1","1","1","1","0","1","0","0","0","0","0","1","0","0","0","0","1","0","1","5","1","1","1","1","1","3","1","3","1","718581844601208832","周","216","","","","","","","","","","","","","","","","","","","true","13","3","moral","1840","positive","廉正","","","","","","","","","","","","","","",""
"null","","null","html-keyboard-response","99","259823","0.0-6.0-1.0-6.0-0.20","4","4","4","4","4","4","4","3","4","4","5","5","5","5","5","5","5","5","5","5","1","1","1","1","1","1","1","1","1","0","1","0","0","0","0","0","1","0","0","0","0","1","0","1","5","1","1","1","1","1","3","1","3","1","718581844601208832","周","216","","","","","","","","","","","","","","","","","","","","","","","","","","","","","","","","","","","","","","","",""
"607","<p style=""color:rgb(150, 250, 100); font-size: 35px;"">他的</p>","e","categorize-html","100","260430","0.0-6.0-1.0-6.0-1.20","4","4","4","4","4","4","4","3","4","4","5","5","5","5","5","5","5","5","5","5","1","1","1","1","1","1","1","1","1","0","1","0","0","0","0","0","1","0","0","0","0","1","0","1","5","1","1","1","1","1","3","1","3","1","718581844601208832","周","216","","","","","","","","","","","","","","","","","","","true","13","3","moral","607","other","他的","","","","","","","","","","","","","","",""
"null","","null","html-keyboard-response","101","260681","0.0-6.0-1.0-6.0-0.21","4","4","4","4","4","4","4","3","4","4","5","5","5","5","5","5","5","5","5","5","1","1","1","1","1","1","1","1","1","0","1","0","0","0","0","0","1","0","0","0","0","1","0","1","5","1","1","1","1","1","3","1","3","1","718581844601208832","周","216","","","","","","","","","","","","","","","","","","","","","","","","","","","","","","","","","","","","","","","",""
"501","<p style=""color:white; font-size: 35px;"">善良</p>","e","categorize-html","102","261182","0.0-6.0-1.0-6.0-1.21","4","4","4","4","4","4","4","3","4","4","5","5","5","5","5","5","5","5","5","5","1","1","1","1","1","1","1","1","1","0","1","0","0","0","0","0","1","0","0","0","0","1","0","1","5","1","1","1","1","1","3","1","3","1","718581844601208832","周","216","","","","","","","","","","","","","","","","","","","true","13","3","moral","501","positive","善良","","","","","","","","","","","","","","",""
"null","","null","html-keyboard-response","103","261434","0.0-6.0-1.0-6.0-0.22","4","4","4","4","4","4","4","3","4","4","5","5","5","5","5","5","5","5","5","5","1","1","1","1","1","1","1","1","1","0","1","0","0","0","0","0","1","0","0","0","0","1","0","1","5","1","1","1","1","1","3","1","3","1","718581844601208832","周","216","","","","","","","","","","","","","","","","","","","","","","","","","","","","","","","","","","","","","","","",""
"532","<p style=""color:rgb(150, 250, 100); font-size: 35px;"">本人</p>","i","categorize-html","104","261966","0.0-6.0-1.0-6.0-1.22","4","4","4","4","4","4","4","3","4","4","5","5","5","5","5","5","5","5","5","5","1","1","1","1","1","1","1","1","1","0","1","0","0","0","0","0","1","0","0","0","0","1","0","1","5","1","1","1","1","1","3","1","3","1","718581844601208832","周","216","","","","","","","","","","","","","","","","","","","true","13","3","moral","532","self","本人","","","","","","","","","","","","","","",""
"null","","null","html-keyboard-response","105","262218","0.0-6.0-1.0-6.0-0.23","4","4","4","4","4","4","4","3","4","4","5","5","5","5","5","5","5","5","5","5","1","1","1","1","1","1","1","1","1","0","1","0","0","0","0","0","1","0","0","0","0","1","0","1","5","1","1","1","1","1","3","1","3","1","718581844601208832","周","216","","","","","","","","","","","","","","","","","","","","","","","","","","","","","","","","","","","","","","","",""
"428","<p style=""color:white; font-size: 35px;"">小人</p>","i","categorize-html","106","262646","0.0-6.0-1.0-6.0-1.23","4","4","4","4","4","4","4","3","4","4","5","5","5","5","5","5","5","5","5","5","1","1","1","1","1","1","1","1","1","0","1","0","0","0","0","0","1","0","0","0","0","1","0","1","5","1","1","1","1","1","3","1","3","1","718581844601208832","周","216","","","","","","","","","","","","","","","","","","","true","13","3","moral","428","negative","小人","","","","","","","","","","","","","","",""
"16744","
    <div class=""tag-bottom""><p>
    —— 任务4：对“他人/积极”词和“自我/消极”词分类 ——<p/>
    <span style=""color:#78DCE8""><b>与刚才的任务完全相同，请再次对这四类词语分类</b></span><p/>
    <span style=""color:#FFD866""><b>请根据上方标签的提示，尽可能正确并且快速地做出按键反应</b></span><p/>
    当按键错误时屏幕中会出现<span style=""color:red""> X </span>，需要按另一个键纠正才能继续<br/><p/>
    请把双手食指分别放在键盘的“E”键和“I”键上<p/>
    按<空格键>开始
    </p></div>"," ","html-keyboard-response","107","279390","0.0-6.0-1.0-7.0","4","4","4","4","4","4","4","3","4","4","5","5","5","5","5","5","5","5","5","5","1","1","1","1","1","1","1","1","1","0","1","0","0","0","0","0","1","0","0","0","0","1","0","1","5","1","1","1","1","1","3","1","3","1","718581844601208832","周","216","","","","","","","","","","","","","","","","","","","","","","","","","","","","","","","","","","","","","","","",""
"null","","null","html-keyboard-response","108","279641","0.0-6.0-1.0-8.0-0.0","4","4","4","4","4","4","4","3","4","4","5","5","5","5","5","5","5","5","5","5","1","1","1","1","1","1","1","1","1","0","1","0","0","0","0","0","1","0","0","0","0","1","0","1","5","1","1","1","1","1","3","1","3","1","718581844601208832","周","216","","","","","","","","","","","","","","","","","","","","","","","","","","","","","","","","","","","","","","","",""
"493","<p style=""color:rgb(150, 250, 100); font-size: 35px;"">他</p>","e","categorize-html","109","280141","0.0-6.0-1.0-8.0-1.0","4","4","4","4","4","4","4","3","4","4","5","5","5","5","5","5","5","5","5","5","1","1","1","1","1","1","1","1","1","0","1","0","0","0","0","0","1","0","0","0","0","1","0","1","5","1","1","1","1","1","3","1","3","1","718581844601208832","周","216","","","","","","","","","","","","","","","","","","","true","14","4","moral","493","other","他","","","","","","","","","","","","","","",""
"null","","null","html-keyboard-response","110","280392","0.0-6.0-1.0-8.0-0.1","4","4","4","4","4","4","4","3","4","4","5","5","5","5","5","5","5","5","5","5","1","1","1","1","1","1","1","1","1","0","1","0","0","0","0","0","1","0","0","0","0","1","0","1","5","1","1","1","1","1","3","1","3","1","718581844601208832","周","216","","","","","","","","","","","","","","","","","","","","","","","","","","","","","","","","","","","","","","","",""
"382","<p style=""color:white; font-size: 35px;"">善良</p>","e","categorize-html","111","280775","0.0-6.0-1.0-8.0-1.1","4","4","4","4","4","4","4","3","4","4","5","5","5","5","5","5","5","5","5","5","1","1","1","1","1","1","1","1","1","0","1","0","0","0","0","0","1","0","0","0","0","1","0","1","5","1","1","1","1","1","3","1","3","1","718581844601208832","周","216","","","","","","","","","","","","","","","","","","","true","14","4","moral","382","positive","善良","","","","","","","","","","","","","","",""
"null","","null","html-keyboard-response","112","281026","0.0-6.0-1.0-8.0-0.2","4","4","4","4","4","4","4","3","4","4","5","5","5","5","5","5","5","5","5","5","1","1","1","1","1","1","1","1","1","0","1","0","0","0","0","0","1","0","0","0","0","1","0","1","5","1","1","1","1","1","3","1","3","1","718581844601208832","周","216","","","","","","","","","","","","","","","","","","","","","","","","","","","","","","","","","","","","","","","",""
"372","<p style=""color:rgb(150, 250, 100); font-size: 35px;"">本人</p>","e","categorize-html","113","281862","0.0-6.0-1.0-8.0-1.2","4","4","4","4","4","4","4","3","4","4","5","5","5","5","5","5","5","5","5","5","1","1","1","1","1","1","1","1","1","0","1","0","0","0","0","0","1","0","0","0","0","1","0","1","5","1","1","1","1","1","3","1","3","1","718581844601208832","周","216","","","","","","","","","","","","","","","","","","","false","14","4","moral","1199","self","本人","","","","","","","","","","","","","","",""
"null","","null","html-keyboard-response","114","282119","0.0-6.0-1.0-8.0-0.3","4","4","4","4","4","4","4","3","4","4","5","5","5","5","5","5","5","5","5","5","1","1","1","1","1","1","1","1","1","0","1","0","0","0","0","0","1","0","0","0","0","1","0","1","5","1","1","1","1","1","3","1","3","1","718581844601208832","周","216","","","","","","","","","","","","","","","","","","","","","","","","","","","","","","","","","","","","","","","",""
"487","<p style=""color:white; font-size: 35px;"">不仁</p>","i","categorize-html","115","282606","0.0-6.0-1.0-8.0-1.3","4","4","4","4","4","4","4","3","4","4","5","5","5","5","5","5","5","5","5","5","1","1","1","1","1","1","1","1","1","0","1","0","0","0","0","0","1","0","0","0","0","1","0","1","5","1","1","1","1","1","3","1","3","1","718581844601208832","周","216","","","","","","","","","","","","","","","","","","","true","14","4","moral","487","negative","不仁","","","","","","","","","","","","","","",""
"null","","null","html-keyboard-response","116","282863","0.0-6.0-1.0-8.0-0.4","4","4","4","4","4","4","4","3","4","4","5","5","5","5","5","5","5","5","5","5","1","1","1","1","1","1","1","1","1","0","1","0","0","0","0","0","1","0","0","0","0","1","0","1","5","1","1","1","1","1","3","1","3","1","718581844601208832","周","216","","","","","","","","","","","","","","","","","","","","","","","","","","","","","","","","","","","","","","","",""
"439","<p style=""color:rgb(150, 250, 100); font-size: 35px;"">他人的</p>","e","categorize-html","117","283302","0.0-6.0-1.0-8.0-1.4","4","4","4","4","4","4","4","3","4","4","5","5","5","5","5","5","5","5","5","5","1","1","1","1","1","1","1","1","1","0","1","0","0","0","0","0","1","0","0","0","0","1","0","1","5","1","1","1","1","1","3","1","3","1","718581844601208832","周","216","","","","","","","","","","","","","","","","","","","true","14","4","moral","439","other","他人的","","","","","","","","","","","","","","",""
"null","","null","html-keyboard-response","118","283553","0.0-6.0-1.0-8.0-0.5","4","4","4","4","4","4","4","3","4","4","5","5","5","5","5","5","5","5","5","5","1","1","1","1","1","1","1","1","1","0","1","0","0","0","0","0","1","0","0","0","0","1","0","1","5","1","1","1","1","1","3","1","3","1","718581844601208832","周","216","","","","","","","","","","","","","","","","","","","","","","","","","","","","","","","","","","","","","","","",""
"549","<p style=""color:white; font-size: 35px;"">卑鄙</p>","i","categorize-html","119","284102","0.0-6.0-1.0-8.0-1.5","4","4","4","4","4","4","4","3","4","4","5","5","5","5","5","5","5","5","5","5","1","1","1","1","1","1","1","1","1","0","1","0","0","0","0","0","1","0","0","0","0","1","0","1","5","1","1","1","1","1","3","1","3","1","718581844601208832","周","216","","","","","","","","","","","","","","","","","","","true","14","4","moral","549","negative","卑鄙","","","","","","","","","","","","","","",""
"null","","null","html-keyboard-response","120","284359","0.0-6.0-1.0-8.0-0.6","4","4","4","4","4","4","4","3","4","4","5","5","5","5","5","5","5","5","5","5","1","1","1","1","1","1","1","1","1","0","1","0","0","0","0","0","1","0","0","0","0","1","0","1","5","1","1","1","1","1","3","1","3","1","718581844601208832","周","216","","","","","","","","","","","","","","","","","","","","","","","","","","","","","","","","","","","","","","","",""
"431","<p style=""color:rgb(150, 250, 100); font-size: 35px;"">本人的</p>","i","categorize-html","121","284790","0.0-6.0-1.0-8.0-1.6","4","4","4","4","4","4","4","3","4","4","5","5","5","5","5","5","5","5","5","5","1","1","1","1","1","1","1","1","1","0","1","0","0","0","0","0","1","0","0","0","0","1","0","1","5","1","1","1","1","1","3","1","3","1","718581844601208832","周","216","","","","","","","","","","","","","","","","","","","true","14","4","moral","431","self","本人的","","","","","","","","","","","","","","",""
"null","","null","html-keyboard-response","122","285047","0.0-6.0-1.0-8.0-0.7","4","4","4","4","4","4","4","3","4","4","5","5","5","5","5","5","5","5","5","5","1","1","1","1","1","1","1","1","1","0","1","0","0","0","0","0","1","0","0","0","0","1","0","1","5","1","1","1","1","1","3","1","3","1","718581844601208832","周","216","","","","","","","","","","","","","","","","","","","","","","","","","","","","","","","","","","","","","","","",""
"535","<p style=""color:white; font-size: 35px;"">廉正</p>","e","categorize-html","123","285583","0.0-6.0-1.0-8.0-1.7","4","4","4","4","4","4","4","3","4","4","5","5","5","5","5","5","5","5","5","5","1","1","1","1","1","1","1","1","1","0","1","0","0","0","0","0","1","0","0","0","0","1","0","1","5","1","1","1","1","1","3","1","3","1","718581844601208832","周","216","","","","","","","","","","","","","","","","","","","true","14","4","moral","535","positive","廉正","","","","","","","","","","","","","","",""
"null","","null","html-keyboard-response","124","285840","0.0-6.0-1.0-8.0-0.8","4","4","4","4","4","4","4","3","4","4","5","5","5","5","5","5","5","5","5","5","1","1","1","1","1","1","1","1","1","0","1","0","0","0","0","0","1","0","0","0","0","1","0","1","5","1","1","1","1","1","3","1","3","1","718581844601208832","周","216","","","","","","","","","","","","","","","","","","","","","","","","","","","","","","","","","","","","","","","",""
"502","<p style=""color:rgb(150, 250, 100); font-size: 35px;"">本人的</p>","i","categorize-html","125","286342","0.0-6.0-1.0-8.0-1.8","4","4","4","4","4","4","4","3","4","4","5","5","5","5","5","5","5","5","5","5","1","1","1","1","1","1","1","1","1","0","1","0","0","0","0","0","1","0","0","0","0","1","0","1","5","1","1","1","1","1","3","1","3","1","718581844601208832","周","216","","","","","","","","","","","","","","","","","","","true","14","4","moral","502","self","本人的","","","","","","","","","","","","","","",""
"null","","null","html-keyboard-response","126","286594","0.0-6.0-1.0-8.0-0.9","4","4","4","4","4","4","4","3","4","4","5","5","5","5","5","5","5","5","5","5","1","1","1","1","1","1","1","1","1","0","1","0","0","0","0","0","1","0","0","0","0","1","0","1","5","1","1","1","1","1","3","1","3","1","718581844601208832","周","216","","","","","","","","","","","","","","","","","","","","","","","","","","","","","","","","","","","","","","","",""
"1636","<p style=""color:white; font-size: 35px;"">缺德</p>","i","categorize-html","127","288230","0.0-6.0-1.0-8.0-1.9","4","4","4","4","4","4","4","3","4","4","5","5","5","5","5","5","5","5","5","5","1","1","1","1","1","1","1","1","1","0","1","0","0","0","0","0","1","0","0","0","0","1","0","1","5","1","1","1","1","1","3","1","3","1","718581844601208832","周","216","","","","","","","","","","","","","","","","","","","true","14","4","moral","1636","negative","缺德","","","","","","","","","","","","","","",""
"null","","null","html-keyboard-response","128","288488","0.0-6.0-1.0-8.0-0.10","4","4","4","4","4","4","4","3","4","4","5","5","5","5","5","5","5","5","5","5","1","1","1","1","1","1","1","1","1","0","1","0","0","0","0","0","1","0","0","0","0","1","0","1","5","1","1","1","1","1","3","1","3","1","718581844601208832","周","216","","","","","","","","","","","","","","","","","","","","","","","","","","","","","","","","","","","","","","","",""
"454","<p style=""color:rgb(150, 250, 100); font-size: 35px;"">他人</p>","e","categorize-html","129","288942","0.0-6.0-1.0-8.0-1.10","4","4","4","4","4","4","4","3","4","4","5","5","5","5","5","5","5","5","5","5","1","1","1","1","1","1","1","1","1","0","1","0","0","0","0","0","1","0","0","0","0","1","0","1","5","1","1","1","1","1","3","1","3","1","718581844601208832","周","216","","","","","","","","","","","","","","","","","","","true","14","4","moral","454","other","他人","","","","","","","","","","","","","","",""
"null","","null","html-keyboard-response","130","289200","0.0-6.0-1.0-8.0-0.11","4","4","4","4","4","4","4","3","4","4","5","5","5","5","5","5","5","5","5","5","1","1","1","1","1","1","1","1","1","0","1","0","0","0","0","0","1","0","0","0","0","1","0","1","5","1","1","1","1","1","3","1","3","1","718581844601208832","周","216","","","","","","","","","","","","","","","","","","","","","","","","","","","","","","","","","","","","","","","",""
"614","<p style=""color:white; font-size: 35px;"">廉正</p>","e","categorize-html","131","289814","0.0-6.0-1.0-8.0-1.11","4","4","4","4","4","4","4","3","4","4","5","5","5","5","5","5","5","5","5","5","1","1","1","1","1","1","1","1","1","0","1","0","0","0","0","0","1","0","0","0","0","1","0","1","5","1","1","1","1","1","3","1","3","1","718581844601208832","周","216","","","","","","","","","","","","","","","","","","","true","14","4","moral","614","positive","廉正","","","","","","","","","","","","","","",""
"null","","null","html-keyboard-response","132","290072","0.0-6.0-1.0-8.0-0.12","4","4","4","4","4","4","4","3","4","4","5","5","5","5","5","5","5","5","5","5","1","1","1","1","1","1","1","1","1","0","1","0","0","0","0","0","1","0","0","0","0","1","0","1","5","1","1","1","1","1","3","1","3","1","718581844601208832","周","216","","","","","","","","","","","","","","","","","","","","","","","","","","","","","","","","","","","","","","","",""
"822","<p style=""color:rgb(150, 250, 100); font-size: 35px;"">别人</p>","e","categorize-html","133","290895","0.0-6.0-1.0-8.0-1.12","4","4","4","4","4","4","4","3","4","4","5","5","5","5","5","5","5","5","5","5","1","1","1","1","1","1","1","1","1","0","1","0","0","0","0","0","1","0","0","0","0","1","0","1","5","1","1","1","1","1","3","1","3","1","718581844601208832","周","216","","","","","","","","","","","","","","","","","","","true","14","4","moral","822","other","别人","","","","","","","","","","","","","","",""
"null","","null","html-keyboard-response","134","291152","0.0-6.0-1.0-8.0-0.13","4","4","4","4","4","4","4","3","4","4","5","5","5","5","5","5","5","5","5","5","1","1","1","1","1","1","1","1","1","0","1","0","0","0","0","0","1","0","0","0","0","1","0","1","5","1","1","1","1","1","3","1","3","1","718581844601208832","周","216","","","","","","","","","","","","","","","","","","","","","","","","","","","","","","","","","","","","","","","",""
"470","<p style=""color:white; font-size: 35px;"">正直</p>","e","categorize-html","135","291622","0.0-6.0-1.0-8.0-1.13","4","4","4","4","4","4","4","3","4","4","5","5","5","5","5","5","5","5","5","5","1","1","1","1","1","1","1","1","1","0","1","0","0","0","0","0","1","0","0","0","0","1","0","1","5","1","1","1","1","1","3","1","3","1","718581844601208832","周","216","","","","","","","","","","","","","","","","","","","true","14","4","moral","470","positive","正直","","","","","","","","","","","","","","",""
"null","","null","html-keyboard-response","136","291889","0.0-6.0-1.0-8.0-0.14","4","4","4","4","4","4","4","3","4","4","5","5","5","5","5","5","5","5","5","5","1","1","1","1","1","1","1","1","1","0","1","0","0","0","0","0","1","0","0","0","0","1","0","1","5","1","1","1","1","1","3","1","3","1","718581844601208832","周","216","","","","","","","","","","","","","","","","","","","","","","","","","","","","","","","","","","","","","","","",""
"413","<p style=""color:rgb(150, 250, 100); font-size: 35px;"">我</p>","i","categorize-html","137","292302","0.0-6.0-1.0-8.0-1.14","4","4","4","4","4","4","4","3","4","4","5","5","5","5","5","5","5","5","5","5","1","1","1","1","1","1","1","1","1","0","1","0","0","0","0","0","1","0","0","0","0","1","0","1","5","1","1","1","1","1","3","1","3","1","718581844601208832","周","216","","","","","","","","","","","","","","","","","","","true","14","4","moral","413","self","我","","","","","","","","","","","","","","",""
"null","","null","html-keyboard-response","138","292560","0.0-6.0-1.0-8.0-0.15","4","4","4","4","4","4","4","3","4","4","5","5","5","5","5","5","5","5","5","5","1","1","1","1","1","1","1","1","1","0","1","0","0","0","0","0","1","0","0","0","0","1","0","1","5","1","1","1","1","1","3","1","3","1","718581844601208832","周","216","","","","","","","","","","","","","","","","","","","","","","","","","","","","","","","","","","","","","","","",""
"446","<p style=""color:white; font-size: 35px;"">不孝</p>","i","categorize-html","139","293006","0.0-6.0-1.0-8.0-1.15","4","4","4","4","4","4","4","3","4","4","5","5","5","5","5","5","5","5","5","5","1","1","1","1","1","1","1","1","1","0","1","0","0","0","0","0","1","0","0","0","0","1","0","1","5","1","1","1","1","1","3","1","3","1","718581844601208832","周","216","","","","","","","","","","","","","","","","","","","true","14","4","moral","446","negative","不孝","","","","","","","","","","","","","","",""
"null","","null","html-keyboard-response","140","293257","0.0-6.0-1.0-8.0-0.16","4","4","4","4","4","4","4","3","4","4","5","5","5","5","5","5","5","5","5","5","1","1","1","1","1","1","1","1","1","0","1","0","0","0","0","0","1","0","0","0","0","1","0","1","5","1","1","1","1","1","3","1","3","1","718581844601208832","周","216","","","","","","","","","","","","","","","","","","","","","","","","","","","","","","","","","","","","","","","",""
"981","<p style=""color:rgb(150, 250, 100); font-size: 35px;"">他的</p>","e","categorize-html","141","294238","0.0-6.0-1.0-8.0-1.16","4","4","4","4","4","4","4","3","4","4","5","5","5","5","5","5","5","5","5","5","1","1","1","1","1","1","1","1","1","0","1","0","0","0","0","0","1","0","0","0","0","1","0","1","5","1","1","1","1","1","3","1","3","1","718581844601208832","周","216","","","","","","","","","","","","","","","","","","","true","14","4","moral","981","other","他的","","","","","","","","","","","","","","",""
"null","","null","html-keyboard-response","142","294495","0.0-6.0-1.0-8.0-0.17","4","4","4","4","4","4","4","3","4","4","5","5","5","5","5","5","5","5","5","5","1","1","1","1","1","1","1","1","1","0","1","0","0","0","0","0","1","0","0","0","0","1","0","1","5","1","1","1","1","1","3","1","3","1","718581844601208832","周","216","","","","","","","","","","","","","","","","","","","","","","","","","","","","","","","","","","","","","","","",""
"583","<p style=""color:white; font-size: 35px;"">不孝</p>","i","categorize-html","143","295078","0.0-6.0-1.0-8.0-1.17","4","4","4","4","4","4","4","3","4","4","5","5","5","5","5","5","5","5","5","5","1","1","1","1","1","1","1","1","1","0","1","0","0","0","0","0","1","0","0","0","0","1","0","1","5","1","1","1","1","1","3","1","3","1","718581844601208832","周","216","","","","","","","","","","","","","","","","","","","true","14","4","moral","583","negative","不孝","","","","","","","","","","","","","","",""
"null","","null","html-keyboard-response","144","295335","0.0-6.0-1.0-8.0-0.18","4","4","4","4","4","4","4","3","4","4","5","5","5","5","5","5","5","5","5","5","1","1","1","1","1","1","1","1","1","0","1","0","0","0","0","0","1","0","0","0","0","1","0","1","5","1","1","1","1","1","3","1","3","1","718581844601208832","周","216","","","","","","","","","","","","","","","","","","","","","","","","","","","","","","","","","","","","","","","",""
"447","<p style=""color:rgb(150, 250, 100); font-size: 35px;"">本人</p>","i","categorize-html","145","295783","0.0-6.0-1.0-8.0-1.18","4","4","4","4","4","4","4","3","4","4","5","5","5","5","5","5","5","5","5","5","1","1","1","1","1","1","1","1","1","0","1","0","0","0","0","0","1","0","0","0","0","1","0","1","5","1","1","1","1","1","3","1","3","1","718581844601208832","周","216","","","","","","","","","","","","","","","","","","","true","14","4","moral","447","self","本人","","","","","","","","","","","","","","",""
"null","","null","html-keyboard-response","146","296040","0.0-6.0-1.0-8.0-0.19","4","4","4","4","4","4","4","3","4","4","5","5","5","5","5","5","5","5","5","5","1","1","1","1","1","1","1","1","1","0","1","0","0","0","0","0","1","0","0","0","0","1","0","1","5","1","1","1","1","1","3","1","3","1","718581844601208832","周","216","","","","","","","","","","","","","","","","","","","","","","","","","","","","","","","","","","","","","","","",""
"422","<p style=""color:white; font-size: 35px;"">诚信</p>","e","categorize-html","147","296462","0.0-6.0-1.0-8.0-1.19","4","4","4","4","4","4","4","3","4","4","5","5","5","5","5","5","5","5","5","5","1","1","1","1","1","1","1","1","1","0","1","0","0","0","0","0","1","0","0","0","0","1","0","1","5","1","1","1","1","1","3","1","3","1","718581844601208832","周","216","","","","","","","","","","","","","","","","","","","true","14","4","moral","422","positive","诚信","","","","","","","","","","","","","","",""
"null","","null","html-keyboard-response","148","296719","0.0-6.0-1.0-8.0-0.20","4","4","4","4","4","4","4","3","4","4","5","5","5","5","5","5","5","5","5","5","1","1","1","1","1","1","1","1","1","0","1","0","0","0","0","0","1","0","0","0","0","1","0","1","5","1","1","1","1","1","3","1","3","1","718581844601208832","周","216","","","","","","","","","","","","","","","","","","","","","","","","","","","","","","","","","","","","","","","",""
"542","<p style=""color:rgb(150, 250, 100); font-size: 35px;"">我的</p>","i","categorize-html","149","297262","0.0-6.0-1.0-8.0-1.20","4","4","4","4","4","4","4","3","4","4","5","5","5","5","5","5","5","5","5","5","1","1","1","1","1","1","1","1","1","0","1","0","0","0","0","0","1","0","0","0","0","1","0","1","5","1","1","1","1","1","3","1","3","1","718581844601208832","周","216","","","","","","","","","","","","","","","","","","","true","14","4","moral","542","self","我的","","","","","","","","","","","","","","",""
"null","","null","html-keyboard-response","150","297520","0.0-6.0-1.0-8.0-0.21","4","4","4","4","4","4","4","3","4","4","5","5","5","5","5","5","5","5","5","5","1","1","1","1","1","1","1","1","1","0","1","0","0","0","0","0","1","0","0","0","0","1","0","1","5","1","1","1","1","1","3","1","3","1","718581844601208832","周","216","","","","","","","","","","","","","","","","","","","","","","","","","","","","","","","","","","","","","","","",""
"534","<p style=""color:white; font-size: 35px;"">善良</p>","e","categorize-html","151","298054","0.0-6.0-1.0-8.0-1.21","4","4","4","4","4","4","4","3","4","4","5","5","5","5","5","5","5","5","5","5","1","1","1","1","1","1","1","1","1","0","1","0","0","0","0","0","1","0","0","0","0","1","0","1","5","1","1","1","1","1","3","1","3","1","718581844601208832","周","216","","","","","","","","","","","","","","","","","","","true","14","4","moral","534","positive","善良","","","","","","","","","","","","","","",""
"null","","null","html-keyboard-response","152","298305","0.0-6.0-1.0-8.0-0.22","4","4","4","4","4","4","4","3","4","4","5","5","5","5","5","5","5","5","5","5","1","1","1","1","1","1","1","1","1","0","1","0","0","0","0","0","1","0","0","0","0","1","0","1","5","1","1","1","1","1","3","1","3","1","718581844601208832","周","216","","","","","","","","","","","","","","","","","","","","","","","","","","","","","","","","","","","","","","","",""
"621","<p style=""color:rgb(150, 250, 100); font-size: 35px;"">他</p>","i","categorize-html","153","299470","0.0-6.0-1.0-8.0-1.22","4","4","4","4","4","4","4","3","4","4","5","5","5","5","5","5","5","5","5","5","1","1","1","1","1","1","1","1","1","0","1","0","0","0","0","0","1","0","0","0","0","1","0","1","5","1","1","1","1","1","3","1","3","1","718581844601208832","周","216","","","","","","","","","","","","","","","","","","","false","14","4","moral","1199","other","他","","","","","","","","","","","","","","",""
"null","","null","html-keyboard-response","154","299727","0.0-6.0-1.0-8.0-0.23","4","4","4","4","4","4","4","3","4","4","5","5","5","5","5","5","5","5","5","5","1","1","1","1","1","1","1","1","1","0","1","0","0","0","0","0","1","0","0","0","0","1","0","1","5","1","1","1","1","1","3","1","3","1","718581844601208832","周","216","","","","","","","","","","","","","","","","","","","","","","","","","","","","","","","","","","","","","","","",""
"631","<p style=""color:white; font-size: 35px;"">小人</p>","i","categorize-html","155","300358","0.0-6.0-1.0-8.0-1.23","4","4","4","4","4","4","4","3","4","4","5","5","5","5","5","5","5","5","5","5","1","1","1","1","1","1","1","1","1","0","1","0","0","0","0","0","1","0","0","0","0","1","0","1","5","1","1","1","1","1","3","1","3","1","718581844601208832","周","216","","","","","","","","","","","","","","","","","","","true","14","4","moral","631","negative","小人","","","","","","","","","","","","","","",""
"null","","null","html-keyboard-response","156","300609","0.0-6.0-1.0-8.0-0.24","4","4","4","4","4","4","4","3","4","4","5","5","5","5","5","5","5","5","5","5","1","1","1","1","1","1","1","1","1","0","1","0","0","0","0","0","1","0","0","0","0","1","0","1","5","1","1","1","1","1","3","1","3","1","718581844601208832","周","216","","","","","","","","","","","","","","","","","","","","","","","","","","","","","","","","","","","","","","","",""
"661","<p style=""color:rgb(150, 250, 100); font-size: 35px;"">自己的</p>","i","categorize-html","157","301270","0.0-6.0-1.0-8.0-1.24","4","4","4","4","4","4","4","3","4","4","5","5","5","5","5","5","5","5","5","5","1","1","1","1","1","1","1","1","1","0","1","0","0","0","0","0","1","0","0","0","0","1","0","1","5","1","1","1","1","1","3","1","3","1","718581844601208832","周","216","","","","","","","","","","","","","","","","","","","true","14","4","moral","661","self","自己的","","","","","","","","","","","","","","",""
"null","","null","html-keyboard-response","158","301521","0.0-6.0-1.0-8.0-0.25","4","4","4","4","4","4","4","3","4","4","5","5","5","5","5","5","5","5","5","5","1","1","1","1","1","1","1","1","1","0","1","0","0","0","0","0","1","0","0","0","0","1","0","1","5","1","1","1","1","1","3","1","3","1","718581844601208832","周","216","","","","","","","","","","","","","","","","","","","","","","","","","","","","","","","","","","","","","","","",""
"669","<p style=""color:white; font-size: 35px;"">卑鄙</p>","i","categorize-html","159","302190","0.0-6.0-1.0-8.0-1.25","4","4","4","4","4","4","4","3","4","4","5","5","5","5","5","5","5","5","5","5","1","1","1","1","1","1","1","1","1","0","1","0","0","0","0","0","1","0","0","0","0","1","0","1","5","1","1","1","1","1","3","1","3","1","718581844601208832","周","216","","","","","","","","","","","","","","","","","","","true","14","4","moral","669","negative","卑鄙","","","","","","","","","","","","","","",""
"null","","null","html-keyboard-response","160","302448","0.0-6.0-1.0-8.0-0.26","4","4","4","4","4","4","4","3","4","4","5","5","5","5","5","5","5","5","5","5","1","1","1","1","1","1","1","1","1","0","1","0","0","0","0","0","1","0","0","0","0","1","0","1","5","1","1","1","1","1","3","1","3","1","718581844601208832","周","216","","","","","","","","","","","","","","","","","","","","","","","","","","","","","","","","","","","","","","","",""
"518","<p style=""color:rgb(150, 250, 100); font-size: 35px;"">他人</p>","e","categorize-html","161","302966","0.0-6.0-1.0-8.0-1.26","4","4","4","4","4","4","4","3","4","4","5","5","5","5","5","5","5","5","5","5","1","1","1","1","1","1","1","1","1","0","1","0","0","0","0","0","1","0","0","0","0","1","0","1","5","1","1","1","1","1","3","1","3","1","718581844601208832","周","216","","","","","","","","","","","","","","","","","","","true","14","4","moral","518","other","他人","","","","","","","","","","","","","","",""
"null","","null","html-keyboard-response","162","303223","0.0-6.0-1.0-8.0-0.27","4","4","4","4","4","4","4","3","4","4","5","5","5","5","5","5","5","5","5","5","1","1","1","1","1","1","1","1","1","0","1","0","0","0","0","0","1","0","0","0","0","1","0","1","5","1","1","1","1","1","3","1","3","1","718581844601208832","周","216","","","","","","","","","","","","","","","","","","","","","","","","","","","","","","","","","","","","","","","",""
"455","<p style=""color:white; font-size: 35px;"">正直</p>","i","categorize-html","163","304150","0.0-6.0-1.0-8.0-1.27","4","4","4","4","4","4","4","3","4","4","5","5","5","5","5","5","5","5","5","5","1","1","1","1","1","1","1","1","1","0","1","0","0","0","0","0","1","0","0","0","0","1","0","1","5","1","1","1","1","1","3","1","3","1","718581844601208832","周","216","","","","","","","","","","","","","","","","","","","false","14","4","moral","1199","positive","正直","","","","","","","","","","","","","","",""
"null","","null","html-keyboard-response","164","304407","0.0-6.0-1.0-8.0-0.28","4","4","4","4","4","4","4","3","4","4","5","5","5","5","5","5","5","5","5","5","1","1","1","1","1","1","1","1","1","0","1","0","0","0","0","0","1","0","0","0","0","1","0","1","5","1","1","1","1","1","3","1","3","1","718581844601208832","周","216","","","","","","","","","","","","","","","","","","","","","","","","","","","","","","","","","","","","","","","",""
"591","<p style=""color:rgb(150, 250, 100); font-size: 35px;"">他的</p>","e","categorize-html","165","304998","0.0-6.0-1.0-8.0-1.28","4","4","4","4","4","4","4","3","4","4","5","5","5","5","5","5","5","5","5","5","1","1","1","1","1","1","1","1","1","0","1","0","0","0","0","0","1","0","0","0","0","1","0","1","5","1","1","1","1","1","3","1","3","1","718581844601208832","周","216","","","","","","","","","","","","","","","","","","","true","14","4","moral","591","other","他的","","","","","","","","","","","","","","",""
"null","","null","html-keyboard-response","166","305255","0.0-6.0-1.0-8.0-0.29","4","4","4","4","4","4","4","3","4","4","5","5","5","5","5","5","5","5","5","5","1","1","1","1","1","1","1","1","1","0","1","0","0","0","0","0","1","0","0","0","0","1","0","1","5","1","1","1","1","1","3","1","3","1","718581844601208832","周","216","","","","","","","","","","","","","","","","","","","","","","","","","","","","","","","","","","","","","","","",""
"583","<p style=""color:white; font-size: 35px;"">高尚</p>","e","categorize-html","167","305838","0.0-6.0-1.0-8.0-1.29","4","4","4","4","4","4","4","3","4","4","5","5","5","5","5","5","5","5","5","5","1","1","1","1","1","1","1","1","1","0","1","0","0","0","0","0","1","0","0","0","0","1","0","1","5","1","1","1","1","1","3","1","3","1","718581844601208832","周","216","","","","","","","","","","","","","","","","","","","true","14","4","moral","583","positive","高尚","","","","","","","","","","","","","","",""
"null","","null","html-keyboard-response","168","306096","0.0-6.0-1.0-8.0-0.30","4","4","4","4","4","4","4","3","4","4","5","5","5","5","5","5","5","5","5","5","1","1","1","1","1","1","1","1","1","0","1","0","0","0","0","0","1","0","0","0","0","1","0","1","5","1","1","1","1","1","3","1","3","1","718581844601208832","周","216","","","","","","","","","","","","","","","","","","","","","","","","","","","","","","","","","","","","","","","",""
"717","<p style=""color:rgb(150, 250, 100); font-size: 35px;"">自己</p>","i","categorize-html","169","306814","0.0-6.0-1.0-8.0-1.30","4","4","4","4","4","4","4","3","4","4","5","5","5","5","5","5","5","5","5","5","1","1","1","1","1","1","1","1","1","0","1","0","0","0","0","0","1","0","0","0","0","1","0","1","5","1","1","1","1","1","3","1","3","1","718581844601208832","周","216","","","","","","","","","","","","","","","","","","","true","14","4","moral","717","self","自己","","","","","","","","","","","","","","",""
"null","","null","html-keyboard-response","170","307065","0.0-6.0-1.0-8.0-0.31","4","4","4","4","4","4","4","3","4","4","5","5","5","5","5","5","5","5","5","5","1","1","1","1","1","1","1","1","1","0","1","0","0","0","0","0","1","0","0","0","0","1","0","1","5","1","1","1","1","1","3","1","3","1","718581844601208832","周","216","","","","","","","","","","","","","","","","","","","","","","","","","","","","","","","","","","","","","","","",""
"741","<p style=""color:white; font-size: 35px;"">小人</p>","i","categorize-html","171","307806","0.0-6.0-1.0-8.0-1.31","4","4","4","4","4","4","4","3","4","4","5","5","5","5","5","5","5","5","5","5","1","1","1","1","1","1","1","1","1","0","1","0","0","0","0","0","1","0","0","0","0","1","0","1","5","1","1","1","1","1","3","1","3","1","718581844601208832","周","216","","","","","","","","","","","","","","","","","","","true","14","4","moral","741","negative","小人","","","","","","","","","","","","","","",""
"null","","null","html-keyboard-response","172","308057","0.0-6.0-1.0-8.0-0.32","4","4","4","4","4","4","4","3","4","4","5","5","5","5","5","5","5","5","5","5","1","1","1","1","1","1","1","1","1","0","1","0","0","0","0","0","1","0","0","0","0","1","0","1","5","1","1","1","1","1","3","1","3","1","718581844601208832","周","216","","","","","","","","","","","","","","","","","","","","","","","","","","","","","","","","","","","","","","","",""
"549","<p style=""color:rgb(150, 250, 100); font-size: 35px;"">别人的</p>","e","categorize-html","173","308607","0.0-6.0-1.0-8.0-1.32","4","4","4","4","4","4","4","3","4","4","5","5","5","5","5","5","5","5","5","5","1","1","1","1","1","1","1","1","1","0","1","0","0","0","0","0","1","0","0","0","0","1","0","1","5","1","1","1","1","1","3","1","3","1","718581844601208832","周","216","","","","","","","","","","","","","","","","","","","true","14","4","moral","549","other","别人的","","","","","","","","","","","","","","",""
"null","","null","html-keyboard-response","174","308857","0.0-6.0-1.0-8.0-0.33","4","4","4","4","4","4","4","3","4","4","5","5","5","5","5","5","5","5","5","5","1","1","1","1","1","1","1","1","1","0","1","0","0","0","0","0","1","0","0","0","0","1","0","1","5","1","1","1","1","1","3","1","3","1","718581844601208832","周","216","","","","","","","","","","","","","","","","","","","","","","","","","","","","","","","","","","","","","","","",""
"941","<p style=""color:white; font-size: 35px;"">不仁</p>","i","categorize-html","175","309799","0.0-6.0-1.0-8.0-1.33","4","4","4","4","4","4","4","3","4","4","5","5","5","5","5","5","5","5","5","5","1","1","1","1","1","1","1","1","1","0","1","0","0","0","0","0","1","0","0","0","0","1","0","1","5","1","1","1","1","1","3","1","3","1","718581844601208832","周","216","","","","","","","","","","","","","","","","","","","true","14","4","moral","941","negative","不仁","","","","","","","","","","","","","","",""
"null","","null","html-keyboard-response","176","310050","0.0-6.0-1.0-8.0-0.34","4","4","4","4","4","4","4","3","4","4","5","5","5","5","5","5","5","5","5","5","1","1","1","1","1","1","1","1","1","0","1","0","0","0","0","0","1","0","0","0","0","1","0","1","5","1","1","1","1","1","3","1","3","1","718581844601208832","周","216","","","","","","","","","","","","","","","","","","","","","","","","","","","","","","","","","","","","","","","",""
"469","<p style=""color:rgb(150, 250, 100); font-size: 35px;"">我</p>","i","categorize-html","177","310519","0.0-6.0-1.0-8.0-1.34","4","4","4","4","4","4","4","3","4","4","5","5","5","5","5","5","5","5","5","5","1","1","1","1","1","1","1","1","1","0","1","0","0","0","0","0","1","0","0","0","0","1","0","1","5","1","1","1","1","1","3","1","3","1","718581844601208832","周","216","","","","","","","","","","","","","","","","","","","true","14","4","moral","469","self","我","","","","","","","","","","","","","","",""
"null","","null","html-keyboard-response","178","310776","0.0-6.0-1.0-8.0-0.35","4","4","4","4","4","4","4","3","4","4","5","5","5","5","5","5","5","5","5","5","1","1","1","1","1","1","1","1","1","0","1","0","0","0","0","0","1","0","0","0","0","1","0","1","5","1","1","1","1","1","3","1","3","1","718581844601208832","周","216","","","","","","","","","","","","","","","","","","","","","","","","","","","","","","","","","","","","","","","",""
"503","<p style=""color:white; font-size: 35px;"">君子</p>","e","categorize-html","179","311279","0.0-6.0-1.0-8.0-1.35","4","4","4","4","4","4","4","3","4","4","5","5","5","5","5","5","5","5","5","5","1","1","1","1","1","1","1","1","1","0","1","0","0","0","0","0","1","0","0","0","0","1","0","1","5","1","1","1","1","1","3","1","3","1","718581844601208832","周","216","","","","","","","","","","","","","","","","","","","true","14","4","moral","503","positive","君子","","","","","","","","","","","","","","",""
"null","","null","html-keyboard-response","180","311537","0.0-6.0-1.0-8.0-0.36","4","4","4","4","4","4","4","3","4","4","5","5","5","5","5","5","5","5","5","5","1","1","1","1","1","1","1","1","1","0","1","0","0","0","0","0","1","0","0","0","0","1","0","1","5","1","1","1","1","1","3","1","3","1","718581844601208832","周","216","","","","","","","","","","","","","","","","","","","","","","","","","","","","","","","","","","","","","","","",""
"518","<p style=""color:rgb(150, 250, 100); font-size: 35px;"">自己</p>","i","categorize-html","181","312055","0.0-6.0-1.0-8.0-1.36","4","4","4","4","4","4","4","3","4","4","5","5","5","5","5","5","5","5","5","5","1","1","1","1","1","1","1","1","1","0","1","0","0","0","0","0","1","0","0","0","0","1","0","1","5","1","1","1","1","1","3","1","3","1","718581844601208832","周","216","","","","","","","","","","","","","","","","","","","true","14","4","moral","518","self","自己","","","","","","","","","","","","","","",""
"null","","null","html-keyboard-response","182","312305","0.0-6.0-1.0-8.0-0.37","4","4","4","4","4","4","4","3","4","4","5","5","5","5","5","5","5","5","5","5","1","1","1","1","1","1","1","1","1","0","1","0","0","0","0","0","1","0","0","0","0","1","0","1","5","1","1","1","1","1","3","1","3","1","718581844601208832","周","216","","","","","","","","","","","","","","","","","","","","","","","","","","","","","","","","","","","","","","","",""
"533","<p style=""color:white; font-size: 35px;"">黑心</p>","i","categorize-html","183","312839","0.0-6.0-1.0-8.0-1.37","4","4","4","4","4","4","4","3","4","4","5","5","5","5","5","5","5","5","5","5","1","1","1","1","1","1","1","1","1","0","1","0","0","0","0","0","1","0","0","0","0","1","0","1","5","1","1","1","1","1","3","1","3","1","718581844601208832","周","216","","","","","","","","","","","","","","","","","","","true","14","4","moral","533","negative","黑心","","","","","","","","","","","","","","",""
"null","","null","html-keyboard-response","184","313110","0.0-6.0-1.0-8.0-0.38","4","4","4","4","4","4","4","3","4","4","5","5","5","5","5","5","5","5","5","5","1","1","1","1","1","1","1","1","1","0","1","0","0","0","0","0","1","0","0","0","0","1","0","1","5","1","1","1","1","1","3","1","3","1","718581844601208832","周","216","","","","","","","","","","","","","","","","","","","","","","","","","","","","","","","","","","","","","","","",""
"584","<p style=""color:rgb(150, 250, 100); font-size: 35px;"">别人的</p>","e","categorize-html","185","313695","0.0-6.0-1.0-8.0-1.38","4","4","4","4","4","4","4","3","4","4","5","5","5","5","5","5","5","5","5","5","1","1","1","1","1","1","1","1","1","0","1","0","0","0","0","0","1","0","0","0","0","1","0","1","5","1","1","1","1","1","3","1","3","1","718581844601208832","周","216","","","","","","","","","","","","","","","","","","","true","14","4","moral","584","other","别人的","","","","","","","","","","","","","","",""
"null","","null","html-keyboard-response","186","313945","0.0-6.0-1.0-8.0-0.39","4","4","4","4","4","4","4","3","4","4","5","5","5","5","5","5","5","5","5","5","1","1","1","1","1","1","1","1","1","0","1","0","0","0","0","0","1","0","0","0","0","1","0","1","5","1","1","1","1","1","3","1","3","1","718581844601208832","周","216","","","","","","","","","","","","","","","","","","","","","","","","","","","","","","","","","","","","","","","",""
"533","<p style=""color:white; font-size: 35px;"">诚信</p>","e","categorize-html","187","314479","0.0-6.0-1.0-8.0-1.39","4","4","4","4","4","4","4","3","4","4","5","5","5","5","5","5","5","5","5","5","1","1","1","1","1","1","1","1","1","0","1","0","0","0","0","0","1","0","0","0","0","1","0","1","5","1","1","1","1","1","3","1","3","1","718581844601208832","周","216","","","","","","","","","","","","","","","","","","","true","14","4","moral","533","positive","诚信","","","","","","","","","","","","","","",""
"null","","null","html-keyboard-response","188","314737","0.0-6.0-1.0-8.0-0.40","4","4","4","4","4","4","4","3","4","4","5","5","5","5","5","5","5","5","5","5","1","1","1","1","1","1","1","1","1","0","1","0","0","0","0","0","1","0","0","0","0","1","0","1","5","1","1","1","1","1","3","1","3","1","718581844601208832","周","216","","","","","","","","","","","","","","","","","","","","","","","","","","","","","","","","","","","","","","","",""
"1357","<p style=""color:rgb(150, 250, 100); font-size: 35px;"">别人</p>","e","categorize-html","189","316095","0.0-6.0-1.0-8.0-1.40","4","4","4","4","4","4","4","3","4","4","5","5","5","5","5","5","5","5","5","5","1","1","1","1","1","1","1","1","1","0","1","0","0","0","0","0","1","0","0","0","0","1","0","1","5","1","1","1","1","1","3","1","3","1","718581844601208832","周","216","","","","","","","","","","","","","","","","","","","true","14","4","moral","1357","other","别人","","","","","","","","","","","","","","",""
"null","","null","html-keyboard-response","190","316351","0.0-6.0-1.0-8.0-0.41","4","4","4","4","4","4","4","3","4","4","5","5","5","5","5","5","5","5","5","5","1","1","1","1","1","1","1","1","1","0","1","0","0","0","0","0","1","0","0","0","0","1","0","1","5","1","1","1","1","1","3","1","3","1","718581844601208832","周","216","","","","","","","","","","","","","","","","","","","","","","","","","","","","","","","","","","","","","","","",""
"495","<p style=""color:white; font-size: 35px;"">君子</p>","e","categorize-html","191","316847","0.0-6.0-1.0-8.0-1.41","4","4","4","4","4","4","4","3","4","4","5","5","5","5","5","5","5","5","5","5","1","1","1","1","1","1","1","1","1","0","1","0","0","0","0","0","1","0","0","0","0","1","0","1","5","1","1","1","1","1","3","1","3","1","718581844601208832","周","216","","","","","","","","","","","","","","","","","","","true","14","4","moral","495","positive","君子","","","","","","","","","","","","","","",""
"null","","null","html-keyboard-response","192","317098","0.0-6.0-1.0-8.0-0.42","4","4","4","4","4","4","4","3","4","4","5","5","5","5","5","5","5","5","5","5","1","1","1","1","1","1","1","1","1","0","1","0","0","0","0","0","1","0","0","0","0","1","0","1","5","1","1","1","1","1","3","1","3","1","718581844601208832","周","216","","","","","","","","","","","","","","","","","","","","","","","","","","","","","","","","","","","","","","","",""
"636","<p style=""color:rgb(150, 250, 100); font-size: 35px;"">我的</p>","i","categorize-html","193","317735","0.0-6.0-1.0-8.0-1.42","4","4","4","4","4","4","4","3","4","4","5","5","5","5","5","5","5","5","5","5","1","1","1","1","1","1","1","1","1","0","1","0","0","0","0","0","1","0","0","0","0","1","0","1","5","1","1","1","1","1","3","1","3","1","718581844601208832","周","216","","","","","","","","","","","","","","","","","","","true","14","4","moral","636","self","我的","","","","","","","","","","","","","","",""
"null","","null","html-keyboard-response","194","317988","0.0-6.0-1.0-8.0-0.43","4","4","4","4","4","4","4","3","4","4","5","5","5","5","5","5","5","5","5","5","1","1","1","1","1","1","1","1","1","0","1","0","0","0","0","0","1","0","0","0","0","1","0","1","5","1","1","1","1","1","3","1","3","1","718581844601208832","周","216","","","","","","","","","","","","","","","","","","","","","","","","","","","","","","","","","","","","","","","",""
"434","<p style=""color:white; font-size: 35px;"">缺德</p>","i","categorize-html","195","318423","0.0-6.0-1.0-8.0-1.43","4","4","4","4","4","4","4","3","4","4","5","5","5","5","5","5","5","5","5","5","1","1","1","1","1","1","1","1","1","0","1","0","0","0","0","0","1","0","0","0","0","1","0","1","5","1","1","1","1","1","3","1","3","1","718581844601208832","周","216","","","","","","","","","","","","","","","","","","","true","14","4","moral","434","negative","缺德","","","","","","","","","","","","","","",""
"null","","null","html-keyboard-response","196","318679","0.0-6.0-1.0-8.0-0.44","4","4","4","4","4","4","4","3","4","4","5","5","5","5","5","5","5","5","5","5","1","1","1","1","1","1","1","1","1","0","1","0","0","0","0","0","1","0","0","0","0","1","0","1","5","1","1","1","1","1","3","1","3","1","718581844601208832","周","216","","","","","","","","","","","","","","","","","","","","","","","","","","","","","","","","","","","","","","","",""
"503","<p style=""color:rgb(150, 250, 100); font-size: 35px;"">自己的</p>","i","categorize-html","197","319183","0.0-6.0-1.0-8.0-1.44","4","4","4","4","4","4","4","3","4","4","5","5","5","5","5","5","5","5","5","5","1","1","1","1","1","1","1","1","1","0","1","0","0","0","0","0","1","0","0","0","0","1","0","1","5","1","1","1","1","1","3","1","3","1","718581844601208832","周","216","","","","","","","","","","","","","","","","","","","true","14","4","moral","503","self","自己的","","","","","","","","","","","","","","",""
