"rt","stimulus","response","trial_type","trial_index","time_elapsed","internal_node_id","ses_1","ses_2","ses_3","ses_4","ses_5","ses_6","ses_7","ses_8","ses_9","ses_10","coreself_1","coreself_2","coreself_3","coreself_4","coreself_5","coreself_6","coreself_7","coreself_8","coreself_9","coreself_10","SGPS_1","SGPS_2","SGPS_3","SGPS_4","SGPS_5","SGPS_6","SGPS_7","SGPS_8","SGPS_9","NPI1","NPI2","NPI3","NPI4","NPI5","NPI6","NPI7","NPI8","NPI9","NPI10","NPI11","NPI12","NPI13","NPI14","NPI15","hsns_1","hsns_2","hsns_3","hsns_4","hsns_5","hsns_6","hsns_7","hsns_8","hsns_9","hsns_10","subj_idx","friend_name","ParticipantID","value","success","user_agent","responses","item_order","radio_event_ids","radio_event_times","key_event_times","mouse_event_times","straightlining","zigzagging","honeypot","timeout","failed_images","failed_audio","failed_video","version_attrib","version_target","correct","IAT","screen_id","task_id","RT","condition","word","varname","summary","version_attrib2","version_target2","time_stamp","view_history","response_type","key_press","avg_frame_time","center_x","center_y","correct_response","identity","Image","question_order"
"10849","
   <p><div style = ""color: white;font-size:25px;"">您好，欢迎参加本次实验。</div> </p>
   <p><div style = ""color: white;font-size:25px;"">为充分保障您的权利，请确保您已经知晓并同意《参与实验同意书》以及《数据公开知情同意书》。</div></p>
   <p><div style = ""color: white;font-size:25px;"">如果您未见过上述内容，请咨询实验员。</div></p>
   <p><div style = ""color: white;font-size:25px;"">如果您选择继续实验，则表示您已经清楚两份知情同意书的内容并同意。</div></p>
   <p><div style = ""color: red;font-size:30px;"">请确保您记得day0的实验编号，您将在本次实验输入该编号，若您忘记，请咨询实验员后作答。</div></p>
   <p> <div style = ""color: green;font-size:25px;""><按空格键至下页></div> </p>
   "," ","html-keyboard-response","0","10852","0.0-0.0","4","3","4","3","4","3","2","2","3","4","4","4","4","5","5","4","4","4","4","5","4","4","4","4","3","4","4","5","4","1","0","1","1","0","1","0","1","1","1","0","0","0","0","0","4","2","5","2","4","2","4","2","5","4","720215098982924288","刘","693","","","","","","","","","","","","","","","","","","","","","","","","","","","","","","","","","","","","","","","",""
"","","","call-function","1","10853","0.0-1.0-0.0","4","3","4","3","4","3","2","2","3","4","4","4","4","5","5","4","4","4","4","5","4","4","4","4","3","4","4","5","4","1","0","1","1","0","1","0","1","1","1","0","0","0","0","0","4","2","5","2","4","2","4","2","5","4","720215098982924288","刘","693","","","","","","","","","","","","","","","","","","","","","","","","","","","","","","","","","","","","","","","",""
"15947","","{""friend_name"":""刘"",""ParticipantID"":""693""}","survey-html-form","2","26808","0.0-1.0-1.0","4","3","4","3","4","3","2","2","3","4","4","4","4","5","5","4","4","4","4","5","4","4","4","4","3","4","4","5","4","1","0","1","1","0","1","0","1","1","1","0","0","0","0","0","4","2","5","2","4","2","4","2","5","4","720215098982924288","刘","693","","","","","","","","","","","","","","","","","","","","","","","","","","","","","","","","","","","","","","","",""
"","","","fullscreen","3","28523","0.0-2.0","4","3","4","3","4","3","2","2","3","4","4","4","4","5","5","4","4","4","4","5","4","4","4","4","3","4","4","5","4","1","0","1","1","0","1","0","1","1","1","0","0","0","0","0","4","2","5","2","4","2","4","2","5","4","720215098982924288","刘","693","","true","{}","","","","","","","","","","","","","","","","","","","","","","","","","","","","","","","","","","","","",""
"24131","","{""Q01"":""4"",""Q02"":""3"",""Q03"":""4"",""Q04"":""3"",""Q05"":""4"",""Q06"":""3"",""Q07"":""2"",""Q08"":""2"",""Q09"":""3"",""Q10"":""4""}","survey-template","4","52664","0.0-3.0","4","3","4","3","4","3","2","2","3","4","4","4","4","5","5","4","4","4","4","5","4","4","4","4","3","4","4","5","4","1","0","1","1","0","1","0","1","1","1","0","0","0","0","0","4","2","5","2","4","2","4","2","5","4","720215098982924288","刘","693","","","","{""Q01"":""4"",""Q02"":""3"",""Q03"":""4"",""Q04"":""3"",""Q05"":""4"",""Q06"":""3"",""Q07"":""2"",""Q08"":""2"",""Q09"":""3"",""Q10"":""4""}","[0,1,2,3,4,5,6,7,8,9]","[""Q01"",""Q02"",""Q03"",""Q04"",""Q05"",""Q06"",""Q07"",""Q08"",""Q09"",""Q10""]","[4947,7451,9562.600000023842,12050.800000011921,14371.200000047684,15418.5,17226.900000035763,18618.100000023842,20899,23250.80000001192]","[]","[3738.900000035763,4129.600000023842,4538.5,4553.900000035763,4947,7451,9562.600000023842,12050.800000011921,14371.200000047684,15418.5,16522.900000035763,16795.600000023842,17226.900000035763,18618.100000023842,20899,23250.80000001192,24128.600000023842]","0.4","0.5555555555555556","0","","","","","","","","","","","","","","","","","","","","","","","","","","","",""
"23360.600000023842","","{""Q01"":""4"",""Q02"":""4"",""Q03"":""4"",""Q04"":""5"",""Q05"":""5"",""Q06"":""4"",""Q07"":""4"",""Q08"":""4"",""Q09"":""4"",""Q10"":""5""}","survey-template","5","76032","0.0-4.0","4","3","4","3","4","3","2","2","3","4","4","4","4","5","5","4","4","4","4","5","4","4","4","4","3","4","4","5","4","1","0","1","1","0","1","0","1","1","1","0","0","0","0","0","4","2","5","2","4","2","4","2","5","4","720215098982924288","刘","693","","","","{""Q01"":""4"",""Q02"":""4"",""Q03"":""4"",""Q04"":""5"",""Q05"":""5"",""Q06"":""4"",""Q07"":""4"",""Q08"":""4"",""Q09"":""4"",""Q10"":""5""}","[0,1,2,3,4,5,6,7,8,9]","[""Q01"",""Q02"",""Q02"",""Q02"",""Q03"",""Q04"",""Q05"",""Q05"",""Q06"",""Q07"",""Q08"",""Q08"",""Q09"",""Q10""]","[2285.800000011921,4837.800000011921,4854.199999988079,5325.600000023842,6445.699999988079,8181.600000023842,10077,11189.800000011921,12806.600000023842,14324.900000035763,15916.800000011921,15932.600000023842,17213.80000001192,20012.900000035763]","[]","[1677.6000000238419,2285.800000011921,4389.5,4837.800000011921,4854.199999988079,5325.600000023842,6173.5,6445.699999988079,7885.199999988079,8181.600000023842,10077,11189.800000011921,12549.600000023842,12806.600000023842,14324.900000035763,15916.800000011921,15932.600000023842,17213.80000001192,19573.600000023842,20012.900000035763,23357.600000023842]","0.4","0.1111111111111111","0","","","","","","","","","","","","","","","","","","","","","","","","","","","",""
"","","","preload","6","77487","0.0-5.0","4","3","4","3","4","3","2","2","3","4","4","4","4","5","5","4","4","4","4","5","4","4","4","4","3","4","4","5","4","1","0","1","1","0","1","0","1","1","1","0","0","0","0","0","4","2","5","2","4","2","4","2","5","4","720215098982924288","刘","693","","true","","","","","","","","","","","false","[]","[]","[]","","","","","","","","","","","","","","","","","","","","","","","",""
"11086","
    <h3>词语分类任务</h3>
    <p>在接下来的任务中，你需要对一系列词语进行分类。</p>
    <p>请先熟悉这些词语，这有利于你完成接下来的任务。</p>
    <table align=""center"" border=1 cellpadding=3 cellspacing=0>
    <tr> <th>类别</th> <th>词语</th> </tr>
    <tr> <td>&emsp;积极&emsp;</td> <td>&emsp;能干、全能、全才、高效、精干、天才&emsp;</td> </tr>
    <tr> <td>&emsp;消极&emsp;</td> <td>&emsp;无能、低能、废物、拙笨、愚钝、蠢笨&emsp;</td> </tr>
    <tr> <td>&emsp;自我&emsp;</td> <td>&emsp;我、我的、自己、自己的、本人、本人的&emsp;</td> </tr>
    <tr> <td>&emsp;他人&emsp;</td> <td>&emsp;他、他的、别人、别人的、他人、他人的&emsp;</td> </tr>
    </table><br/>","0","html-button-response","7","88579","0.0-6.0-0.0-0.0","4","3","4","3","4","3","2","2","3","4","4","4","4","5","5","4","4","4","4","5","4","4","4","4","3","4","4","5","4","1","0","1","1","0","1","0","1","1","1","0","0","0","0","0","4","2","5","2","4","2","4","2","5","4","720215098982924288","刘","693","","","","","","","","","","","","","","","","","2","1","","","","","","","","","","","","","","","","","","","","","",""
"7469","
    <div class=""tag-bottom"">
    <p> —— 任务1：对“自我”词和“他人”词分类 ——<p/>
    不同词语会出现在屏幕中央，类别标签将始终显示在屏幕上方<p/>   
    <span style=""color:#FFD866""><b>请根据上方标签的提示，尽可能正确并且快速地做出按键反应</b></span><p/>
    当按键错误时屏幕中会出现<span style=""color:red""> X </span>，需要按另一个键纠正才能继续<br/><p/>
    请把双手食指分别放在键盘的“E”键和“I”键上<p/>
    按<空格键>开始
    </p></div>"," ","html-keyboard-response","8","96052","0.0-6.0-0.0-1.0","4","3","4","3","4","3","2","2","3","4","4","4","4","5","5","4","4","4","4","5","4","4","4","4","3","4","4","5","4","1","0","1","1","0","1","0","1","1","1","0","0","0","0","0","4","2","5","2","4","2","4","2","5","4","720215098982924288","刘","693","","","","","","","","","","","","","","","","","","","","","","","","","","","","","","","","","","","","","","","",""
"null","","null","html-keyboard-response","9","96304","0.0-6.0-0.0-2.0-0.0","4","3","4","3","4","3","2","2","3","4","4","4","4","5","5","4","4","4","4","5","4","4","4","4","3","4","4","5","4","1","0","1","1","0","1","0","1","1","1","0","0","0","0","0","4","2","5","2","4","2","4","2","5","4","720215098982924288","刘","693","","","","","","","","","","","","","","","","","","","","","","","","","","","","","","","","","","","","","","","",""
"900","<p style=""color:rgb(150, 250, 100); font-size: 35px;"">别人</p>","i","categorize-html","10","97210","0.0-6.0-0.0-2.0-1.0","4","3","4","3","4","3","2","2","3","4","4","4","4","5","5","4","4","4","4","5","4","4","4","4","3","4","4","5","4","1","0","1","1","0","1","0","1","1","1","0","0","0","0","0","4","2","5","2","4","2","4","2","5","4","720215098982924288","刘","693","","","","","","","","","","","","","","","","","","","true","1","1","ability","900","other","别人","","","","","","","","","","","","","","",""
"null","","null","html-keyboard-response","11","97464","0.0-6.0-0.0-2.0-0.1","4","3","4","3","4","3","2","2","3","4","4","4","4","5","5","4","4","4","4","5","4","4","4","4","3","4","4","5","4","1","0","1","1","0","1","0","1","1","1","0","0","0","0","0","4","2","5","2","4","2","4","2","5","4","720215098982924288","刘","693","","","","","","","","","","","","","","","","","","","","","","","","","","","","","","","","","","","","","","","",""
"581","<p style=""color:rgb(150, 250, 100); font-size: 35px;"">自己的</p>","e","categorize-html","12","98048","0.0-6.0-0.0-2.0-1.1","4","3","4","3","4","3","2","2","3","4","4","4","4","5","5","4","4","4","4","5","4","4","4","4","3","4","4","5","4","1","0","1","1","0","1","0","1","1","1","0","0","0","0","0","4","2","5","2","4","2","4","2","5","4","720215098982924288","刘","693","","","","","","","","","","","","","","","","","","","true","1","1","ability","581","self","自己的","","","","","","","","","","","","","","",""
"null","","null","html-keyboard-response","13","98301","0.0-6.0-0.0-2.0-0.2","4","3","4","3","4","3","2","2","3","4","4","4","4","5","5","4","4","4","4","5","4","4","4","4","3","4","4","5","4","1","0","1","1","0","1","0","1","1","1","0","0","0","0","0","4","2","5","2","4","2","4","2","5","4","720215098982924288","刘","693","","","","","","","","","","","","","","","","","","","","","","","","","","","","","","","","","","","","","","","",""
"613","<p style=""color:rgb(150, 250, 100); font-size: 35px;"">别人的</p>","i","categorize-html","14","98917","0.0-6.0-0.0-2.0-1.2","4","3","4","3","4","3","2","2","3","4","4","4","4","5","5","4","4","4","4","5","4","4","4","4","3","4","4","5","4","1","0","1","1","0","1","0","1","1","1","0","0","0","0","0","4","2","5","2","4","2","4","2","5","4","720215098982924288","刘","693","","","","","","","","","","","","","","","","","","","true","1","1","ability","613","other","别人的","","","","","","","","","","","","","","",""
"null","","null","html-keyboard-response","15","99169","0.0-6.0-0.0-2.0-0.3","4","3","4","3","4","3","2","2","3","4","4","4","4","5","5","4","4","4","4","5","4","4","4","4","3","4","4","5","4","1","0","1","1","0","1","0","1","1","1","0","0","0","0","0","4","2","5","2","4","2","4","2","5","4","720215098982924288","刘","693","","","","","","","","","","","","","","","","","","","","","","","","","","","","","","","","","","","","","","","",""
"593","<p style=""color:rgb(150, 250, 100); font-size: 35px;"">我</p>","e","categorize-html","16","99766","0.0-6.0-0.0-2.0-1.3","4","3","4","3","4","3","2","2","3","4","4","4","4","5","5","4","4","4","4","5","4","4","4","4","3","4","4","5","4","1","0","1","1","0","1","0","1","1","1","0","0","0","0","0","4","2","5","2","4","2","4","2","5","4","720215098982924288","刘","693","","","","","","","","","","","","","","","","","","","true","1","1","ability","593","self","我","","","","","","","","","","","","","","",""
"null","","null","html-keyboard-response","17","100018","0.0-6.0-0.0-2.0-0.4","4","3","4","3","4","3","2","2","3","4","4","4","4","5","5","4","4","4","4","5","4","4","4","4","3","4","4","5","4","1","0","1","1","0","1","0","1","1","1","0","0","0","0","0","4","2","5","2","4","2","4","2","5","4","720215098982924288","刘","693","","","","","","","","","","","","","","","","","","","","","","","","","","","","","","","","","","","","","","","",""
"596","<p style=""color:rgb(150, 250, 100); font-size: 35px;"">他</p>","i","categorize-html","18","100616","0.0-6.0-0.0-2.0-1.4","4","3","4","3","4","3","2","2","3","4","4","4","4","5","5","4","4","4","4","5","4","4","4","4","3","4","4","5","4","1","0","1","1","0","1","0","1","1","1","0","0","0","0","0","4","2","5","2","4","2","4","2","5","4","720215098982924288","刘","693","","","","","","","","","","","","","","","","","","","true","1","1","ability","596","other","他","","","","","","","","","","","","","","",""
"null","","null","html-keyboard-response","19","100869","0.0-6.0-0.0-2.0-0.5","4","3","4","3","4","3","2","2","3","4","4","4","4","5","5","4","4","4","4","5","4","4","4","4","3","4","4","5","4","1","0","1","1","0","1","0","1","1","1","0","0","0","0","0","4","2","5","2","4","2","4","2","5","4","720215098982924288","刘","693","","","","","","","","","","","","","","","","","","","","","","","","","","","","","","","","","","","","","","","",""
"551","<p style=""color:rgb(150, 250, 100); font-size: 35px;"">本人的</p>","e","categorize-html","20","101424","0.0-6.0-0.0-2.0-1.5","4","3","4","3","4","3","2","2","3","4","4","4","4","5","5","4","4","4","4","5","4","4","4","4","3","4","4","5","4","1","0","1","1","0","1","0","1","1","1","0","0","0","0","0","4","2","5","2","4","2","4","2","5","4","720215098982924288","刘","693","","","","","","","","","","","","","","","","","","","true","1","1","ability","551","self","本人的","","","","","","","","","","","","","","",""
"null","","null","html-keyboard-response","21","101676","0.0-6.0-0.0-2.0-0.6","4","3","4","3","4","3","2","2","3","4","4","4","4","5","5","4","4","4","4","5","4","4","4","4","3","4","4","5","4","1","0","1","1","0","1","0","1","1","1","0","0","0","0","0","4","2","5","2","4","2","4","2","5","4","720215098982924288","刘","693","","","","","","","","","","","","","","","","","","","","","","","","","","","","","","","","","","","","","","","",""
"532","<p style=""color:rgb(150, 250, 100); font-size: 35px;"">他人的</p>","i","categorize-html","22","102211","0.0-6.0-0.0-2.0-1.6","4","3","4","3","4","3","2","2","3","4","4","4","4","5","5","4","4","4","4","5","4","4","4","4","3","4","4","5","4","1","0","1","1","0","1","0","1","1","1","0","0","0","0","0","4","2","5","2","4","2","4","2","5","4","720215098982924288","刘","693","","","","","","","","","","","","","","","","","","","true","1","1","ability","532","other","他人的","","","","","","","","","","","","","","",""
"null","","null","html-keyboard-response","23","102463","0.0-6.0-0.0-2.0-0.7","4","3","4","3","4","3","2","2","3","4","4","4","4","5","5","4","4","4","4","5","4","4","4","4","3","4","4","5","4","1","0","1","1","0","1","0","1","1","1","0","0","0","0","0","4","2","5","2","4","2","4","2","5","4","720215098982924288","刘","693","","","","","","","","","","","","","","","","","","","","","","","","","","","","","","","","","","","","","","","",""
"666","<p style=""color:rgb(150, 250, 100); font-size: 35px;"">他的</p>","i","categorize-html","24","103132","0.0-6.0-0.0-2.0-1.7","4","3","4","3","4","3","2","2","3","4","4","4","4","5","5","4","4","4","4","5","4","4","4","4","3","4","4","5","4","1","0","1","1","0","1","0","1","1","1","0","0","0","0","0","4","2","5","2","4","2","4","2","5","4","720215098982924288","刘","693","","","","","","","","","","","","","","","","","","","true","1","1","ability","666","other","他的","","","","","","","","","","","","","","",""
"null","","null","html-keyboard-response","25","103383","0.0-6.0-0.0-2.0-0.8","4","3","4","3","4","3","2","2","3","4","4","4","4","5","5","4","4","4","4","5","4","4","4","4","3","4","4","5","4","1","0","1","1","0","1","0","1","1","1","0","0","0","0","0","4","2","5","2","4","2","4","2","5","4","720215098982924288","刘","693","","","","","","","","","","","","","","","","","","","","","","","","","","","","","","","","","","","","","","","",""
"507","<p style=""color:rgb(150, 250, 100); font-size: 35px;"">本人</p>","e","categorize-html","26","103893","0.0-6.0-0.0-2.0-1.8","4","3","4","3","4","3","2","2","3","4","4","4","4","5","5","4","4","4","4","5","4","4","4","4","3","4","4","5","4","1","0","1","1","0","1","0","1","1","1","0","0","0","0","0","4","2","5","2","4","2","4","2","5","4","720215098982924288","刘","693","","","","","","","","","","","","","","","","","","","true","1","1","ability","507","self","本人","","","","","","","","","","","","","","",""
"null","","null","html-keyboard-response","27","104145","0.0-6.0-0.0-2.0-0.9","4","3","4","3","4","3","2","2","3","4","4","4","4","5","5","4","4","4","4","5","4","4","4","4","3","4","4","5","4","1","0","1","1","0","1","0","1","1","1","0","0","0","0","0","4","2","5","2","4","2","4","2","5","4","720215098982924288","刘","693","","","","","","","","","","","","","","","","","","","","","","","","","","","","","","","","","","","","","","","",""
"634","<p style=""color:rgb(150, 250, 100); font-size: 35px;"">我的</p>","e","categorize-html","28","104782","0.0-6.0-0.0-2.0-1.9","4","3","4","3","4","3","2","2","3","4","4","4","4","5","5","4","4","4","4","5","4","4","4","4","3","4","4","5","4","1","0","1","1","0","1","0","1","1","1","0","0","0","0","0","4","2","5","2","4","2","4","2","5","4","720215098982924288","刘","693","","","","","","","","","","","","","","","","","","","true","1","1","ability","634","self","我的","","","","","","","","","","","","","","",""
"null","","null","html-keyboard-response","29","105034","0.0-6.0-0.0-2.0-0.10","4","3","4","3","4","3","2","2","3","4","4","4","4","5","5","4","4","4","4","5","4","4","4","4","3","4","4","5","4","1","0","1","1","0","1","0","1","1","1","0","0","0","0","0","4","2","5","2","4","2","4","2","5","4","720215098982924288","刘","693","","","","","","","","","","","","","","","","","","","","","","","","","","","","","","","","","","","","","","","",""
"701","<p style=""color:rgb(150, 250, 100); font-size: 35px;"">自己</p>","e","categorize-html","30","105737","0.0-6.0-0.0-2.0-1.10","4","3","4","3","4","3","2","2","3","4","4","4","4","5","5","4","4","4","4","5","4","4","4","4","3","4","4","5","4","1","0","1","1","0","1","0","1","1","1","0","0","0","0","0","4","2","5","2","4","2","4","2","5","4","720215098982924288","刘","693","","","","","","","","","","","","","","","","","","","true","1","1","ability","701","self","自己","","","","","","","","","","","","","","",""
"null","","null","html-keyboard-response","31","105990","0.0-6.0-0.0-2.0-0.11","4","3","4","3","4","3","2","2","3","4","4","4","4","5","5","4","4","4","4","5","4","4","4","4","3","4","4","5","4","1","0","1","1","0","1","0","1","1","1","0","0","0","0","0","4","2","5","2","4","2","4","2","5","4","720215098982924288","刘","693","","","","","","","","","","","","","","","","","","","","","","","","","","","","","","","","","","","","","","","",""
"556","<p style=""color:rgb(150, 250, 100); font-size: 35px;"">他人</p>","i","categorize-html","32","106549","0.0-6.0-0.0-2.0-1.11","4","3","4","3","4","3","2","2","3","4","4","4","4","5","5","4","4","4","4","5","4","4","4","4","3","4","4","5","4","1","0","1","1","0","1","0","1","1","1","0","0","0","0","0","4","2","5","2","4","2","4","2","5","4","720215098982924288","刘","693","","","","","","","","","","","","","","","","","","","true","1","1","ability","556","other","他人","","","","","","","","","","","","","","",""
"1455","
    <div class=""tag-bottom""><p>
    —— 任务2：对“消极”词和“积极”词分类 ——<p/>   
    <span style=""color:#78DCE8""><b>注意上方，类别标签和需要分类的词语都已经改变</b></span><p/>
    <span style=""color:#FFD866""><b>请根据上方标签的提示，尽可能正确并且快速地做出按键反应</b></span><p/>
    当按键错误时屏幕中会出现<span style=""color:red""> X </span>，需要按另一个键纠正才能继续<br/><p/>
    请把双手食指分别放在键盘的“E”键和“I”键上<p/>
    按<空格键>开始
    </p></div>"," ","html-keyboard-response","33","108006","0.0-6.0-0.0-3.0","4","3","4","3","4","3","2","2","3","4","4","4","4","5","5","4","4","4","4","5","4","4","4","4","3","4","4","5","4","1","0","1","1","0","1","0","1","1","1","0","0","0","0","0","4","2","5","2","4","2","4","2","5","4","720215098982924288","刘","693","","","","","","","","","","","","","","","","","","","","","","","","","","","","","","","","","","","","","","","",""
"null","","null","html-keyboard-response","34","108258","0.0-6.0-0.0-4.0-0.0","4","3","4","3","4","3","2","2","3","4","4","4","4","5","5","4","4","4","4","5","4","4","4","4","3","4","4","5","4","1","0","1","1","0","1","0","1","1","1","0","0","0","0","0","4","2","5","2","4","2","4","2","5","4","720215098982924288","刘","693","","","","","","","","","","","","","","","","","","","","","","","","","","","","","","","","","","","","","","","",""
"851","<p style=""color:white; font-size: 35px;"">蠢笨</p>","i","categorize-html","35","110042","0.0-6.0-0.0-4.0-1.0","4","3","4","3","4","3","2","2","3","4","4","4","4","5","5","4","4","4","4","5","4","4","4","4","3","4","4","5","4","1","0","1","1","0","1","0","1","1","1","0","0","0","0","0","4","2","5","2","4","2","4","2","5","4","720215098982924288","刘","693","","","","","","","","","","","","","","","","","","","false","2","2","ability","851","negative","蠢笨","","","","","","","","","","","","","","",""
"null","","null","html-keyboard-response","36","110296","0.0-6.0-0.0-4.0-0.1","4","3","4","3","4","3","2","2","3","4","4","4","4","5","5","4","4","4","4","5","4","4","4","4","3","4","4","5","4","1","0","1","1","0","1","0","1","1","1","0","0","0","0","0","4","2","5","2","4","2","4","2","5","4","720215098982924288","刘","693","","","","","","","","","","","","","","","","","","","","","","","","","","","","","","","","","","","","","","","",""
"1525","<p style=""color:white; font-size: 35px;"">高效</p>","i","categorize-html","37","111825","0.0-6.0-0.0-4.0-1.1","4","3","4","3","4","3","2","2","3","4","4","4","4","5","5","4","4","4","4","5","4","4","4","4","3","4","4","5","4","1","0","1","1","0","1","0","1","1","1","0","0","0","0","0","4","2","5","2","4","2","4","2","5","4","720215098982924288","刘","693","","","","","","","","","","","","","","","","","","","true","2","2","ability","1525","positive","高效","","","","","","","","","","","","","","",""
"null","","null","html-keyboard-response","38","112077","0.0-6.0-0.0-4.0-0.2","4","3","4","3","4","3","2","2","3","4","4","4","4","5","5","4","4","4","4","5","4","4","4","4","3","4","4","5","4","1","0","1","1","0","1","0","1","1","1","0","0","0","0","0","4","2","5","2","4","2","4","2","5","4","720215098982924288","刘","693","","","","","","","","","","","","","","","","","","","","","","","","","","","","","","","","","","","","","","","",""
"1048","<p style=""color:white; font-size: 35px;"">低能</p>","e","categorize-html","39","113128","0.0-6.0-0.0-4.0-1.2","4","3","4","3","4","3","2","2","3","4","4","4","4","5","5","4","4","4","4","5","4","4","4","4","3","4","4","5","4","1","0","1","1","0","1","0","1","1","1","0","0","0","0","0","4","2","5","2","4","2","4","2","5","4","720215098982924288","刘","693","","","","","","","","","","","","","","","","","","","true","2","2","ability","1048","negative","低能","","","","","","","","","","","","","","",""
"null","","null","html-keyboard-response","40","113380","0.0-6.0-0.0-4.0-0.3","4","3","4","3","4","3","2","2","3","4","4","4","4","5","5","4","4","4","4","5","4","4","4","4","3","4","4","5","4","1","0","1","1","0","1","0","1","1","1","0","0","0","0","0","4","2","5","2","4","2","4","2","5","4","720215098982924288","刘","693","","","","","","","","","","","","","","","","","","","","","","","","","","","","","","","","","","","","","","","",""
"1084","<p style=""color:white; font-size: 35px;"">天才</p>","i","categorize-html","41","114467","0.0-6.0-0.0-4.0-1.3","4","3","4","3","4","3","2","2","3","4","4","4","4","5","5","4","4","4","4","5","4","4","4","4","3","4","4","5","4","1","0","1","1","0","1","0","1","1","1","0","0","0","0","0","4","2","5","2","4","2","4","2","5","4","720215098982924288","刘","693","","","","","","","","","","","","","","","","","","","true","2","2","ability","1084","positive","天才","","","","","","","","","","","","","","",""
"null","","null","html-keyboard-response","42","114720","0.0-6.0-0.0-4.0-0.4","4","3","4","3","4","3","2","2","3","4","4","4","4","5","5","4","4","4","4","5","4","4","4","4","3","4","4","5","4","1","0","1","1","0","1","0","1","1","1","0","0","0","0","0","4","2","5","2","4","2","4","2","5","4","720215098982924288","刘","693","","","","","","","","","","","","","","","","","","","","","","","","","","","","","","","","","","","","","","","",""
"585","<p style=""color:white; font-size: 35px;"">废物</p>","e","categorize-html","43","115308","0.0-6.0-0.0-4.0-1.4","4","3","4","3","4","3","2","2","3","4","4","4","4","5","5","4","4","4","4","5","4","4","4","4","3","4","4","5","4","1","0","1","1","0","1","0","1","1","1","0","0","0","0","0","4","2","5","2","4","2","4","2","5","4","720215098982924288","刘","693","","","","","","","","","","","","","","","","","","","true","2","2","ability","585","negative","废物","","","","","","","","","","","","","","",""
"null","","null","html-keyboard-response","44","115560","0.0-6.0-0.0-4.0-0.5","4","3","4","3","4","3","2","2","3","4","4","4","4","5","5","4","4","4","4","5","4","4","4","4","3","4","4","5","4","1","0","1","1","0","1","0","1","1","1","0","0","0","0","0","4","2","5","2","4","2","4","2","5","4","720215098982924288","刘","693","","","","","","","","","","","","","","","","","","","","","","","","","","","","","","","","","","","","","","","",""
"629","<p style=""color:white; font-size: 35px;"">拙笨</p>","e","categorize-html","45","116193","0.0-6.0-0.0-4.0-1.5","4","3","4","3","4","3","2","2","3","4","4","4","4","5","5","4","4","4","4","5","4","4","4","4","3","4","4","5","4","1","0","1","1","0","1","0","1","1","1","0","0","0","0","0","4","2","5","2","4","2","4","2","5","4","720215098982924288","刘","693","","","","","","","","","","","","","","","","","","","true","2","2","ability","629","negative","拙笨","","","","","","","","","","","","","","",""
"null","","null","html-keyboard-response","46","116444","0.0-6.0-0.0-4.0-0.6","4","3","4","3","4","3","2","2","3","4","4","4","4","5","5","4","4","4","4","5","4","4","4","4","3","4","4","5","4","1","0","1","1","0","1","0","1","1","1","0","0","0","0","0","4","2","5","2","4","2","4","2","5","4","720215098982924288","刘","693","","","","","","","","","","","","","","","","","","","","","","","","","","","","","","","","","","","","","","","",""
"676","<p style=""color:white; font-size: 35px;"">愚钝</p>","e","categorize-html","47","117124","0.0-6.0-0.0-4.0-1.6","4","3","4","3","4","3","2","2","3","4","4","4","4","5","5","4","4","4","4","5","4","4","4","4","3","4","4","5","4","1","0","1","1","0","1","0","1","1","1","0","0","0","0","0","4","2","5","2","4","2","4","2","5","4","720215098982924288","刘","693","","","","","","","","","","","","","","","","","","","true","2","2","ability","676","negative","愚钝","","","","","","","","","","","","","","",""
"null","","null","html-keyboard-response","48","117376","0.0-6.0-0.0-4.0-0.7","4","3","4","3","4","3","2","2","3","4","4","4","4","5","5","4","4","4","4","5","4","4","4","4","3","4","4","5","4","1","0","1","1","0","1","0","1","1","1","0","0","0","0","0","4","2","5","2","4","2","4","2","5","4","720215098982924288","刘","693","","","","","","","","","","","","","","","","","","","","","","","","","","","","","","","","","","","","","","","",""
"733","<p style=""color:white; font-size: 35px;"">无能</p>","e","categorize-html","49","118112","0.0-6.0-0.0-4.0-1.7","4","3","4","3","4","3","2","2","3","4","4","4","4","5","5","4","4","4","4","5","4","4","4","4","3","4","4","5","4","1","0","1","1","0","1","0","1","1","1","0","0","0","0","0","4","2","5","2","4","2","4","2","5","4","720215098982924288","刘","693","","","","","","","","","","","","","","","","","","","true","2","2","ability","733","negative","无能","","","","","","","","","","","","","","",""
"null","","null","html-keyboard-response","50","118364","0.0-6.0-0.0-4.0-0.8","4","3","4","3","4","3","2","2","3","4","4","4","4","5","5","4","4","4","4","5","4","4","4","4","3","4","4","5","4","1","0","1","1","0","1","0","1","1","1","0","0","0","0","0","4","2","5","2","4","2","4","2","5","4","720215098982924288","刘","693","","","","","","","","","","","","","","","","","","","","","","","","","","","","","","","","","","","","","","","",""
"579","<p style=""color:white; font-size: 35px;"">精干</p>","i","categorize-html","51","118946","0.0-6.0-0.0-4.0-1.8","4","3","4","3","4","3","2","2","3","4","4","4","4","5","5","4","4","4","4","5","4","4","4","4","3","4","4","5","4","1","0","1","1","0","1","0","1","1","1","0","0","0","0","0","4","2","5","2","4","2","4","2","5","4","720215098982924288","刘","693","","","","","","","","","","","","","","","","","","","true","2","2","ability","579","positive","精干","","","","","","","","","","","","","","",""
"null","","null","html-keyboard-response","52","119197","0.0-6.0-0.0-4.0-0.9","4","3","4","3","4","3","2","2","3","4","4","4","4","5","5","4","4","4","4","5","4","4","4","4","3","4","4","5","4","1","0","1","1","0","1","0","1","1","1","0","0","0","0","0","4","2","5","2","4","2","4","2","5","4","720215098982924288","刘","693","","","","","","","","","","","","","","","","","","","","","","","","","","","","","","","","","","","","","","","",""
"504","<p style=""color:white; font-size: 35px;"">能干</p>","i","categorize-html","53","119705","0.0-6.0-0.0-4.0-1.9","4","3","4","3","4","3","2","2","3","4","4","4","4","5","5","4","4","4","4","5","4","4","4","4","3","4","4","5","4","1","0","1","1","0","1","0","1","1","1","0","0","0","0","0","4","2","5","2","4","2","4","2","5","4","720215098982924288","刘","693","","","","","","","","","","","","","","","","","","","true","2","2","ability","504","positive","能干","","","","","","","","","","","","","","",""
"null","","null","html-keyboard-response","54","119957","0.0-6.0-0.0-4.0-0.10","4","3","4","3","4","3","2","2","3","4","4","4","4","5","5","4","4","4","4","5","4","4","4","4","3","4","4","5","4","1","0","1","1","0","1","0","1","1","1","0","0","0","0","0","4","2","5","2","4","2","4","2","5","4","720215098982924288","刘","693","","","","","","","","","","","","","","","","","","","","","","","","","","","","","","","","","","","","","","","",""
"683","<p style=""color:white; font-size: 35px;"">全才</p>","i","categorize-html","55","120643","0.0-6.0-0.0-4.0-1.10","4","3","4","3","4","3","2","2","3","4","4","4","4","5","5","4","4","4","4","5","4","4","4","4","3","4","4","5","4","1","0","1","1","0","1","0","1","1","1","0","0","0","0","0","4","2","5","2","4","2","4","2","5","4","720215098982924288","刘","693","","","","","","","","","","","","","","","","","","","true","2","2","ability","683","positive","全才","","","","","","","","","","","","","","",""
"null","","null","html-keyboard-response","56","120895","0.0-6.0-0.0-4.0-0.11","4","3","4","3","4","3","2","2","3","4","4","4","4","5","5","4","4","4","4","5","4","4","4","4","3","4","4","5","4","1","0","1","1","0","1","0","1","1","1","0","0","0","0","0","4","2","5","2","4","2","4","2","5","4","720215098982924288","刘","693","","","","","","","","","","","","","","","","","","","","","","","","","","","","","","","","","","","","","","","",""
"739","<p style=""color:white; font-size: 35px;"">全能</p>","i","categorize-html","57","121637","0.0-6.0-0.0-4.0-1.11","4","3","4","3","4","3","2","2","3","4","4","4","4","5","5","4","4","4","4","5","4","4","4","4","3","4","4","5","4","1","0","1","1","0","1","0","1","1","1","0","0","0","0","0","4","2","5","2","4","2","4","2","5","4","720215098982924288","刘","693","","","","","","","","","","","","","","","","","","","true","2","2","ability","739","positive","全能","","","","","","","","","","","","","","",""
"7490","
    <div class=""tag-bottom""><p>
    —— 任务3：对“自我/消极”词和“他人/积极”词分类 ——<p/>
    <span style=""color:#78DCE8""><b>注意上方，之前的四类词语将混合在一起交替呈现</b></span><p/>
    <span style=""color:#FFD866""><b>请根据上方标签的提示，尽可能正确并且快速地做出按键反应</b></span><p/>
    当按键错误时屏幕中会出现<span style=""color:red""> X </span>，需要按另一个键纠正才能继续<br/><p/>
    请把双手食指分别放在键盘的“E”键和“I”键上<p/>
    按<空格键>开始
    </p></div>"," ","html-keyboard-response","58","129129","0.0-6.0-0.0-5.0","4","3","4","3","4","3","2","2","3","4","4","4","4","5","5","4","4","4","4","5","4","4","4","4","3","4","4","5","4","1","0","1","1","0","1","0","1","1","1","0","0","0","0","0","4","2","5","2","4","2","4","2","5","4","720215098982924288","刘","693","","","","","","","","","","","","","","","","","","","","","","","","","","","","","","","","","","","","","","","",""
"null","","null","html-keyboard-response","59","129380","0.0-6.0-0.0-6.0-0.0","4","3","4","3","4","3","2","2","3","4","4","4","4","5","5","4","4","4","4","5","4","4","4","4","3","4","4","5","4","1","0","1","1","0","1","0","1","1","1","0","0","0","0","0","4","2","5","2","4","2","4","2","5","4","720215098982924288","刘","693","","","","","","","","","","","","","","","","","","","","","","","","","","","","","","","","","","","","","","","",""
"689","<p style=""color:rgb(150, 250, 100); font-size: 35px;"">自己</p>","e","categorize-html","60","130073","0.0-6.0-0.0-6.0-1.0","4","3","4","3","4","3","2","2","3","4","4","4","4","5","5","4","4","4","4","5","4","4","4","4","3","4","4","5","4","1","0","1","1","0","1","0","1","1","1","0","0","0","0","0","4","2","5","2","4","2","4","2","5","4","720215098982924288","刘","693","","","","","","","","","","","","","","","","","","","true","3","3","ability","689","self","自己","","","","","","","","","","","","","","",""
"null","","null","html-keyboard-response","61","130325","0.0-6.0-0.0-6.0-0.1","4","3","4","3","4","3","2","2","3","4","4","4","4","5","5","4","4","4","4","5","4","4","4","4","3","4","4","5","4","1","0","1","1","0","1","0","1","1","1","0","0","0","0","0","4","2","5","2","4","2","4","2","5","4","720215098982924288","刘","693","","","","","","","","","","","","","","","","","","","","","","","","","","","","","","","","","","","","","","","",""
"747","<p style=""color:white; font-size: 35px;"">全能</p>","i","categorize-html","62","131076","0.0-6.0-0.0-6.0-1.1","4","3","4","3","4","3","2","2","3","4","4","4","4","5","5","4","4","4","4","5","4","4","4","4","3","4","4","5","4","1","0","1","1","0","1","0","1","1","1","0","0","0","0","0","4","2","5","2","4","2","4","2","5","4","720215098982924288","刘","693","","","","","","","","","","","","","","","","","","","true","3","3","ability","747","positive","全能","","","","","","","","","","","","","","",""
"null","","null","html-keyboard-response","63","131328","0.0-6.0-0.0-6.0-0.2","4","3","4","3","4","3","2","2","3","4","4","4","4","5","5","4","4","4","4","5","4","4","4","4","3","4","4","5","4","1","0","1","1","0","1","0","1","1","1","0","0","0","0","0","4","2","5","2","4","2","4","2","5","4","720215098982924288","刘","693","","","","","","","","","","","","","","","","","","","","","","","","","","","","","","","","","","","","","","","",""
"721","<p style=""color:rgb(150, 250, 100); font-size: 35px;"">他</p>","i","categorize-html","64","132052","0.0-6.0-0.0-6.0-1.2","4","3","4","3","4","3","2","2","3","4","4","4","4","5","5","4","4","4","4","5","4","4","4","4","3","4","4","5","4","1","0","1","1","0","1","0","1","1","1","0","0","0","0","0","4","2","5","2","4","2","4","2","5","4","720215098982924288","刘","693","","","","","","","","","","","","","","","","","","","true","3","3","ability","721","other","他","","","","","","","","","","","","","","",""
"null","","null","html-keyboard-response","65","132303","0.0-6.0-0.0-6.0-0.3","4","3","4","3","4","3","2","2","3","4","4","4","4","5","5","4","4","4","4","5","4","4","4","4","3","4","4","5","4","1","0","1","1","0","1","0","1","1","1","0","0","0","0","0","4","2","5","2","4","2","4","2","5","4","720215098982924288","刘","693","","","","","","","","","","","","","","","","","","","","","","","","","","","","","","","","","","","","","","","",""
"855","<p style=""color:white; font-size: 35px;"">低能</p>","e","categorize-html","66","133161","0.0-6.0-0.0-6.0-1.3","4","3","4","3","4","3","2","2","3","4","4","4","4","5","5","4","4","4","4","5","4","4","4","4","3","4","4","5","4","1","0","1","1","0","1","0","1","1","1","0","0","0","0","0","4","2","5","2","4","2","4","2","5","4","720215098982924288","刘","693","","","","","","","","","","","","","","","","","","","true","3","3","ability","855","negative","低能","","","","","","","","","","","","","","",""
"null","","null","html-keyboard-response","67","133413","0.0-6.0-0.0-6.0-0.4","4","3","4","3","4","3","2","2","3","4","4","4","4","5","5","4","4","4","4","5","4","4","4","4","3","4","4","5","4","1","0","1","1","0","1","0","1","1","1","0","0","0","0","0","4","2","5","2","4","2","4","2","5","4","720215098982924288","刘","693","","","","","","","","","","","","","","","","","","","","","","","","","","","","","","","","","","","","","","","",""
"1000","<p style=""color:rgb(150, 250, 100); font-size: 35px;"">他的</p>","i","categorize-html","68","134416","0.0-6.0-0.0-6.0-1.4","4","3","4","3","4","3","2","2","3","4","4","4","4","5","5","4","4","4","4","5","4","4","4","4","3","4","4","5","4","1","0","1","1","0","1","0","1","1","1","0","0","0","0","0","4","2","5","2","4","2","4","2","5","4","720215098982924288","刘","693","","","","","","","","","","","","","","","","","","","true","3","3","ability","1000","other","他的","","","","","","","","","","","","","","",""
"null","","null","html-keyboard-response","69","134668","0.0-6.0-0.0-6.0-0.5","4","3","4","3","4","3","2","2","3","4","4","4","4","5","5","4","4","4","4","5","4","4","4","4","3","4","4","5","4","1","0","1","1","0","1","0","1","1","1","0","0","0","0","0","4","2","5","2","4","2","4","2","5","4","720215098982924288","刘","693","","","","","","","","","","","","","","","","","","","","","","","","","","","","","","","","","","","","","","","",""
"674","<p style=""color:white; font-size: 35px;"">天才</p>","i","categorize-html","70","135345","0.0-6.0-0.0-6.0-1.5","4","3","4","3","4","3","2","2","3","4","4","4","4","5","5","4","4","4","4","5","4","4","4","4","3","4","4","5","4","1","0","1","1","0","1","0","1","1","1","0","0","0","0","0","4","2","5","2","4","2","4","2","5","4","720215098982924288","刘","693","","","","","","","","","","","","","","","","","","","true","3","3","ability","674","positive","天才","","","","","","","","","","","","","","",""
"null","","null","html-keyboard-response","71","135597","0.0-6.0-0.0-6.0-0.6","4","3","4","3","4","3","2","2","3","4","4","4","4","5","5","4","4","4","4","5","4","4","4","4","3","4","4","5","4","1","0","1","1","0","1","0","1","1","1","0","0","0","0","0","4","2","5","2","4","2","4","2","5","4","720215098982924288","刘","693","","","","","","","","","","","","","","","","","","","","","","","","","","","","","","","","","","","","","","","",""
"933","<p style=""color:rgb(150, 250, 100); font-size: 35px;"">本人</p>","e","categorize-html","72","136533","0.0-6.0-0.0-6.0-1.6","4","3","4","3","4","3","2","2","3","4","4","4","4","5","5","4","4","4","4","5","4","4","4","4","3","4","4","5","4","1","0","1","1","0","1","0","1","1","1","0","0","0","0","0","4","2","5","2","4","2","4","2","5","4","720215098982924288","刘","693","","","","","","","","","","","","","","","","","","","true","3","3","ability","933","self","本人","","","","","","","","","","","","","","",""
"null","","null","html-keyboard-response","73","136785","0.0-6.0-0.0-6.0-0.7","4","3","4","3","4","3","2","2","3","4","4","4","4","5","5","4","4","4","4","5","4","4","4","4","3","4","4","5","4","1","0","1","1","0","1","0","1","1","1","0","0","0","0","0","4","2","5","2","4","2","4","2","5","4","720215098982924288","刘","693","","","","","","","","","","","","","","","","","","","","","","","","","","","","","","","","","","","","","","","",""
"605","<p style=""color:white; font-size: 35px;"">蠢笨</p>","e","categorize-html","74","137393","0.0-6.0-0.0-6.0-1.7","4","3","4","3","4","3","2","2","3","4","4","4","4","5","5","4","4","4","4","5","4","4","4","4","3","4","4","5","4","1","0","1","1","0","1","0","1","1","1","0","0","0","0","0","4","2","5","2","4","2","4","2","5","4","720215098982924288","刘","693","","","","","","","","","","","","","","","","","","","true","3","3","ability","605","negative","蠢笨","","","","","","","","","","","","","","",""
"null","","null","html-keyboard-response","75","137645","0.0-6.0-0.0-6.0-0.8","4","3","4","3","4","3","2","2","3","4","4","4","4","5","5","4","4","4","4","5","4","4","4","4","3","4","4","5","4","1","0","1","1","0","1","0","1","1","1","0","0","0","0","0","4","2","5","2","4","2","4","2","5","4","720215098982924288","刘","693","","","","","","","","","","","","","","","","","","","","","","","","","","","","","","","","","","","","","","","",""
"789","<p style=""color:rgb(150, 250, 100); font-size: 35px;"">别人的</p>","i","categorize-html","76","138438","0.0-6.0-0.0-6.0-1.8","4","3","4","3","4","3","2","2","3","4","4","4","4","5","5","4","4","4","4","5","4","4","4","4","3","4","4","5","4","1","0","1","1","0","1","0","1","1","1","0","0","0","0","0","4","2","5","2","4","2","4","2","5","4","720215098982924288","刘","693","","","","","","","","","","","","","","","","","","","true","3","3","ability","789","other","别人的","","","","","","","","","","","","","","",""
"null","","null","html-keyboard-response","77","138690","0.0-6.0-0.0-6.0-0.9","4","3","4","3","4","3","2","2","3","4","4","4","4","5","5","4","4","4","4","5","4","4","4","4","3","4","4","5","4","1","0","1","1","0","1","0","1","1","1","0","0","0","0","0","4","2","5","2","4","2","4","2","5","4","720215098982924288","刘","693","","","","","","","","","","","","","","","","","","","","","","","","","","","","","","","","","","","","","","","",""
"754","<p style=""color:white; font-size: 35px;"">废物</p>","e","categorize-html","78","139448","0.0-6.0-0.0-6.0-1.9","4","3","4","3","4","3","2","2","3","4","4","4","4","5","5","4","4","4","4","5","4","4","4","4","3","4","4","5","4","1","0","1","1","0","1","0","1","1","1","0","0","0","0","0","4","2","5","2","4","2","4","2","5","4","720215098982924288","刘","693","","","","","","","","","","","","","","","","","","","true","3","3","ability","754","negative","废物","","","","","","","","","","","","","","",""
"null","","null","html-keyboard-response","79","139699","0.0-6.0-0.0-6.0-0.10","4","3","4","3","4","3","2","2","3","4","4","4","4","5","5","4","4","4","4","5","4","4","4","4","3","4","4","5","4","1","0","1","1","0","1","0","1","1","1","0","0","0","0","0","4","2","5","2","4","2","4","2","5","4","720215098982924288","刘","693","","","","","","","","","","","","","","","","","","","","","","","","","","","","","","","","","","","","","","","",""
"965","<p style=""color:rgb(150, 250, 100); font-size: 35px;"">自己的</p>","e","categorize-html","80","140669","0.0-6.0-0.0-6.0-1.10","4","3","4","3","4","3","2","2","3","4","4","4","4","5","5","4","4","4","4","5","4","4","4","4","3","4","4","5","4","1","0","1","1","0","1","0","1","1","1","0","0","0","0","0","4","2","5","2","4","2","4","2","5","4","720215098982924288","刘","693","","","","","","","","","","","","","","","","","","","true","3","3","ability","965","self","自己的","","","","","","","","","","","","","","",""
"null","","null","html-keyboard-response","81","140921","0.0-6.0-0.0-6.0-0.11","4","3","4","3","4","3","2","2","3","4","4","4","4","5","5","4","4","4","4","5","4","4","4","4","3","4","4","5","4","1","0","1","1","0","1","0","1","1","1","0","0","0","0","0","4","2","5","2","4","2","4","2","5","4","720215098982924288","刘","693","","","","","","","","","","","","","","","","","","","","","","","","","","","","","","","","","","","","","","","",""
"620","<p style=""color:white; font-size: 35px;"">全才</p>","i","categorize-html","82","141545","0.0-6.0-0.0-6.0-1.11","4","3","4","3","4","3","2","2","3","4","4","4","4","5","5","4","4","4","4","5","4","4","4","4","3","4","4","5","4","1","0","1","1","0","1","0","1","1","1","0","0","0","0","0","4","2","5","2","4","2","4","2","5","4","720215098982924288","刘","693","","","","","","","","","","","","","","","","","","","true","3","3","ability","620","positive","全才","","","","","","","","","","","","","","",""
"null","","null","html-keyboard-response","83","141796","0.0-6.0-0.0-6.0-0.12","4","3","4","3","4","3","2","2","3","4","4","4","4","5","5","4","4","4","4","5","4","4","4","4","3","4","4","5","4","1","0","1","1","0","1","0","1","1","1","0","0","0","0","0","4","2","5","2","4","2","4","2","5","4","720215098982924288","刘","693","","","","","","","","","","","","","","","","","","","","","","","","","","","","","","","","","","","","","","","",""
"505","<p style=""color:rgb(150, 250, 100); font-size: 35px;"">我的</p>","e","categorize-html","84","142304","0.0-6.0-0.0-6.0-1.12","4","3","4","3","4","3","2","2","3","4","4","4","4","5","5","4","4","4","4","5","4","4","4","4","3","4","4","5","4","1","0","1","1","0","1","0","1","1","1","0","0","0","0","0","4","2","5","2","4","2","4","2","5","4","720215098982924288","刘","693","","","","","","","","","","","","","","","","","","","true","3","3","ability","505","self","我的","","","","","","","","","","","","","","",""
"null","","null","html-keyboard-response","85","142556","0.0-6.0-0.0-6.0-0.13","4","3","4","3","4","3","2","2","3","4","4","4","4","5","5","4","4","4","4","5","4","4","4","4","3","4","4","5","4","1","0","1","1","0","1","0","1","1","1","0","0","0","0","0","4","2","5","2","4","2","4","2","5","4","720215098982924288","刘","693","","","","","","","","","","","","","","","","","","","","","","","","","","","","","","","","","","","","","","","",""
"1039","<p style=""color:white; font-size: 35px;"">精干</p>","i","categorize-html","86","143597","0.0-6.0-0.0-6.0-1.13","4","3","4","3","4","3","2","2","3","4","4","4","4","5","5","4","4","4","4","5","4","4","4","4","3","4","4","5","4","1","0","1","1","0","1","0","1","1","1","0","0","0","0","0","4","2","5","2","4","2","4","2","5","4","720215098982924288","刘","693","","","","","","","","","","","","","","","","","","","true","3","3","ability","1039","positive","精干","","","","","","","","","","","","","","",""
"null","","null","html-keyboard-response","87","143849","0.0-6.0-0.0-6.0-0.14","4","3","4","3","4","3","2","2","3","4","4","4","4","5","5","4","4","4","4","5","4","4","4","4","3","4","4","5","4","1","0","1","1","0","1","0","1","1","1","0","0","0","0","0","4","2","5","2","4","2","4","2","5","4","720215098982924288","刘","693","","","","","","","","","","","","","","","","","","","","","","","","","","","","","","","","","","","","","","","",""
"525","<p style=""color:rgb(150, 250, 100); font-size: 35px;"">他人的</p>","e","categorize-html","88","144767","0.0-6.0-0.0-6.0-1.14","4","3","4","3","4","3","2","2","3","4","4","4","4","5","5","4","4","4","4","5","4","4","4","4","3","4","4","5","4","1","0","1","1","0","1","0","1","1","1","0","0","0","0","0","4","2","5","2","4","2","4","2","5","4","720215098982924288","刘","693","","","","","","","","","","","","","","","","","","","false","3","3","ability","1385.1363636363635","other","他人的","","","","","","","","","","","","","","",""
"null","","null","html-keyboard-response","89","145019","0.0-6.0-0.0-6.0-0.15","4","3","4","3","4","3","2","2","3","4","4","4","4","5","5","4","4","4","4","5","4","4","4","4","3","4","4","5","4","1","0","1","1","0","1","0","1","1","1","0","0","0","0","0","4","2","5","2","4","2","4","2","5","4","720215098982924288","刘","693","","","","","","","","","","","","","","","","","","","","","","","","","","","","","","","","","","","","","","","",""
"597","<p style=""color:white; font-size: 35px;"">拙笨</p>","e","categorize-html","90","145619","0.0-6.0-0.0-6.0-1.15","4","3","4","3","4","3","2","2","3","4","4","4","4","5","5","4","4","4","4","5","4","4","4","4","3","4","4","5","4","1","0","1","1","0","1","0","1","1","1","0","0","0","0","0","4","2","5","2","4","2","4","2","5","4","720215098982924288","刘","693","","","","","","","","","","","","","","","","","","","true","3","3","ability","597","negative","拙笨","","","","","","","","","","","","","","",""
"null","","null","html-keyboard-response","91","145871","0.0-6.0-0.0-6.0-0.16","4","3","4","3","4","3","2","2","3","4","4","4","4","5","5","4","4","4","4","5","4","4","4","4","3","4","4","5","4","1","0","1","1","0","1","0","1","1","1","0","0","0","0","0","4","2","5","2","4","2","4","2","5","4","720215098982924288","刘","693","","","","","","","","","","","","","","","","","","","","","","","","","","","","","","","","","","","","","","","",""
"689","<p style=""color:rgb(150, 250, 100); font-size: 35px;"">本人的</p>","i","categorize-html","92","146914","0.0-6.0-0.0-6.0-1.16","4","3","4","3","4","3","2","2","3","4","4","4","4","5","5","4","4","4","4","5","4","4","4","4","3","4","4","5","4","1","0","1","1","0","1","0","1","1","1","0","0","0","0","0","4","2","5","2","4","2","4","2","5","4","720215098982924288","刘","693","","","","","","","","","","","","","","","","","","","false","3","3","ability","1385.1363636363635","self","本人的","","","","","","","","","","","","","","",""
"null","","null","html-keyboard-response","93","147165","0.0-6.0-0.0-6.0-0.17","4","3","4","3","4","3","2","2","3","4","4","4","4","5","5","4","4","4","4","5","4","4","4","4","3","4","4","5","4","1","0","1","1","0","1","0","1","1","1","0","0","0","0","0","4","2","5","2","4","2","4","2","5","4","720215098982924288","刘","693","","","","","","","","","","","","","","","","","","","","","","","","","","","","","","","","","","","","","","","",""
"855","<p style=""color:white; font-size: 35px;"">高效</p>","i","categorize-html","94","148023","0.0-6.0-0.0-6.0-1.17","4","3","4","3","4","3","2","2","3","4","4","4","4","5","5","4","4","4","4","5","4","4","4","4","3","4","4","5","4","1","0","1","1","0","1","0","1","1","1","0","0","0","0","0","4","2","5","2","4","2","4","2","5","4","720215098982924288","刘","693","","","","","","","","","","","","","","","","","","","true","3","3","ability","855","positive","高效","","","","","","","","","","","","","","",""
"null","","null","html-keyboard-response","95","148275","0.0-6.0-0.0-6.0-0.18","4","3","4","3","4","3","2","2","3","4","4","4","4","5","5","4","4","4","4","5","4","4","4","4","3","4","4","5","4","1","0","1","1","0","1","0","1","1","1","0","0","0","0","0","4","2","5","2","4","2","4","2","5","4","720215098982924288","刘","693","","","","","","","","","","","","","","","","","","","","","","","","","","","","","","","","","","","","","","","",""
"926","<p style=""color:rgb(150, 250, 100); font-size: 35px;"">他人</p>","i","categorize-html","96","149204","0.0-6.0-0.0-6.0-1.18","4","3","4","3","4","3","2","2","3","4","4","4","4","5","5","4","4","4","4","5","4","4","4","4","3","4","4","5","4","1","0","1","1","0","1","0","1","1","1","0","0","0","0","0","4","2","5","2","4","2","4","2","5","4","720215098982924288","刘","693","","","","","","","","","","","","","","","","","","","true","3","3","ability","926","other","他人","","","","","","","","","","","","","","",""
"null","","null","html-keyboard-response","97","149455","0.0-6.0-0.0-6.0-0.19","4","3","4","3","4","3","2","2","3","4","4","4","4","5","5","4","4","4","4","5","4","4","4","4","3","4","4","5","4","1","0","1","1","0","1","0","1","1","1","0","0","0","0","0","4","2","5","2","4","2","4","2","5","4","720215098982924288","刘","693","","","","","","","","","","","","","","","","","","","","","","","","","","","","","","","","","","","","","","","",""
"749","<p style=""color:white; font-size: 35px;"">无能</p>","e","categorize-html","98","150208","0.0-6.0-0.0-6.0-1.19","4","3","4","3","4","3","2","2","3","4","4","4","4","5","5","4","4","4","4","5","4","4","4","4","3","4","4","5","4","1","0","1","1","0","1","0","1","1","1","0","0","0","0","0","4","2","5","2","4","2","4","2","5","4","720215098982924288","刘","693","","","","","","","","","","","","","","","","","","","true","3","3","ability","749","negative","无能","","","","","","","","","","","","","","",""
"null","","null","html-keyboard-response","99","150461","0.0-6.0-0.0-6.0-0.20","4","3","4","3","4","3","2","2","3","4","4","4","4","5","5","4","4","4","4","5","4","4","4","4","3","4","4","5","4","1","0","1","1","0","1","0","1","1","1","0","0","0","0","0","4","2","5","2","4","2","4","2","5","4","720215098982924288","刘","693","","","","","","","","","","","","","","","","","","","","","","","","","","","","","","","","","","","","","","","",""
"684","<p style=""color:rgb(150, 250, 100); font-size: 35px;"">我</p>","e","categorize-html","100","151148","0.0-6.0-0.0-6.0-1.20","4","3","4","3","4","3","2","2","3","4","4","4","4","5","5","4","4","4","4","5","4","4","4","4","3","4","4","5","4","1","0","1","1","0","1","0","1","1","1","0","0","0","0","0","4","2","5","2","4","2","4","2","5","4","720215098982924288","刘","693","","","","","","","","","","","","","","","","","","","true","3","3","ability","684","self","我","","","","","","","","","","","","","","",""
"null","","null","html-keyboard-response","101","151400","0.0-6.0-0.0-6.0-0.21","4","3","4","3","4","3","2","2","3","4","4","4","4","5","5","4","4","4","4","5","4","4","4","4","3","4","4","5","4","1","0","1","1","0","1","0","1","1","1","0","0","0","0","0","4","2","5","2","4","2","4","2","5","4","720215098982924288","刘","693","","","","","","","","","","","","","","","","","","","","","","","","","","","","","","","","","","","","","","","",""
"965","<p style=""color:white; font-size: 35px;"">愚钝</p>","e","categorize-html","102","152368","0.0-6.0-0.0-6.0-1.21","4","3","4","3","4","3","2","2","3","4","4","4","4","5","5","4","4","4","4","5","4","4","4","4","3","4","4","5","4","1","0","1","1","0","1","0","1","1","1","0","0","0","0","0","4","2","5","2","4","2","4","2","5","4","720215098982924288","刘","693","","","","","","","","","","","","","","","","","","","true","3","3","ability","965","negative","愚钝","","","","","","","","","","","","","","",""
"null","","null","html-keyboard-response","103","152620","0.0-6.0-0.0-6.0-0.22","4","3","4","3","4","3","2","2","3","4","4","4","4","5","5","4","4","4","4","5","4","4","4","4","3","4","4","5","4","1","0","1","1","0","1","0","1","1","1","0","0","0","0","0","4","2","5","2","4","2","4","2","5","4","720215098982924288","刘","693","","","","","","","","","","","","","","","","","","","","","","","","","","","","","","","","","","","","","","","",""
"545","<p style=""color:rgb(150, 250, 100); font-size: 35px;"">别人</p>","i","categorize-html","104","153166","0.0-6.0-0.0-6.0-1.22","4","3","4","3","4","3","2","2","3","4","4","4","4","5","5","4","4","4","4","5","4","4","4","4","3","4","4","5","4","1","0","1","1","0","1","0","1","1","1","0","0","0","0","0","4","2","5","2","4","2","4","2","5","4","720215098982924288","刘","693","","","","","","","","","","","","","","","","","","","true","3","3","ability","545","other","别人","","","","","","","","","","","","","","",""
"null","","null","html-keyboard-response","105","153417","0.0-6.0-0.0-6.0-0.23","4","3","4","3","4","3","2","2","3","4","4","4","4","5","5","4","4","4","4","5","4","4","4","4","3","4","4","5","4","1","0","1","1","0","1","0","1","1","1","0","0","0","0","0","4","2","5","2","4","2","4","2","5","4","720215098982924288","刘","693","","","","","","","","","","","","","","","","","","","","","","","","","","","","","","","","","","","","","","","",""
"1056","<p style=""color:white; font-size: 35px;"">能干</p>","i","categorize-html","106","154476","0.0-6.0-0.0-6.0-1.23","4","3","4","3","4","3","2","2","3","4","4","4","4","5","5","4","4","4","4","5","4","4","4","4","3","4","4","5","4","1","0","1","1","0","1","0","1","1","1","0","0","0","0","0","4","2","5","2","4","2","4","2","5","4","720215098982924288","刘","693","","","","","","","","","","","","","","","","","","","true","3","3","ability","1056","positive","能干","","","","","","","","","","","","","","",""
"2713","
    <div class=""tag-bottom""><p>
    —— 任务4：对“自我/消极”词和“他人/积极”词分类 ——<p/>
    <span style=""color:#78DCE8""><b>与刚才的任务完全相同，请再次对这四类词语分类</b></span><p/>
    <span style=""color:#FFD866""><b>请根据上方标签的提示，尽可能正确并且快速地做出按键反应</b></span><p/>
    当按键错误时屏幕中会出现<span style=""color:red""> X </span>，需要按另一个键纠正才能继续<br/><p/>
    请把双手食指分别放在键盘的“E”键和“I”键上<p/>
    按<空格键>开始
    </p></div>"," ","html-keyboard-response","107","157190","0.0-6.0-0.0-7.0","4","3","4","3","4","3","2","2","3","4","4","4","4","5","5","4","4","4","4","5","4","4","4","4","3","4","4","5","4","1","0","1","1","0","1","0","1","1","1","0","0","0","0","0","4","2","5","2","4","2","4","2","5","4","720215098982924288","刘","693","","","","","","","","","","","","","","","","","","","","","","","","","","","","","","","","","","","","","","","",""
"null","","null","html-keyboard-response","108","157441","0.0-6.0-0.0-8.0-0.0","4","3","4","3","4","3","2","2","3","4","4","4","4","5","5","4","4","4","4","5","4","4","4","4","3","4","4","5","4","1","0","1","1","0","1","0","1","1","1","0","0","0","0","0","4","2","5","2","4","2","4","2","5","4","720215098982924288","刘","693","","","","","","","","","","","","","","","","","","","","","","","","","","","","","","","","","","","","","","","",""
"713","<p style=""color:rgb(150, 250, 100); font-size: 35px;"">自己</p>","e","categorize-html","109","158157","0.0-6.0-0.0-8.0-1.0","4","3","4","3","4","3","2","2","3","4","4","4","4","5","5","4","4","4","4","5","4","4","4","4","3","4","4","5","4","1","0","1","1","0","1","0","1","1","1","0","0","0","0","0","4","2","5","2","4","2","4","2","5","4","720215098982924288","刘","693","","","","","","","","","","","","","","","","","","","true","4","4","ability","713","self","自己","","","","","","","","","","","","","","",""
"null","","null","html-keyboard-response","110","158410","0.0-6.0-0.0-8.0-0.1","4","3","4","3","4","3","2","2","3","4","4","4","4","5","5","4","4","4","4","5","4","4","4","4","3","4","4","5","4","1","0","1","1","0","1","0","1","1","1","0","0","0","0","0","4","2","5","2","4","2","4","2","5","4","720215098982924288","刘","693","","","","","","","","","","","","","","","","","","","","","","","","","","","","","","","","","","","","","","","",""
"1039","<p style=""color:white; font-size: 35px;"">愚钝</p>","e","categorize-html","111","159453","0.0-6.0-0.0-8.0-1.1","4","3","4","3","4","3","2","2","3","4","4","4","4","5","5","4","4","4","4","5","4","4","4","4","3","4","4","5","4","1","0","1","1","0","1","0","1","1","1","0","0","0","0","0","4","2","5","2","4","2","4","2","5","4","720215098982924288","刘","693","","","","","","","","","","","","","","","","","","","true","4","4","ability","1039","negative","愚钝","","","","","","","","","","","","","","",""
"null","","null","html-keyboard-response","112","159704","0.0-6.0-0.0-8.0-0.2","4","3","4","3","4","3","2","2","3","4","4","4","4","5","5","4","4","4","4","5","4","4","4","4","3","4","4","5","4","1","0","1","1","0","1","0","1","1","1","0","0","0","0","0","4","2","5","2","4","2","4","2","5","4","720215098982924288","刘","693","","","","","","","","","","","","","","","","","","","","","","","","","","","","","","","","","","","","","","","",""
"794","<p style=""color:rgb(150, 250, 100); font-size: 35px;"">他</p>","i","categorize-html","113","160502","0.0-6.0-0.0-8.0-1.2","4","3","4","3","4","3","2","2","3","4","4","4","4","5","5","4","4","4","4","5","4","4","4","4","3","4","4","5","4","1","0","1","1","0","1","0","1","1","1","0","0","0","0","0","4","2","5","2","4","2","4","2","5","4","720215098982924288","刘","693","","","","","","","","","","","","","","","","","","","true","4","4","ability","794","other","他","","","","","","","","","","","","","","",""
"null","","null","html-keyboard-response","114","160754","0.0-6.0-0.0-8.0-0.3","4","3","4","3","4","3","2","2","3","4","4","4","4","5","5","4","4","4","4","5","4","4","4","4","3","4","4","5","4","1","0","1","1","0","1","0","1","1","1","0","0","0","0","0","4","2","5","2","4","2","4","2","5","4","720215098982924288","刘","693","","","","","","","","","","","","","","","","","","","","","","","","","","","","","","","","","","","","","","","",""
"706","<p style=""color:white; font-size: 35px;"">全能</p>","i","categorize-html","115","161465","0.0-6.0-0.0-8.0-1.3","4","3","4","3","4","3","2","2","3","4","4","4","4","5","5","4","4","4","4","5","4","4","4","4","3","4","4","5","4","1","0","1","1","0","1","0","1","1","1","0","0","0","0","0","4","2","5","2","4","2","4","2","5","4","720215098982924288","刘","693","","","","","","","","","","","","","","","","","","","true","4","4","ability","706","positive","全能","","","","","","","","","","","","","","",""
"null","","null","html-keyboard-response","116","161717","0.0-6.0-0.0-8.0-0.4","4","3","4","3","4","3","2","2","3","4","4","4","4","5","5","4","4","4","4","5","4","4","4","4","3","4","4","5","4","1","0","1","1","0","1","0","1","1","1","0","0","0","0","0","4","2","5","2","4","2","4","2","5","4","720215098982924288","刘","693","","","","","","","","","","","","","","","","","","","","","","","","","","","","","","","","","","","","","","","",""
"934","<p style=""color:rgb(150, 250, 100); font-size: 35px;"">别人</p>","i","categorize-html","117","162654","0.0-6.0-0.0-8.0-1.4","4","3","4","3","4","3","2","2","3","4","4","4","4","5","5","4","4","4","4","5","4","4","4","4","3","4","4","5","4","1","0","1","1","0","1","0","1","1","1","0","0","0","0","0","4","2","5","2","4","2","4","2","5","4","720215098982924288","刘","693","","","","","","","","","","","","","","","","","","","true","4","4","ability","934","other","别人","","","","","","","","","","","","","","",""
"null","","null","html-keyboard-response","118","162906","0.0-6.0-0.0-8.0-0.5","4","3","4","3","4","3","2","2","3","4","4","4","4","5","5","4","4","4","4","5","4","4","4","4","3","4","4","5","4","1","0","1","1","0","1","0","1","1","1","0","0","0","0","0","4","2","5","2","4","2","4","2","5","4","720215098982924288","刘","693","","","","","","","","","","","","","","","","","","","","","","","","","","","","","","","","","","","","","","","",""
"920","<p style=""color:white; font-size: 35px;"">废物</p>","e","categorize-html","119","163829","0.0-6.0-0.0-8.0-1.5","4","3","4","3","4","3","2","2","3","4","4","4","4","5","5","4","4","4","4","5","4","4","4","4","3","4","4","5","4","1","0","1","1","0","1","0","1","1","1","0","0","0","0","0","4","2","5","2","4","2","4","2","5","4","720215098982924288","刘","693","","","","","","","","","","","","","","","","","","","true","4","4","ability","920","negative","废物","","","","","","","","","","","","","","",""
"null","","null","html-keyboard-response","120","164081","0.0-6.0-0.0-8.0-0.6","4","3","4","3","4","3","2","2","3","4","4","4","4","5","5","4","4","4","4","5","4","4","4","4","3","4","4","5","4","1","0","1","1","0","1","0","1","1","1","0","0","0","0","0","4","2","5","2","4","2","4","2","5","4","720215098982924288","刘","693","","","","","","","","","","","","","","","","","","","","","","","","","","","","","","","","","","","","","","","",""
"605","<p style=""color:rgb(150, 250, 100); font-size: 35px;"">自己的</p>","e","categorize-html","121","164690","0.0-6.0-0.0-8.0-1.6","4","3","4","3","4","3","2","2","3","4","4","4","4","5","5","4","4","4","4","5","4","4","4","4","3","4","4","5","4","1","0","1","1","0","1","0","1","1","1","0","0","0","0","0","4","2","5","2","4","2","4","2","5","4","720215098982924288","刘","693","","","","","","","","","","","","","","","","","","","true","4","4","ability","605","self","自己的","","","","","","","","","","","","","","",""
"null","","null","html-keyboard-response","122","164942","0.0-6.0-0.0-8.0-0.7","4","3","4","3","4","3","2","2","3","4","4","4","4","5","5","4","4","4","4","5","4","4","4","4","3","4","4","5","4","1","0","1","1","0","1","0","1","1","1","0","0","0","0","0","4","2","5","2","4","2","4","2","5","4","720215098982924288","刘","693","","","","","","","","","","","","","","","","","","","","","","","","","","","","","","","","","","","","","","","",""
"907","<p style=""color:white; font-size: 35px;"">精干</p>","i","categorize-html","123","165853","0.0-6.0-0.0-8.0-1.7","4","3","4","3","4","3","2","2","3","4","4","4","4","5","5","4","4","4","4","5","4","4","4","4","3","4","4","5","4","1","0","1","1","0","1","0","1","1","1","0","0","0","0","0","4","2","5","2","4","2","4","2","5","4","720215098982924288","刘","693","","","","","","","","","","","","","","","","","","","true","4","4","ability","907","positive","精干","","","","","","","","","","","","","","",""
"null","","null","html-keyboard-response","124","166105","0.0-6.0-0.0-8.0-0.8","4","3","4","3","4","3","2","2","3","4","4","4","4","5","5","4","4","4","4","5","4","4","4","4","3","4","4","5","4","1","0","1","1","0","1","0","1","1","1","0","0","0","0","0","4","2","5","2","4","2","4","2","5","4","720215098982924288","刘","693","","","","","","","","","","","","","","","","","","","","","","","","","","","","","","","","","","","","","","","",""
"1356","<p style=""color:rgb(150, 250, 100); font-size: 35px;"">我的</p>","e","categorize-html","125","167465","0.0-6.0-0.0-8.0-1.8","4","3","4","3","4","3","2","2","3","4","4","4","4","5","5","4","4","4","4","5","4","4","4","4","3","4","4","5","4","1","0","1","1","0","1","0","1","1","1","0","0","0","0","0","4","2","5","2","4","2","4","2","5","4","720215098982924288","刘","693","","","","","","","","","","","","","","","","","","","true","4","4","ability","1356","self","我的","","","","","","","","","","","","","","",""
"null","","null","html-keyboard-response","126","167717","0.0-6.0-0.0-8.0-0.9","4","3","4","3","4","3","2","2","3","4","4","4","4","5","5","4","4","4","4","5","4","4","4","4","3","4","4","5","4","1","0","1","1","0","1","0","1","1","1","0","0","0","0","0","4","2","5","2","4","2","4","2","5","4","720215098982924288","刘","693","","","","","","","","","","","","","","","","","","","","","","","","","","","","","","","","","","","","","","","",""
"604","<p style=""color:white; font-size: 35px;"">高效</p>","i","categorize-html","127","168322","0.0-6.0-0.0-8.0-1.9","4","3","4","3","4","3","2","2","3","4","4","4","4","5","5","4","4","4","4","5","4","4","4","4","3","4","4","5","4","1","0","1","1","0","1","0","1","1","1","0","0","0","0","0","4","2","5","2","4","2","4","2","5","4","720215098982924288","刘","693","","","","","","","","","","","","","","","","","","","true","4","4","ability","604","positive","高效","","","","","","","","","","","","","","",""
"null","","null","html-keyboard-response","128","168573","0.0-6.0-0.0-8.0-0.10","4","3","4","3","4","3","2","2","3","4","4","4","4","5","5","4","4","4","4","5","4","4","4","4","3","4","4","5","4","1","0","1","1","0","1","0","1","1","1","0","0","0","0","0","4","2","5","2","4","2","4","2","5","4","720215098982924288","刘","693","","","","","","","","","","","","","","","","","","","","","","","","","","","","","","","","","","","","","","","",""
"892","<p style=""color:rgb(150, 250, 100); font-size: 35px;"">他人</p>","i","categorize-html","129","169469","0.0-6.0-0.0-8.0-1.10","4","3","4","3","4","3","2","2","3","4","4","4","4","5","5","4","4","4","4","5","4","4","4","4","3","4","4","5","4","1","0","1","1","0","1","0","1","1","1","0","0","0","0","0","4","2","5","2","4","2","4","2","5","4","720215098982924288","刘","693","","","","","","","","","","","","","","","","","","","true","4","4","ability","892","other","他人","","","","","","","","","","","","","","",""
"null","","null","html-keyboard-response","130","169720","0.0-6.0-0.0-8.0-0.11","4","3","4","3","4","3","2","2","3","4","4","4","4","5","5","4","4","4","4","5","4","4","4","4","3","4","4","5","4","1","0","1","1","0","1","0","1","1","1","0","0","0","0","0","4","2","5","2","4","2","4","2","5","4","720215098982924288","刘","693","","","","","","","","","","","","","","","","","","","","","","","","","","","","","","","","","","","","","","","",""
"800","<p style=""color:white; font-size: 35px;"">低能</p>","e","categorize-html","131","170524","0.0-6.0-0.0-8.0-1.11","4","3","4","3","4","3","2","2","3","4","4","4","4","5","5","4","4","4","4","5","4","4","4","4","3","4","4","5","4","1","0","1","1","0","1","0","1","1","1","0","0","0","0","0","4","2","5","2","4","2","4","2","5","4","720215098982924288","刘","693","","","","","","","","","","","","","","","","","","","true","4","4","ability","800","negative","低能","","","","","","","","","","","","","","",""
"null","","null","html-keyboard-response","132","170776","0.0-6.0-0.0-8.0-0.12","4","3","4","3","4","3","2","2","3","4","4","4","4","5","5","4","4","4","4","5","4","4","4","4","3","4","4","5","4","1","0","1","1","0","1","0","1","1","1","0","0","0","0","0","4","2","5","2","4","2","4","2","5","4","720215098982924288","刘","693","","","","","","","","","","","","","","","","","","","","","","","","","","","","","","","","","","","","","","","",""
"1877","<p style=""color:rgb(150, 250, 100); font-size: 35px;"">本人</p>","i","categorize-html","133","173337","0.0-6.0-0.0-8.0-1.12","4","3","4","3","4","3","2","2","3","4","4","4","4","5","5","4","4","4","4","5","4","4","4","4","3","4","4","5","4","1","0","1","1","0","1","0","1","1","1","0","0","0","0","0","4","2","5","2","4","2","4","2","5","4","720215098982924288","刘","693","","","","","","","","","","","","","","","","","","","false","4","4","ability","1554.4772727272727","self","本人","","","","","","","","","","","","","","",""
"null","","null","html-keyboard-response","134","173597","0.0-6.0-0.0-8.0-0.13","4","3","4","3","4","3","2","2","3","4","4","4","4","5","5","4","4","4","4","5","4","4","4","4","3","4","4","5","4","1","0","1","1","0","1","0","1","1","1","0","0","0","0","0","4","2","5","2","4","2","4","2","5","4","720215098982924288","刘","693","","","","","","","","","","","","","","","","","","","","","","","","","","","","","","","","","","","","","","","",""
"2792","<p style=""color:white; font-size: 35px;"">能干</p>","i","categorize-html","135","176393","0.0-6.0-0.0-8.0-1.13","4","3","4","3","4","3","2","2","3","4","4","4","4","5","5","4","4","4","4","5","4","4","4","4","3","4","4","5","4","1","0","1","1","0","1","0","1","1","1","0","0","0","0","0","4","2","5","2","4","2","4","2","5","4","720215098982924288","刘","693","","","","","","","","","","","","","","","","","","","true","4","4","ability","2792","positive","能干","","","","","","","","","","","","","","",""
"null","","null","html-keyboard-response","136","176644","0.0-6.0-0.0-8.0-0.14","4","3","4","3","4","3","2","2","3","4","4","4","4","5","5","4","4","4","4","5","4","4","4","4","3","4","4","5","4","1","0","1","1","0","1","0","1","1","1","0","0","0","0","0","4","2","5","2","4","2","4","2","5","4","720215098982924288","刘","693","","","","","","","","","","","","","","","","","","","","","","","","","","","","","","","","","","","","","","","",""
"2585","<p style=""color:rgb(150, 250, 100); font-size: 35px;"">他的</p>","i","categorize-html","137","179233","0.0-6.0-0.0-8.0-1.14","4","3","4","3","4","3","2","2","3","4","4","4","4","5","5","4","4","4","4","5","4","4","4","4","3","4","4","5","4","1","0","1","1","0","1","0","1","1","1","0","0","0","0","0","4","2","5","2","4","2","4","2","5","4","720215098982924288","刘","693","","","","","","","","","","","","","","","","","","","true","4","4","ability","2585","other","他的","","","","","","","","","","","","","","",""
"null","","null","html-keyboard-response","138","179485","0.0-6.0-0.0-8.0-0.15","4","3","4","3","4","3","2","2","3","4","4","4","4","5","5","4","4","4","4","5","4","4","4","4","3","4","4","5","4","1","0","1","1","0","1","0","1","1","1","0","0","0","0","0","4","2","5","2","4","2","4","2","5","4","720215098982924288","刘","693","","","","","","","","","","","","","","","","","","","","","","","","","","","","","","","","","","","","","","","",""
"961","<p style=""color:white; font-size: 35px;"">低能</p>","e","categorize-html","139","180449","0.0-6.0-0.0-8.0-1.15","4","3","4","3","4","3","2","2","3","4","4","4","4","5","5","4","4","4","4","5","4","4","4","4","3","4","4","5","4","1","0","1","1","0","1","0","1","1","1","0","0","0","0","0","4","2","5","2","4","2","4","2","5","4","720215098982924288","刘","693","","","","","","","","","","","","","","","","","","","true","4","4","ability","961","negative","低能","","","","","","","","","","","","","","",""
"null","","null","html-keyboard-response","140","180714","0.0-6.0-0.0-8.0-0.16","4","3","4","3","4","3","2","2","3","4","4","4","4","5","5","4","4","4","4","5","4","4","4","4","3","4","4","5","4","1","0","1","1","0","1","0","1","1","1","0","0","0","0","0","4","2","5","2","4","2","4","2","5","4","720215098982924288","刘","693","","","","","","","","","","","","","","","","","","","","","","","","","","","","","","","","","","","","","","","",""
"1670","<p style=""color:rgb(150, 250, 100); font-size: 35px;"">我的</p>","e","categorize-html","141","182387","0.0-6.0-0.0-8.0-1.16","4","3","4","3","4","3","2","2","3","4","4","4","4","5","5","4","4","4","4","5","4","4","4","4","3","4","4","5","4","1","0","1","1","0","1","0","1","1","1","0","0","0","0","0","4","2","5","2","4","2","4","2","5","4","720215098982924288","刘","693","","","","","","","","","","","","","","","","","","","true","4","4","ability","1670","self","我的","","","","","","","","","","","","","","",""
"null","","null","html-keyboard-response","142","182639","0.0-6.0-0.0-8.0-0.17","4","3","4","3","4","3","2","2","3","4","4","4","4","5","5","4","4","4","4","5","4","4","4","4","3","4","4","5","4","1","0","1","1","0","1","0","1","1","1","0","0","0","0","0","4","2","5","2","4","2","4","2","5","4","720215098982924288","刘","693","","","","","","","","","","","","","","","","","","","","","","","","","","","","","","","","","","","","","","","",""
"978","<p style=""color:white; font-size: 35px;"">拙笨</p>","e","categorize-html","143","183620","0.0-6.0-0.0-8.0-1.17","4","3","4","3","4","3","2","2","3","4","4","4","4","5","5","4","4","4","4","5","4","4","4","4","3","4","4","5","4","1","0","1","1","0","1","0","1","1","1","0","0","0","0","0","4","2","5","2","4","2","4","2","5","4","720215098982924288","刘","693","","","","","","","","","","","","","","","","","","","true","4","4","ability","978","negative","拙笨","","","","","","","","","","","","","","",""
"null","","null","html-keyboard-response","144","183872","0.0-6.0-0.0-8.0-0.18","4","3","4","3","4","3","2","2","3","4","4","4","4","5","5","4","4","4","4","5","4","4","4","4","3","4","4","5","4","1","0","1","1","0","1","0","1","1","1","0","0","0","0","0","4","2","5","2","4","2","4","2","5","4","720215098982924288","刘","693","","","","","","","","","","","","","","","","","","","","","","","","","","","","","","","","","","","","","","","",""
"850","<p style=""color:rgb(150, 250, 100); font-size: 35px;"">别人的</p>","i","categorize-html","145","184726","0.0-6.0-0.0-8.0-1.18","4","3","4","3","4","3","2","2","3","4","4","4","4","5","5","4","4","4","4","5","4","4","4","4","3","4","4","5","4","1","0","1","1","0","1","0","1","1","1","0","0","0","0","0","4","2","5","2","4","2","4","2","5","4","720215098982924288","刘","693","","","","","","","","","","","","","","","","","","","true","4","4","ability","850","other","别人的","","","","","","","","","","","","","","",""
"null","","null","html-keyboard-response","146","184977","0.0-6.0-0.0-8.0-0.19","4","3","4","3","4","3","2","2","3","4","4","4","4","5","5","4","4","4","4","5","4","4","4","4","3","4","4","5","4","1","0","1","1","0","1","0","1","1","1","0","0","0","0","0","4","2","5","2","4","2","4","2","5","4","720215098982924288","刘","693","","","","","","","","","","","","","","","","","","","","","","","","","","","","","","","","","","","","","","","",""
"2561","<p style=""color:white; font-size: 35px;"">全能</p>","i","categorize-html","147","187543","0.0-6.0-0.0-8.0-1.19","4","3","4","3","4","3","2","2","3","4","4","4","4","5","5","4","4","4","4","5","4","4","4","4","3","4","4","5","4","1","0","1","1","0","1","0","1","1","1","0","0","0","0","0","4","2","5","2","4","2","4","2","5","4","720215098982924288","刘","693","","","","","","","","","","","","","","","","","","","true","4","4","ability","2561","positive","全能","","","","","","","","","","","","","","",""
"null","","null","html-keyboard-response","148","187794","0.0-6.0-0.0-8.0-0.20","4","3","4","3","4","3","2","2","3","4","4","4","4","5","5","4","4","4","4","5","4","4","4","4","3","4","4","5","4","1","0","1","1","0","1","0","1","1","1","0","0","0","0","0","4","2","5","2","4","2","4","2","5","4","720215098982924288","刘","693","","","","","","","","","","","","","","","","","","","","","","","","","","","","","","","","","","","","","","","",""
"708","<p style=""color:rgb(150, 250, 100); font-size: 35px;"">自己的</p>","e","categorize-html","149","188505","0.0-6.0-0.0-8.0-1.20","4","3","4","3","4","3","2","2","3","4","4","4","4","5","5","4","4","4","4","5","4","4","4","4","3","4","4","5","4","1","0","1","1","0","1","0","1","1","1","0","0","0","0","0","4","2","5","2","4","2","4","2","5","4","720215098982924288","刘","693","","","","","","","","","","","","","","","","","","","true","4","4","ability","708","self","自己的","","","","","","","","","","","","","","",""
"null","","null","html-keyboard-response","150","188757","0.0-6.0-0.0-8.0-0.21","4","3","4","3","4","3","2","2","3","4","4","4","4","5","5","4","4","4","4","5","4","4","4","4","3","4","4","5","4","1","0","1","1","0","1","0","1","1","1","0","0","0","0","0","4","2","5","2","4","2","4","2","5","4","720215098982924288","刘","693","","","","","","","","","","","","","","","","","","","","","","","","","","","","","","","","","","","","","","","",""
"1000","<p style=""color:white; font-size: 35px;"">废物</p>","e","categorize-html","151","189761","0.0-6.0-0.0-8.0-1.21","4","3","4","3","4","3","2","2","3","4","4","4","4","5","5","4","4","4","4","5","4","4","4","4","3","4","4","5","4","1","0","1","1","0","1","0","1","1","1","0","0","0","0","0","4","2","5","2","4","2","4","2","5","4","720215098982924288","刘","693","","","","","","","","","","","","","","","","","","","true","4","4","ability","1000","negative","废物","","","","","","","","","","","","","","",""
"null","","null","html-keyboard-response","152","190012","0.0-6.0-0.0-8.0-0.22","4","3","4","3","4","3","2","2","3","4","4","4","4","5","5","4","4","4","4","5","4","4","4","4","3","4","4","5","4","1","0","1","1","0","1","0","1","1","1","0","0","0","0","0","4","2","5","2","4","2","4","2","5","4","720215098982924288","刘","693","","","","","","","","","","","","","","","","","","","","","","","","","","","","","","","","","","","","","","","",""
"587","<p style=""color:rgb(150, 250, 100); font-size: 35px;"">他人</p>","i","categorize-html","153","190603","0.0-6.0-0.0-8.0-1.22","4","3","4","3","4","3","2","2","3","4","4","4","4","5","5","4","4","4","4","5","4","4","4","4","3","4","4","5","4","1","0","1","1","0","1","0","1","1","1","0","0","0","0","0","4","2","5","2","4","2","4","2","5","4","720215098982924288","刘","693","","","","","","","","","","","","","","","","","","","true","4","4","ability","587","other","他人","","","","","","","","","","","","","","",""
"null","","null","html-keyboard-response","154","190854","0.0-6.0-0.0-8.0-0.23","4","3","4","3","4","3","2","2","3","4","4","4","4","5","5","4","4","4","4","5","4","4","4","4","3","4","4","5","4","1","0","1","1","0","1","0","1","1","1","0","0","0","0","0","4","2","5","2","4","2","4","2","5","4","720215098982924288","刘","693","","","","","","","","","","","","","","","","","","","","","","","","","","","","","","","","","","","","","","","",""
"1445","<p style=""color:white; font-size: 35px;"">高效</p>","i","categorize-html","155","192303","0.0-6.0-0.0-8.0-1.23","4","3","4","3","4","3","2","2","3","4","4","4","4","5","5","4","4","4","4","5","4","4","4","4","3","4","4","5","4","1","0","1","1","0","1","0","1","1","1","0","0","0","0","0","4","2","5","2","4","2","4","2","5","4","720215098982924288","刘","693","","","","","","","","","","","","","","","","","","","true","4","4","ability","1445","positive","高效","","","","","","","","","","","","","","",""
"null","","null","html-keyboard-response","156","192556","0.0-6.0-0.0-8.0-0.24","4","3","4","3","4","3","2","2","3","4","4","4","4","5","5","4","4","4","4","5","4","4","4","4","3","4","4","5","4","1","0","1","1","0","1","0","1","1","1","0","0","0","0","0","4","2","5","2","4","2","4","2","5","4","720215098982924288","刘","693","","","","","","","","","","","","","","","","","","","","","","","","","","","","","","","","","","","","","","","",""
"637","<p style=""color:rgb(150, 250, 100); font-size: 35px;"">自己</p>","e","categorize-html","157","193197","0.0-6.0-0.0-8.0-1.24","4","3","4","3","4","3","2","2","3","4","4","4","4","5","5","4","4","4","4","5","4","4","4","4","3","4","4","5","4","1","0","1","1","0","1","0","1","1","1","0","0","0","0","0","4","2","5","2","4","2","4","2","5","4","720215098982924288","刘","693","","","","","","","","","","","","","","","","","","","true","4","4","ability","637","self","自己","","","","","","","","","","","","","","",""
"null","","null","html-keyboard-response","158","193448","0.0-6.0-0.0-8.0-0.25","4","3","4","3","4","3","2","2","3","4","4","4","4","5","5","4","4","4","4","5","4","4","4","4","3","4","4","5","4","1","0","1","1","0","1","0","1","1","1","0","0","0","0","0","4","2","5","2","4","2","4","2","5","4","720215098982924288","刘","693","","","","","","","","","","","","","","","","","","","","","","","","","","","","","","","","","","","","","","","",""
"842","<p style=""color:white; font-size: 35px;"">无能</p>","e","categorize-html","159","194294","0.0-6.0-0.0-8.0-1.25","4","3","4","3","4","3","2","2","3","4","4","4","4","5","5","4","4","4","4","5","4","4","4","4","3","4","4","5","4","1","0","1","1","0","1","0","1","1","1","0","0","0","0","0","4","2","5","2","4","2","4","2","5","4","720215098982924288","刘","693","","","","","","","","","","","","","","","","","","","true","4","4","ability","842","negative","无能","","","","","","","","","","","","","","",""
"null","","null","html-keyboard-response","160","194547","0.0-6.0-0.0-8.0-0.26","4","3","4","3","4","3","2","2","3","4","4","4","4","5","5","4","4","4","4","5","4","4","4","4","3","4","4","5","4","1","0","1","1","0","1","0","1","1","1","0","0","0","0","0","4","2","5","2","4","2","4","2","5","4","720215098982924288","刘","693","","","","","","","","","","","","","","","","","","","","","","","","","","","","","","","","","","","","","","","",""
"600","<p style=""color:rgb(150, 250, 100); font-size: 35px;"">别人的</p>","i","categorize-html","161","195151","0.0-6.0-0.0-8.0-1.26","4","3","4","3","4","3","2","2","3","4","4","4","4","5","5","4","4","4","4","5","4","4","4","4","3","4","4","5","4","1","0","1","1","0","1","0","1","1","1","0","0","0","0","0","4","2","5","2","4","2","4","2","5","4","720215098982924288","刘","693","","","","","","","","","","","","","","","","","","","true","4","4","ability","600","other","别人的","","","","","","","","","","","","","","",""
"null","","null","html-keyboard-response","162","195403","0.0-6.0-0.0-8.0-0.27","4","3","4","3","4","3","2","2","3","4","4","4","4","5","5","4","4","4","4","5","4","4","4","4","3","4","4","5","4","1","0","1","1","0","1","0","1","1","1","0","0","0","0","0","4","2","5","2","4","2","4","2","5","4","720215098982924288","刘","693","","","","","","","","","","","","","","","","","","","","","","","","","","","","","","","","","","","","","","","",""
"980","<p style=""color:white; font-size: 35px;"">全才</p>","i","categorize-html","163","196386","0.0-6.0-0.0-8.0-1.27","4","3","4","3","4","3","2","2","3","4","4","4","4","5","5","4","4","4","4","5","4","4","4","4","3","4","4","5","4","1","0","1","1","0","1","0","1","1","1","0","0","0","0","0","4","2","5","2","4","2","4","2","5","4","720215098982924288","刘","693","","","","","","","","","","","","","","","","","","","true","4","4","ability","980","positive","全才","","","","","","","","","","","","","","",""
"null","","null","html-keyboard-response","164","196637","0.0-6.0-0.0-8.0-0.28","4","3","4","3","4","3","2","2","3","4","4","4","4","5","5","4","4","4","4","5","4","4","4","4","3","4","4","5","4","1","0","1","1","0","1","0","1","1","1","0","0","0","0","0","4","2","5","2","4","2","4","2","5","4","720215098982924288","刘","693","","","","","","","","","","","","","","","","","","","","","","","","","","","","","","","","","","","","","","","",""
"498","<p style=""color:rgb(150, 250, 100); font-size: 35px;"">别人</p>","e","categorize-html","165","197634","0.0-6.0-0.0-8.0-1.28","4","3","4","3","4","3","2","2","3","4","4","4","4","5","5","4","4","4","4","5","4","4","4","4","3","4","4","5","4","1","0","1","1","0","1","0","1","1","1","0","0","0","0","0","4","2","5","2","4","2","4","2","5","4","720215098982924288","刘","693","","","","","","","","","","","","","","","","","","","false","4","4","ability","1554.4772727272727","other","别人","","","","","","","","","","","","","","",""
"null","","null","html-keyboard-response","166","197885","0.0-6.0-0.0-8.0-0.29","4","3","4","3","4","3","2","2","3","4","4","4","4","5","5","4","4","4","4","5","4","4","4","4","3","4","4","5","4","1","0","1","1","0","1","0","1","1","1","0","0","0","0","0","4","2","5","2","4","2","4","2","5","4","720215098982924288","刘","693","","","","","","","","","","","","","","","","","","","","","","","","","","","","","","","","","","","","","","","",""
"917","<p style=""color:white; font-size: 35px;"">蠢笨</p>","e","categorize-html","167","198805","0.0-6.0-0.0-8.0-1.29","4","3","4","3","4","3","2","2","3","4","4","4","4","5","5","4","4","4","4","5","4","4","4","4","3","4","4","5","4","1","0","1","1","0","1","0","1","1","1","0","0","0","0","0","4","2","5","2","4","2","4","2","5","4","720215098982924288","刘","693","","","","","","","","","","","","","","","","","","","true","4","4","ability","917","negative","蠢笨","","","","","","","","","","","","","","",""
"null","","null","html-keyboard-response","168","199058","0.0-6.0-0.0-8.0-0.30","4","3","4","3","4","3","2","2","3","4","4","4","4","5","5","4","4","4","4","5","4","4","4","4","3","4","4","5","4","1","0","1","1","0","1","0","1","1","1","0","0","0","0","0","4","2","5","2","4","2","4","2","5","4","720215098982924288","刘","693","","","","","","","","","","","","","","","","","","","","","","","","","","","","","","","","","","","","","","","",""
"667","<p style=""color:rgb(150, 250, 100); font-size: 35px;"">本人的</p>","e","categorize-html","169","199728","0.0-6.0-0.0-8.0-1.30","4","3","4","3","4","3","2","2","3","4","4","4","4","5","5","4","4","4","4","5","4","4","4","4","3","4","4","5","4","1","0","1","1","0","1","0","1","1","1","0","0","0","0","0","4","2","5","2","4","2","4","2","5","4","720215098982924288","刘","693","","","","","","","","","","","","","","","","","","","true","4","4","ability","667","self","本人的","","","","","","","","","","","","","","",""
"null","","null","html-keyboard-response","170","199980","0.0-6.0-0.0-8.0-0.31","4","3","4","3","4","3","2","2","3","4","4","4","4","5","5","4","4","4","4","5","4","4","4","4","3","4","4","5","4","1","0","1","1","0","1","0","1","1","1","0","0","0","0","0","4","2","5","2","4","2","4","2","5","4","720215098982924288","刘","693","","","","","","","","","","","","","","","","","","","","","","","","","","","","","","","","","","","","","","","",""
"711","<p style=""color:white; font-size: 35px;"">天才</p>","i","categorize-html","171","200695","0.0-6.0-0.0-8.0-1.31","4","3","4","3","4","3","2","2","3","4","4","4","4","5","5","4","4","4","4","5","4","4","4","4","3","4","4","5","4","1","0","1","1","0","1","0","1","1","1","0","0","0","0","0","4","2","5","2","4","2","4","2","5","4","720215098982924288","刘","693","","","","","","","","","","","","","","","","","","","true","4","4","ability","711","positive","天才","","","","","","","","","","","","","","",""
"null","","null","html-keyboard-response","172","200947","0.0-6.0-0.0-8.0-0.32","4","3","4","3","4","3","2","2","3","4","4","4","4","5","5","4","4","4","4","5","4","4","4","4","3","4","4","5","4","1","0","1","1","0","1","0","1","1","1","0","0","0","0","0","4","2","5","2","4","2","4","2","5","4","720215098982924288","刘","693","","","","","","","","","","","","","","","","","","","","","","","","","","","","","","","","","","","","","","","",""
"652","<p style=""color:rgb(150, 250, 100); font-size: 35px;"">我</p>","e","categorize-html","173","201603","0.0-6.0-0.0-8.0-1.32","4","3","4","3","4","3","2","2","3","4","4","4","4","5","5","4","4","4","4","5","4","4","4","4","3","4","4","5","4","1","0","1","1","0","1","0","1","1","1","0","0","0","0","0","4","2","5","2","4","2","4","2","5","4","720215098982924288","刘","693","","","","","","","","","","","","","","","","","","","true","4","4","ability","652","self","我","","","","","","","","","","","","","","",""
"null","","null","html-keyboard-response","174","201855","0.0-6.0-0.0-8.0-0.33","4","3","4","3","4","3","2","2","3","4","4","4","4","5","5","4","4","4","4","5","4","4","4","4","3","4","4","5","4","1","0","1","1","0","1","0","1","1","1","0","0","0","0","0","4","2","5","2","4","2","4","2","5","4","720215098982924288","刘","693","","","","","","","","","","","","","","","","","","","","","","","","","","","","","","","","","","","","","","","",""
"808","<p style=""color:white; font-size: 35px;"">精干</p>","i","categorize-html","175","202666","0.0-6.0-0.0-8.0-1.33","4","3","4","3","4","3","2","2","3","4","4","4","4","5","5","4","4","4","4","5","4","4","4","4","3","4","4","5","4","1","0","1","1","0","1","0","1","1","1","0","0","0","0","0","4","2","5","2","4","2","4","2","5","4","720215098982924288","刘","693","","","","","","","","","","","","","","","","","","","true","4","4","ability","808","positive","精干","","","","","","","","","","","","","","",""
"null","","null","html-keyboard-response","176","202918","0.0-6.0-0.0-8.0-0.34","4","3","4","3","4","3","2","2","3","4","4","4","4","5","5","4","4","4","4","5","4","4","4","4","3","4","4","5","4","1","0","1","1","0","1","0","1","1","1","0","0","0","0","0","4","2","5","2","4","2","4","2","5","4","720215098982924288","刘","693","","","","","","","","","","","","","","","","","","","","","","","","","","","","","","","","","","","","","","","",""
"1094","<p style=""color:rgb(150, 250, 100); font-size: 35px;"">他</p>","i","categorize-html","177","204015","0.0-6.0-0.0-8.0-1.34","4","3","4","3","4","3","2","2","3","4","4","4","4","5","5","4","4","4","4","5","4","4","4","4","3","4","4","5","4","1","0","1","1","0","1","0","1","1","1","0","0","0","0","0","4","2","5","2","4","2","4","2","5","4","720215098982924288","刘","693","","","","","","","","","","","","","","","","","","","true","4","4","ability","1094","other","他","","","","","","","","","","","","","","",""
"null","","null","html-keyboard-response","178","204267","0.0-6.0-0.0-8.0-0.35","4","3","4","3","4","3","2","2","3","4","4","4","4","5","5","4","4","4","4","5","4","4","4","4","3","4","4","5","4","1","0","1","1","0","1","0","1","1","1","0","0","0","0","0","4","2","5","2","4","2","4","2","5","4","720215098982924288","刘","693","","","","","","","","","","","","","","","","","","","","","","","","","","","","","","","","","","","","","","","",""
"978","<p style=""color:white; font-size: 35px;"">无能</p>","e","categorize-html","179","205249","0.0-6.0-0.0-8.0-1.35","4","3","4","3","4","3","2","2","3","4","4","4","4","5","5","4","4","4","4","5","4","4","4","4","3","4","4","5","4","1","0","1","1","0","1","0","1","1","1","0","0","0","0","0","4","2","5","2","4","2","4","2","5","4","720215098982924288","刘","693","","","","","","","","","","","","","","","","","","","true","4","4","ability","978","negative","无能","","","","","","","","","","","","","","",""
"null","","null","html-keyboard-response","180","205501","0.0-6.0-0.0-8.0-0.36","4","3","4","3","4","3","2","2","3","4","4","4","4","5","5","4","4","4","4","5","4","4","4","4","3","4","4","5","4","1","0","1","1","0","1","0","1","1","1","0","0","0","0","0","4","2","5","2","4","2","4","2","5","4","720215098982924288","刘","693","","","","","","","","","","","","","","","","","","","","","","","","","","","","","","","","","","","","","","","",""
"704","<p style=""color:rgb(150, 250, 100); font-size: 35px;"">本人的</p>","i","categorize-html","181","206773","0.0-6.0-0.0-8.0-1.36","4","3","4","3","4","3","2","2","3","4","4","4","4","5","5","4","4","4","4","5","4","4","4","4","3","4","4","5","4","1","0","1","1","0","1","0","1","1","1","0","0","0","0","0","4","2","5","2","4","2","4","2","5","4","720215098982924288","刘","693","","","","","","","","","","","","","","","","","","","false","4","4","ability","1554.4772727272727","self","本人的","","","","","","","","","","","","","","",""
"null","","null","html-keyboard-response","182","207026","0.0-6.0-0.0-8.0-0.37","4","3","4","3","4","3","2","2","3","4","4","4","4","5","5","4","4","4","4","5","4","4","4","4","3","4","4","5","4","1","0","1","1","0","1","0","1","1","1","0","0","0","0","0","4","2","5","2","4","2","4","2","5","4","720215098982924288","刘","693","","","","","","","","","","","","","","","","","","","","","","","","","","","","","","","","","","","","","","","",""
"674","<p style=""color:white; font-size: 35px;"">拙笨</p>","e","categorize-html","183","207703","0.0-6.0-0.0-8.0-1.37","4","3","4","3","4","3","2","2","3","4","4","4","4","5","5","4","4","4","4","5","4","4","4","4","3","4","4","5","4","1","0","1","1","0","1","0","1","1","1","0","0","0","0","0","4","2","5","2","4","2","4","2","5","4","720215098982924288","刘","693","","","","","","","","","","","","","","","","","","","true","4","4","ability","674","negative","拙笨","","","","","","","","","","","","","","",""
"null","","null","html-keyboard-response","184","207955","0.0-6.0-0.0-8.0-0.38","4","3","4","3","4","3","2","2","3","4","4","4","4","5","5","4","4","4","4","5","4","4","4","4","3","4","4","5","4","1","0","1","1","0","1","0","1","1","1","0","0","0","0","0","4","2","5","2","4","2","4","2","5","4","720215098982924288","刘","693","","","","","","","","","","","","","","","","","","","","","","","","","","","","","","","","","","","","","","","",""
"718","<p style=""color:rgb(150, 250, 100); font-size: 35px;"">他人的</p>","e","categorize-html","185","209059","0.0-6.0-0.0-8.0-1.38","4","3","4","3","4","3","2","2","3","4","4","4","4","5","5","4","4","4","4","5","4","4","4","4","3","4","4","5","4","1","0","1","1","0","1","0","1","1","1","0","0","0","0","0","4","2","5","2","4","2","4","2","5","4","720215098982924288","刘","693","","","","","","","","","","","","","","","","","","","false","4","4","ability","1554.4772727272727","other","他人的","","","","","","","","","","","","","","",""
"null","","null","html-keyboard-response","186","209311","0.0-6.0-0.0-8.0-0.39","4","3","4","3","4","3","2","2","3","4","4","4","4","5","5","4","4","4","4","5","4","4","4","4","3","4","4","5","4","1","0","1","1","0","1","0","1","1","1","0","0","0","0","0","4","2","5","2","4","2","4","2","5","4","720215098982924288","刘","693","","","","","","","","","","","","","","","","","","","","","","","","","","","","","","","","","","","","","","","",""
"767","<p style=""color:white; font-size: 35px;"">能干</p>","i","categorize-html","187","210081","0.0-6.0-0.0-8.0-1.39","4","3","4","3","4","3","2","2","3","4","4","4","4","5","5","4","4","4","4","5","4","4","4","4","3","4","4","5","4","1","0","1","1","0","1","0","1","1","1","0","0","0","0","0","4","2","5","2","4","2","4","2","5","4","720215098982924288","刘","693","","","","","","","","","","","","","","","","","","","true","4","4","ability","767","positive","能干","","","","","","","","","","","","","","",""
"null","","null","html-keyboard-response","188","210332","0.0-6.0-0.0-8.0-0.40","4","3","4","3","4","3","2","2","3","4","4","4","4","5","5","4","4","4","4","5","4","4","4","4","3","4","4","5","4","1","0","1","1","0","1","0","1","1","1","0","0","0","0","0","4","2","5","2","4","2","4","2","5","4","720215098982924288","刘","693","","","","","","","","","","","","","","","","","","","","","","","","","","","","","","","","","","","","","","","",""
"638","<p style=""color:rgb(150, 250, 100); font-size: 35px;"">我</p>","e","categorize-html","189","210974","0.0-6.0-0.0-8.0-1.40","4","3","4","3","4","3","2","2","3","4","4","4","4","5","5","4","4","4","4","5","4","4","4","4","3","4","4","5","4","1","0","1","1","0","1","0","1","1","1","0","0","0","0","0","4","2","5","2","4","2","4","2","5","4","720215098982924288","刘","693","","","","","","","","","","","","","","","","","","","true","4","4","ability","638","self","我","","","","","","","","","","","","","","",""
"null","","null","html-keyboard-response","190","211226","0.0-6.0-0.0-8.0-0.41","4","3","4","3","4","3","2","2","3","4","4","4","4","5","5","4","4","4","4","5","4","4","4","4","3","4","4","5","4","1","0","1","1","0","1","0","1","1","1","0","0","0","0","0","4","2","5","2","4","2","4","2","5","4","720215098982924288","刘","693","","","","","","","","","","","","","","","","","","","","","","","","","","","","","","","","","","","","","","","",""
"568","<p style=""color:white; font-size: 35px;"">愚钝</p>","e","categorize-html","191","211797","0.0-6.0-0.0-8.0-1.41","4","3","4","3","4","3","2","2","3","4","4","4","4","5","5","4","4","4","4","5","4","4","4","4","3","4","4","5","4","1","0","1","1","0","1","0","1","1","1","0","0","0","0","0","4","2","5","2","4","2","4","2","5","4","720215098982924288","刘","693","","","","","","","","","","","","","","","","","","","true","4","4","ability","568","negative","愚钝","","","","","","","","","","","","","","",""
"null","","null","html-keyboard-response","192","212049","0.0-6.0-0.0-8.0-0.42","4","3","4","3","4","3","2","2","3","4","4","4","4","5","5","4","4","4","4","5","4","4","4","4","3","4","4","5","4","1","0","1","1","0","1","0","1","1","1","0","0","0","0","0","4","2","5","2","4","2","4","2","5","4","720215098982924288","刘","693","","","","","","","","","","","","","","","","","","","","","","","","","","","","","","","","","","","","","","","",""
"810","<p style=""color:rgb(150, 250, 100); font-size: 35px;"">他人的</p>","i","categorize-html","193","212862","0.0-6.0-0.0-8.0-1.42","4","3","4","3","4","3","2","2","3","4","4","4","4","5","5","4","4","4","4","5","4","4","4","4","3","4","4","5","4","1","0","1","1","0","1","0","1","1","1","0","0","0","0","0","4","2","5","2","4","2","4","2","5","4","720215098982924288","刘","693","","","","","","","","","","","","","","","","","","","true","4","4","ability","810","other","他人的","","","","","","","","","","","","","","",""
"null","","null","html-keyboard-response","194","213114","0.0-6.0-0.0-8.0-0.43","4","3","4","3","4","3","2","2","3","4","4","4","4","5","5","4","4","4","4","5","4","4","4","4","3","4","4","5","4","1","0","1","1","0","1","0","1","1","1","0","0","0","0","0","4","2","5","2","4","2","4","2","5","4","720215098982924288","刘","693","","","","","","","","","","","","","","","","","","","","","","","","","","","","","","","","","","","","","","","",""
"665","<p style=""color:white; font-size: 35px;"">天才</p>","i","categorize-html","195","213783","0.0-6.0-0.0-8.0-1.43","4","3","4","3","4","3","2","2","3","4","4","4","4","5","5","4","4","4","4","5","4","4","4","4","3","4","4","5","4","1","0","1","1","0","1","0","1","1","1","0","0","0","0","0","4","2","5","2","4","2","4","2","5","4","720215098982924288","刘","693","","","","","","","","","","","","","","","","","","","true","4","4","ability","665","positive","天才","","","","","","","","","","","","","","",""
"null","","null","html-keyboard-response","196","214034","0.0-6.0-0.0-8.0-0.44","4","3","4","3","4","3","2","2","3","4","4","4","4","5","5","4","4","4","4","5","4","4","4","4","3","4","4","5","4","1","0","1","1","0","1","0","1","1","1","0","0","0","0","0","4","2","5","2","4","2","4","2","5","4","720215098982924288","刘","693","","","","","","","","","","","","","","","","","","","","","","","","","","","","","","","","","","","","","","","",""
