"rt","stimulus","response","trial_type","trial_index","time_elapsed","internal_node_id","ses_1","ses_2","ses_3","ses_4","ses_5","ses_6","ses_7","ses_8","ses_9","ses_10","coreself_1","coreself_2","coreself_3","coreself_4","coreself_5","coreself_6","coreself_7","coreself_8","coreself_9","coreself_10","SGPS_1","SGPS_2","SGPS_3","SGPS_4","SGPS_5","SGPS_6","SGPS_7","SGPS_8","SGPS_9","NPI1","NPI2","NPI3","NPI4","NPI5","NPI6","NPI7","NPI8","NPI9","NPI10","NPI11","NPI12","NPI13","NPI14","NPI15","hsns_1","hsns_2","hsns_3","hsns_4","hsns_5","hsns_6","hsns_7","hsns_8","hsns_9","hsns_10","subj_idx","friend_name","ParticipantID","value","success","user_agent","responses","item_order","radio_event_ids","radio_event_times","key_event_times","mouse_event_times","straightlining","zigzagging","honeypot","timeout","failed_images","failed_audio","failed_video","view_history","response_type","key_press","avg_frame_time","center_x","center_y","correct_response","correct","identity","Image","word","condition","task_id","screen_id","time_stamp","version_attrib","version_target","IAT","RT","varname","summary","version_attrib2","version_target2","question_order"
"17422","
   <p><div style = ""color: white;font-size:25px;"">您好，欢迎参加本次实验。</div> </p>
   <p><div style = ""color: white;font-size:25px;"">为充分保障您的权利，请确保您已经知晓并同意《参与实验同意书》以及《数据公开知情同意书》。</div></p>
   <p><div style = ""color: white;font-size:25px;"">如果您未见过上述内容，请咨询实验员。</div></p>
   <p><div style = ""color: white;font-size:25px;"">如果您选择继续实验，则表示您已经清楚两份知情同意书的内容并同意。</div></p>
   <p><div style = ""color: red;font-size:30px;"">请确保您记得day0的实验编号，您将在本次实验输入该编号，若您忘记，请咨询实验员后作答。</div></p>
   <p> <div style = ""color: green;font-size:25px;""><按空格键至下页></div> </p>
   "," ","html-keyboard-response","0","17430","0.0-0.0","3","3","4","3","3","3","3","3","3","3","4","4","2","4","4","4","4","4","4","4","2","2","2","2","2","2","2","4","2","1","1","1","0","1","0","0","0","0","0","0","0","0","0","1","5","1","4","1","1","2","2","4","4","1","766049476896100353","张","569","","","","","","","","","","","","","","","","","","","","","","","","","","","","","","","","","","","","","","","",""
"","","","call-function","1","17434","0.0-1.0-0.0","3","3","4","3","3","3","3","3","3","3","4","4","2","4","4","4","4","4","4","4","2","2","2","2","2","2","2","4","2","1","1","1","0","1","0","0","0","0","0","0","0","0","0","1","5","1","4","1","1","2","2","4","4","1","766049476896100353","张","569","","","","","","","","","","","","","","","","","","","","","","","","","","","","","","","","","","","","","","","",""
"15150","","{""friend_name"":""张"",""ParticipantID"":""569""}","survey-html-form","2","32586","0.0-1.0-1.0","3","3","4","3","3","3","3","3","3","3","4","4","2","4","4","4","4","4","4","4","2","2","2","2","2","2","2","4","2","1","1","1","0","1","0","0","0","0","0","0","0","0","0","1","5","1","4","1","1","2","2","4","4","1","766049476896100353","张","569","","","","","","","","","","","","","","","","","","","","","","","","","","","","","","","","","","","","","","","",""
"","","","fullscreen","3","40223","0.0-2.0","3","3","4","3","3","3","3","3","3","3","4","4","2","4","4","4","4","4","4","4","2","2","2","2","2","2","2","4","2","1","1","1","0","1","0","0","0","0","0","0","0","0","0","1","5","1","4","1","1","2","2","4","4","1","766049476896100353","张","569","","true","{}","","","","","","","","","","","","","","","","","","","","","","","","","","","","","","","","","","","","",""
"33117.39999997616","","{""Q01"":""3"",""Q02"":""3"",""Q03"":""4"",""Q04"":""3"",""Q05"":""3"",""Q06"":""3"",""Q07"":""3"",""Q08"":""3"",""Q09"":""3"",""Q10"":""3""}","survey-template","4","73344","0.0-3.0","3","3","4","3","3","3","3","3","3","3","4","4","2","4","4","4","4","4","4","4","2","2","2","2","2","2","2","4","2","1","1","1","0","1","0","0","0","0","0","0","0","0","0","1","5","1","4","1","1","2","2","4","4","1","766049476896100353","张","569","","","","{""Q01"":""3"",""Q02"":""3"",""Q03"":""4"",""Q04"":""3"",""Q05"":""3"",""Q06"":""3"",""Q07"":""3"",""Q08"":""3"",""Q09"":""3"",""Q10"":""3""}","[0,1,2,3,4,5,6,7,8,9]","[""Q01"",""Q02"",""Q03"",""Q04"",""Q05"",""Q05"",""Q06"",""Q07"",""Q08"",""Q09"",""Q10""]","[7331.399999976158,8951.199999928474,11649.199999928474,13273.5,15229.299999952316,16541.399999976158,18209,22799.399999976158,25673.299999952316,28374.299999952316,29329.299999952316]","[]","[7331.399999976158,8236.099999904633,8951.199999928474,11649.199999928474,13273.5,15229.299999952316,16541.399999976158,18209,22799.399999976158,25673.299999952316,28374.299999952316,29329.299999952316,33115.59999990463]","0.5","0.3333333333333333","0","","","","","","","","","","","","","","","","","","","","","","","","","","","",""
"29538.399999976158","","{""Q01"":""4"",""Q02"":""4"",""Q03"":""2"",""Q04"":""4"",""Q05"":""4"",""Q06"":""4"",""Q07"":""4"",""Q08"":""4"",""Q09"":""4"",""Q10"":""4""}","survey-template","5","102892","0.0-4.0","3","3","4","3","3","3","3","3","3","3","4","4","2","4","4","4","4","4","4","4","2","2","2","2","2","2","2","4","2","1","1","1","0","1","0","0","0","0","0","0","0","0","0","1","5","1","4","1","1","2","2","4","4","1","766049476896100353","张","569","","","","{""Q01"":""4"",""Q02"":""4"",""Q03"":""2"",""Q04"":""4"",""Q05"":""4"",""Q06"":""4"",""Q07"":""4"",""Q08"":""4"",""Q09"":""4"",""Q10"":""4""}","[0,1,2,3,4,5,6,7,8,9]","[""Q01"",""Q02"",""Q02"",""Q03"",""Q03"",""Q04"",""Q05"",""Q06"",""Q07"",""Q08"",""Q09"",""Q10""]","[3758,6444.5,9550.5,11168.600000023842,13408.5,15316.5,17694.5,18534.5,20113,24028.399999976158,26473.199999928474,28320.399999976158]","[]","[3758,6444.5,8764.399999976158,9550.5,11168.600000023842,13408.5,15316.5,17694.5,18534.5,20113,23372.799999952316,24028.399999976158,26473.199999928474,28320.399999976158,29536.299999952316]","0.5","0","0","","","","","","","","","","","","","","","","","","","","","","","","","","","",""
"","","","preload","6","103343","0.0-5.0","3","3","4","3","3","3","3","3","3","3","4","4","2","4","4","4","4","4","4","4","2","2","2","2","2","2","2","4","2","1","1","1","0","1","0","0","0","0","0","0","0","0","0","1","5","1","4","1","1","2","2","4","4","1","766049476896100353","张","569","","true","","","","","","","","","","","false","[]","[]","[]","","","","","","","","","","","","","","","","","","","","","","","",""
"18144","","","instructions","7","121489","0.0-6.0","3","3","4","3","3","3","3","3","3","3","4","4","2","4","4","4","4","4","4","4","2","2","2","2","2","2","2","4","2","1","1","1","0","1","0","0","0","0","0","0","0","0","0","1","5","1","4","1","1","2","2","4","4","1","766049476896100353","张","569","","","","","","","","","","","","","","","","","[{""page_index"":0,""viewing_time"":18143}]","","","","","","","","","","","","","","","","","","","","","","",""
"20697","","","instructions","8","142188","0.0-7.0-0.0-0.0","3","3","4","3","3","3","3","3","3","3","4","4","2","4","4","4","4","4","4","4","2","2","2","2","2","2","2","4","2","1","1","1","0","1","0","0","0","0","0","0","0","0","0","1","5","1","4","1","1","2","2","4","4","1","766049476896100353","张","569","","","","","","","","","","","","","","","","","[{""page_index"":0,""viewing_time"":7211},{""page_index"":1,""viewing_time"":11032},{""page_index"":2,""viewing_time"":2454}]","","","","","","","","","","","","","","","","","","","","","","",""
"null","","null","psychophysics","9","144410","0.0-7.0-0.0-1.0-0.0-0.0","3","3","4","3","3","3","3","3","3","3","4","4","2","4","4","4","4","4","4","4","2","2","2","2","2","2","2","4","2","1","1","1","0","1","0","0","0","0","0","0","0","0","0","1","5","1","4","1","1","2","2","4","4","1","766049476896100353","张","569","","","","null","","","","","","","","","","","","","","key","null","33.323076923076925","768","428","f","false","nonmatch","img/triangle.png","梯形","三角","ALT1_1","prac_ALT1_1","","","","","","","","","",""
"null","<span class='add_' style='color:yellow; font-size: 70px;'> 太慢! </span>","null","html-keyboard-response","10","145831","0.0-7.0-0.0-1.0-0.0-1.0","3","3","4","3","3","3","3","3","3","3","4","4","2","4","4","4","4","4","4","4","2","2","2","2","2","2","2","4","2","1","1","1","0","1","0","0","0","0","0","0","0","0","0","1","5","1","4","1","1","2","2","4","4","1","766049476896100353","张","569","","","","","","","","","","","","","","","","","","","","","","","","","","","","","","feedback_test","","","","","","","","","",""
"null","","null","psychophysics","11","148047","0.0-7.0-0.0-1.0-0.0-0.1","3","3","4","3","3","3","3","3","3","3","4","4","2","4","4","4","4","4","4","4","2","2","2","2","2","2","2","4","2","1","1","1","0","1","0","0","0","0","0","0","0","0","0","1","5","1","4","1","1","2","2","4","4","1","766049476896100353","张","569","","","","null","","","","","","","","","","","","","","key","null","33.32626153846191","768","428","j","false","match","img/ellipse.png","椭圆","椭圆","ALT1_1","prac_ALT1_1","","","","","","","","","",""
"null","<span class='add_' style='color:yellow; font-size: 70px;'> 太慢! </span>","null","html-keyboard-response","12","148552","0.0-7.0-0.0-1.0-0.0-1.1","3","3","4","3","3","3","3","3","3","3","4","4","2","4","4","4","4","4","4","4","2","2","2","2","2","2","2","4","2","1","1","1","0","1","0","0","0","0","0","0","0","0","0","1","5","1","4","1","1","2","2","4","4","1","766049476896100353","张","569","","","","","","","","","","","","","","","","","","","","","","","","","","","","","","feedback_test","","","","","","","","","",""
"null","","null","psychophysics","13","150763","0.0-7.0-0.0-1.0-0.0-0.2","3","3","4","3","3","3","3","3","3","3","4","4","2","4","4","4","4","4","4","4","2","2","2","2","2","2","2","4","2","1","1","1","0","1","0","0","0","0","0","0","0","0","0","1","5","1","4","1","1","2","2","4","4","1","766049476896100353","张","569","","","","null","","","","","","","","","","","","","","key","null","33.32767692307691","768","428","f","false","nonmatch","img/triangle.png","五边","三角","ALT1_1","prac_ALT1_1","","","","","","","","","",""
"null","<span class='add_' style='color:yellow; font-size: 70px;'> 太慢! </span>","null","html-keyboard-response","14","151283","0.0-7.0-0.0-1.0-0.0-1.2","3","3","4","3","3","3","3","3","3","3","4","4","2","4","4","4","4","4","4","4","2","2","2","2","2","2","2","4","2","1","1","1","0","1","0","0","0","0","0","0","0","0","0","1","5","1","4","1","1","2","2","4","4","1","766049476896100353","张","569","","","","","","","","","","","","","","","","","","","","","","","","","","","","","","feedback_test","","","","","","","","","",""
"null","","null","psychophysics","15","153494","0.0-7.0-0.0-1.0-0.0-0.3","3","3","4","3","3","3","3","3","3","3","4","4","2","4","4","4","4","4","4","4","2","2","2","2","2","2","2","4","2","1","1","1","0","1","0","0","0","0","0","0","0","0","0","1","5","1","4","1","1","2","2","4","4","1","766049476896100353","张","569","","","","null","","","","","","","","","","","","","","key","null","33.32716923076928","768","428","j","false","match","img/trapezoid.png","梯形","梯形","ALT1_1","prac_ALT1_1","","","","","","","","","",""
"null","<span class='add_' style='color:yellow; font-size: 70px;'> 太慢! </span>","null","html-keyboard-response","16","154006","0.0-7.0-0.0-1.0-0.0-1.3","3","3","4","3","3","3","3","3","3","3","4","4","2","4","4","4","4","4","4","4","2","2","2","2","2","2","2","4","2","1","1","1","0","1","0","0","0","0","0","0","0","0","0","1","5","1","4","1","1","2","2","4","4","1","766049476896100353","张","569","","","","","","","","","","","","","","","","","","","","","","","","","","","","","","feedback_test","","","","","","","","","",""
"null","","null","psychophysics","17","156223","0.0-7.0-0.0-1.0-0.0-0.4","3","3","4","3","3","3","3","3","3","3","4","4","2","4","4","4","4","4","4","4","2","2","2","2","2","2","2","4","2","1","1","1","0","1","0","0","0","0","0","0","0","0","0","1","5","1","4","1","1","2","2","4","4","1","766049476896100353","张","569","","","","null","","","","","","","","","","","","","","key","null","33.58247692307699","768","428","j","false","match","img/ellipse.png","椭圆","椭圆","ALT1_1","prac_ALT1_1","","","","","","","","","",""
"null","<span class='add_' style='color:yellow; font-size: 70px;'> 太慢! </span>","null","html-keyboard-response","18","156738","0.0-7.0-0.0-1.0-0.0-1.4","3","3","4","3","3","3","3","3","3","3","4","4","2","4","4","4","4","4","4","4","2","2","2","2","2","2","2","4","2","1","1","1","0","1","0","0","0","0","0","0","0","0","0","1","5","1","4","1","1","2","2","4","4","1","766049476896100353","张","569","","","","","","","","","","","","","","","","","","","","","","","","","","","","","","feedback_test","","","","","","","","","",""
"null","","null","psychophysics","19","158957","0.0-7.0-0.0-1.0-0.0-0.5","3","3","4","3","3","3","3","3","3","3","4","4","2","4","4","4","4","4","4","4","2","2","2","2","2","2","2","4","2","1","1","1","0","1","0","0","0","0","0","0","0","0","0","1","5","1","4","1","1","2","2","4","4","1","766049476896100353","张","569","","","","null","","","","","","","","","","","","","","key","null","33.32521538461577","764","354","j","false","match","img/trapezoid.png","梯形","梯形","ALT1_1","prac_ALT1_1","","","","","","","","","",""
"null","<span class='add_' style='color:yellow; font-size: 70px;'> 太慢! </span>","null","html-keyboard-response","20","159462","0.0-7.0-0.0-1.0-0.0-1.5","3","3","4","3","3","3","3","3","3","3","4","4","2","4","4","4","4","4","4","4","2","2","2","2","2","2","2","4","2","1","1","1","0","1","0","0","0","0","0","0","0","0","0","1","5","1","4","1","1","2","2","4","4","1","766049476896100353","张","569","","","","","","","","","","","","","","","","","","","","","","","","","","","","","","feedback_test","","","","","","","","","",""
"1109","","f","psychophysics","21","161584","0.0-7.0-0.0-1.0-0.0-0.6","3","3","4","3","3","3","3","3","3","3","4","4","2","4","4","4","4","4","4","4","2","2","2","2","2","2","2","4","2","1","1","1","0","1","0","0","0","0","0","0","0","0","0","1","5","1","4","1","1","2","2","4","4","1","766049476896100353","张","569","","","","nonmatch","","","","","","","","","","","","","","key","f","33.322387096773916","764","354","f","true","nonmatch","img/pentagon.png","梯形","五边","ALT1_1","prac_ALT1_1","","","","","","","","","",""
"null","<span style='color:GreenYellow; font-size: 70px;'>正确! </span>","null","html-keyboard-response","22","162087","0.0-7.0-0.0-1.0-0.0-1.6","3","3","4","3","3","3","3","3","3","3","4","4","2","4","4","4","4","4","4","4","2","2","2","2","2","2","2","4","2","1","1","1","0","1","0","0","0","0","0","0","0","0","0","1","5","1","4","1","1","2","2","4","4","1","766049476896100353","张","569","","","","","","","","","","","","","","","","","","","","","","","","","","","","","","feedback_test","","","","","","","","","",""
"425","","f","psychophysics","23","164262","0.0-7.0-0.0-1.0-0.0-0.7","3","3","4","3","3","3","3","3","3","3","4","4","2","4","4","4","4","4","4","4","2","2","2","2","2","2","2","4","2","1","1","1","0","1","0","0","0","0","0","0","0","0","0","1","5","1","4","1","1","2","2","4","4","1","766049476896100353","张","569","","","","nonmatch","","","","","","","","","","","","","","key","f","33.3259687499999","764","354","j","false","match","img/pentagon.png","五边","五边","ALT1_1","prac_ALT1_1","","","","","","","","","",""
"null","<span style='color:red; font-size: 70px;'>错误! </span>","null","html-keyboard-response","24","164781","0.0-7.0-0.0-1.0-0.0-1.7","3","3","4","3","3","3","3","3","3","3","4","4","2","4","4","4","4","4","4","4","2","2","2","2","2","2","2","4","2","1","1","1","0","1","0","0","0","0","0","0","0","0","0","1","5","1","4","1","1","2","2","4","4","1","766049476896100353","张","569","","","","","","","","","","","","","","","","","","","","","","","","","","","","","","feedback_test","","","","","","","","","",""
"761","","j","psychophysics","25","166549","0.0-7.0-0.0-1.0-0.0-0.8","3","3","4","3","3","3","3","3","3","3","4","4","2","4","4","4","4","4","4","4","2","2","2","2","2","2","2","4","2","1","1","1","0","1","0","0","0","0","0","0","0","0","0","1","5","1","4","1","1","2","2","4","4","1","766049476896100353","张","569","","","","match","","","","","","","","","","","","","","key","j","33.32426923076967","764","354","j","true","match","img/triangle.png","三角","三角","ALT1_1","prac_ALT1_1","","","","","","","","","",""
"null","<span style='color:GreenYellow; font-size: 70px;'>正确! </span>","null","html-keyboard-response","26","167052","0.0-7.0-0.0-1.0-0.0-1.8","3","3","4","3","3","3","3","3","3","3","4","4","2","4","4","4","4","4","4","4","2","2","2","2","2","2","2","4","2","1","1","1","0","1","0","0","0","0","0","0","0","0","0","1","5","1","4","1","1","2","2","4","4","1","766049476896100353","张","569","","","","","","","","","","","","","","","","","","","","","","","","","","","","","","feedback_test","","","","","","","","","",""
"794","","j","psychophysics","27","168854","0.0-7.0-0.0-1.0-0.0-0.9","3","3","4","3","3","3","3","3","3","3","4","4","2","4","4","4","4","4","4","4","2","2","2","2","2","2","2","4","2","1","1","1","0","1","0","0","0","0","0","0","0","0","0","1","5","1","4","1","1","2","2","4","4","1","766049476896100353","张","569","","","","match","","","","","","","","","","","","","","key","j","33.32596226415118","764","354","j","true","match","img/ellipse.png","椭圆","椭圆","ALT1_1","prac_ALT1_1","","","","","","","","","",""
"null","<span style='color:GreenYellow; font-size: 70px;'>正确! </span>","null","html-keyboard-response","28","169829","0.0-7.0-0.0-1.0-0.0-1.9","3","3","4","3","3","3","3","3","3","3","4","4","2","4","4","4","4","4","4","4","2","2","2","2","2","2","2","4","2","1","1","1","0","1","0","0","0","0","0","0","0","0","0","1","5","1","4","1","1","2","2","4","4","1","766049476896100353","张","569","","","","","","","","","","","","","","","","","","","","","","","","","","","","","","feedback_test","","","","","","","","","",""
"null","","null","psychophysics","29","172041","0.0-7.0-0.0-1.0-0.0-0.10","3","3","4","3","3","3","3","3","3","3","4","4","2","4","4","4","4","4","4","4","2","2","2","2","2","2","2","4","2","1","1","1","0","1","0","0","0","0","0","0","0","0","0","1","5","1","4","1","1","2","2","4","4","1","766049476896100353","张","569","","","","null","","","","","","","","","","","","","","key","null","33.32340000000012","764","354","f","false","nonmatch","img/triangle.png","椭圆","三角","ALT1_1","prac_ALT1_1","","","","","","","","","",""
"null","<span class='add_' style='color:yellow; font-size: 70px;'> 太慢! </span>","null","html-keyboard-response","30","172548","0.0-7.0-0.0-1.0-0.0-1.10","3","3","4","3","3","3","3","3","3","3","4","4","2","4","4","4","4","4","4","4","2","2","2","2","2","2","2","4","2","1","1","1","0","1","0","0","0","0","0","0","0","0","0","1","5","1","4","1","1","2","2","4","4","1","766049476896100353","张","569","","","","","","","","","","","","","","","","","","","","","","","","","","","","","","feedback_test","","","","","","","","","",""
"416","","j","psychophysics","31","173967","0.0-7.0-0.0-1.0-0.0-0.11","3","3","4","3","3","3","3","3","3","3","4","4","2","4","4","4","4","4","4","4","2","2","2","2","2","2","2","4","2","1","1","1","0","1","0","0","0","0","0","0","0","0","0","1","5","1","4","1","1","2","2","4","4","1","766049476896100353","张","569","","","","match","","","","","","","","","","","","","","key","j","33.32446341463379","764","354","f","false","nonmatch","img/trapezoid.png","三角","梯形","ALT1_1","prac_ALT1_1","","","","","","","","","",""
"null","<span style='color:red; font-size: 70px;'>错误! </span>","null","html-keyboard-response","32","174476","0.0-7.0-0.0-1.0-0.0-1.11","3","3","4","3","3","3","3","3","3","3","4","4","2","4","4","4","4","4","4","4","2","2","2","2","2","2","2","4","2","1","1","1","0","1","0","0","0","0","0","0","0","0","0","1","5","1","4","1","1","2","2","4","4","1","766049476896100353","张","569","","","","","","","","","","","","","","","","","","","","","","","","","","","","","","feedback_test","","","","","","","","","",""
"661","","f","psychophysics","33","176142","0.0-7.0-0.0-1.0-0.0-0.12","3","3","4","3","3","3","3","3","3","3","4","4","2","4","4","4","4","4","4","4","2","2","2","2","2","2","2","4","2","1","1","1","0","1","0","0","0","0","0","0","0","0","0","1","5","1","4","1","1","2","2","4","4","1","766049476896100353","张","569","","","","nonmatch","","","","","","","","","","","","","","key","f","33.32316326530596","764","354","f","true","nonmatch","img/trapezoid.png","椭圆","梯形","ALT1_1","prac_ALT1_1","","","","","","","","","",""
"null","<span style='color:GreenYellow; font-size: 70px;'>正确! </span>","null","html-keyboard-response","34","176829","0.0-7.0-0.0-1.0-0.0-1.12","3","3","4","3","3","3","3","3","3","3","4","4","2","4","4","4","4","4","4","4","2","2","2","2","2","2","2","4","2","1","1","1","0","1","0","0","0","0","0","0","0","0","0","1","5","1","4","1","1","2","2","4","4","1","766049476896100353","张","569","","","","","","","","","","","","","","","","","","","","","","","","","","","","","","feedback_test","","","","","","","","","",""
"null","","null","psychophysics","35","179835","0.0-7.0-0.0-1.0-0.0-0.13","3","3","4","3","3","3","3","3","3","3","4","4","2","4","4","4","4","4","4","4","2","2","2","2","2","2","2","4","2","1","1","1","0","1","0","0","0","0","0","0","0","0","0","1","5","1","4","1","1","2","2","4","4","1","766049476896100353","张","569","","","","null","","","","","","","","","","","","","","key","null","33.325213483146264","764","354","f","false","nonmatch","img/pentagon.png","三角","五边","ALT1_1","prac_ALT1_1","","","","","","","","","",""
"null","<span class='add_' style='color:yellow; font-size: 70px;'> 太慢! </span>","null","html-keyboard-response","36","180848","0.0-7.0-0.0-1.0-0.0-1.13","3","3","4","3","3","3","3","3","3","3","4","4","2","4","4","4","4","4","4","4","2","2","2","2","2","2","2","4","2","1","1","1","0","1","0","0","0","0","0","0","0","0","0","1","5","1","4","1","1","2","2","4","4","1","766049476896100353","张","569","","","","","","","","","","","","","","","","","","","","","","","","","","","","","","feedback_test","","","","","","","","","",""
"null","","null","psychophysics","37","183058","0.0-7.0-0.0-1.0-0.0-0.14","3","3","4","3","3","3","3","3","3","3","4","4","2","4","4","4","4","4","4","4","2","2","2","2","2","2","2","4","2","1","1","1","0","1","0","0","0","0","0","0","0","0","0","1","5","1","4","1","1","2","2","4","4","1","766049476896100353","张","569","","","","null","","","","","","","","","","","","","","key","null","33.327892307692224","764","354","j","false","match","img/triangle.png","三角","三角","ALT1_1","prac_ALT1_1","","","","","","","","","",""
"null","<span class='add_' style='color:yellow; font-size: 70px;'> 太慢! </span>","null","html-keyboard-response","38","183571","0.0-7.0-0.0-1.0-0.0-1.14","3","3","4","3","3","3","3","3","3","3","4","4","2","4","4","4","4","4","4","4","2","2","2","2","2","2","2","4","2","1","1","1","0","1","0","0","0","0","0","0","0","0","0","1","5","1","4","1","1","2","2","4","4","1","766049476896100353","张","569","","","","","","","","","","","","","","","","","","","","","","","","","","","","","","feedback_test","","","","","","","","","",""
"702","","f","psychophysics","39","185275","0.0-7.0-0.0-1.0-0.0-0.15","3","3","4","3","3","3","3","3","3","3","4","4","2","4","4","4","4","4","4","4","2","2","2","2","2","2","2","4","2","1","1","1","0","1","0","0","0","0","0","0","0","0","0","1","5","1","4","1","1","2","2","4","4","1","766049476896100353","张","569","","","","nonmatch","","","","","","","","","","","","","","key","f","33.32248000000021","764","354","j","false","match","img/pentagon.png","五边","五边","ALT1_1","prac_ALT1_1","","","","","","","","","",""
"null","<span style='color:red; font-size: 70px;'>错误! </span>","null","html-keyboard-response","40","185783","0.0-7.0-0.0-1.0-0.0-1.15","3","3","4","3","3","3","3","3","3","3","4","4","2","4","4","4","4","4","4","4","2","2","2","2","2","2","2","4","2","1","1","1","0","1","0","0","0","0","0","0","0","0","0","1","5","1","4","1","1","2","2","4","4","1","766049476896100353","张","569","","","","","","","","","","","","","","","","","","","","","","","","","","","","","","feedback_test","","","","","","","","","",""
"1033","","j","psychophysics","41","187820","0.0-7.0-0.0-1.0-0.0-0.16","3","3","4","3","3","3","3","3","3","3","4","4","2","4","4","4","4","4","4","4","2","2","2","2","2","2","2","4","2","1","1","1","0","1","0","0","0","0","0","0","0","0","0","1","5","1","4","1","1","2","2","4","4","1","766049476896100353","张","569","","","","match","","","","","","","","","","","","","","key","j","33.324216666666324","764","354","f","false","nonmatch","img/ellipse.png","梯形","椭圆","ALT1_1","prac_ALT1_1","","","","","","","","","",""
"null","<span style='color:red; font-size: 70px;'>错误! </span>","null","html-keyboard-response","42","188327","0.0-7.0-0.0-1.0-0.0-1.16","3","3","4","3","3","3","3","3","3","3","4","4","2","4","4","4","4","4","4","4","2","2","2","2","2","2","2","4","2","1","1","1","0","1","0","0","0","0","0","0","0","0","0","1","5","1","4","1","1","2","2","4","4","1","766049476896100353","张","569","","","","","","","","","","","","","","","","","","","","","","","","","","","","","","feedback_test","","","","","","","","","",""
"744","","j","psychophysics","43","190075","0.0-7.0-0.0-1.0-0.0-0.17","3","3","4","3","3","3","3","3","3","3","4","4","2","4","4","4","4","4","4","4","2","2","2","2","2","2","2","4","2","1","1","1","0","1","0","0","0","0","0","0","0","0","0","1","5","1","4","1","1","2","2","4","4","1","766049476896100353","张","569","","","","match","","","","","","","","","","","","","","key","j","33.32803921568591","764","354","f","false","nonmatch","img/ellipse.png","三角","椭圆","ALT1_1","prac_ALT1_1","","","","","","","","","",""
"null","<span style='color:red; font-size: 70px;'>错误! </span>","null","html-keyboard-response","44","190581","0.0-7.0-0.0-1.0-0.0-1.17","3","3","4","3","3","3","3","3","3","3","4","4","2","4","4","4","4","4","4","4","2","2","2","2","2","2","2","4","2","1","1","1","0","1","0","0","0","0","0","0","0","0","0","1","5","1","4","1","1","2","2","4","4","1","766049476896100353","张","569","","","","","","","","","","","","","","","","","","","","","","","","","","","","","","feedback_test","","","","","","","","","",""
"887","","j","psychophysics","45","192480","0.0-7.0-0.0-1.0-0.0-0.18","3","3","4","3","3","3","3","3","3","3","4","4","2","4","4","4","4","4","4","4","2","2","2","2","2","2","2","4","2","1","1","1","0","1","0","0","0","0","0","0","0","0","0","1","5","1","4","1","1","2","2","4","4","1","766049476896100353","张","569","","","","match","","","","","","","","","","","","","","key","j","33.32673214285699","764","354","f","false","nonmatch","img/trapezoid.png","五边","梯形","ALT1_1","prac_ALT1_1","","","","","","","","","",""
"null","<span style='color:red; font-size: 70px;'>错误! </span>","null","html-keyboard-response","46","193831","0.0-7.0-0.0-1.0-0.0-1.18","3","3","4","3","3","3","3","3","3","3","4","4","2","4","4","4","4","4","4","4","2","2","2","2","2","2","2","4","2","1","1","1","0","1","0","0","0","0","0","0","0","0","0","1","5","1","4","1","1","2","2","4","4","1","766049476896100353","张","569","","","","","","","","","","","","","","","","","","","","","","","","","","","","","","feedback_test","","","","","","","","","",""
"null","","null","psychophysics","47","196047","0.0-7.0-0.0-1.0-0.0-0.19","3","3","4","3","3","3","3","3","3","3","4","4","2","4","4","4","4","4","4","4","2","2","2","2","2","2","2","4","2","1","1","1","0","1","0","0","0","0","0","0","0","0","0","1","5","1","4","1","1","2","2","4","4","1","766049476896100353","张","569","","","","null","","","","","","","","","","","","","","key","null","33.326138461538804","764","354","f","false","nonmatch","img/pentagon.png","椭圆","五边","ALT1_1","prac_ALT1_1","","","","","","","","","",""
"null","<span class='add_' style='color:yellow; font-size: 70px;'> 太慢! </span>","null","html-keyboard-response","48","196553","0.0-7.0-0.0-1.0-0.0-1.19","3","3","4","3","3","3","3","3","3","3","4","4","2","4","4","4","4","4","4","4","2","2","2","2","2","2","2","4","2","1","1","1","0","1","0","0","0","0","0","0","0","0","0","1","5","1","4","1","1","2","2","4","4","1","766049476896100353","张","569","","","","","","","","","","","","","","","","","","","","","","","","","","","","","","feedback_test","","","","","","","","","",""
"596","","f","psychophysics","49","198155","0.0-7.0-0.0-1.0-0.0-0.20","3","3","4","3","3","3","3","3","3","3","4","4","2","4","4","4","4","4","4","4","2","2","2","2","2","2","2","4","2","1","1","1","0","1","0","0","0","0","0","0","0","0","0","1","5","1","4","1","1","2","2","4","4","1","766049476896100353","张","569","","","","nonmatch","","","","","","","","","","","","","","key","f","33.327765957446786","764","354","j","false","match","img/pentagon.png","五边","五边","ALT1_1","prac_ALT1_1","","","","","","","","","",""
"null","<span style='color:red; font-size: 70px;'>错误! </span>","null","html-keyboard-response","50","198665","0.0-7.0-0.0-1.0-0.0-1.20","3","3","4","3","3","3","3","3","3","3","4","4","2","4","4","4","4","4","4","4","2","2","2","2","2","2","2","4","2","1","1","1","0","1","0","0","0","0","0","0","0","0","0","1","5","1","4","1","1","2","2","4","4","1","766049476896100353","张","569","","","","","","","","","","","","","","","","","","","","","","","","","","","","","","feedback_test","","","","","","","","","",""
"467","","j","psychophysics","51","200145","0.0-7.0-0.0-1.0-0.0-0.21","3","3","4","3","3","3","3","3","3","3","4","4","2","4","4","4","4","4","4","4","2","2","2","2","2","2","2","4","2","1","1","1","0","1","0","0","0","0","0","0","0","0","0","1","5","1","4","1","1","2","2","4","4","1","766049476896100353","张","569","","","","match","","","","","","","","","","","","","","key","j","33.322720930232734","764","354","j","true","match","img/triangle.png","三角","三角","ALT1_1","prac_ALT1_1","","","","","","","","","",""
"null","<span style='color:GreenYellow; font-size: 70px;'>正确! </span>","null","html-keyboard-response","52","200839","0.0-7.0-0.0-1.0-0.0-1.21","3","3","4","3","3","3","3","3","3","3","4","4","2","4","4","4","4","4","4","4","2","2","2","2","2","2","2","4","2","1","1","1","0","1","0","0","0","0","0","0","0","0","0","1","5","1","4","1","1","2","2","4","4","1","766049476896100353","张","569","","","","","","","","","","","","","","","","","","","","","","","","","","","","","","feedback_test","","","","","","","","","",""
"null","","null","psychophysics","53","203047","0.0-7.0-0.0-1.0-0.0-0.22","3","3","4","3","3","3","3","3","3","3","4","4","2","4","4","4","4","4","4","4","2","2","2","2","2","2","2","4","2","1","1","1","0","1","0","0","0","0","0","0","0","0","0","1","5","1","4","1","1","2","2","4","4","1","766049476896100353","张","569","","","","null","","","","","","","","","","","","","","key","null","33.31946153846175","764","354","f","false","nonmatch","img/ellipse.png","五边","椭圆","ALT1_1","prac_ALT1_1","","","","","","","","","",""
"null","<span class='add_' style='color:yellow; font-size: 70px;'> 太慢! </span>","null","html-keyboard-response","54","203556","0.0-7.0-0.0-1.0-0.0-1.22","3","3","4","3","3","3","3","3","3","3","4","4","2","4","4","4","4","4","4","4","2","2","2","2","2","2","2","4","2","1","1","1","0","1","0","0","0","0","0","0","0","0","0","1","5","1","4","1","1","2","2","4","4","1","766049476896100353","张","569","","","","","","","","","","","","","","","","","","","","","","","","","","","","","","feedback_test","","","","","","","","","",""
"493","","f","psychophysics","55","205055","0.0-7.0-0.0-1.0-0.0-0.23","3","3","4","3","3","3","3","3","3","3","4","4","2","4","4","4","4","4","4","4","2","2","2","2","2","2","2","4","2","1","1","1","0","1","0","0","0","0","0","0","0","0","0","1","5","1","4","1","1","2","2","4","4","1","766049476896100353","张","569","","","","nonmatch","","","","","","","","","","","","","","key","f","33.32713636363637","764","354","j","false","match","img/trapezoid.png","梯形","梯形","ALT1_1","prac_ALT1_1","","","","","","","","","",""
"null","<span style='color:red; font-size: 70px;'>错误! </span>","null","html-keyboard-response","56","205569","0.0-7.0-0.0-1.0-0.0-1.23","3","3","4","3","3","3","3","3","3","3","4","4","2","4","4","4","4","4","4","4","2","2","2","2","2","2","2","4","2","1","1","1","0","1","0","0","0","0","0","0","0","0","0","1","5","1","4","1","1","2","2","4","4","1","766049476896100353","张","569","","","","","","","","","","","","","","","","","","","","","","","","","","","","","","feedback_test","","","","","","","","","",""
"1045","","j","psychophysics","57","207620","0.0-7.0-0.0-1.0-0.0-0.24","3","3","4","3","3","3","3","3","3","3","4","4","2","4","4","4","4","4","4","4","2","2","2","2","2","2","2","4","2","1","1","1","0","1","0","0","0","0","0","0","0","0","0","1","5","1","4","1","1","2","2","4","4","1","766049476896100353","张","569","","","","match","","","","","","","","","","","","","","key","j","33.32398333333355","764","354","j","true","match","img/triangle.png","三角","三角","ALT1_1","prac_ALT1_1","","","","","","","","","",""
"null","<span style='color:GreenYellow; font-size: 70px;'>正确! </span>","null","html-keyboard-response","58","208128","0.0-7.0-0.0-1.0-0.0-1.24","3","3","4","3","3","3","3","3","3","3","4","4","2","4","4","4","4","4","4","4","2","2","2","2","2","2","2","4","2","1","1","1","0","1","0","0","0","0","0","0","0","0","0","1","5","1","4","1","1","2","2","4","4","1","766049476896100353","张","569","","","","","","","","","","","","","","","","","","","","","","","","","","","","","","feedback_test","","","","","","","","","",""
"978","","f","psychophysics","59","210109","0.0-7.0-0.0-1.0-0.0-0.25","3","3","4","3","3","3","3","3","3","3","4","4","2","4","4","4","4","4","4","4","2","2","2","2","2","2","2","4","2","1","1","1","0","1","0","0","0","0","0","0","0","0","0","1","5","1","4","1","1","2","2","4","4","1","766049476896100353","张","569","","","","nonmatch","","","","","","","","","","","","","","key","f","33.31967241379306","764","354","j","false","match","img/trapezoid.png","梯形","梯形","ALT1_1","prac_ALT1_1","","","","","","","","","",""
"null","<span style='color:red; font-size: 70px;'>错误! </span>","null","html-keyboard-response","60","210621","0.0-7.0-0.0-1.0-0.0-1.25","3","3","4","3","3","3","3","3","3","3","4","4","2","4","4","4","4","4","4","4","2","2","2","2","2","2","2","4","2","1","1","1","0","1","0","0","0","0","0","0","0","0","0","1","5","1","4","1","1","2","2","4","4","1","766049476896100353","张","569","","","","","","","","","","","","","","","","","","","","","","","","","","","","","","feedback_test","","","","","","","","","",""
"707","","j","psychophysics","61","212333","0.0-7.0-0.0-1.0-0.0-0.26","3","3","4","3","3","3","3","3","3","3","4","4","2","4","4","4","4","4","4","4","2","2","2","2","2","2","2","4","2","1","1","1","0","1","0","0","0","0","0","0","0","0","0","1","5","1","4","1","1","2","2","4","4","1","766049476896100353","张","569","","","","match","","","","","","","","","","","","","","key","j","33.328420000000044","764","354","f","false","nonmatch","img/triangle.png","梯形","三角","ALT1_1","prac_ALT1_1","","","","","","","","","",""
"null","<span style='color:red; font-size: 70px;'>错误! </span>","null","html-keyboard-response","62","213837","0.0-7.0-0.0-1.0-0.0-1.26","3","3","4","3","3","3","3","3","3","3","4","4","2","4","4","4","4","4","4","4","2","2","2","2","2","2","2","4","2","1","1","1","0","1","0","0","0","0","0","0","0","0","0","1","5","1","4","1","1","2","2","4","4","1","766049476896100353","张","569","","","","","","","","","","","","","","","","","","","","","","","","","","","","","","feedback_test","","","","","","","","","",""
"565","","f","psychophysics","63","216401","0.0-7.0-0.0-1.0-0.0-0.27","3","3","4","3","3","3","3","3","3","3","4","4","2","4","4","4","4","4","4","4","2","2","2","2","2","2","2","4","2","1","1","1","0","1","0","0","0","0","0","0","0","0","0","1","5","1","4","1","1","2","2","4","4","1","766049476896100353","张","569","","","","nonmatch","","","","","","","","","","","","","","key","f","33.326131578947276","764","354","f","true","nonmatch","img/pentagon.png","椭圆","五边","ALT1_1","prac_ALT1_1","","","","","","","","","",""
"null","<span style='color:GreenYellow; font-size: 70px;'>正确! </span>","null","html-keyboard-response","64","216914","0.0-7.0-0.0-1.0-0.0-1.27","3","3","4","3","3","3","3","3","3","3","4","4","2","4","4","4","4","4","4","4","2","2","2","2","2","2","2","4","2","1","1","1","0","1","0","0","0","0","0","0","0","0","0","1","5","1","4","1","1","2","2","4","4","1","766049476896100353","张","569","","","","","","","","","","","","","","","","","","","","","","","","","","","","","","feedback_test","","","","","","","","","",""
"947","","f","psychophysics","65","218866","0.0-7.0-0.0-1.0-0.0-0.28","3","3","4","3","3","3","3","3","3","3","4","4","2","4","4","4","4","4","4","4","2","2","2","2","2","2","2","4","2","1","1","1","0","1","0","0","0","0","0","0","0","0","0","1","5","1","4","1","1","2","2","4","4","1","766049476896100353","张","569","","","","nonmatch","","","","","","","","","","","","","","key","f","33.32777192982439","764","354","f","true","nonmatch","img/pentagon.png","三角","五边","ALT1_1","prac_ALT1_1","","","","","","","","","",""
"null","<span style='color:GreenYellow; font-size: 70px;'>正确! </span>","null","html-keyboard-response","66","219370","0.0-7.0-0.0-1.0-0.0-1.28","3","3","4","3","3","3","3","3","3","3","4","4","2","4","4","4","4","4","4","4","2","2","2","2","2","2","2","4","2","1","1","1","0","1","0","0","0","0","0","0","0","0","0","1","5","1","4","1","1","2","2","4","4","1","766049476896100353","张","569","","","","","","","","","","","","","","","","","","","","","","","","","","","","","","feedback_test","","","","","","","","","",""
"891","","f","psychophysics","67","221267","0.0-7.0-0.0-1.0-0.0-0.29","3","3","4","3","3","3","3","3","3","3","4","4","2","4","4","4","4","4","4","4","2","2","2","2","2","2","2","4","2","1","1","1","0","1","0","0","0","0","0","0","0","0","0","1","5","1","4","1","1","2","2","4","4","1","766049476896100353","张","569","","","","nonmatch","","","","","","","","","","","","","","key","f","33.322428571428254","764","354","j","false","match","img/trapezoid.png","梯形","梯形","ALT1_1","prac_ALT1_1","","","","","","","","","",""
"null","<span style='color:red; font-size: 70px;'>错误! </span>","null","html-keyboard-response","68","221772","0.0-7.0-0.0-1.0-0.0-1.29","3","3","4","3","3","3","3","3","3","3","4","4","2","4","4","4","4","4","4","4","2","2","2","2","2","2","2","4","2","1","1","1","0","1","0","0","0","0","0","0","0","0","0","1","5","1","4","1","1","2","2","4","4","1","766049476896100353","张","569","","","","","","","","","","","","","","","","","","","","","","","","","","","","","","feedback_test","","","","","","","","","",""
"819","","j","psychophysics","69","223597","0.0-7.0-0.0-1.0-0.0-0.30","3","3","4","3","3","3","3","3","3","3","4","4","2","4","4","4","4","4","4","4","2","2","2","2","2","2","2","4","2","1","1","1","0","1","0","0","0","0","0","0","0","0","0","1","5","1","4","1","1","2","2","4","4","1","766049476896100353","张","569","","","","match","","","","","","","","","","","","","","key","j","33.32707407407428","764","354","f","false","nonmatch","img/triangle.png","五边","三角","ALT1_1","prac_ALT1_1","","","","","","","","","",""
"null","<span style='color:red; font-size: 70px;'>错误! </span>","null","html-keyboard-response","70","224102","0.0-7.0-0.0-1.0-0.0-1.30","3","3","4","3","3","3","3","3","3","3","4","4","2","4","4","4","4","4","4","4","2","2","2","2","2","2","2","4","2","1","1","1","0","1","0","0","0","0","0","0","0","0","0","1","5","1","4","1","1","2","2","4","4","1","766049476896100353","张","569","","","","","","","","","","","","","","","","","","","","","","","","","","","","","","feedback_test","","","","","","","","","",""
"681","","j","psychophysics","71","225787","0.0-7.0-0.0-1.0-0.0-0.31","3","3","4","3","3","3","3","3","3","3","4","4","2","4","4","4","4","4","4","4","2","2","2","2","2","2","2","4","2","1","1","1","0","1","0","0","0","0","0","0","0","0","0","1","5","1","4","1","1","2","2","4","4","1","766049476896100353","张","569","","","","match","","","","","","","","","","","","","","key","j","33.474265306122476","764","354","j","true","match","img/pentagon.png","五边","五边","ALT1_1","prac_ALT1_1","","","","","","","","","",""
"null","<span style='color:GreenYellow; font-size: 70px;'>正确! </span>","null","html-keyboard-response","72","226294","0.0-7.0-0.0-1.0-0.0-1.31","3","3","4","3","3","3","3","3","3","3","4","4","2","4","4","4","4","4","4","4","2","2","2","2","2","2","2","4","2","1","1","1","0","1","0","0","0","0","0","0","0","0","0","1","5","1","4","1","1","2","2","4","4","1","766049476896100353","张","569","","","","","","","","","","","","","","","","","","","","","","","","","","","","","","feedback_test","","","","","","","","","",""
"271","","f","psychophysics","73","228108","0.0-7.0-0.0-1.0-0.0-0.32","3","3","4","3","3","3","3","3","3","3","4","4","2","4","4","4","4","4","4","4","2","2","2","2","2","2","2","4","2","1","1","1","0","1","0","0","0","0","0","0","0","0","0","1","5","1","4","1","1","2","2","4","4","1","766049476896100353","张","569","","","","nonmatch","","","","","","","","","","","","","","key","f","33.32228301886803","764","354","j","false","match","img/triangle.png","三角","三角","ALT1_1","prac_ALT1_1","","","","","","","","","",""
"null","<span style='color:red; font-size: 70px;'>错误! </span>","null","html-keyboard-response","74","228612","0.0-7.0-0.0-1.0-0.0-1.32","3","3","4","3","3","3","3","3","3","3","4","4","2","4","4","4","4","4","4","4","2","2","2","2","2","2","2","4","2","1","1","1","0","1","0","0","0","0","0","0","0","0","0","1","5","1","4","1","1","2","2","4","4","1","766049476896100353","张","569","","","","","","","","","","","","","","","","","","","","","","","","","","","","","","feedback_test","","","","","","","","","",""
"1022","","f","psychophysics","75","230642","0.0-7.0-0.0-1.0-0.0-0.33","3","3","4","3","3","3","3","3","3","3","4","4","2","4","4","4","4","4","4","4","2","2","2","2","2","2","2","4","2","1","1","1","0","1","0","0","0","0","0","0","0","0","0","1","5","1","4","1","1","2","2","4","4","1","766049476896100353","张","569","","","","nonmatch","","","","","","","","","","","","","","key","f","33.32385000000019","764","354","f","true","nonmatch","img/pentagon.png","梯形","五边","ALT1_1","prac_ALT1_1","","","","","","","","","",""
"null","<span style='color:GreenYellow; font-size: 70px;'>正确! </span>","null","html-keyboard-response","76","231149","0.0-7.0-0.0-1.0-0.0-1.33","3","3","4","3","3","3","3","3","3","3","4","4","2","4","4","4","4","4","4","4","2","2","2","2","2","2","2","4","2","1","1","1","0","1","0","0","0","0","0","0","0","0","0","1","5","1","4","1","1","2","2","4","4","1","766049476896100353","张","569","","","","","","","","","","","","","","","","","","","","","","","","","","","","","","feedback_test","","","","","","","","","",""
"1162","","f","psychophysics","77","233322","0.0-7.0-0.0-1.0-0.0-0.34","3","3","4","3","3","3","3","3","3","3","4","4","2","4","4","4","4","4","4","4","2","2","2","2","2","2","2","4","2","1","1","1","0","1","0","0","0","0","0","0","0","0","0","1","5","1","4","1","1","2","2","4","4","1","766049476896100353","张","569","","","","nonmatch","","","","","","","","","","","","","","key","f","33.32748437500004","764","354","f","true","nonmatch","img/trapezoid.png","椭圆","梯形","ALT1_1","prac_ALT1_1","","","","","","","","","",""
"null","<span style='color:GreenYellow; font-size: 70px;'>正确! </span>","null","html-keyboard-response","78","233829","0.0-7.0-0.0-1.0-0.0-1.34","3","3","4","3","3","3","3","3","3","3","4","4","2","4","4","4","4","4","4","4","2","2","2","2","2","2","2","4","2","1","1","1","0","1","0","0","0","0","0","0","0","0","0","1","5","1","4","1","1","2","2","4","4","1","766049476896100353","张","569","","","","","","","","","","","","","","","","","","","","","","","","","","","","","","feedback_test","","","","","","","","","",""
"760","","j","psychophysics","79","235594","0.0-7.0-0.0-1.0-0.0-0.35","3","3","4","3","3","3","3","3","3","3","4","4","2","4","4","4","4","4","4","4","2","2","2","2","2","2","2","4","2","1","1","1","0","1","0","0","0","0","0","0","0","0","0","1","5","1","4","1","1","2","2","4","4","1","766049476896100353","张","569","","","","match","","","","","","","","","","","","","","key","j","33.3284999999999","764","354","j","true","match","img/ellipse.png","椭圆","椭圆","ALT1_1","prac_ALT1_1","","","","","","","","","",""
"null","<span style='color:GreenYellow; font-size: 70px;'>正确! </span>","null","html-keyboard-response","80","236098","0.0-7.0-0.0-1.0-0.0-1.35","3","3","4","3","3","3","3","3","3","3","4","4","2","4","4","4","4","4","4","4","2","2","2","2","2","2","2","4","2","1","1","1","0","1","0","0","0","0","0","0","0","0","0","1","5","1","4","1","1","2","2","4","4","1","766049476896100353","张","569","","","","","","","","","","","","","","","","","","","","","","","","","","","","","","feedback_test","","","","","","","","","",""
"691","","j","psychophysics","81","237793","0.0-7.0-0.0-1.0-0.0-0.36","3","3","4","3","3","3","3","3","3","3","4","4","2","4","4","4","4","4","4","4","2","2","2","2","2","2","2","4","2","1","1","1","0","1","0","0","0","0","0","0","0","0","0","1","5","1","4","1","1","2","2","4","4","1","766049476896100353","张","569","","","","match","","","","","","","","","","","","","","key","j","33.29988000000012","764","354","j","true","match","img/ellipse.png","椭圆","椭圆","ALT1_1","prac_ALT1_1","","","","","","","","","",""
"null","<span style='color:GreenYellow; font-size: 70px;'>正确! </span>","null","html-keyboard-response","82","238300","0.0-7.0-0.0-1.0-0.0-1.36","3","3","4","3","3","3","3","3","3","3","4","4","2","4","4","4","4","4","4","4","2","2","2","2","2","2","2","4","2","1","1","1","0","1","0","0","0","0","0","0","0","0","0","1","5","1","4","1","1","2","2","4","4","1","766049476896100353","张","569","","","","","","","","","","","","","","","","","","","","","","","","","","","","","","feedback_test","","","","","","","","","",""
"398","","j","psychophysics","83","240231","0.0-7.0-0.0-1.0-0.0-0.37","3","3","4","3","3","3","3","3","3","3","4","4","2","4","4","4","4","4","4","4","2","2","2","2","2","2","2","4","2","1","1","1","0","1","0","0","0","0","0","0","0","0","0","1","5","1","4","1","1","2","2","4","4","1","766049476896100353","张","569","","","","match","","","","","","","","","","","","","","key","j","33.324192982456005","764","354","j","true","match","img/triangle.png","三角","三角","ALT1_1","prac_ALT1_1","","","","","","","","","",""
"null","<span style='color:GreenYellow; font-size: 70px;'>正确! </span>","null","html-keyboard-response","84","240736","0.0-7.0-0.0-1.0-0.0-1.37","3","3","4","3","3","3","3","3","3","3","4","4","2","4","4","4","4","4","4","4","2","2","2","2","2","2","2","4","2","1","1","1","0","1","0","0","0","0","0","0","0","0","0","1","5","1","4","1","1","2","2","4","4","1","766049476896100353","张","569","","","","","","","","","","","","","","","","","","","","","","","","","","","","","","feedback_test","","","","","","","","","",""
"740","","f","psychophysics","85","242487","0.0-7.0-0.0-1.0-0.0-0.38","3","3","4","3","3","3","3","3","3","3","4","4","2","4","4","4","4","4","4","4","2","2","2","2","2","2","2","4","2","1","1","1","0","1","0","0","0","0","0","0","0","0","0","1","5","1","4","1","1","2","2","4","4","1","766049476896100353","张","569","","","","nonmatch","","","","","","","","","","","","","","key","f","33.32694117647057","764","354","f","true","nonmatch","img/trapezoid.png","三角","梯形","ALT1_1","prac_ALT1_1","","","","","","","","","",""
"null","<span style='color:GreenYellow; font-size: 70px;'>正确! </span>","null","html-keyboard-response","86","242994","0.0-7.0-0.0-1.0-0.0-1.38","3","3","4","3","3","3","3","3","3","3","4","4","2","4","4","4","4","4","4","4","2","2","2","2","2","2","2","4","2","1","1","1","0","1","0","0","0","0","0","0","0","0","0","1","5","1","4","1","1","2","2","4","4","1","766049476896100353","张","569","","","","","","","","","","","","","","","","","","","","","","","","","","","","","","feedback_test","","","","","","","","","",""
"936","","j","psychophysics","87","244934","0.0-7.0-0.0-1.0-0.0-0.39","3","3","4","3","3","3","3","3","3","3","4","4","2","4","4","4","4","4","4","4","2","2","2","2","2","2","2","4","2","1","1","1","0","1","0","0","0","0","0","0","0","0","0","1","5","1","4","1","1","2","2","4","4","1","766049476896100353","张","569","","","","match","","","","","","","","","","","","","","key","j","33.32368421052601","764","354","j","true","match","img/pentagon.png","五边","五边","ALT1_1","prac_ALT1_1","","","","","","","","","",""
"null","<span style='color:GreenYellow; font-size: 70px;'>正确! </span>","null","html-keyboard-response","88","245831","0.0-7.0-0.0-1.0-0.0-1.39","3","3","4","3","3","3","3","3","3","3","4","4","2","4","4","4","4","4","4","4","2","2","2","2","2","2","2","4","2","1","1","1","0","1","0","0","0","0","0","0","0","0","0","1","5","1","4","1","1","2","2","4","4","1","766049476896100353","张","569","","","","","","","","","","","","","","","","","","","","","","","","","","","","","","feedback_test","","","","","","","","","",""
"null","","null","psychophysics","89","248047","0.0-7.0-0.0-1.0-0.0-0.40","3","3","4","3","3","3","3","3","3","3","4","4","2","4","4","4","4","4","4","4","2","2","2","2","2","2","2","4","2","1","1","1","0","1","0","0","0","0","0","0","0","0","0","1","5","1","4","1","1","2","2","4","4","1","766049476896100353","张","569","","","","null","","","","","","","","","","","","","","key","null","33.32276923076894","764","354","f","false","nonmatch","img/ellipse.png","梯形","椭圆","ALT1_1","prac_ALT1_1","","","","","","","","","",""
"null","<span class='add_' style='color:yellow; font-size: 70px;'> 太慢! </span>","null","html-keyboard-response","90","248555","0.0-7.0-0.0-1.0-0.0-1.40","3","3","4","3","3","3","3","3","3","3","4","4","2","4","4","4","4","4","4","4","2","2","2","2","2","2","2","4","2","1","1","1","0","1","0","0","0","0","0","0","0","0","0","1","5","1","4","1","1","2","2","4","4","1","766049476896100353","张","569","","","","","","","","","","","","","","","","","","","","","","","","","","","","","","feedback_test","","","","","","","","","",""
"729","","j","psychophysics","91","250290","0.0-7.0-0.0-1.0-0.0-0.41","3","3","4","3","3","3","3","3","3","3","4","4","2","4","4","4","4","4","4","4","2","2","2","2","2","2","2","4","2","1","1","1","0","1","0","0","0","0","0","0","0","0","0","1","5","1","4","1","1","2","2","4","4","1","766049476896100353","张","569","","","","match","","","","","","","","","","","","","","key","j","33.32362745098048","764","354","f","false","nonmatch","img/ellipse.png","五边","椭圆","ALT1_1","prac_ALT1_1","","","","","","","","","",""
"null","<span style='color:red; font-size: 70px;'>错误! </span>","null","html-keyboard-response","92","250801","0.0-7.0-0.0-1.0-0.0-1.41","3","3","4","3","3","3","3","3","3","3","4","4","2","4","4","4","4","4","4","4","2","2","2","2","2","2","2","4","2","1","1","1","0","1","0","0","0","0","0","0","0","0","0","1","5","1","4","1","1","2","2","4","4","1","766049476896100353","张","569","","","","","","","","","","","","","","","","","","","","","","","","","","","","","","feedback_test","","","","","","","","","",""
"830","","f","psychophysics","93","252642","0.0-7.0-0.0-1.0-0.0-0.42","3","3","4","3","3","3","3","3","3","3","4","4","2","4","4","4","4","4","4","4","2","2","2","2","2","2","2","4","2","1","1","1","0","1","0","0","0","0","0","0","0","0","0","1","5","1","4","1","1","2","2","4","4","1","766049476896100353","张","569","","","","nonmatch","","","","","","","","","","","","","","key","f","33.32712962962924","764","354","j","false","match","img/ellipse.png","椭圆","椭圆","ALT1_1","prac_ALT1_1","","","","","","","","","",""
"null","<span style='color:red; font-size: 70px;'>错误! </span>","null","html-keyboard-response","94","253150","0.0-7.0-0.0-1.0-0.0-1.42","3","3","4","3","3","3","3","3","3","3","4","4","2","4","4","4","4","4","4","4","2","2","2","2","2","2","2","4","2","1","1","1","0","1","0","0","0","0","0","0","0","0","0","1","5","1","4","1","1","2","2","4","4","1","766049476896100353","张","569","","","","","","","","","","","","","","","","","","","","","","","","","","","","","","feedback_test","","","","","","","","","",""
"873","","j","psychophysics","95","255032","0.0-7.0-0.0-1.0-0.0-0.43","3","3","4","3","3","3","3","3","3","3","4","4","2","4","4","4","4","4","4","4","2","2","2","2","2","2","2","4","2","1","1","1","0","1","0","0","0","0","0","0","0","0","0","1","5","1","4","1","1","2","2","4","4","1","766049476896100353","张","569","","","","match","","","","","","","","","","","","","","key","j","33.327181818181735","764","354","f","false","nonmatch","img/triangle.png","椭圆","三角","ALT1_1","prac_ALT1_1","","","","","","","","","",""
"null","<span style='color:red; font-size: 70px;'>错误! </span>","null","html-keyboard-response","96","255540","0.0-7.0-0.0-1.0-0.0-1.43","3","3","4","3","3","3","3","3","3","3","4","4","2","4","4","4","4","4","4","4","2","2","2","2","2","2","2","4","2","1","1","1","0","1","0","0","0","0","0","0","0","0","0","1","5","1","4","1","1","2","2","4","4","1","766049476896100353","张","569","","","","","","","","","","","","","","","","","","","","","","","","","","","","","","feedback_test","","","","","","","","","",""
"893","","f","psychophysics","97","257440","0.0-7.0-0.0-1.0-0.0-0.44","3","3","4","3","3","3","3","3","3","3","4","4","2","4","4","4","4","4","4","4","2","2","2","2","2","2","2","4","2","1","1","1","0","1","0","0","0","0","0","0","0","0","0","1","5","1","4","1","1","2","2","4","4","1","766049476896100353","张","569","","","","nonmatch","","","","","","","","","","","","","","key","f","33.32910714285702","764","354","j","false","match","img/trapezoid.png","梯形","梯形","ALT1_1","prac_ALT1_1","","","","","","","","","",""
"null","<span style='color:red; font-size: 70px;'>错误! </span>","null","html-keyboard-response","98","258835","0.0-7.0-0.0-1.0-0.0-1.44","3","3","4","3","3","3","3","3","3","3","4","4","2","4","4","4","4","4","4","4","2","2","2","2","2","2","2","4","2","1","1","1","0","1","0","0","0","0","0","0","0","0","0","1","5","1","4","1","1","2","2","4","4","1","766049476896100353","张","569","","","","","","","","","","","","","","","","","","","","","","","","","","","","","","feedback_test","","","","","","","","","",""
"null","","null","psychophysics","99","261056","0.0-7.0-0.0-1.0-0.0-0.45","3","3","4","3","3","3","3","3","3","3","4","4","2","4","4","4","4","4","4","4","2","2","2","2","2","2","2","4","2","1","1","1","0","1","0","0","0","0","0","0","0","0","0","1","5","1","4","1","1","2","2","4","4","1","766049476896100353","张","569","","","","null","","","","","","","","","","","","","","key","null","33.32359999999977","764","354","j","false","match","img/pentagon.png","五边","五边","ALT1_1","prac_ALT1_1","","","","","","","","","",""
"null","<span class='add_' style='color:yellow; font-size: 70px;'> 太慢! </span>","null","html-keyboard-response","100","261569","0.0-7.0-0.0-1.0-0.0-1.45","3","3","4","3","3","3","3","3","3","3","4","4","2","4","4","4","4","4","4","4","2","2","2","2","2","2","2","4","2","1","1","1","0","1","0","0","0","0","0","0","0","0","0","1","5","1","4","1","1","2","2","4","4","1","766049476896100353","张","569","","","","","","","","","","","","","","","","","","","","","","","","","","","","","","feedback_test","","","","","","","","","",""
"990","","j","psychophysics","101","263567","0.0-7.0-0.0-1.0-0.0-0.46","3","3","4","3","3","3","3","3","3","3","4","4","2","4","4","4","4","4","4","4","2","2","2","2","2","2","2","4","2","1","1","1","0","1","0","0","0","0","0","0","0","0","0","1","5","1","4","1","1","2","2","4","4","1","766049476896100353","张","569","","","","match","","","","","","","","","","","","","","key","j","33.32318644067746","764","354","f","false","nonmatch","img/trapezoid.png","五边","梯形","ALT1_1","prac_ALT1_1","","","","","","","","","",""
"null","<span style='color:red; font-size: 70px;'>错误! </span>","null","html-keyboard-response","102","264079","0.0-7.0-0.0-1.0-0.0-1.46","3","3","4","3","3","3","3","3","3","3","4","4","2","4","4","4","4","4","4","4","2","2","2","2","2","2","2","4","2","1","1","1","0","1","0","0","0","0","0","0","0","0","0","1","5","1","4","1","1","2","2","4","4","1","766049476896100353","张","569","","","","","","","","","","","","","","","","","","","","","","","","","","","","","","feedback_test","","","","","","","","","",""
"840","","f","psychophysics","103","265931","0.0-7.0-0.0-1.0-0.0-0.47","3","3","4","3","3","3","3","3","3","3","4","4","2","4","4","4","4","4","4","4","2","2","2","2","2","2","2","4","2","1","1","1","0","1","0","0","0","0","0","0","0","0","0","1","5","1","4","1","1","2","2","4","4","1","766049476896100353","张","569","","","","nonmatch","","","","","","","","","","","","","","key","f","33.32781481481464","764","354","f","true","nonmatch","img/ellipse.png","三角","椭圆","ALT1_1","prac_ALT1_1","","","","","","","","","",""
"null","<span style='color:GreenYellow; font-size: 70px;'>正确! </span>","null","html-keyboard-response","104","266443","0.0-7.0-0.0-1.0-0.0-1.47","3","3","4","3","3","3","3","3","3","3","4","4","2","4","4","4","4","4","4","4","2","2","2","2","2","2","2","4","2","1","1","1","0","1","0","0","0","0","0","0","0","0","0","1","5","1","4","1","1","2","2","4","4","1","766049476896100353","张","569","","","","","","","","","","","","","","","","","","","","","","","","","","","","","","feedback_test","","","","","","","","","",""
"44410","<style>.context{color:white; font-size: 35px; line-height:40px}</style>                            <div><p class='context'>您正确回答了35% 的试次。</p><p class='context'>您的平均反应时为799毫秒。</p><p class='context'>按空格键继续。</p></div>"," ","html-keyboard-response","105","310859","0.0-7.0-0.0-1.0-1.0-0.0","3","3","4","3","3","3","3","3","3","3","4","4","2","4","4","4","4","4","4","4","2","2","2","2","2","2","2","4","2","1","1","1","0","1","0","0","0","0","0","0","0","0","0","1","5","1","4","1","1","2","2","4","4","1","766049476896100353","张","569","","","","","","","","","","","","","","","","","","","","","","","","","","","","","","","","","","","","","","","",""
"42253","","","instructions","106","353120","0.0-7.0-0.0-1.0-1.0-1.0","3","3","4","3","3","3","3","3","3","3","4","4","2","4","4","4","4","4","4","4","2","2","2","2","2","2","2","4","2","1","1","1","0","1","0","0","0","0","0","0","0","0","0","1","5","1","4","1","1","2","2","4","4","1","766049476896100353","张","569","","","","","","","","","","","","","","","","","[{""page_index"":0,""viewing_time"":11670},{""page_index"":1,""viewing_time"":4780},{""page_index"":0,""viewing_time"":1808},{""page_index"":1,""viewing_time"":17490},{""page_index"":2,""viewing_time"":3647},{""page_index"":1,""viewing_time"":1887},{""page_index"":2,""viewing_time"":970}]","","","","","","","","","","","","","","","","","","","","","","",""
"909","","f","psychophysics","107","355033","0.0-7.0-0.0-1.1-0.1-0.48","3","3","4","3","3","3","3","3","3","3","4","4","2","4","4","4","4","4","4","4","2","2","2","2","2","2","2","4","2","1","1","1","0","1","0","0","0","0","0","0","0","0","0","1","5","1","4","1","1","2","2","4","4","1","766049476896100353","张","569","","","","nonmatch","","","","","","","","","","","","","","key","f","33.32642857142803","764","354","f","true","nonmatch","img/trapezoid.png","椭圆","梯形","ALT1_1","prac_ALT1_1","","","","","","","","","",""
"null","<span style='color:GreenYellow; font-size: 70px;'>正确! </span>","null","html-keyboard-response","108","355543","0.0-7.0-0.0-1.1-0.1-1.48","3","3","4","3","3","3","3","3","3","3","4","4","2","4","4","4","4","4","4","4","2","2","2","2","2","2","2","4","2","1","1","1","0","1","0","0","0","0","0","0","0","0","0","1","5","1","4","1","1","2","2","4","4","1","766049476896100353","张","569","","","","","","","","","","","","","","","","","","","","","","","","","","","","","","feedback_test","","","","","","","","","",""
"646","","f","psychophysics","109","357191","0.0-7.0-0.0-1.1-0.1-0.49","3","3","4","3","3","3","3","3","3","3","4","4","2","4","4","4","4","4","4","4","2","2","2","2","2","2","2","4","2","1","1","1","0","1","0","0","0","0","0","0","0","0","0","1","5","1","4","1","1","2","2","4","4","1","766049476896100353","张","569","","","","nonmatch","","","","","","","","","","","","","","key","f","33.32574999999997","764","354","j","false","match","img/trapezoid.png","梯形","梯形","ALT1_1","prac_ALT1_1","","","","","","","","","",""
"null","<span style='color:red; font-size: 70px;'>错误! </span>","null","html-keyboard-response","110","357703","0.0-7.0-0.0-1.1-0.1-1.49","3","3","4","3","3","3","3","3","3","3","4","4","2","4","4","4","4","4","4","4","2","2","2","2","2","2","2","4","2","1","1","1","0","1","0","0","0","0","0","0","0","0","0","1","5","1","4","1","1","2","2","4","4","1","766049476896100353","张","569","","","","","","","","","","","","","","","","","","","","","","","","","","","","","","feedback_test","","","","","","","","","",""
"893","","f","psychophysics","111","359602","0.0-7.0-0.0-1.1-0.1-0.50","3","3","4","3","3","3","3","3","3","3","4","4","2","4","4","4","4","4","4","4","2","2","2","2","2","2","2","4","2","1","1","1","0","1","0","0","0","0","0","0","0","0","0","1","5","1","4","1","1","2","2","4","4","1","766049476896100353","张","569","","","","nonmatch","","","","","","","","","","","","","","key","f","33.332964285714425","764","354","f","true","nonmatch","img/pentagon.png","梯形","五边","ALT1_1","prac_ALT1_1","","","","","","","","","",""
"null","<span style='color:GreenYellow; font-size: 70px;'>正确! </span>","null","html-keyboard-response","112","360108","0.0-7.0-0.0-1.1-0.1-1.50","3","3","4","3","3","3","3","3","3","3","4","4","2","4","4","4","4","4","4","4","2","2","2","2","2","2","2","4","2","1","1","1","0","1","0","0","0","0","0","0","0","0","0","1","5","1","4","1","1","2","2","4","4","1","766049476896100353","张","569","","","","","","","","","","","","","","","","","","","","","","","","","","","","","","feedback_test","","","","","","","","","",""
"624","","j","psychophysics","113","361735","0.0-7.0-0.0-1.1-0.1-0.51","3","3","4","3","3","3","3","3","3","3","4","4","2","4","4","4","4","4","4","4","2","2","2","2","2","2","2","4","2","1","1","1","0","1","0","0","0","0","0","0","0","0","0","1","5","1","4","1","1","2","2","4","4","1","766049476896100353","张","569","","","","match","","","","","","","","","","","","","","key","j","33.327574468085274","764","354","f","false","nonmatch","img/pentagon.png","椭圆","五边","ALT1_1","prac_ALT1_1","","","","","","","","","",""
"null","<span style='color:red; font-size: 70px;'>错误! </span>","null","html-keyboard-response","114","362834","0.0-7.0-0.0-1.1-0.1-1.51","3","3","4","3","3","3","3","3","3","3","4","4","2","4","4","4","4","4","4","4","2","2","2","2","2","2","2","4","2","1","1","1","0","1","0","0","0","0","0","0","0","0","0","1","5","1","4","1","1","2","2","4","4","1","766049476896100353","张","569","","","","","","","","","","","","","","","","","","","","","","","","","","","","","","feedback_test","","","","","","","","","",""
"673","","j","psychophysics","115","364511","0.0-7.0-0.0-1.1-0.1-0.52","3","3","4","3","3","3","3","3","3","3","4","4","2","4","4","4","4","4","4","4","2","2","2","2","2","2","2","4","2","1","1","1","0","1","0","0","0","0","0","0","0","0","0","1","5","1","4","1","1","2","2","4","4","1","766049476896100353","张","569","","","","match","","","","","","","","","","","","","","key","j","33.32659183673404","764","354","f","false","nonmatch","img/triangle.png","梯形","三角","ALT1_1","prac_ALT1_1","","","","","","","","","",""
"null","<span style='color:red; font-size: 70px;'>错误! </span>","null","html-keyboard-response","116","365019","0.0-7.0-0.0-1.1-0.1-1.52","3","3","4","3","3","3","3","3","3","3","4","4","2","4","4","4","4","4","4","4","2","2","2","2","2","2","2","4","2","1","1","1","0","1","0","0","0","0","0","0","0","0","0","1","5","1","4","1","1","2","2","4","4","1","766049476896100353","张","569","","","","","","","","","","","","","","","","","","","","","","","","","","","","","","feedback_test","","","","","","","","","",""
"790","","j","psychophysics","117","366815","0.0-7.0-0.0-1.1-0.1-0.53","3","3","4","3","3","3","3","3","3","3","4","4","2","4","4","4","4","4","4","4","2","2","2","2","2","2","2","4","2","1","1","1","0","1","0","0","0","0","0","0","0","0","0","1","5","1","4","1","1","2","2","4","4","1","766049476896100353","张","569","","","","match","","","","","","","","","","","","","","key","j","33.32781132075492","764","354","j","true","match","img/triangle.png","三角","三角","ALT1_1","prac_ALT1_1","","","","","","","","","",""
"null","<span style='color:GreenYellow; font-size: 70px;'>正确! </span>","null","html-keyboard-response","118","367320","0.0-7.0-0.0-1.1-0.1-1.53","3","3","4","3","3","3","3","3","3","3","4","4","2","4","4","4","4","4","4","4","2","2","2","2","2","2","2","4","2","1","1","1","0","1","0","0","0","0","0","0","0","0","0","1","5","1","4","1","1","2","2","4","4","1","766049476896100353","张","569","","","","","","","","","","","","","","","","","","","","","","","","","","","","","","feedback_test","","","","","","","","","",""
"596","","f","psychophysics","119","368930","0.0-7.0-0.0-1.1-0.1-0.54","3","3","4","3","3","3","3","3","3","3","4","4","2","4","4","4","4","4","4","4","2","2","2","2","2","2","2","4","2","1","1","1","0","1","0","0","0","0","0","0","0","0","0","1","5","1","4","1","1","2","2","4","4","1","766049476896100353","张","569","","","","nonmatch","","","","","","","","","","","","","","key","f","33.286553191489226","764","354","f","true","nonmatch","img/trapezoid.png","三角","梯形","ALT1_1","prac_ALT1_1","","","","","","","","","",""
"null","<span style='color:GreenYellow; font-size: 70px;'>正确! </span>","null","html-keyboard-response","120","369434","0.0-7.0-0.0-1.1-0.1-1.54","3","3","4","3","3","3","3","3","3","3","4","4","2","4","4","4","4","4","4","4","2","2","2","2","2","2","2","4","2","1","1","1","0","1","0","0","0","0","0","0","0","0","0","1","5","1","4","1","1","2","2","4","4","1","766049476896100353","张","569","","","","","","","","","","","","","","","","","","","","","","","","","","","","","","feedback_test","","","","","","","","","",""
"472","","f","psychophysics","121","371310","0.0-7.0-0.0-1.1-0.1-0.55","3","3","4","3","3","3","3","3","3","3","4","4","2","4","4","4","4","4","4","4","2","2","2","2","2","2","2","4","2","1","1","1","0","1","0","0","0","0","0","0","0","0","0","1","5","1","4","1","1","2","2","4","4","1","766049476896100353","张","569","","","","nonmatch","","","","","","","","","","","","","","key","f","33.32883636363655","764","354","f","true","nonmatch","img/triangle.png","五边","三角","ALT1_1","prac_ALT1_1","","","","","","","","","",""
"null","<span style='color:GreenYellow; font-size: 70px;'>正确! </span>","null","html-keyboard-response","122","371825","0.0-7.0-0.0-1.1-0.1-1.55","3","3","4","3","3","3","3","3","3","3","4","4","2","4","4","4","4","4","4","4","2","2","2","2","2","2","2","4","2","1","1","1","0","1","0","0","0","0","0","0","0","0","0","1","5","1","4","1","1","2","2","4","4","1","766049476896100353","张","569","","","","","","","","","","","","","","","","","","","","","","","","","","","","","","feedback_test","","","","","","","","","",""
"827","","j","psychophysics","123","373664","0.0-7.0-0.0-1.1-0.1-0.56","3","3","4","3","3","3","3","3","3","3","4","4","2","4","4","4","4","4","4","4","2","2","2","2","2","2","2","4","2","1","1","1","0","1","0","0","0","0","0","0","0","0","0","1","5","1","4","1","1","2","2","4","4","1","766049476896100353","张","569","","","","match","","","","","","","","","","","","","","key","j","33.32703703703764","764","354","j","true","match","img/pentagon.png","五边","五边","ALT1_1","prac_ALT1_1","","","","","","","","","",""
"null","<span style='color:GreenYellow; font-size: 70px;'>正确! </span>","null","html-keyboard-response","124","374169","0.0-7.0-0.0-1.1-0.1-1.56","3","3","4","3","3","3","3","3","3","3","4","4","2","4","4","4","4","4","4","4","2","2","2","2","2","2","2","4","2","1","1","1","0","1","0","0","0","0","0","0","0","0","0","1","5","1","4","1","1","2","2","4","4","1","766049476896100353","张","569","","","","","","","","","","","","","","","","","","","","","","","","","","","","","","feedback_test","","","","","","","","","",""
"852","","f","psychophysics","125","376035","0.0-7.0-0.0-1.1-0.1-0.57","3","3","4","3","3","3","3","3","3","3","4","4","2","4","4","4","4","4","4","4","2","2","2","2","2","2","2","4","2","1","1","1","0","1","0","0","0","0","0","0","0","0","0","1","5","1","4","1","1","2","2","4","4","1","766049476896100353","张","569","","","","nonmatch","","","","","","","","","","","","","","key","f","33.32776363636367","764","354","f","true","nonmatch","img/ellipse.png","梯形","椭圆","ALT1_1","prac_ALT1_1","","","","","","","","","",""
"null","<span style='color:GreenYellow; font-size: 70px;'>正确! </span>","null","html-keyboard-response","126","376833","0.0-7.0-0.0-1.1-0.1-1.57","3","3","4","3","3","3","3","3","3","3","4","4","2","4","4","4","4","4","4","4","2","2","2","2","2","2","2","4","2","1","1","1","0","1","0","0","0","0","0","0","0","0","0","1","5","1","4","1","1","2","2","4","4","1","766049476896100353","张","569","","","","","","","","","","","","","","","","","","","","","","","","","","","","","","feedback_test","","","","","","","","","",""
"677","","j","psychophysics","127","378523","0.0-7.0-0.0-1.1-0.1-0.58","3","3","4","3","3","3","3","3","3","3","4","4","2","4","4","4","4","4","4","4","2","2","2","2","2","2","2","4","2","1","1","1","0","1","0","0","0","0","0","0","0","0","0","1","5","1","4","1","1","2","2","4","4","1","766049476896100353","张","569","","","","match","","","","","","","","","","","","","","key","j","33.32427999999956","764","354","f","false","nonmatch","img/triangle.png","椭圆","三角","ALT1_1","prac_ALT1_1","","","","","","","","","",""
"null","<span style='color:red; font-size: 70px;'>错误! </span>","null","html-keyboard-response","128","379029","0.0-7.0-0.0-1.1-0.1-1.58","3","3","4","3","3","3","3","3","3","3","4","4","2","4","4","4","4","4","4","4","2","2","2","2","2","2","2","4","2","1","1","1","0","1","0","0","0","0","0","0","0","0","0","1","5","1","4","1","1","2","2","4","4","1","766049476896100353","张","569","","","","","","","","","","","","","","","","","","","","","","","","","","","","","","feedback_test","","","","","","","","","",""
"887","","f","psychophysics","129","380920","0.0-7.0-0.0-1.1-0.1-0.59","3","3","4","3","3","3","3","3","3","3","4","4","2","4","4","4","4","4","4","4","2","2","2","2","2","2","2","4","2","1","1","1","0","1","0","0","0","0","0","0","0","0","0","1","5","1","4","1","1","2","2","4","4","1","766049476896100353","张","569","","","","nonmatch","","","","","","","","","","","","","","key","f","33.327854545453604","764","354","f","true","nonmatch","img/ellipse.png","五边","椭圆","ALT1_1","prac_ALT1_1","","","","","","","","","",""
"null","<span style='color:GreenYellow; font-size: 70px;'>正确! </span>","null","html-keyboard-response","130","381427","0.0-7.0-0.0-1.1-0.1-1.59","3","3","4","3","3","3","3","3","3","3","4","4","2","4","4","4","4","4","4","4","2","2","2","2","2","2","2","4","2","1","1","1","0","1","0","0","0","0","0","0","0","0","0","1","5","1","4","1","1","2","2","4","4","1","766049476896100353","张","569","","","","","","","","","","","","","","","","","","","","","","","","","","","","","","feedback_test","","","","","","","","","",""
"828","","f","psychophysics","131","383261","0.0-7.0-0.0-1.1-0.1-0.60","3","3","4","3","3","3","3","3","3","3","4","4","2","4","4","4","4","4","4","4","2","2","2","2","2","2","2","4","2","1","1","1","0","1","0","0","0","0","0","0","0","0","0","1","5","1","4","1","1","2","2","4","4","1","766049476896100353","张","569","","","","nonmatch","","","","","","","","","","","","","","key","f","33.32401851851911","764","354","f","true","nonmatch","img/ellipse.png","三角","椭圆","ALT1_1","prac_ALT1_1","","","","","","","","","",""
"null","<span style='color:GreenYellow; font-size: 70px;'>正确! </span>","null","html-keyboard-response","132","383831","0.0-7.0-0.0-1.1-0.1-1.60","3","3","4","3","3","3","3","3","3","3","4","4","2","4","4","4","4","4","4","4","2","2","2","2","2","2","2","4","2","1","1","1","0","1","0","0","0","0","0","0","0","0","0","1","5","1","4","1","1","2","2","4","4","1","766049476896100353","张","569","","","","","","","","","","","","","","","","","","","","","","","","","","","","","","feedback_test","","","","","","","","","",""
"null","","null","psychophysics","133","386048","0.0-7.0-0.0-1.1-0.1-0.61","3","3","4","3","3","3","3","3","3","3","4","4","2","4","4","4","4","4","4","4","2","2","2","2","2","2","2","4","2","1","1","1","0","1","0","0","0","0","0","0","0","0","0","1","5","1","4","1","1","2","2","4","4","1","766049476896100353","张","569","","","","null","","","","","","","","","","","","","","key","null","33.327784615384346","764","354","j","false","match","img/pentagon.png","五边","五边","ALT1_1","prac_ALT1_1","","","","","","","","","",""
"null","<span class='add_' style='color:yellow; font-size: 70px;'> 太慢! </span>","null","html-keyboard-response","134","386564","0.0-7.0-0.0-1.1-0.1-1.61","3","3","4","3","3","3","3","3","3","3","4","4","2","4","4","4","4","4","4","4","2","2","2","2","2","2","2","4","2","1","1","1","0","1","0","0","0","0","0","0","0","0","0","1","5","1","4","1","1","2","2","4","4","1","766049476896100353","张","569","","","","","","","","","","","","","","","","","","","","","","","","","","","","","","feedback_test","","","","","","","","","",""
"860","","j","psychophysics","135","388428","0.0-7.0-0.0-1.1-0.1-0.62","3","3","4","3","3","3","3","3","3","3","4","4","2","4","4","4","4","4","4","4","2","2","2","2","2","2","2","4","2","1","1","1","0","1","0","0","0","0","0","0","0","0","0","1","5","1","4","1","1","2","2","4","4","1","766049476896100353","张","569","","","","match","","","","","","","","","","","","","","key","j","33.326888888888924","764","354","f","false","nonmatch","img/trapezoid.png","五边","梯形","ALT1_1","prac_ALT1_1","","","","","","","","","",""
"null","<span style='color:red; font-size: 70px;'>错误! </span>","null","html-keyboard-response","136","388935","0.0-7.0-0.0-1.1-0.1-1.62","3","3","4","3","3","3","3","3","3","3","4","4","2","4","4","4","4","4","4","4","2","2","2","2","2","2","2","4","2","1","1","1","0","1","0","0","0","0","0","0","0","0","0","1","5","1","4","1","1","2","2","4","4","1","766049476896100353","张","569","","","","","","","","","","","","","","","","","","","","","","","","","","","","","","feedback_test","","","","","","","","","",""
"906","","j","psychophysics","137","390854","0.0-7.0-0.0-1.1-0.1-0.63","3","3","4","3","3","3","3","3","3","3","4","4","2","4","4","4","4","4","4","4","2","2","2","2","2","2","2","4","2","1","1","1","0","1","0","0","0","0","0","0","0","0","0","1","5","1","4","1","1","2","2","4","4","1","766049476896100353","张","569","","","","match","","","","","","","","","","","","","","key","j","33.325892857142854","764","354","j","true","match","img/ellipse.png","椭圆","椭圆","ALT1_1","prac_ALT1_1","","","","","","","","","",""
"null","<span style='color:GreenYellow; font-size: 70px;'>正确! </span>","null","html-keyboard-response","138","391362","0.0-7.0-0.0-1.1-0.1-1.63","3","3","4","3","3","3","3","3","3","3","4","4","2","4","4","4","4","4","4","4","2","2","2","2","2","2","2","4","2","1","1","1","0","1","0","0","0","0","0","0","0","0","0","1","5","1","4","1","1","2","2","4","4","1","766049476896100353","张","569","","","","","","","","","","","","","","","","","","","","","","","","","","","","","","feedback_test","","","","","","","","","",""
"830","","j","psychophysics","139","393206","0.0-7.0-0.0-1.1-0.1-0.64","3","3","4","3","3","3","3","3","3","3","4","4","2","4","4","4","4","4","4","4","2","2","2","2","2","2","2","4","2","1","1","1","0","1","0","0","0","0","0","0","0","0","0","1","5","1","4","1","1","2","2","4","4","1","766049476896100353","张","569","","","","match","","","","","","","","","","","","","","key","j","33.274537037036175","764","354","j","true","match","img/pentagon.png","五边","五边","ALT1_1","prac_ALT1_1","","","","","","","","","",""
"null","<span style='color:GreenYellow; font-size: 70px;'>正确! </span>","null","html-keyboard-response","140","393715","0.0-7.0-0.0-1.1-0.1-1.64","3","3","4","3","3","3","3","3","3","3","4","4","2","4","4","4","4","4","4","4","2","2","2","2","2","2","2","4","2","1","1","1","0","1","0","0","0","0","0","0","0","0","0","1","5","1","4","1","1","2","2","4","4","1","766049476896100353","张","569","","","","","","","","","","","","","","","","","","","","","","","","","","","","","","feedback_test","","","","","","","","","",""
"655","","f","psychophysics","141","395373","0.0-7.0-0.0-1.1-0.1-0.65","3","3","4","3","3","3","3","3","3","3","4","4","2","4","4","4","4","4","4","4","2","2","2","2","2","2","2","4","2","1","1","1","0","1","0","0","0","0","0","0","0","0","0","1","5","1","4","1","1","2","2","4","4","1","766049476896100353","张","569","","","","nonmatch","","","","","","","","","","","","","","key","f","33.32770833333294","764","354","j","false","match","img/triangle.png","三角","三角","ALT1_1","prac_ALT1_1","","","","","","","","","",""
"null","<span style='color:red; font-size: 70px;'>错误! </span>","null","html-keyboard-response","142","396838","0.0-7.0-0.0-1.1-0.1-1.65","3","3","4","3","3","3","3","3","3","3","4","4","2","4","4","4","4","4","4","4","2","2","2","2","2","2","2","4","2","1","1","1","0","1","0","0","0","0","0","0","0","0","0","1","5","1","4","1","1","2","2","4","4","1","766049476896100353","张","569","","","","","","","","","","","","","","","","","","","","","","","","","","","","","","feedback_test","","","","","","","","","",""
"206","","j","psychophysics","143","399037","0.0-7.0-0.0-1.1-0.1-0.66","3","3","4","3","3","3","3","3","3","3","4","4","2","4","4","4","4","4","4","4","2","2","2","2","2","2","2","4","2","1","1","1","0","1","0","0","0","0","0","0","0","0","0","1","5","1","4","1","1","2","2","4","4","1","766049476896100353","张","569","","","","match","","","","","","","","","","","","","","key","j","33.328492307692514","764","354","j","true","match","img/ellipse.png","椭圆","椭圆","ALT1_1","prac_ALT1_1","","","","","","","","","",""
"null","<span style='color:GreenYellow; font-size: 70px;'>正确! </span>","null","html-keyboard-response","144","399546","0.0-7.0-0.0-1.1-0.1-1.66","3","3","4","3","3","3","3","3","3","3","4","4","2","4","4","4","4","4","4","4","2","2","2","2","2","2","2","4","2","1","1","1","0","1","0","0","0","0","0","0","0","0","0","1","5","1","4","1","1","2","2","4","4","1","766049476896100353","张","569","","","","","","","","","","","","","","","","","","","","","","","","","","","","","","feedback_test","","","","","","","","","",""
"735","","j","psychophysics","145","401285","0.0-7.0-0.0-1.1-0.1-0.67","3","3","4","3","3","3","3","3","3","3","4","4","2","4","4","4","4","4","4","4","2","2","2","2","2","2","2","4","2","1","1","1","0","1","0","0","0","0","0","0","0","0","0","1","5","1","4","1","1","2","2","4","4","1","766049476896100353","张","569","","","","match","","","","","","","","","","","","","","key","j","33.32792156862835","764","354","j","true","match","img/triangle.png","三角","三角","ALT1_1","prac_ALT1_1","","","","","","","","","",""
"null","<span style='color:GreenYellow; font-size: 70px;'>正确! </span>","null","html-keyboard-response","146","401792","0.0-7.0-0.0-1.1-0.1-1.67","3","3","4","3","3","3","3","3","3","3","4","4","2","4","4","4","4","4","4","4","2","2","2","2","2","2","2","4","2","1","1","1","0","1","0","0","0","0","0","0","0","0","0","1","5","1","4","1","1","2","2","4","4","1","766049476896100353","张","569","","","","","","","","","","","","","","","","","","","","","","","","","","","","","","feedback_test","","","","","","","","","",""
"728","","j","psychophysics","147","403533","0.0-7.0-0.0-1.1-0.1-0.68","3","3","4","3","3","3","3","3","3","3","4","4","2","4","4","4","4","4","4","4","2","2","2","2","2","2","2","4","2","1","1","1","0","1","0","0","0","0","0","0","0","0","0","1","5","1","4","1","1","2","2","4","4","1","766049476896100353","张","569","","","","match","","","","","","","","","","","","","","key","j","33.29186274509822","764","354","j","true","match","img/trapezoid.png","梯形","梯形","ALT1_1","prac_ALT1_1","","","","","","","","","",""
"null","<span style='color:GreenYellow; font-size: 70px;'>正确! </span>","null","html-keyboard-response","148","404042","0.0-7.0-0.0-1.1-0.1-1.68","3","3","4","3","3","3","3","3","3","3","4","4","2","4","4","4","4","4","4","4","2","2","2","2","2","2","2","4","2","1","1","1","0","1","0","0","0","0","0","0","0","0","0","1","5","1","4","1","1","2","2","4","4","1","766049476896100353","张","569","","","","","","","","","","","","","","","","","","","","","","","","","","","","","","feedback_test","","","","","","","","","",""
"null","","null","psychophysics","149","406256","0.0-7.0-0.0-1.1-0.1-0.69","3","3","4","3","3","3","3","3","3","3","4","4","2","4","4","4","4","4","4","4","2","2","2","2","2","2","2","4","2","1","1","1","0","1","0","0","0","0","0","0","0","0","0","1","5","1","4","1","1","2","2","4","4","1","766049476896100353","张","569","","","","null","","","","","","","","","","","","","","key","null","33.27483076923079","764","354","j","false","match","img/trapezoid.png","梯形","梯形","ALT1_1","prac_ALT1_1","","","","","","","","","",""
"null","<span class='add_' style='color:yellow; font-size: 70px;'> 太慢! </span>","null","html-keyboard-response","150","406764","0.0-7.0-0.0-1.1-0.1-1.69","3","3","4","3","3","3","3","3","3","3","4","4","2","4","4","4","4","4","4","4","2","2","2","2","2","2","2","4","2","1","1","1","0","1","0","0","0","0","0","0","0","0","0","1","5","1","4","1","1","2","2","4","4","1","766049476896100353","张","569","","","","","","","","","","","","","","","","","","","","","","","","","","","","","","feedback_test","","","","","","","","","",""
"873","","f","psychophysics","151","408649","0.0-7.0-0.0-1.1-0.1-0.70","3","3","4","3","3","3","3","3","3","3","4","4","2","4","4","4","4","4","4","4","2","2","2","2","2","2","2","4","2","1","1","1","0","1","0","0","0","0","0","0","0","0","0","1","5","1","4","1","1","2","2","4","4","1","766049476896100353","张","569","","","","nonmatch","","","","","","","","","","","","","","key","f","33.32336363636317","764","354","f","true","nonmatch","img/pentagon.png","三角","五边","ALT1_1","prac_ALT1_1","","","","","","","","","",""
"null","<span style='color:GreenYellow; font-size: 70px;'>正确! </span>","null","html-keyboard-response","152","409159","0.0-7.0-0.0-1.1-0.1-1.70","3","3","4","3","3","3","3","3","3","3","4","4","2","4","4","4","4","4","4","4","2","2","2","2","2","2","2","4","2","1","1","1","0","1","0","0","0","0","0","0","0","0","0","1","5","1","4","1","1","2","2","4","4","1","766049476896100353","张","569","","","","","","","","","","","","","","","","","","","","","","","","","","","","","","feedback_test","","","","","","","","","",""
"692","","j","psychophysics","153","410855","0.0-7.0-0.0-1.1-0.1-0.71","3","3","4","3","3","3","3","3","3","3","4","4","2","4","4","4","4","4","4","4","2","2","2","2","2","2","2","4","2","1","1","1","0","1","0","0","0","0","0","0","0","0","0","1","5","1","4","1","1","2","2","4","4","1","766049476896100353","张","569","","","","match","","","","","","","","","","","","","","key","j","33.327551020407924","764","354","j","true","match","img/ellipse.png","椭圆","椭圆","ALT1_1","prac_ALT1_1","","","","","","","","","",""
"null","<span style='color:GreenYellow; font-size: 70px;'>正确! </span>","null","html-keyboard-response","154","411367","0.0-7.0-0.0-1.1-0.1-1.71","3","3","4","3","3","3","3","3","3","3","4","4","2","4","4","4","4","4","4","4","2","2","2","2","2","2","2","4","2","1","1","1","0","1","0","0","0","0","0","0","0","0","0","1","5","1","4","1","1","2","2","4","4","1","766049476896100353","张","569","","","","","","","","","","","","","","","","","","","","","","","","","","","","","","feedback_test","","","","","","","","","",""
"600","","j","psychophysics","155","412973","0.0-7.0-0.0-1.1-0.1-0.72","3","3","4","3","3","3","3","3","3","3","4","4","2","4","4","4","4","4","4","4","2","2","2","2","2","2","2","4","2","1","1","1","0","1","0","0","0","0","0","0","0","0","0","1","5","1","4","1","1","2","2","4","4","1","766049476896100353","张","569","","","","match","","","","","","","","","","","","","","key","j","33.32742553191542","764","354","f","false","nonmatch","img/ellipse.png","梯形","椭圆","ALT1_1","prac_ALT1_1","","","","","","","","","",""
"null","<span style='color:red; font-size: 70px;'>错误! </span>","null","html-keyboard-response","156","413485","0.0-7.0-0.0-1.1-0.1-1.72","3","3","4","3","3","3","3","3","3","3","4","4","2","4","4","4","4","4","4","4","2","2","2","2","2","2","2","4","2","1","1","1","0","1","0","0","0","0","0","0","0","0","0","1","5","1","4","1","1","2","2","4","4","1","766049476896100353","张","569","","","","","","","","","","","","","","","","","","","","","","","","","","","","","","feedback_test","","","","","","","","","",""
"948","","j","psychophysics","157","415438","0.0-7.0-0.0-1.1-0.1-0.73","3","3","4","3","3","3","3","3","3","3","4","4","2","4","4","4","4","4","4","4","2","2","2","2","2","2","2","4","2","1","1","1","0","1","0","0","0","0","0","0","0","0","0","1","5","1","4","1","1","2","2","4","4","1","766049476896100353","张","569","","","","match","","","","","","","","","","","","","","key","j","33.32796491228101","764","354","j","true","match","img/ellipse.png","椭圆","椭圆","ALT1_1","prac_ALT1_1","","","","","","","","","",""
"null","<span style='color:GreenYellow; font-size: 70px;'>正确! </span>","null","html-keyboard-response","158","416831","0.0-7.0-0.0-1.1-0.1-1.73","3","3","4","3","3","3","3","3","3","3","4","4","2","4","4","4","4","4","4","4","2","2","2","2","2","2","2","4","2","1","1","1","0","1","0","0","0","0","0","0","0","0","0","1","5","1","4","1","1","2","2","4","4","1","766049476896100353","张","569","","","","","","","","","","","","","","","","","","","","","","","","","","","","","","feedback_test","","","","","","","","","",""
"null","","null","psychophysics","159","419046","0.0-7.0-0.0-1.1-0.1-0.74","3","3","4","3","3","3","3","3","3","3","4","4","2","4","4","4","4","4","4","4","2","2","2","2","2","2","2","4","2","1","1","1","0","1","0","0","0","0","0","0","0","0","0","1","5","1","4","1","1","2","2","4","4","1","766049476896100353","张","569","","","","null","","","","","","","","","","","","","","key","null","33.32389230769164","764","354","j","false","match","img/trapezoid.png","梯形","梯形","ALT1_1","prac_ALT1_1","","","","","","","","","",""
"null","<span class='add_' style='color:yellow; font-size: 70px;'> 太慢! </span>","null","html-keyboard-response","160","419557","0.0-7.0-0.0-1.1-0.1-1.74","3","3","4","3","3","3","3","3","3","3","4","4","2","4","4","4","4","4","4","4","2","2","2","2","2","2","2","4","2","1","1","1","0","1","0","0","0","0","0","0","0","0","0","1","5","1","4","1","1","2","2","4","4","1","766049476896100353","张","569","","","","","","","","","","","","","","","","","","","","","","","","","","","","","","feedback_test","","","","","","","","","",""
"607","","j","psychophysics","161","421177","0.0-7.0-0.0-1.1-0.1-0.75","3","3","4","3","3","3","3","3","3","3","4","4","2","4","4","4","4","4","4","4","2","2","2","2","2","2","2","4","2","1","1","1","0","1","0","0","0","0","0","0","0","0","0","1","5","1","4","1","1","2","2","4","4","1","766049476896100353","张","569","","","","match","","","","","","","","","","","","","","key","j","33.31731914893595","764","354","f","false","nonmatch","img/pentagon.png","梯形","五边","ALT1_1","prac_ALT1_1","","","","","","","","","",""
"null","<span style='color:red; font-size: 70px;'>错误! </span>","null","html-keyboard-response","162","421687","0.0-7.0-0.0-1.1-0.1-1.75","3","3","4","3","3","3","3","3","3","3","4","4","2","4","4","4","4","4","4","4","2","2","2","2","2","2","2","4","2","1","1","1","0","1","0","0","0","0","0","0","0","0","0","1","5","1","4","1","1","2","2","4","4","1","766049476896100353","张","569","","","","","","","","","","","","","","","","","","","","","","","","","","","","","","feedback_test","","","","","","","","","",""
"null","","null","psychophysics","163","424837","0.0-7.0-0.0-1.1-0.1-0.76","3","3","4","3","3","3","3","3","3","3","4","4","2","4","4","4","4","4","4","4","2","2","2","2","2","2","2","4","2","1","1","1","0","1","0","0","0","0","0","0","0","0","0","1","5","1","4","1","1","2","2","4","4","1","766049476896100353","张","569","","","","null","","","","","","","","","","","","","","key","null","33.32234408602154","764","354","f","false","nonmatch","img/triangle.png","椭圆","三角","ALT1_1","prac_ALT1_1","","","","","","","","","",""
"null","<span class='add_' style='color:yellow; font-size: 70px;'> 太慢! </span>","null","html-keyboard-response","164","425839","0.0-7.0-0.0-1.1-0.1-1.76","3","3","4","3","3","3","3","3","3","3","4","4","2","4","4","4","4","4","4","4","2","2","2","2","2","2","2","4","2","1","1","1","0","1","0","0","0","0","0","0","0","0","0","1","5","1","4","1","1","2","2","4","4","1","766049476896100353","张","569","","","","","","","","","","","","","","","","","","","","","","","","","","","","","","feedback_test","","","","","","","","","",""
"null","","null","psychophysics","165","428049","0.0-7.0-0.0-1.1-0.1-0.77","3","3","4","3","3","3","3","3","3","3","4","4","2","4","4","4","4","4","4","4","2","2","2","2","2","2","2","4","2","1","1","1","0","1","0","0","0","0","0","0","0","0","0","1","5","1","4","1","1","2","2","4","4","1","766049476896100353","张","569","","","","null","","","","","","","","","","","","","","key","null","33.32109230769207","764","354","f","false","nonmatch","img/pentagon.png","三角","五边","ALT1_1","prac_ALT1_1","","","","","","","","","",""
"null","<span class='add_' style='color:yellow; font-size: 70px;'> 太慢! </span>","null","html-keyboard-response","166","428553","0.0-7.0-0.0-1.1-0.1-1.77","3","3","4","3","3","3","3","3","3","3","4","4","2","4","4","4","4","4","4","4","2","2","2","2","2","2","2","4","2","1","1","1","0","1","0","0","0","0","0","0","0","0","0","1","5","1","4","1","1","2","2","4","4","1","766049476896100353","张","569","","","","","","","","","","","","","","","","","","","","","","","","","","","","","","feedback_test","","","","","","","","","",""
"754","","j","psychophysics","167","430309","0.0-7.0-0.0-1.1-0.1-0.78","3","3","4","3","3","3","3","3","3","3","4","4","2","4","4","4","4","4","4","4","2","2","2","2","2","2","2","4","2","1","1","1","0","1","0","0","0","0","0","0","0","0","0","1","5","1","4","1","1","2","2","4","4","1","766049476896100353","张","569","","","","match","","","","","","","","","","","","","","key","j","33.32741176470653","764","354","j","true","match","img/trapezoid.png","梯形","梯形","ALT1_1","prac_ALT1_1","","","","","","","","","",""
"null","<span style='color:GreenYellow; font-size: 70px;'>正确! </span>","null","html-keyboard-response","168","430818","0.0-7.0-0.0-1.1-0.1-1.78","3","3","4","3","3","3","3","3","3","3","4","4","2","4","4","4","4","4","4","4","2","2","2","2","2","2","2","4","2","1","1","1","0","1","0","0","0","0","0","0","0","0","0","1","5","1","4","1","1","2","2","4","4","1","766049476896100353","张","569","","","","","","","","","","","","","","","","","","","","","","","","","","","","","","feedback_test","","","","","","","","","",""
"697","","j","psychophysics","169","432519","0.0-7.0-0.0-1.1-0.1-0.79","3","3","4","3","3","3","3","3","3","3","4","4","2","4","4","4","4","4","4","4","2","2","2","2","2","2","2","4","2","1","1","1","0","1","0","0","0","0","0","0","0","0","0","1","5","1","4","1","1","2","2","4","4","1","766049476896100353","张","569","","","","match","","","","","","","","","","","","","","key","j","33.32740816326541","764","354","j","true","match","img/triangle.png","三角","三角","ALT1_1","prac_ALT1_1","","","","","","","","","",""
"null","<span style='color:GreenYellow; font-size: 70px;'>正确! </span>","null","html-keyboard-response","170","433022","0.0-7.0-0.0-1.1-0.1-1.79","3","3","4","3","3","3","3","3","3","3","4","4","2","4","4","4","4","4","4","4","2","2","2","2","2","2","2","4","2","1","1","1","0","1","0","0","0","0","0","0","0","0","0","1","5","1","4","1","1","2","2","4","4","1","766049476896100353","张","569","","","","","","","","","","","","","","","","","","","","","","","","","","","","","","feedback_test","","","","","","","","","",""
"644","","j","psychophysics","171","434672","0.0-7.0-0.0-1.1-0.1-0.80","3","3","4","3","3","3","3","3","3","3","4","4","2","4","4","4","4","4","4","4","2","2","2","2","2","2","2","4","2","1","1","1","0","1","0","0","0","0","0","0","0","0","0","1","5","1","4","1","1","2","2","4","4","1","766049476896100353","张","569","","","","match","","","","","","","","","","","","","","key","j","33.322979166665995","764","354","j","true","match","img/triangle.png","三角","三角","ALT1_1","prac_ALT1_1","","","","","","","","","",""
"null","<span style='color:GreenYellow; font-size: 70px;'>正确! </span>","null","html-keyboard-response","172","435191","0.0-7.0-0.0-1.1-0.1-1.80","3","3","4","3","3","3","3","3","3","3","4","4","2","4","4","4","4","4","4","4","2","2","2","2","2","2","2","4","2","1","1","1","0","1","0","0","0","0","0","0","0","0","0","1","5","1","4","1","1","2","2","4","4","1","766049476896100353","张","569","","","","","","","","","","","","","","","","","","","","","","","","","","","","","","feedback_test","","","","","","","","","",""
"696","","j","psychophysics","173","436896","0.0-7.0-0.0-1.1-0.1-0.81","3","3","4","3","3","3","3","3","3","3","4","4","2","4","4","4","4","4","4","4","2","2","2","2","2","2","2","4","2","1","1","1","0","1","0","0","0","0","0","0","0","0","0","1","5","1","4","1","1","2","2","4","4","1","766049476896100353","张","569","","","","match","","","","","","","","","","","","","","key","j","33.32841999999946","764","354","j","true","match","img/pentagon.png","五边","五边","ALT1_1","prac_ALT1_1","","","","","","","","","",""
"null","<span style='color:GreenYellow; font-size: 70px;'>正确! </span>","null","html-keyboard-response","174","437400","0.0-7.0-0.0-1.1-0.1-1.81","3","3","4","3","3","3","3","3","3","3","4","4","2","4","4","4","4","4","4","4","2","2","2","2","2","2","2","4","2","1","1","1","0","1","0","0","0","0","0","0","0","0","0","1","5","1","4","1","1","2","2","4","4","1","766049476896100353","张","569","","","","","","","","","","","","","","","","","","","","","","","","","","","","","","feedback_test","","","","","","","","","",""
"307","","j","psychophysics","175","439141","0.0-7.0-0.0-1.1-0.1-0.82","3","3","4","3","3","3","3","3","3","3","4","4","2","4","4","4","4","4","4","4","2","2","2","2","2","2","2","4","2","1","1","1","0","1","0","0","0","0","0","0","0","0","0","1","5","1","4","1","1","2","2","4","4","1","766049476896100353","张","569","","","","match","","","","","","","","","","","","","","key","j","33.32364705882341","764","354","j","true","match","img/pentagon.png","五边","五边","ALT1_1","prac_ALT1_1","","","","","","","","","",""
"null","<span style='color:GreenYellow; font-size: 70px;'>正确! </span>","null","html-keyboard-response","176","439647","0.0-7.0-0.0-1.1-0.1-1.82","3","3","4","3","3","3","3","3","3","3","4","4","2","4","4","4","4","4","4","4","2","2","2","2","2","2","2","4","2","1","1","1","0","1","0","0","0","0","0","0","0","0","0","1","5","1","4","1","1","2","2","4","4","1","766049476896100353","张","569","","","","","","","","","","","","","","","","","","","","","","","","","","","","","","feedback_test","","","","","","","","","",""
"820","","f","psychophysics","177","441472","0.0-7.0-0.0-1.1-0.1-0.83","3","3","4","3","3","3","3","3","3","3","4","4","2","4","4","4","4","4","4","4","2","2","2","2","2","2","2","4","2","1","1","1","0","1","0","0","0","0","0","0","0","0","0","1","5","1","4","1","1","2","2","4","4","1","766049476896100353","张","569","","","","nonmatch","","","","","","","","","","","","","","key","f","33.32630188679235","764","354","f","true","nonmatch","img/triangle.png","五边","三角","ALT1_1","prac_ALT1_1","","","","","","","","","",""
"null","<span style='color:GreenYellow; font-size: 70px;'>正确! </span>","null","html-keyboard-response","178","441975","0.0-7.0-0.0-1.1-0.1-1.83","3","3","4","3","3","3","3","3","3","3","4","4","2","4","4","4","4","4","4","4","2","2","2","2","2","2","2","4","2","1","1","1","0","1","0","0","0","0","0","0","0","0","0","1","5","1","4","1","1","2","2","4","4","1","766049476896100353","张","569","","","","","","","","","","","","","","","","","","","","","","","","","","","","","","feedback_test","","","","","","","","","",""
"682","","j","psychophysics","179","443661","0.0-7.0-0.0-1.1-0.1-0.84","3","3","4","3","3","3","3","3","3","3","4","4","2","4","4","4","4","4","4","4","2","2","2","2","2","2","2","4","2","1","1","1","0","1","0","0","0","0","0","0","0","0","0","1","5","1","4","1","1","2","2","4","4","1","766049476896100353","张","569","","","","match","","","","","","","","","","","","","","key","j","33.32910204081611","764","354","f","false","nonmatch","img/ellipse.png","三角","椭圆","ALT1_1","prac_ALT1_1","","","","","","","","","",""
"null","<span style='color:red; font-size: 70px;'>错误! </span>","null","html-keyboard-response","180","444830","0.0-7.0-0.0-1.1-0.1-1.84","3","3","4","3","3","3","3","3","3","3","4","4","2","4","4","4","4","4","4","4","2","2","2","2","2","2","2","4","2","1","1","1","0","1","0","0","0","0","0","0","0","0","0","1","5","1","4","1","1","2","2","4","4","1","766049476896100353","张","569","","","","","","","","","","","","","","","","","","","","","","","","","","","","","","feedback_test","","","","","","","","","",""
"null","","null","psychophysics","181","447046","0.0-7.0-0.0-1.1-0.1-0.85","3","3","4","3","3","3","3","3","3","3","4","4","2","4","4","4","4","4","4","4","2","2","2","2","2","2","2","4","2","1","1","1","0","1","0","0","0","0","0","0","0","0","0","1","5","1","4","1","1","2","2","4","4","1","766049476896100353","张","569","","","","null","","","","","","","","","","","","","","key","null","33.32573846153861","764","354","j","false","match","img/trapezoid.png","梯形","梯形","ALT1_1","prac_ALT1_1","","","","","","","","","",""
"null","<span class='add_' style='color:yellow; font-size: 70px;'> 太慢! </span>","null","html-keyboard-response","182","447557","0.0-7.0-0.0-1.1-0.1-1.85","3","3","4","3","3","3","3","3","3","3","4","4","2","4","4","4","4","4","4","4","2","2","2","2","2","2","2","4","2","1","1","1","0","1","0","0","0","0","0","0","0","0","0","1","5","1","4","1","1","2","2","4","4","1","766049476896100353","张","569","","","","","","","","","","","","","","","","","","","","","","","","","","","","","","feedback_test","","","","","","","","","",""
"613","","j","psychophysics","183","449175","0.0-7.0-0.0-1.1-0.1-0.86","3","3","4","3","3","3","3","3","3","3","4","4","2","4","4","4","4","4","4","4","2","2","2","2","2","2","2","4","2","1","1","1","0","1","0","0","0","0","0","0","0","0","0","1","5","1","4","1","1","2","2","4","4","1","766049476896100353","张","569","","","","match","","","","","","","","","","","","","","key","j","33.329042553190796","764","354","f","false","nonmatch","img/trapezoid.png","五边","梯形","ALT1_1","prac_ALT1_1","","","","","","","","","",""
"null","<span style='color:red; font-size: 70px;'>错误! </span>","null","html-keyboard-response","184","449680","0.0-7.0-0.0-1.1-0.1-1.86","3","3","4","3","3","3","3","3","3","3","4","4","2","4","4","4","4","4","4","4","2","2","2","2","2","2","2","4","2","1","1","1","0","1","0","0","0","0","0","0","0","0","0","1","5","1","4","1","1","2","2","4","4","1","766049476896100353","张","569","","","","","","","","","","","","","","","","","","","","","","","","","","","","","","feedback_test","","","","","","","","","",""
