"rt","stimulus","response","trial_type","trial_index","time_elapsed","internal_node_id","ses_1","ses_2","ses_3","ses_4","ses_5","ses_6","ses_7","ses_8","ses_9","ses_10","coreself_1","coreself_2","coreself_3","coreself_4","coreself_5","coreself_6","coreself_7","coreself_8","coreself_9","coreself_10","SGPS_1","SGPS_2","SGPS_3","SGPS_4","SGPS_5","SGPS_6","SGPS_7","SGPS_8","SGPS_9","NPI1","NPI2","NPI3","NPI4","NPI5","NPI6","NPI7","NPI8","NPI9","NPI10","NPI11","NPI12","NPI13","NPI14","NPI15","hsns_1","hsns_2","hsns_3","hsns_4","hsns_5","hsns_6","hsns_7","hsns_8","hsns_9","hsns_10","subj_idx","friend_name","ParticipantID","value","success","user_agent","responses","item_order","radio_event_ids","radio_event_times","key_event_times","mouse_event_times","straightlining","zigzagging","honeypot","timeout","failed_images","failed_audio","failed_video","view_history","response_type","key_press","avg_frame_time","center_x","center_y","correct_response","correct","identity","Image","word","condition","task_id","screen_id","time_stamp","version_attrib2","version_target2","IAT","RT","varname","summary","version_attrib","version_target","question_order"
"3862","
   <p><div style = ""color: white;font-size:25px;"">您好，欢迎参加本次实验。</div> </p>
   <p><div style = ""color: white;font-size:25px;"">为充分保障您的权利，请确保您已经知晓并同意《参与实验同意书》以及《数据公开知情同意书》。</div></p>
   <p><div style = ""color: white;font-size:25px;"">如果您未见过上述内容，请咨询实验员。</div></p>
   <p><div style = ""color: white;font-size:25px;"">如果您选择继续实验，则表示您已经清楚两份知情同意书的内容并同意。</div></p>
   <p><div style = ""color: red;font-size:30px;"">请确保您记得day0的实验编号，您将在本次实验输入该编号，若您忘记，请咨询实验员后作答。</div></p>
   <p> <div style = ""color: green;font-size:25px;""><按空格键至下页></div> </p>
   "," ","html-keyboard-response","0","3866","0.0-0.0","4","3","4","4","4","3","4","4","4","3","5","4","5","4","5","5","5","4","4","5","2","1","3","2","3","2","1","2","1","1","0","1","1","0","0","1","1","0","1","1","0","1","0","1","4","3","4","2","3","1","4","2","2","4","633790726911557632","王","60","","","","","","","","","","","","","","","","","","","","","","","","","","","","","","","","","","","","","","","",""
"","","","call-function","1","3867","0.0-1.0-0.0","4","3","4","4","4","3","4","4","4","3","5","4","5","4","5","5","5","4","4","5","2","1","3","2","3","2","1","2","1","1","0","1","1","0","0","1","1","0","1","1","0","1","0","1","4","3","4","2","3","1","4","2","2","4","633790726911557632","王","60","","","","","","","","","","","","","","","","","","","","","","","","","","","","","","","","","","","","","","","",""
"92455","","{""friend_name"":""王"",""ParticipantID"":""60""}","survey-html-form","2","96325","0.0-1.0-1.0","4","3","4","4","4","3","4","4","4","3","5","4","5","4","5","5","5","4","4","5","2","1","3","2","3","2","1","2","1","1","0","1","1","0","0","1","1","0","1","1","0","1","0","1","4","3","4","2","3","1","4","2","2","4","633790726911557632","王","60","","","","","","","","","","","","","","","","","","","","","","","","","","","","","","","","","","","","","","","",""
"","","","fullscreen","3","98637","0.0-2.0","4","3","4","4","4","3","4","4","4","3","5","4","5","4","5","5","5","4","4","5","2","1","3","2","3","2","1","2","1","1","0","1","1","0","0","1","1","0","1","1","0","1","0","1","4","3","4","2","3","1","4","2","2","4","633790726911557632","王","60","","true","{}","","","","","","","","","","","","","","","","","","","","","","","","","","","","","","","","","","","","",""
"29778","","{""Q01"":""4"",""Q02"":""3"",""Q03"":""4"",""Q04"":""4"",""Q05"":""4"",""Q06"":""3"",""Q07"":""4"",""Q08"":""4"",""Q09"":""4"",""Q10"":""3""}","survey-template","4","128421","0.0-3.0","4","3","4","4","4","3","4","4","4","3","5","4","5","4","5","5","5","4","4","5","2","1","3","2","3","2","1","2","1","1","0","1","1","0","0","1","1","0","1","1","0","1","0","1","4","3","4","2","3","1","4","2","2","4","633790726911557632","王","60","","","","{""Q01"":""4"",""Q02"":""3"",""Q03"":""4"",""Q04"":""4"",""Q05"":""4"",""Q06"":""3"",""Q07"":""4"",""Q08"":""4"",""Q09"":""4"",""Q10"":""3""}","[0,1,2,3,4,5,6,7,8,9]","[""Q01"",""Q02"",""Q02"",""Q03"",""Q03"",""Q04"",""Q05"",""Q06"",""Q07"",""Q08"",""Q09"",""Q10""]","[2878.7999999523163,4283.299999952316,4602.700000047684,6087,6438.599999904633,7969.299999952316,9744.399999856949,11082.200000047684,12746.299999952316,14732.799999952316,15996.899999856949,17014.39999985695]","[]","[2500.5999999046326,2878.7999999523163,4283.299999952316,4602.700000047684,6087,6438.599999904633,7622.200000047684,7969.299999952316,9744.399999856949,11082.200000047684,12746.299999952316,14732.799999952316,15996.899999856949,17014.39999985695,29776.5]","0.4","0.6666666666666666","0","","","","","","","","","","","","","","","","","","","","","","","","","","","",""
"45794.700000047684","","{""Q01"":""5"",""Q02"":""4"",""Q03"":""5"",""Q04"":""4"",""Q05"":""5"",""Q06"":""5"",""Q07"":""5"",""Q08"":""4"",""Q09"":""4"",""Q10"":""5""}","survey-template","5","174223","0.0-4.0","4","3","4","4","4","3","4","4","4","3","5","4","5","4","5","5","5","4","4","5","2","1","3","2","3","2","1","2","1","1","0","1","1","0","0","1","1","0","1","1","0","1","0","1","4","3","4","2","3","1","4","2","2","4","633790726911557632","王","60","","","","{""Q01"":""5"",""Q02"":""4"",""Q03"":""5"",""Q04"":""4"",""Q05"":""5"",""Q06"":""5"",""Q07"":""5"",""Q08"":""4"",""Q09"":""4"",""Q10"":""5""}","[0,1,2,3,4,5,6,7,8,9]","[""Q01"",""Q02"",""Q03"",""Q04"",""Q05"",""Q06"",""Q06"",""Q07"",""Q08"",""Q09"",""Q10""]","[2219.4000000953674,4191.5,5167,6759.299999952316,9517.400000095367,10531.599999904633,10831.099999904633,14285,15069.400000095367,17045.599999904633,21169.099999904633]","[]","[1913.2000000476837,2219.4000000953674,3775.5999999046326,4191.5,5167,6759.299999952316,8621.599999904633,9171.400000095367,9517.400000095367,10531.599999904633,10831.099999904633,12791.099999904633,13914.799999952316,14285,15069.400000095367,17045.599999904633,20851.5,21169.099999904633,45792.90000009537]","0.4","0.4444444444444444","0","","","","","","","","","","","","","","","","","","","","","","","","","","","",""
"","","","preload","6","175110","0.0-5.0","4","3","4","4","4","3","4","4","4","3","5","4","5","4","5","5","5","4","4","5","2","1","3","2","3","2","1","2","1","1","0","1","1","0","0","1","1","0","1","1","0","1","0","1","4","3","4","2","3","1","4","2","2","4","633790726911557632","王","60","","true","","","","","","","","","","","false","[]","[]","[]","","","","","","","","","","","","","","","","","","","","","","","",""
"123360","","","instructions","7","298472","0.0-6.0","4","3","4","4","4","3","4","4","4","3","5","4","5","4","5","5","5","4","4","5","2","1","3","2","3","2","1","2","1","1","0","1","1","0","0","1","1","0","1","1","0","1","0","1","4","3","4","2","3","1","4","2","2","4","633790726911557632","王","60","","","","","","","","","","","","","","","","","[{""page_index"":0,""viewing_time"":123360}]","","","","","","","","","","","","","","","","","","","","","","",""
"31093","","","instructions","8","329567","0.0-7.0-1.0-0.0","4","3","4","4","4","3","4","4","4","3","5","4","5","4","5","5","5","4","4","5","2","1","3","2","3","2","1","2","1","1","0","1","1","0","0","1","1","0","1","1","0","1","0","1","4","3","4","2","3","1","4","2","2","4","633790726911557632","王","60","","","","","","","","","","","","","","","","","[{""page_index"":0,""viewing_time"":16339},{""page_index"":1,""viewing_time"":12102},{""page_index"":2,""viewing_time"":2653}]","","","","","","","","","","","","","","","","","","","","","","",""
"969","","j","psychophysics","9","331544","0.0-7.0-1.0-1.0-0.0-0.0","4","3","4","4","4","3","4","4","4","3","5","4","5","4","5","5","5","4","4","5","2","1","3","2","3","2","1","2","1","1","0","1","1","0","0","1","1","0","1","1","0","1","0","1","4","3","4","2","3","1","4","2","2","4","633790726911557632","王","60","","","","nonmatch","","","","","","","","","","","","","","key","j","18.196055555555546","799.9999682108573","445.8333156175091","j","true","nonmatch","img/ellipse.png","梯形","椭圆","ALT1_2","prac_ALT1_2","","","","","","","","","",""
"null","<span style='color:GreenYellow; font-size: 70px;'>正确! </span>","null","html-keyboard-response","10","332046","0.0-7.0-1.0-1.0-0.0-1.0","4","3","4","4","4","3","4","4","4","3","5","4","5","4","5","5","5","4","4","5","2","1","3","2","3","2","1","2","1","1","0","1","1","0","0","1","1","0","1","1","0","1","0","1","4","3","4","2","3","1","4","2","2","4","633790726911557632","王","60","","","","","","","","","","","","","","","","","","","","","","","","","","","","","","feedback_test","","","","","","","","","",""
"792","","j","psychophysics","11","333840","0.0-7.0-1.0-1.0-0.0-0.1","4","3","4","4","4","3","4","4","4","3","5","4","5","4","5","5","5","4","4","5","2","1","3","2","3","2","1","2","1","1","0","1","1","0","0","1","1","0","1","1","0","1","0","1","4","3","4","2","3","1","4","2","2","4","633790726911557632","王","60","","","","nonmatch","","","","","","","","","","","","","","key","j","16.65363551401827","799.9999682108573","445.8333156175091","j","true","nonmatch","img/triangle.png","六边","三角","ALT1_2","prac_ALT1_2","","","","","","","","","",""
"null","<span style='color:GreenYellow; font-size: 70px;'>正确! </span>","null","html-keyboard-response","12","334342","0.0-7.0-1.0-1.0-0.0-1.1","4","3","4","4","4","3","4","4","4","3","5","4","5","4","5","5","5","4","4","5","2","1","3","2","3","2","1","2","1","1","0","1","1","0","0","1","1","0","1","1","0","1","0","1","4","3","4","2","3","1","4","2","2","4","633790726911557632","王","60","","","","","","","","","","","","","","","","","","","","","","","","","","","","","","feedback_test","","","","","","","","","",""
"932","","f","psychophysics","13","336275","0.0-7.0-1.0-1.0-0.0-0.2","4","3","4","4","4","3","4","4","4","3","5","4","5","4","5","5","5","4","4","5","2","1","3","2","3","2","1","2","1","1","0","1","1","0","0","1","1","0","1","1","0","1","0","1","4","3","4","2","3","1","4","2","2","4","633790726911557632","王","60","","","","match","","","","","","","","","","","","","","key","f","16.65020000000039","799.9999682108573","445.8333156175091","f","true","match","img/trapezoid.png","梯形","梯形","ALT1_2","prac_ALT1_2","","","","","","","","","",""
"null","<span style='color:GreenYellow; font-size: 70px;'>正确! </span>","null","html-keyboard-response","14","336776","0.0-7.0-1.0-1.0-0.0-1.2","4","3","4","4","4","3","4","4","4","3","5","4","5","4","5","5","5","4","4","5","2","1","3","2","3","2","1","2","1","1","0","1","1","0","0","1","1","0","1","1","0","1","0","1","4","3","4","2","3","1","4","2","2","4","633790726911557632","王","60","","","","","","","","","","","","","","","","","","","","","","","","","","","","","","feedback_test","","","","","","","","","",""
"929","","j","psychophysics","15","338707","0.0-7.0-1.0-1.0-0.0-0.3","4","3","4","4","4","3","4","4","4","3","5","4","5","4","5","5","5","4","4","5","2","1","3","2","3","2","1","2","1","1","0","1","1","0","0","1","1","0","1","1","0","1","0","1","4","3","4","2","3","1","4","2","2","4","633790726911557632","王","60","","","","nonmatch","","","","","","","","","","","","","","key","j","16.652834782608704","799.9999682108573","445.8333156175091","j","true","nonmatch","img/triangle.png","椭圆","三角","ALT1_2","prac_ALT1_2","","","","","","","","","",""
"null","<span style='color:GreenYellow; font-size: 70px;'>正确! </span>","null","html-keyboard-response","16","339209","0.0-7.0-1.0-1.0-0.0-1.3","4","3","4","4","4","3","4","4","4","3","5","4","5","4","5","5","5","4","4","5","2","1","3","2","3","2","1","2","1","1","0","1","1","0","0","1","1","0","1","1","0","1","0","1","4","3","4","2","3","1","4","2","2","4","633790726911557632","王","60","","","","","","","","","","","","","","","","","","","","","","","","","","","","","","feedback_test","","","","","","","","","",""
"732","","f","psychophysics","17","340942","0.0-7.0-1.0-1.0-0.0-0.4","4","3","4","4","4","3","4","4","4","3","5","4","5","4","5","5","5","4","4","5","2","1","3","2","3","2","1","2","1","1","0","1","1","0","0","1","1","0","1","1","0","1","0","1","4","3","4","2","3","1","4","2","2","4","633790726911557632","王","60","","","","match","","","","","","","","","","","","","","key","f","16.652737864077846","799.9999682108573","445.8333156175091","f","true","match","img/ellipse.png","椭圆","椭圆","ALT1_2","prac_ALT1_2","","","","","","","","","",""
"null","<span style='color:GreenYellow; font-size: 70px;'>正确! </span>","null","html-keyboard-response","18","341444","0.0-7.0-1.0-1.0-0.0-1.4","4","3","4","4","4","3","4","4","4","3","5","4","5","4","5","5","5","4","4","5","2","1","3","2","3","2","1","2","1","1","0","1","1","0","0","1","1","0","1","1","0","1","0","1","4","3","4","2","3","1","4","2","2","4","633790726911557632","王","60","","","","","","","","","","","","","","","","","","","","","","","","","","","","","","feedback_test","","","","","","","","","",""
"747","","f","psychophysics","19","343193","0.0-7.0-1.0-1.0-0.0-0.5","4","3","4","4","4","3","4","4","4","3","5","4","5","4","5","5","5","4","4","5","2","1","3","2","3","2","1","2","1","1","0","1","1","0","0","1","1","0","1","1","0","1","0","1","4","3","4","2","3","1","4","2","2","4","633790726911557632","王","60","","","","match","","","","","","","","","","","","","","key","f","16.639728155340297","799.9999682108573","445.8333156175091","f","true","match","img/triangle.png","三角","三角","ALT1_2","prac_ALT1_2","","","","","","","","","",""
"null","<span style='color:GreenYellow; font-size: 70px;'>正确! </span>","null","html-keyboard-response","20","343694","0.0-7.0-1.0-1.0-0.0-1.5","4","3","4","4","4","3","4","4","4","3","5","4","5","4","5","5","5","4","4","5","2","1","3","2","3","2","1","2","1","1","0","1","1","0","0","1","1","0","1","1","0","1","0","1","4","3","4","2","3","1","4","2","2","4","633790726911557632","王","60","","","","","","","","","","","","","","","","","","","","","","","","","","","","","","feedback_test","","","","","","","","","",""
"917","","f","psychophysics","21","345614","0.0-7.0-1.0-1.0-0.0-0.6","4","3","4","4","4","3","4","4","4","3","5","4","5","4","5","5","5","4","4","5","2","1","3","2","3","2","1","2","1","1","0","1","1","0","0","1","1","0","1","1","0","1","0","1","4","3","4","2","3","1","4","2","2","4","633790726911557632","王","60","","","","match","","","","","","","","","","","","","","key","f","16.652807017543715","799.9999682108573","445.8333156175091","f","true","match","img/hexagon.png","六边","六边","ALT1_2","prac_ALT1_2","","","","","","","","","",""
"null","<span style='color:GreenYellow; font-size: 70px;'>正确! </span>","null","html-keyboard-response","22","346116","0.0-7.0-1.0-1.0-0.0-1.6","4","3","4","4","4","3","4","4","4","3","5","4","5","4","5","5","5","4","4","5","2","1","3","2","3","2","1","2","1","1","0","1","1","0","0","1","1","0","1","1","0","1","0","1","4","3","4","2","3","1","4","2","2","4","633790726911557632","王","60","","","","","","","","","","","","","","","","","","","","","","","","","","","","","","feedback_test","","","","","","","","","",""
"727","","f","psychophysics","23","347845","0.0-7.0-1.0-1.0-0.0-0.7","4","3","4","4","4","3","4","4","4","3","5","4","5","4","5","5","5","4","4","5","2","1","3","2","3","2","1","2","1","1","0","1","1","0","0","1","1","0","1","1","0","1","0","1","4","3","4","2","3","1","4","2","2","4","633790726911557632","王","60","","","","match","","","","","","","","","","","","","","key","f","16.64934951456284","799.9999682108573","445.8333156175091","f","true","match","img/ellipse.png","椭圆","椭圆","ALT1_2","prac_ALT1_2","","","","","","","","","",""
"null","<span style='color:GreenYellow; font-size: 70px;'>正确! </span>","null","html-keyboard-response","24","348346","0.0-7.0-1.0-1.0-0.0-1.7","4","3","4","4","4","3","4","4","4","3","5","4","5","4","5","5","5","4","4","5","2","1","3","2","3","2","1","2","1","1","0","1","1","0","0","1","1","0","1","1","0","1","0","1","4","3","4","2","3","1","4","2","2","4","633790726911557632","王","60","","","","","","","","","","","","","","","","","","","","","","","","","","","","","","feedback_test","","","","","","","","","",""
"736","","f","psychophysics","25","350084","0.0-7.0-1.0-1.0-0.0-0.8","4","3","4","4","4","3","4","4","4","3","5","4","5","4","5","5","5","4","4","5","2","1","3","2","3","2","1","2","1","1","0","1","1","0","0","1","1","0","1","1","0","1","0","1","4","3","4","2","3","1","4","2","2","4","633790726911557632","王","60","","","","match","","","","","","","","","","","","","","key","f","16.652796116504973","799.9999682108573","445.8333156175091","f","true","match","img/trapezoid.png","梯形","梯形","ALT1_2","prac_ALT1_2","","","","","","","","","",""
"null","<span style='color:GreenYellow; font-size: 70px;'>正确! </span>","null","html-keyboard-response","26","350585","0.0-7.0-1.0-1.0-0.0-1.8","4","3","4","4","4","3","4","4","4","3","5","4","5","4","5","5","5","4","4","5","2","1","3","2","3","2","1","2","1","1","0","1","1","0","0","1","1","0","1","1","0","1","0","1","4","3","4","2","3","1","4","2","2","4","633790726911557632","王","60","","","","","","","","","","","","","","","","","","","","","","","","","","","","","","feedback_test","","","","","","","","","",""
"814","","j","psychophysics","27","352400","0.0-7.0-1.0-1.0-0.0-0.9","4","3","4","4","4","3","4","4","4","3","5","4","5","4","5","5","5","4","4","5","2","1","3","2","3","2","1","2","1","1","0","1","1","0","0","1","1","0","1","1","0","1","0","1","4","3","4","2","3","1","4","2","2","4","633790726911557632","王","60","","","","nonmatch","","","","","","","","","","","","","","key","j","16.65339814814797","799.9999682108573","445.8333156175091","j","true","nonmatch","img/triangle.png","梯形","三角","ALT1_2","prac_ALT1_2","","","","","","","","","",""
"null","<span style='color:GreenYellow; font-size: 70px;'>正确! </span>","null","html-keyboard-response","28","352901","0.0-7.0-1.0-1.0-0.0-1.9","4","3","4","4","4","3","4","4","4","3","5","4","5","4","5","5","5","4","4","5","2","1","3","2","3","2","1","2","1","1","0","1","1","0","0","1","1","0","1","1","0","1","0","1","4","3","4","2","3","1","4","2","2","4","633790726911557632","王","60","","","","","","","","","","","","","","","","","","","","","","","","","","","","","","feedback_test","","","","","","","","","",""
"887","","f","psychophysics","29","354793","0.0-7.0-1.0-1.0-0.0-0.10","4","3","4","4","4","3","4","4","4","3","5","4","5","4","5","5","5","4","4","5","2","1","3","2","3","2","1","2","1","1","0","1","1","0","0","1","1","0","1","1","0","1","0","1","4","3","4","2","3","1","4","2","2","4","633790726911557632","王","60","","","","match","","","","","","","","","","","","","","key","f","16.646758928571217","799.9999682108573","445.8333156175091","f","true","match","img/triangle.png","三角","三角","ALT1_2","prac_ALT1_2","","","","","","","","","",""
"null","<span style='color:GreenYellow; font-size: 70px;'>正确! </span>","null","html-keyboard-response","30","355294","0.0-7.0-1.0-1.0-0.0-1.10","4","3","4","4","4","3","4","4","4","3","5","4","5","4","5","5","5","4","4","5","2","1","3","2","3","2","1","2","1","1","0","1","1","0","0","1","1","0","1","1","0","1","0","1","4","3","4","2","3","1","4","2","2","4","633790726911557632","王","60","","","","","","","","","","","","","","","","","","","","","","","","","","","","","","feedback_test","","","","","","","","","",""
"860","","j","psychophysics","31","357155","0.0-7.0-1.0-1.0-0.0-0.11","4","3","4","4","4","3","4","4","4","3","5","4","5","4","5","5","5","4","4","5","2","1","3","2","3","2","1","2","1","1","0","1","1","0","0","1","1","0","1","1","0","1","0","1","4","3","4","2","3","1","4","2","2","4","633790726911557632","王","60","","","","nonmatch","","","","","","","","","","","","","","key","j","16.648585585585735","799.9999682108573","445.8333156175091","j","true","nonmatch","img/hexagon.png","椭圆","六边","ALT1_2","prac_ALT1_2","","","","","","","","","",""
"null","<span style='color:GreenYellow; font-size: 70px;'>正确! </span>","null","html-keyboard-response","32","357657","0.0-7.0-1.0-1.0-0.0-1.11","4","3","4","4","4","3","4","4","4","3","5","4","5","4","5","5","5","4","4","5","2","1","3","2","3","2","1","2","1","1","0","1","1","0","0","1","1","0","1","1","0","1","0","1","4","3","4","2","3","1","4","2","2","4","633790726911557632","王","60","","","","","","","","","","","","","","","","","","","","","","","","","","","","","","feedback_test","","","","","","","","","",""
"1012","","j","psychophysics","33","359671","0.0-7.0-1.0-1.0-0.0-0.12","4","3","4","4","4","3","4","4","4","3","5","4","5","4","5","5","5","4","4","5","2","1","3","2","3","2","1","2","1","1","0","1","1","0","0","1","1","0","1","1","0","1","0","1","4","3","4","2","3","1","4","2","2","4","633790726911557632","王","60","","","","nonmatch","","","","","","","","","","","","","","key","j","16.650258333333475","799.9999682108573","445.8333156175091","j","true","nonmatch","img/trapezoid.png","椭圆","梯形","ALT1_2","prac_ALT1_2","","","","","","","","","",""
"null","<span style='color:GreenYellow; font-size: 70px;'>正确! </span>","null","html-keyboard-response","34","360174","0.0-7.0-1.0-1.0-0.0-1.12","4","3","4","4","4","3","4","4","4","3","5","4","5","4","5","5","5","4","4","5","2","1","3","2","3","2","1","2","1","1","0","1","1","0","0","1","1","0","1","1","0","1","0","1","4","3","4","2","3","1","4","2","2","4","633790726911557632","王","60","","","","","","","","","","","","","","","","","","","","","","","","","","","","","","feedback_test","","","","","","","","","",""
"992","","j","psychophysics","35","362167","0.0-7.0-1.0-1.0-0.0-0.13","4","3","4","4","4","3","4","4","4","3","5","4","5","4","5","5","5","4","4","5","2","1","3","2","3","2","1","2","1","1","0","1","1","0","0","1","1","0","1","1","0","1","0","1","4","3","4","2","3","1","4","2","2","4","633790726911557632","王","60","","","","nonmatch","","","","","","","","","","","","","","key","j","16.654075630252276","799.9999682108573","445.8333156175091","j","true","nonmatch","img/ellipse.png","六边","椭圆","ALT1_2","prac_ALT1_2","","","","","","","","","",""
"null","<span style='color:GreenYellow; font-size: 70px;'>正确! </span>","null","html-keyboard-response","36","362668","0.0-7.0-1.0-1.0-0.0-1.13","4","3","4","4","4","3","4","4","4","3","5","4","5","4","5","5","5","4","4","5","2","1","3","2","3","2","1","2","1","1","0","1","1","0","0","1","1","0","1","1","0","1","0","1","4","3","4","2","3","1","4","2","2","4","633790726911557632","王","60","","","","","","","","","","","","","","","","","","","","","","","","","","","","","","feedback_test","","","","","","","","","",""
"720","","f","psychophysics","37","364390","0.0-7.0-1.0-1.0-0.0-0.14","4","3","4","4","4","3","4","4","4","3","5","4","5","4","5","5","5","4","4","5","2","1","3","2","3","2","1","2","1","1","0","1","1","0","0","1","1","0","1","1","0","1","0","1","4","3","4","2","3","1","4","2","2","4","633790726911557632","王","60","","","","match","","","","","","","","","","","","","","key","f","16.65388235294114","799.9999682108573","445.8333156175091","f","true","match","img/hexagon.png","六边","六边","ALT1_2","prac_ALT1_2","","","","","","","","","",""
"null","<span style='color:GreenYellow; font-size: 70px;'>正确! </span>","null","html-keyboard-response","38","364891","0.0-7.0-1.0-1.0-0.0-1.14","4","3","4","4","4","3","4","4","4","3","5","4","5","4","5","5","5","4","4","5","2","1","3","2","3","2","1","2","1","1","0","1","1","0","0","1","1","0","1","1","0","1","0","1","4","3","4","2","3","1","4","2","2","4","633790726911557632","王","60","","","","","","","","","","","","","","","","","","","","","","","","","","","","","","feedback_test","","","","","","","","","",""
"879","","j","psychophysics","39","366771","0.0-7.0-1.0-1.0-0.0-0.15","4","3","4","4","4","3","4","4","4","3","5","4","5","4","5","5","5","4","4","5","2","1","3","2","3","2","1","2","1","1","0","1","1","0","0","1","1","0","1","1","0","1","0","1","4","3","4","2","3","1","4","2","2","4","633790726911557632","王","60","","","","nonmatch","","","","","","","","","","","","","","key","j","16.649774774774773","799.9999682108573","445.8333156175091","j","true","nonmatch","img/trapezoid.png","三角","梯形","ALT1_2","prac_ALT1_2","","","","","","","","","",""
"null","<span style='color:GreenYellow; font-size: 70px;'>正确! </span>","null","html-keyboard-response","40","367272","0.0-7.0-1.0-1.0-0.0-1.15","4","3","4","4","4","3","4","4","4","3","5","4","5","4","5","5","5","4","4","5","2","1","3","2","3","2","1","2","1","1","0","1","1","0","0","1","1","0","1","1","0","1","0","1","4","3","4","2","3","1","4","2","2","4","633790726911557632","王","60","","","","","","","","","","","","","","","","","","","","","","","","","","","","","","feedback_test","","","","","","","","","",""
"828","","j","psychophysics","41","369102","0.0-7.0-1.0-1.0-0.0-0.16","4","3","4","4","4","3","4","4","4","3","5","4","5","4","5","5","5","4","4","5","2","1","3","2","3","2","1","2","1","1","0","1","1","0","0","1","1","0","1","1","0","1","0","1","4","3","4","2","3","1","4","2","2","4","633790726911557632","王","60","","","","nonmatch","","","","","","","","","","","","","","key","j","16.650138888888588","799.9999682108573","445.8333156175091","j","true","nonmatch","img/hexagon.png","三角","六边","ALT1_2","prac_ALT1_2","","","","","","","","","",""
"null","<span style='color:GreenYellow; font-size: 70px;'>正确! </span>","null","html-keyboard-response","42","369605","0.0-7.0-1.0-1.0-0.0-1.16","4","3","4","4","4","3","4","4","4","3","5","4","5","4","5","5","5","4","4","5","2","1","3","2","3","2","1","2","1","1","0","1","1","0","0","1","1","0","1","1","0","1","0","1","4","3","4","2","3","1","4","2","2","4","633790726911557632","王","60","","","","","","","","","","","","","","","","","","","","","","","","","","","","","","feedback_test","","","","","","","","","",""
"704","","f","psychophysics","43","371310","0.0-7.0-1.0-1.0-0.0-0.17","4","3","4","4","4","3","4","4","4","3","5","4","5","4","5","5","5","4","4","5","2","1","3","2","3","2","1","2","1","1","0","1","1","0","0","1","1","0","1","1","0","1","0","1","4","3","4","2","3","1","4","2","2","4","633790726911557632","王","60","","","","match","","","","","","","","","","","","","","key","f","16.654376237623804","799.9999682108573","445.8333156175091","f","true","match","img/hexagon.png","六边","六边","ALT1_2","prac_ALT1_2","","","","","","","","","",""
"null","<span style='color:GreenYellow; font-size: 70px;'>正确! </span>","null","html-keyboard-response","44","371811","0.0-7.0-1.0-1.0-0.0-1.17","4","3","4","4","4","3","4","4","4","3","5","4","5","4","5","5","5","4","4","5","2","1","3","2","3","2","1","2","1","1","0","1","1","0","0","1","1","0","1","1","0","1","0","1","4","3","4","2","3","1","4","2","2","4","633790726911557632","王","60","","","","","","","","","","","","","","","","","","","","","","","","","","","","","","feedback_test","","","","","","","","","",""
"750","","f","psychophysics","45","373563","0.0-7.0-1.0-1.0-0.0-0.18","4","3","4","4","4","3","4","4","4","3","5","4","5","4","5","5","5","4","4","5","2","1","3","2","3","2","1","2","1","1","0","1","1","0","0","1","1","0","1","1","0","1","0","1","4","3","4","2","3","1","4","2","2","4","633790726911557632","王","60","","","","match","","","","","","","","","","","","","","key","f","16.649394230768777","799.9999682108573","445.8333156175091","f","true","match","img/trapezoid.png","梯形","梯形","ALT1_2","prac_ALT1_2","","","","","","","","","",""
"null","<span style='color:GreenYellow; font-size: 70px;'>正确! </span>","null","html-keyboard-response","46","374063","0.0-7.0-1.0-1.0-0.0-1.18","4","3","4","4","4","3","4","4","4","3","5","4","5","4","5","5","5","4","4","5","2","1","3","2","3","2","1","2","1","1","0","1","1","0","0","1","1","0","1","1","0","1","0","1","4","3","4","2","3","1","4","2","2","4","633790726911557632","王","60","","","","","","","","","","","","","","","","","","","","","","","","","","","","","","feedback_test","","","","","","","","","",""
"694","","j","psychophysics","47","375759","0.0-7.0-1.0-1.0-0.0-0.19","4","3","4","4","4","3","4","4","4","3","5","4","5","4","5","5","5","4","4","5","2","1","3","2","3","2","1","2","1","1","0","1","1","0","0","1","1","0","1","1","0","1","0","1","4","3","4","2","3","1","4","2","2","4","633790726911557632","王","60","","","","nonmatch","","","","","","","","","","","","","","key","j","16.65327722772248","799.9999682108573","445.8333156175091","j","true","nonmatch","img/ellipse.png","三角","椭圆","ALT1_2","prac_ALT1_2","","","","","","","","","",""
"null","<span style='color:GreenYellow; font-size: 70px;'>正确! </span>","null","html-keyboard-response","48","376263","0.0-7.0-1.0-1.0-0.0-1.19","4","3","4","4","4","3","4","4","4","3","5","4","5","4","5","5","5","4","4","5","2","1","3","2","3","2","1","2","1","1","0","1","1","0","0","1","1","0","1","1","0","1","0","1","4","3","4","2","3","1","4","2","2","4","633790726911557632","王","60","","","","","","","","","","","","","","","","","","","","","","","","","","","","","","feedback_test","","","","","","","","","",""
"1140","","j","psychophysics","49","378405","0.0-7.0-1.0-1.0-0.0-0.20","4","3","4","4","4","3","4","4","4","3","5","4","5","4","5","5","5","4","4","5","2","1","3","2","3","2","1","2","1","1","0","1","1","0","0","1","1","0","1","1","0","1","0","1","4","3","4","2","3","1","4","2","2","4","633790726911557632","王","60","","","","nonmatch","","","","","","","","","","","","","","key","j","16.653312500000084","799.9999682108573","445.8333156175091","j","true","nonmatch","img/hexagon.png","梯形","六边","ALT1_2","prac_ALT1_2","","","","","","","","","",""
"null","<span style='color:GreenYellow; font-size: 70px;'>正确! </span>","null","html-keyboard-response","50","378906","0.0-7.0-1.0-1.0-0.0-1.20","4","3","4","4","4","3","4","4","4","3","5","4","5","4","5","5","5","4","4","5","2","1","3","2","3","2","1","2","1","1","0","1","1","0","0","1","1","0","1","1","0","1","0","1","4","3","4","2","3","1","4","2","2","4","633790726911557632","王","60","","","","","","","","","","","","","","","","","","","","","","","","","","","","","","feedback_test","","","","","","","","","",""
"947","","j","psychophysics","51","380861","0.0-7.0-1.0-1.0-0.0-0.21","4","3","4","4","4","3","4","4","4","3","5","4","5","4","5","5","5","4","4","5","2","1","3","2","3","2","1","2","1","1","0","1","1","0","0","1","1","0","1","1","0","1","0","1","4","3","4","2","3","1","4","2","2","4","633790726911557632","王","60","","","","nonmatch","","","","","","","","","","","","","","key","j","16.649474137930845","799.9999682108573","445.8333156175091","j","true","nonmatch","img/trapezoid.png","六边","梯形","ALT1_2","prac_ALT1_2","","","","","","","","","",""
"null","<span style='color:GreenYellow; font-size: 70px;'>正确! </span>","null","html-keyboard-response","52","381361","0.0-7.0-1.0-1.0-0.0-1.21","4","3","4","4","4","3","4","4","4","3","5","4","5","4","5","5","5","4","4","5","2","1","3","2","3","2","1","2","1","1","0","1","1","0","0","1","1","0","1","1","0","1","0","1","4","3","4","2","3","1","4","2","2","4","633790726911557632","王","60","","","","","","","","","","","","","","","","","","","","","","","","","","","","","","feedback_test","","","","","","","","","",""
"703","","f","psychophysics","53","383066","0.0-7.0-1.0-1.0-0.0-0.22","4","3","4","4","4","3","4","4","4","3","5","4","5","4","5","5","5","4","4","5","2","1","3","2","3","2","1","2","1","1","0","1","1","0","0","1","1","0","1","1","0","1","0","1","4","3","4","2","3","1","4","2","2","4","633790726911557632","王","60","","","","match","","","","","","","","","","","","","","key","f","16.65292079207928","799.9999682108573","445.8333156175091","f","true","match","img/ellipse.png","椭圆","椭圆","ALT1_2","prac_ALT1_2","","","","","","","","","",""
"null","<span style='color:GreenYellow; font-size: 70px;'>正确! </span>","null","html-keyboard-response","54","383568","0.0-7.0-1.0-1.0-0.0-1.22","4","3","4","4","4","3","4","4","4","3","5","4","5","4","5","5","5","4","4","5","2","1","3","2","3","2","1","2","1","1","0","1","1","0","0","1","1","0","1","1","0","1","0","1","4","3","4","2","3","1","4","2","2","4","633790726911557632","王","60","","","","","","","","","","","","","","","","","","","","","","","","","","","","","","feedback_test","","","","","","","","","",""
"720","","f","psychophysics","55","385291","0.0-7.0-1.0-1.0-0.0-0.23","4","3","4","4","4","3","4","4","4","3","5","4","5","4","5","5","5","4","4","5","2","1","3","2","3","2","1","2","1","1","0","1","1","0","0","1","1","0","1","1","0","1","0","1","4","3","4","2","3","1","4","2","2","4","633790726911557632","王","60","","","","match","","","","","","","","","","","","","","key","f","16.650607843136907","799.9999682108573","445.8333156175091","f","true","match","img/triangle.png","三角","三角","ALT1_2","prac_ALT1_2","","","","","","","","","",""
"null","<span style='color:GreenYellow; font-size: 70px;'>正确! </span>","null","html-keyboard-response","56","385792","0.0-7.0-1.0-1.0-0.0-1.23","4","3","4","4","4","3","4","4","4","3","5","4","5","4","5","5","5","4","4","5","2","1","3","2","3","2","1","2","1","1","0","1","1","0","0","1","1","0","1","1","0","1","0","1","4","3","4","2","3","1","4","2","2","4","633790726911557632","王","60","","","","","","","","","","","","","","","","","","","","","","","","","","","","","","feedback_test","","","","","","","","","",""
"669","","f","psychophysics","57","387465","0.0-7.0-1.0-1.0-0.0-0.24","4","3","4","4","4","3","4","4","4","3","5","4","5","4","5","5","5","4","4","5","2","1","3","2","3","2","1","2","1","1","0","1","1","0","0","1","1","0","1","1","0","1","0","1","4","3","4","2","3","1","4","2","2","4","633790726911557632","王","60","","","","match","","","","","","","","","","","","","","key","f","16.65356565656545","799.9999682108573","445.8333156175091","f","true","match","img/hexagon.png","六边","六边","ALT1_2","prac_ALT1_2","","","","","","","","","",""
"null","<span style='color:GreenYellow; font-size: 70px;'>正确! </span>","null","html-keyboard-response","58","387966","0.0-7.0-1.0-1.0-0.0-1.24","4","3","4","4","4","3","4","4","4","3","5","4","5","4","5","5","5","4","4","5","2","1","3","2","3","2","1","2","1","1","0","1","1","0","0","1","1","0","1","1","0","1","0","1","4","3","4","2","3","1","4","2","2","4","633790726911557632","王","60","","","","","","","","","","","","","","","","","","","","","","","","","","","","","","feedback_test","","","","","","","","","",""
"837","","j","psychophysics","59","389803","0.0-7.0-1.0-1.0-0.0-0.25","4","3","4","4","4","3","4","4","4","3","5","4","5","4","5","5","5","4","4","5","2","1","3","2","3","2","1","2","1","1","0","1","1","0","0","1","1","0","1","1","0","1","0","1","4","3","4","2","3","1","4","2","2","4","633790726911557632","王","60","","","","nonmatch","","","","","","","","","","","","","","key","j","16.65000917431215","799.9999682108573","445.8333156175091","j","true","nonmatch","img/hexagon.png","三角","六边","ALT1_2","prac_ALT1_2","","","","","","","","","",""
"null","<span style='color:GreenYellow; font-size: 70px;'>正确! </span>","null","html-keyboard-response","60","390305","0.0-7.0-1.0-1.0-0.0-1.25","4","3","4","4","4","3","4","4","4","3","5","4","5","4","5","5","5","4","4","5","2","1","3","2","3","2","1","2","1","1","0","1","1","0","0","1","1","0","1","1","0","1","0","1","4","3","4","2","3","1","4","2","2","4","633790726911557632","王","60","","","","","","","","","","","","","","","","","","","","","","","","","","","","","","feedback_test","","","","","","","","","",""
"958","","j","psychophysics","61","392267","0.0-7.0-1.0-1.0-0.0-0.26","4","3","4","4","4","3","4","4","4","3","5","4","5","4","5","5","5","4","4","5","2","1","3","2","3","2","1","2","1","1","0","1","1","0","0","1","1","0","1","1","0","1","0","1","4","3","4","2","3","1","4","2","2","4","633790726911557632","王","60","","","","nonmatch","","","","","","","","","","","","","","key","j","16.653336206896647","799.9999682108573","445.8333156175091","j","true","nonmatch","img/trapezoid.png","六边","梯形","ALT1_2","prac_ALT1_2","","","","","","","","","",""
"null","<span style='color:GreenYellow; font-size: 70px;'>正确! </span>","null","html-keyboard-response","62","392767","0.0-7.0-1.0-1.0-0.0-1.26","4","3","4","4","4","3","4","4","4","3","5","4","5","4","5","5","5","4","4","5","2","1","3","2","3","2","1","2","1","1","0","1","1","0","0","1","1","0","1","1","0","1","0","1","4","3","4","2","3","1","4","2","2","4","633790726911557632","王","60","","","","","","","","","","","","","","","","","","","","","","","","","","","","","","feedback_test","","","","","","","","","",""
"807","","j","psychophysics","63","394576","0.0-7.0-1.0-1.0-0.0-0.27","4","3","4","4","4","3","4","4","4","3","5","4","5","4","5","5","5","4","4","5","2","1","3","2","3","2","1","2","1","1","0","1","1","0","0","1","1","0","1","1","0","1","0","1","4","3","4","2","3","1","4","2","2","4","633790726911557632","王","60","","","","nonmatch","","","","","","","","","","","","","","key","j","16.65354629629615","799.9999682108573","445.8333156175091","j","true","nonmatch","img/ellipse.png","三角","椭圆","ALT1_2","prac_ALT1_2","","","","","","","","","",""
"null","<span style='color:GreenYellow; font-size: 70px;'>正确! </span>","null","html-keyboard-response","64","395077","0.0-7.0-1.0-1.0-0.0-1.27","4","3","4","4","4","3","4","4","4","3","5","4","5","4","5","5","5","4","4","5","2","1","3","2","3","2","1","2","1","1","0","1","1","0","0","1","1","0","1","1","0","1","0","1","4","3","4","2","3","1","4","2","2","4","633790726911557632","王","60","","","","","","","","","","","","","","","","","","","","","","","","","","","","","","feedback_test","","","","","","","","","",""
"694","","j","psychophysics","65","396772","0.0-7.0-1.0-1.0-0.0-0.28","4","3","4","4","4","3","4","4","4","3","5","4","5","4","5","5","5","4","4","5","2","1","3","2","3","2","1","2","1","1","0","1","1","0","0","1","1","0","1","1","0","1","0","1","4","3","4","2","3","1","4","2","2","4","633790726911557632","王","60","","","","nonmatch","","","","","","","","","","","","","","key","j","16.6536138613857","799.9999682108573","445.8333156175091","j","true","nonmatch","img/trapezoid.png","椭圆","梯形","ALT1_2","prac_ALT1_2","","","","","","","","","",""
"null","<span style='color:GreenYellow; font-size: 70px;'>正确! </span>","null","html-keyboard-response","66","397274","0.0-7.0-1.0-1.0-0.0-1.28","4","3","4","4","4","3","4","4","4","3","5","4","5","4","5","5","5","4","4","5","2","1","3","2","3","2","1","2","1","1","0","1","1","0","0","1","1","0","1","1","0","1","0","1","4","3","4","2","3","1","4","2","2","4","633790726911557632","王","60","","","","","","","","","","","","","","","","","","","","","","","","","","","","","","feedback_test","","","","","","","","","",""
"711","","f","psychophysics","67","398986","0.0-7.0-1.0-1.0-0.0-0.29","4","3","4","4","4","3","4","4","4","3","5","4","5","4","5","5","5","4","4","5","2","1","3","2","3","2","1","2","1","1","0","1","1","0","0","1","1","0","1","1","0","1","0","1","4","3","4","2","3","1","4","2","2","4","633790726911557632","王","60","","","","match","","","","","","","","","","","","","","key","f","16.649921568627605","799.9999682108573","445.8333156175091","j","false","nonmatch","img/ellipse.png","梯形","椭圆","ALT1_2","prac_ALT1_2","","","","","","","","","",""
"null","<span style='color:red; font-size: 70px;'>错误! </span>","null","html-keyboard-response","68","399487","0.0-7.0-1.0-1.0-0.0-1.29","4","3","4","4","4","3","4","4","4","3","5","4","5","4","5","5","5","4","4","5","2","1","3","2","3","2","1","2","1","1","0","1","1","0","0","1","1","0","1","1","0","1","0","1","4","3","4","2","3","1","4","2","2","4","633790726911557632","王","60","","","","","","","","","","","","","","","","","","","","","","","","","","","","","","feedback_test","","","","","","","","","",""
"728","","f","psychophysics","69","401218","0.0-7.0-1.0-1.0-0.0-0.30","4","3","4","4","4","3","4","4","4","3","5","4","5","4","5","5","5","4","4","5","2","1","3","2","3","2","1","2","1","1","0","1","1","0","0","1","1","0","1","1","0","1","0","1","4","3","4","2","3","1","4","2","2","4","633790726911557632","王","60","","","","match","","","","","","","","","","","","","","key","f","16.6525242718443","799.9999682108573","445.8333156175091","f","true","match","img/triangle.png","三角","三角","ALT1_2","prac_ALT1_2","","","","","","","","","",""
"null","<span style='color:GreenYellow; font-size: 70px;'>正确! </span>","null","html-keyboard-response","70","401721","0.0-7.0-1.0-1.0-0.0-1.30","4","3","4","4","4","3","4","4","4","3","5","4","5","4","5","5","5","4","4","5","2","1","3","2","3","2","1","2","1","1","0","1","1","0","0","1","1","0","1","1","0","1","0","1","4","3","4","2","3","1","4","2","2","4","633790726911557632","王","60","","","","","","","","","","","","","","","","","","","","","","","","","","","","","","feedback_test","","","","","","","","","",""
"627","","f","psychophysics","71","403349","0.0-7.0-1.0-1.0-0.0-0.31","4","3","4","4","4","3","4","4","4","3","5","4","5","4","5","5","5","4","4","5","2","1","3","2","3","2","1","2","1","1","0","1","1","0","0","1","1","0","1","1","0","1","0","1","4","3","4","2","3","1","4","2","2","4","633790726911557632","王","60","","","","match","","","","","","","","","","","","","","key","f","16.650144329897042","799.9999682108573","445.8333156175091","f","true","match","img/triangle.png","三角","三角","ALT1_2","prac_ALT1_2","","","","","","","","","",""
"null","<span style='color:GreenYellow; font-size: 70px;'>正确! </span>","null","html-keyboard-response","72","403851","0.0-7.0-1.0-1.0-0.0-1.31","4","3","4","4","4","3","4","4","4","3","5","4","5","4","5","5","5","4","4","5","2","1","3","2","3","2","1","2","1","1","0","1","1","0","0","1","1","0","1","1","0","1","0","1","4","3","4","2","3","1","4","2","2","4","633790726911557632","王","60","","","","","","","","","","","","","","","","","","","","","","","","","","","","","","feedback_test","","","","","","","","","",""
"851","","f","psychophysics","73","405703","0.0-7.0-1.0-1.0-0.0-0.32","4","3","4","4","4","3","4","4","4","3","5","4","5","4","5","5","5","4","4","5","2","1","3","2","3","2","1","2","1","1","0","1","1","0","0","1","1","0","1","1","0","1","0","1","4","3","4","2","3","1","4","2","2","4","633790726911557632","王","60","","","","match","","","","","","","","","","","","","","key","f","16.65302727272713","799.9999682108573","445.8333156175091","f","true","match","img/triangle.png","三角","三角","ALT1_2","prac_ALT1_2","","","","","","","","","",""
"null","<span style='color:GreenYellow; font-size: 70px;'>正确! </span>","null","html-keyboard-response","74","406204","0.0-7.0-1.0-1.0-0.0-1.32","4","3","4","4","4","3","4","4","4","3","5","4","5","4","5","5","5","4","4","5","2","1","3","2","3","2","1","2","1","1","0","1","1","0","0","1","1","0","1","1","0","1","0","1","4","3","4","2","3","1","4","2","2","4","633790726911557632","王","60","","","","","","","","","","","","","","","","","","","","","","","","","","","","","","feedback_test","","","","","","","","","",""
"790","","j","psychophysics","75","407996","0.0-7.0-1.0-1.0-0.0-0.33","4","3","4","4","4","3","4","4","4","3","5","4","5","4","5","5","5","4","4","5","2","1","3","2","3","2","1","2","1","1","0","1","1","0","0","1","1","0","1","1","0","1","0","1","4","3","4","2","3","1","4","2","2","4","633790726911557632","王","60","","","","nonmatch","","","","","","","","","","","","","","key","j","16.654056074766867","799.9999682108573","445.8333156175091","j","true","nonmatch","img/triangle.png","六边","三角","ALT1_2","prac_ALT1_2","","","","","","","","","",""
"null","<span style='color:GreenYellow; font-size: 70px;'>正确! </span>","null","html-keyboard-response","76","408499","0.0-7.0-1.0-1.0-0.0-1.33","4","3","4","4","4","3","4","4","4","3","5","4","5","4","5","5","5","4","4","5","2","1","3","2","3","2","1","2","1","1","0","1","1","0","0","1","1","0","1","1","0","1","0","1","4","3","4","2","3","1","4","2","2","4","633790726911557632","王","60","","","","","","","","","","","","","","","","","","","","","","","","","","","","","","feedback_test","","","","","","","","","",""
"779","","j","psychophysics","77","410280","0.0-7.0-1.0-1.0-0.0-0.34","4","3","4","4","4","3","4","4","4","3","5","4","5","4","5","5","5","4","4","5","2","1","3","2","3","2","1","2","1","1","0","1","1","0","0","1","1","0","1","1","0","1","0","1","4","3","4","2","3","1","4","2","2","4","633790726911557632","王","60","","","","nonmatch","","","","","","","","","","","","","","key","j","16.64852830188685","799.9999682108573","445.8333156175091","j","true","nonmatch","img/triangle.png","椭圆","三角","ALT1_2","prac_ALT1_2","","","","","","","","","",""
"null","<span style='color:GreenYellow; font-size: 70px;'>正确! </span>","null","html-keyboard-response","78","410782","0.0-7.0-1.0-1.0-0.0-1.34","4","3","4","4","4","3","4","4","4","3","5","4","5","4","5","5","5","4","4","5","2","1","3","2","3","2","1","2","1","1","0","1","1","0","0","1","1","0","1","1","0","1","0","1","4","3","4","2","3","1","4","2","2","4","633790726911557632","王","60","","","","","","","","","","","","","","","","","","","","","","","","","","","","","","feedback_test","","","","","","","","","",""
"892","","j","psychophysics","79","412676","0.0-7.0-1.0-1.0-0.0-0.35","4","3","4","4","4","3","4","4","4","3","5","4","5","4","5","5","5","4","4","5","2","1","3","2","3","2","1","2","1","1","0","1","1","0","0","1","1","0","1","1","0","1","0","1","4","3","4","2","3","1","4","2","2","4","633790726911557632","王","60","","","","nonmatch","","","","","","","","","","","","","","key","j","16.653858407079635","799.9999682108573","445.8333156175091","j","true","nonmatch","img/ellipse.png","六边","椭圆","ALT1_2","prac_ALT1_2","","","","","","","","","",""
"null","<span style='color:GreenYellow; font-size: 70px;'>正确! </span>","null","html-keyboard-response","80","413176","0.0-7.0-1.0-1.0-0.0-1.35","4","3","4","4","4","3","4","4","4","3","5","4","5","4","5","5","5","4","4","5","2","1","3","2","3","2","1","2","1","1","0","1","1","0","0","1","1","0","1","1","0","1","0","1","4","3","4","2","3","1","4","2","2","4","633790726911557632","王","60","","","","","","","","","","","","","","","","","","","","","","","","","","","","","","feedback_test","","","","","","","","","",""
"766","","j","psychophysics","81","414944","0.0-7.0-1.0-1.0-0.0-0.36","4","3","4","4","4","3","4","4","4","3","5","4","5","4","5","5","5","4","4","5","2","1","3","2","3","2","1","2","1","1","0","1","1","0","0","1","1","0","1","1","0","1","0","1","4","3","4","2","3","1","4","2","2","4","633790726911557632","王","60","","","","nonmatch","","","","","","","","","","","","","","key","j","16.65235238095269","799.9999682108573","445.8333156175091","j","true","nonmatch","img/hexagon.png","梯形","六边","ALT1_2","prac_ALT1_2","","","","","","","","","",""
"null","<span style='color:GreenYellow; font-size: 70px;'>正确! </span>","null","html-keyboard-response","82","415446","0.0-7.0-1.0-1.0-0.0-1.36","4","3","4","4","4","3","4","4","4","3","5","4","5","4","5","5","5","4","4","5","2","1","3","2","3","2","1","2","1","1","0","1","1","0","0","1","1","0","1","1","0","1","0","1","4","3","4","2","3","1","4","2","2","4","633790726911557632","王","60","","","","","","","","","","","","","","","","","","","","","","","","","","","","","","feedback_test","","","","","","","","","",""
"789","","f","psychophysics","83","417238","0.0-7.0-1.0-1.0-0.0-0.37","4","3","4","4","4","3","4","4","4","3","5","4","5","4","5","5","5","4","4","5","2","1","3","2","3","2","1","2","1","1","0","1","1","0","0","1","1","0","1","1","0","1","0","1","4","3","4","2","3","1","4","2","2","4","633790726911557632","王","60","","","","match","","","","","","","","","","","","","","key","f","16.65367289719653","799.9999682108573","445.8333156175091","f","true","match","img/trapezoid.png","梯形","梯形","ALT1_2","prac_ALT1_2","","","","","","","","","",""
"null","<span style='color:GreenYellow; font-size: 70px;'>正确! </span>","null","html-keyboard-response","84","417739","0.0-7.0-1.0-1.0-0.0-1.37","4","3","4","4","4","3","4","4","4","3","5","4","5","4","5","5","5","4","4","5","2","1","3","2","3","2","1","2","1","1","0","1","1","0","0","1","1","0","1","1","0","1","0","1","4","3","4","2","3","1","4","2","2","4","633790726911557632","王","60","","","","","","","","","","","","","","","","","","","","","","","","","","","","","","feedback_test","","","","","","","","","",""
"1082","","j","psychophysics","85","419822","0.0-7.0-1.0-1.0-0.0-0.38","4","3","4","4","4","3","4","4","4","3","5","4","5","4","5","5","5","4","4","5","2","1","3","2","3","2","1","2","1","1","0","1","1","0","0","1","1","0","1","1","0","1","0","1","4","3","4","2","3","1","4","2","2","4","633790726911557632","王","60","","","","nonmatch","","","","","","","","","","","","","","key","j","16.654120967742205","799.9999682108573","445.8333156175091","j","true","nonmatch","img/hexagon.png","椭圆","六边","ALT1_2","prac_ALT1_2","","","","","","","","","",""
"null","<span style='color:GreenYellow; font-size: 70px;'>正确! </span>","null","html-keyboard-response","86","420324","0.0-7.0-1.0-1.0-0.0-1.38","4","3","4","4","4","3","4","4","4","3","5","4","5","4","5","5","5","4","4","5","2","1","3","2","3","2","1","2","1","1","0","1","1","0","0","1","1","0","1","1","0","1","0","1","4","3","4","2","3","1","4","2","2","4","633790726911557632","王","60","","","","","","","","","","","","","","","","","","","","","","","","","","","","","","feedback_test","","","","","","","","","",""
"829","","f","psychophysics","87","422154","0.0-7.0-1.0-1.0-0.0-0.39","4","3","4","4","4","3","4","4","4","3","5","4","5","4","5","5","5","4","4","5","2","1","3","2","3","2","1","2","1","1","0","1","1","0","0","1","1","0","1","1","0","1","0","1","4","3","4","2","3","1","4","2","2","4","633790726911557632","王","60","","","","match","","","","","","","","","","","","","","key","f","16.653899082568486","799.9999682108573","445.8333156175091","f","true","match","img/trapezoid.png","梯形","梯形","ALT1_2","prac_ALT1_2","","","","","","","","","",""
"null","<span style='color:GreenYellow; font-size: 70px;'>正确! </span>","null","html-keyboard-response","88","422656","0.0-7.0-1.0-1.0-0.0-1.39","4","3","4","4","4","3","4","4","4","3","5","4","5","4","5","5","5","4","4","5","2","1","3","2","3","2","1","2","1","1","0","1","1","0","0","1","1","0","1","1","0","1","0","1","4","3","4","2","3","1","4","2","2","4","633790726911557632","王","60","","","","","","","","","","","","","","","","","","","","","","","","","","","","","","feedback_test","","","","","","","","","",""
"754","","j","psychophysics","89","424412","0.0-7.0-1.0-1.0-0.0-0.40","4","3","4","4","4","3","4","4","4","3","5","4","5","4","5","5","5","4","4","5","2","1","3","2","3","2","1","2","1","1","0","1","1","0","0","1","1","0","1","1","0","1","0","1","4","3","4","2","3","1","4","2","2","4","633790726911557632","王","60","","","","nonmatch","","","","","","","","","","","","","","key","j","16.653695238095022","799.9999682108573","445.8333156175091","j","true","nonmatch","img/triangle.png","梯形","三角","ALT1_2","prac_ALT1_2","","","","","","","","","",""
"null","<span style='color:GreenYellow; font-size: 70px;'>正确! </span>","null","html-keyboard-response","90","424914","0.0-7.0-1.0-1.0-0.0-1.40","4","3","4","4","4","3","4","4","4","3","5","4","5","4","5","5","5","4","4","5","2","1","3","2","3","2","1","2","1","1","0","1","1","0","0","1","1","0","1","1","0","1","0","1","4","3","4","2","3","1","4","2","2","4","633790726911557632","王","60","","","","","","","","","","","","","","","","","","","","","","","","","","","","","","feedback_test","","","","","","","","","",""
"838","","f","psychophysics","91","426753","0.0-7.0-1.0-1.0-0.0-0.41","4","3","4","4","4","3","4","4","4","3","5","4","5","4","5","5","5","4","4","5","2","1","3","2","3","2","1","2","1","1","0","1","1","0","0","1","1","0","1","1","0","1","0","1","4","3","4","2","3","1","4","2","2","4","633790726911557632","王","60","","","","match","","","","","","","","","","","","","","key","f","16.653642201835158","799.9999682108573","445.8333156175091","f","true","match","img/trapezoid.png","梯形","梯形","ALT1_2","prac_ALT1_2","","","","","","","","","",""
"null","<span style='color:GreenYellow; font-size: 70px;'>正确! </span>","null","html-keyboard-response","92","427255","0.0-7.0-1.0-1.0-0.0-1.41","4","3","4","4","4","3","4","4","4","3","5","4","5","4","5","5","5","4","4","5","2","1","3","2","3","2","1","2","1","1","0","1","1","0","0","1","1","0","1","1","0","1","0","1","4","3","4","2","3","1","4","2","2","4","633790726911557632","王","60","","","","","","","","","","","","","","","","","","","","","","","","","","","","","","feedback_test","","","","","","","","","",""
"772","","j","psychophysics","93","429028","0.0-7.0-1.0-1.0-0.0-0.42","4","3","4","4","4","3","4","4","4","3","5","4","5","4","5","5","5","4","4","5","2","1","3","2","3","2","1","2","1","1","0","1","1","0","0","1","1","0","1","1","0","1","0","1","4","3","4","2","3","1","4","2","2","4","633790726911557632","王","60","","","","nonmatch","","","","","","","","","","","","","","key","j","16.65325471698109","799.9999682108573","445.8333156175091","f","false","match","img/ellipse.png","椭圆","椭圆","ALT1_2","prac_ALT1_2","","","","","","","","","",""
"null","<span style='color:red; font-size: 70px;'>错误! </span>","null","html-keyboard-response","94","429531","0.0-7.0-1.0-1.0-0.0-1.42","4","3","4","4","4","3","4","4","4","3","5","4","5","4","5","5","5","4","4","5","2","1","3","2","3","2","1","2","1","1","0","1","1","0","0","1","1","0","1","1","0","1","0","1","4","3","4","2","3","1","4","2","2","4","633790726911557632","王","60","","","","","","","","","","","","","","","","","","","","","","","","","","","","","","feedback_test","","","","","","","","","",""
"797","","j","psychophysics","95","431329","0.0-7.0-1.0-1.0-0.0-0.43","4","3","4","4","4","3","4","4","4","3","5","4","5","4","5","5","5","4","4","5","2","1","3","2","3","2","1","2","1","1","0","1","1","0","0","1","1","0","1","1","0","1","0","1","4","3","4","2","3","1","4","2","2","4","633790726911557632","王","60","","","","nonmatch","","","","","","","","","","","","","","key","j","16.6533271028039","799.9999682108573","445.8333156175091","j","true","nonmatch","img/trapezoid.png","三角","梯形","ALT1_2","prac_ALT1_2","","","","","","","","","",""
"null","<span style='color:GreenYellow; font-size: 70px;'>正确! </span>","null","html-keyboard-response","96","431830","0.0-7.0-1.0-1.0-0.0-1.43","4","3","4","4","4","3","4","4","4","3","5","4","5","4","5","5","5","4","4","5","2","1","3","2","3","2","1","2","1","1","0","1","1","0","0","1","1","0","1","1","0","1","0","1","4","3","4","2","3","1","4","2","2","4","633790726911557632","王","60","","","","","","","","","","","","","","","","","","","","","","","","","","","","","","feedback_test","","","","","","","","","",""
"706","","f","psychophysics","97","433539","0.0-7.0-1.0-1.0-0.0-0.44","4","3","4","4","4","3","4","4","4","3","5","4","5","4","5","5","5","4","4","5","2","1","3","2","3","2","1","2","1","1","0","1","1","0","0","1","1","0","1","1","0","1","0","1","4","3","4","2","3","1","4","2","2","4","633790726911557632","王","60","","","","match","","","","","","","","","","","","","","key","f","16.648852941176656","799.9999682108573","445.8333156175091","f","true","match","img/ellipse.png","椭圆","椭圆","ALT1_2","prac_ALT1_2","","","","","","","","","",""
"null","<span style='color:GreenYellow; font-size: 70px;'>正确! </span>","null","html-keyboard-response","98","434043","0.0-7.0-1.0-1.0-0.0-1.44","4","3","4","4","4","3","4","4","4","3","5","4","5","4","5","5","5","4","4","5","2","1","3","2","3","2","1","2","1","1","0","1","1","0","0","1","1","0","1","1","0","1","0","1","4","3","4","2","3","1","4","2","2","4","633790726911557632","王","60","","","","","","","","","","","","","","","","","","","","","","","","","","","","","","feedback_test","","","","","","","","","",""
"724","","f","psychophysics","99","435775","0.0-7.0-1.0-1.0-0.0-0.45","4","3","4","4","4","3","4","4","4","3","5","4","5","4","5","5","5","4","4","5","2","1","3","2","3","2","1","2","1","1","0","1","1","0","0","1","1","0","1","1","0","1","0","1","4","3","4","2","3","1","4","2","2","4","633790726911557632","王","60","","","","match","","","","","","","","","","","","","","key","f","16.65235922330068","799.9999682108573","445.8333156175091","f","true","match","img/hexagon.png","六边","六边","ALT1_2","prac_ALT1_2","","","","","","","","","",""
"null","<span style='color:GreenYellow; font-size: 70px;'>正确! </span>","null","html-keyboard-response","100","436278","0.0-7.0-1.0-1.0-0.0-1.45","4","3","4","4","4","3","4","4","4","3","5","4","5","4","5","5","5","4","4","5","2","1","3","2","3","2","1","2","1","1","0","1","1","0","0","1","1","0","1","1","0","1","0","1","4","3","4","2","3","1","4","2","2","4","633790726911557632","王","60","","","","","","","","","","","","","","","","","","","","","","","","","","","","","","feedback_test","","","","","","","","","",""
"684","","f","psychophysics","101","437962","0.0-7.0-1.0-1.0-0.0-0.46","4","3","4","4","4","3","4","4","4","3","5","4","5","4","5","5","5","4","4","5","2","1","3","2","3","2","1","2","1","1","0","1","1","0","0","1","1","0","1","1","0","1","0","1","4","3","4","2","3","1","4","2","2","4","633790726911557632","王","60","","","","match","","","","","","","","","","","","","","key","f","16.652920000000158","799.9999682108573","445.8333156175091","f","true","match","img/ellipse.png","椭圆","椭圆","ALT1_2","prac_ALT1_2","","","","","","","","","",""
"null","<span style='color:GreenYellow; font-size: 70px;'>正确! </span>","null","html-keyboard-response","102","438465","0.0-7.0-1.0-1.0-0.0-1.46","4","3","4","4","4","3","4","4","4","3","5","4","5","4","5","5","5","4","4","5","2","1","3","2","3","2","1","2","1","1","0","1","1","0","0","1","1","0","1","1","0","1","0","1","4","3","4","2","3","1","4","2","2","4","633790726911557632","王","60","","","","","","","","","","","","","","","","","","","","","","","","","","","","","","feedback_test","","","","","","","","","",""
"853","","f","psychophysics","103","440320","0.0-7.0-1.0-1.0-0.0-0.47","4","3","4","4","4","3","4","4","4","3","5","4","5","4","5","5","5","4","4","5","2","1","3","2","3","2","1","2","1","1","0","1","1","0","0","1","1","0","1","1","0","1","0","1","4","3","4","2","3","1","4","2","2","4","633790726911557632","王","60","","","","match","","","","","","","","","","","","","","key","f","16.65400000000002","799.9999682108573","445.8333156175091","f","true","match","img/hexagon.png","六边","六边","ALT1_2","prac_ALT1_2","","","","","","","","","",""
"null","<span style='color:GreenYellow; font-size: 70px;'>正确! </span>","null","html-keyboard-response","104","440821","0.0-7.0-1.0-1.0-0.0-1.47","4","3","4","4","4","3","4","4","4","3","5","4","5","4","5","5","5","4","4","5","2","1","3","2","3","2","1","2","1","1","0","1","1","0","0","1","1","0","1","1","0","1","0","1","4","3","4","2","3","1","4","2","2","4","633790726911557632","王","60","","","","","","","","","","","","","","","","","","","","","","","","","","","","","","feedback_test","","","","","","","","","",""
"3173","<style>.context{color:white; font-size: 35px; line-height:40px}</style>                          <div><p class='context'>您正确回答了96% 的试次。</p><p class='context'>您的平均反应时为817毫秒。</p><p class='context'>恭喜您完成练习。按空格键进入正式实验。</p><p class='footer' style='font-size: 35px; line-height:40px;'>请在进入正式实验实验之前将您的<span style='color: lightgreen;'>食指</span>放在电脑键盘的相应键位上进行按键。</p>"," ","html-keyboard-response","105","443997","0.0-7.0-1.0-2.0","4","3","4","4","4","3","4","4","4","3","5","4","5","4","5","5","5","4","4","5","2","1","3","2","3","2","1","2","1","1","0","1","1","0","0","1","1","0","1","1","0","1","0","1","4","3","4","2","3","1","4","2","2","4","633790726911557632","王","60","","","","","","","","","","","","","","","","","","","","","","","","","","","","","","","","","","","","","","","",""
"4163","
  <p style='color: white; font-size: 22px'>请您将手指放在按键上，准备进入正式的匹配任务。</p>
  <p> <div style = ""color: green""><按空格键进入下一阶段的匹配任务></div></p>
  "," ","html-keyboard-response","106","448165","0.0-7.0-1.0-3.0","4","3","4","4","4","3","4","4","4","3","5","4","5","4","5","5","5","4","4","5","2","1","3","2","3","2","1","2","1","1","0","1","1","0","0","1","1","0","1","1","0","1","0","1","4","3","4","2","3","1","4","2","2","4","633790726911557632","王","60","","","","","","","","","","","","","","","","","","","","","","","","","","","","","","","","","","","","","","","",""
"869","","j","psychophysics","107","450041","0.0-7.0-1.0-4.0-0.0-0.0","4","3","4","4","4","3","4","4","4","3","5","4","5","4","5","5","5","4","4","5","2","1","3","2","3","2","1","2","1","1","0","1","1","0","0","1","1","0","1","1","0","1","0","1","4","3","4","2","3","1","4","2","2","4","633790726911557632","王","60","","","","nonmatch","","","","","","","","","","","","","","key","j","16.65337500000013","799.9999682108573","445.8333156175091","j","true","nonmatch","img/hexagon.png","梯形","六边","ALT1","formal_ALT1_2","","","","","","","","","",""
"null","<span style='color:GreenYellow; font-size: 70px;'>正确! </span>","null","html-keyboard-response","108","450545","0.0-7.0-1.0-4.0-0.0-1.0","4","3","4","4","4","3","4","4","4","3","5","4","5","4","5","5","5","4","4","5","2","1","3","2","3","2","1","2","1","1","0","1","1","0","0","1","1","0","1","1","0","1","0","1","4","3","4","2","3","1","4","2","2","4","633790726911557632","王","60","","","","","","","","","","","","","","","","","","","","","","","","","","","","","","feedback_test","","","","","","","","","",""
"746","","f","psychophysics","109","452293","0.0-7.0-1.0-4.0-0.0-0.1","4","3","4","4","4","3","4","4","4","3","5","4","5","4","5","5","5","4","4","5","2","1","3","2","3","2","1","2","1","1","0","1","1","0","0","1","1","0","1","1","0","1","0","1","4","3","4","2","3","1","4","2","2","4","633790726911557632","王","60","","","","match","","","","","","","","","","","","","","key","f","16.653317307692376","799.9999682108573","445.8333156175091","f","true","match","img/hexagon.png","六边","六边","ALT1","formal_ALT1_2","","","","","","","","","",""
"null","<span style='color:GreenYellow; font-size: 70px;'>正确! </span>","null","html-keyboard-response","110","452794","0.0-7.0-1.0-4.0-0.0-1.1","4","3","4","4","4","3","4","4","4","3","5","4","5","4","5","5","5","4","4","5","2","1","3","2","3","2","1","2","1","1","0","1","1","0","0","1","1","0","1","1","0","1","0","1","4","3","4","2","3","1","4","2","2","4","633790726911557632","王","60","","","","","","","","","","","","","","","","","","","","","","","","","","","","","","feedback_test","","","","","","","","","",""
"726","","f","psychophysics","111","454524","0.0-7.0-1.0-4.0-0.0-0.2","4","3","4","4","4","3","4","4","4","3","5","4","5","4","5","5","5","4","4","5","2","1","3","2","3","2","1","2","1","1","0","1","1","0","0","1","1","0","1","1","0","1","0","1","4","3","4","2","3","1","4","2","2","4","633790726911557632","王","60","","","","match","","","","","","","","","","","","","","key","f","16.65333009708743","799.9999682108573","445.8333156175091","f","true","match","img/trapezoid.png","梯形","梯形","ALT1","formal_ALT1_2","","","","","","","","","",""
"null","<span style='color:GreenYellow; font-size: 70px;'>正确! </span>","null","html-keyboard-response","112","455027","0.0-7.0-1.0-4.0-0.0-1.2","4","3","4","4","4","3","4","4","4","3","5","4","5","4","5","5","5","4","4","5","2","1","3","2","3","2","1","2","1","1","0","1","1","0","0","1","1","0","1","1","0","1","0","1","4","3","4","2","3","1","4","2","2","4","633790726911557632","王","60","","","","","","","","","","","","","","","","","","","","","","","","","","","","","","feedback_test","","","","","","","","","",""
"753","","f","psychophysics","113","456782","0.0-7.0-1.0-4.0-0.0-0.3","4","3","4","4","4","3","4","4","4","3","5","4","5","4","5","5","5","4","4","5","2","1","3","2","3","2","1","2","1","1","0","1","1","0","0","1","1","0","1","1","0","1","0","1","4","3","4","2","3","1","4","2","2","4","633790726911557632","王","60","","","","match","","","","","","","","","","","","","","key","f","16.6515769230766","799.9999682108573","445.8333156175091","f","true","match","img/ellipse.png","椭圆","椭圆","ALT1","formal_ALT1_2","","","","","","","","","",""
"null","<span style='color:GreenYellow; font-size: 70px;'>正确! </span>","null","html-keyboard-response","114","457284","0.0-7.0-1.0-4.0-0.0-1.3","4","3","4","4","4","3","4","4","4","3","5","4","5","4","5","5","5","4","4","5","2","1","3","2","3","2","1","2","1","1","0","1","1","0","0","1","1","0","1","1","0","1","0","1","4","3","4","2","3","1","4","2","2","4","633790726911557632","王","60","","","","","","","","","","","","","","","","","","","","","","","","","","","","","","feedback_test","","","","","","","","","",""
"687","","j","psychophysics","115","458973","0.0-7.0-1.0-4.0-0.0-0.4","4","3","4","4","4","3","4","4","4","3","5","4","5","4","5","5","5","4","4","5","2","1","3","2","3","2","1","2","1","1","0","1","1","0","0","1","1","0","1","1","0","1","0","1","4","3","4","2","3","1","4","2","2","4","633790726911557632","王","60","","","","nonmatch","","","","","","","","","","","","","","key","j","16.654280000000146","799.9999682108573","445.8333156175091","j","true","nonmatch","img/ellipse.png","三角","椭圆","ALT1","formal_ALT1_2","","","","","","","","","",""
"null","<span style='color:GreenYellow; font-size: 70px;'>正确! </span>","null","html-keyboard-response","116","459474","0.0-7.0-1.0-4.0-0.0-1.4","4","3","4","4","4","3","4","4","4","3","5","4","5","4","5","5","5","4","4","5","2","1","3","2","3","2","1","2","1","1","0","1","1","0","0","1","1","0","1","1","0","1","0","1","4","3","4","2","3","1","4","2","2","4","633790726911557632","王","60","","","","","","","","","","","","","","","","","","","","","","","","","","","","","","feedback_test","","","","","","","","","",""
"1125","","j","psychophysics","117","461601","0.0-7.0-1.0-4.0-0.0-0.5","4","3","4","4","4","3","4","4","4","3","5","4","5","4","5","5","5","4","4","5","2","1","3","2","3","2","1","2","1","1","0","1","1","0","0","1","1","0","1","1","0","1","0","1","4","3","4","2","3","1","4","2","2","4","633790726911557632","王","60","","","","nonmatch","","","","","","","","","","","","","","key","j","16.647228346456494","799.9999682108573","445.8333156175091","j","true","nonmatch","img/trapezoid.png","六边","梯形","ALT1","formal_ALT1_2","","","","","","","","","",""
"null","<span style='color:GreenYellow; font-size: 70px;'>正确! </span>","null","html-keyboard-response","118","462104","0.0-7.0-1.0-4.0-0.0-1.5","4","3","4","4","4","3","4","4","4","3","5","4","5","4","5","5","5","4","4","5","2","1","3","2","3","2","1","2","1","1","0","1","1","0","0","1","1","0","1","1","0","1","0","1","4","3","4","2","3","1","4","2","2","4","633790726911557632","王","60","","","","","","","","","","","","","","","","","","","","","","","","","","","","","","feedback_test","","","","","","","","","",""
"735","","f","psychophysics","119","463843","0.0-7.0-1.0-4.0-0.0-0.6","4","3","4","4","4","3","4","4","4","3","5","4","5","4","5","5","5","4","4","5","2","1","3","2","3","2","1","2","1","1","0","1","1","0","0","1","1","0","1","1","0","1","0","1","4","3","4","2","3","1","4","2","2","4","633790726911557632","王","60","","","","match","","","","","","","","","","","","","","key","f","16.65003883495172","799.9999682108573","445.8333156175091","f","true","match","img/trapezoid.png","梯形","梯形","ALT1","formal_ALT1_2","","","","","","","","","",""
"null","<span style='color:GreenYellow; font-size: 70px;'>正确! </span>","null","html-keyboard-response","120","464345","0.0-7.0-1.0-4.0-0.0-1.6","4","3","4","4","4","3","4","4","4","3","5","4","5","4","5","5","5","4","4","5","2","1","3","2","3","2","1","2","1","1","0","1","1","0","0","1","1","0","1","1","0","1","0","1","4","3","4","2","3","1","4","2","2","4","633790726911557632","王","60","","","","","","","","","","","","","","","","","","","","","","","","","","","","","","feedback_test","","","","","","","","","",""
"708","","f","psychophysics","121","466056","0.0-7.0-1.0-4.0-0.0-0.7","4","3","4","4","4","3","4","4","4","3","5","4","5","4","5","5","5","4","4","5","2","1","3","2","3","2","1","2","1","1","0","1","1","0","0","1","1","0","1","1","0","1","0","1","4","3","4","2","3","1","4","2","2","4","633790726911557632","王","60","","","","match","","","","","","","","","","","","","","key","f","16.6541287128711","799.9999682108573","445.8333156175091","f","true","match","img/trapezoid.png","梯形","梯形","ALT1","formal_ALT1_2","","","","","","","","","",""
"null","<span style='color:GreenYellow; font-size: 70px;'>正确! </span>","null","html-keyboard-response","122","466557","0.0-7.0-1.0-4.0-0.0-1.7","4","3","4","4","4","3","4","4","4","3","5","4","5","4","5","5","5","4","4","5","2","1","3","2","3","2","1","2","1","1","0","1","1","0","0","1","1","0","1","1","0","1","0","1","4","3","4","2","3","1","4","2","2","4","633790726911557632","王","60","","","","","","","","","","","","","","","","","","","","","","","","","","","","","","feedback_test","","","","","","","","","",""
"758","","j","psychophysics","123","468317","0.0-7.0-1.0-4.0-0.0-0.8","4","3","4","4","4","3","4","4","4","3","5","4","5","4","5","5","5","4","4","5","2","1","3","2","3","2","1","2","1","1","0","1","1","0","0","1","1","0","1","1","0","1","0","1","4","3","4","2","3","1","4","2","2","4","633790726911557632","王","60","","","","nonmatch","","","","","","","","","","","","","","key","j","16.64908653846158","799.9999682108573","445.8333156175091","j","true","nonmatch","img/triangle.png","梯形","三角","ALT1","formal_ALT1_2","","","","","","","","","",""
"null","<span style='color:GreenYellow; font-size: 70px;'>正确! </span>","null","html-keyboard-response","124","468818","0.0-7.0-1.0-4.0-0.0-1.8","4","3","4","4","4","3","4","4","4","3","5","4","5","4","5","5","5","4","4","5","2","1","3","2","3","2","1","2","1","1","0","1","1","0","0","1","1","0","1","1","0","1","0","1","4","3","4","2","3","1","4","2","2","4","633790726911557632","王","60","","","","","","","","","","","","","","","","","","","","","","","","","","","","","","feedback_test","","","","","","","","","",""
"958","","j","psychophysics","125","470778","0.0-7.0-1.0-4.0-0.0-0.9","4","3","4","4","4","3","4","4","4","3","5","4","5","4","5","5","5","4","4","5","2","1","3","2","3","2","1","2","1","1","0","1","1","0","0","1","1","0","1","1","0","1","0","1","4","3","4","2","3","1","4","2","2","4","633790726911557632","王","60","","","","nonmatch","","","","","","","","","","","","","","key","j","16.65348717948754","799.9999682108573","445.8333156175091","j","true","nonmatch","img/hexagon.png","椭圆","六边","ALT1","formal_ALT1_2","","","","","","","","","",""
"null","<span style='color:GreenYellow; font-size: 70px;'>正确! </span>","null","html-keyboard-response","126","471280","0.0-7.0-1.0-4.0-0.0-1.9","4","3","4","4","4","3","4","4","4","3","5","4","5","4","5","5","5","4","4","5","2","1","3","2","3","2","1","2","1","1","0","1","1","0","0","1","1","0","1","1","0","1","0","1","4","3","4","2","3","1","4","2","2","4","633790726911557632","王","60","","","","","","","","","","","","","","","","","","","","","","","","","","","","","","feedback_test","","","","","","","","","",""
"1086","","f","psychophysics","127","473369","0.0-7.0-1.0-4.0-0.0-0.10","4","3","4","4","4","3","4","4","4","3","5","4","5","4","5","5","5","4","4","5","2","1","3","2","3","2","1","2","1","1","0","1","1","0","0","1","1","0","1","1","0","1","0","1","4","3","4","2","3","1","4","2","2","4","633790726911557632","王","60","","","","match","","","","","","","","","","","","","","key","f","16.648741935484015","799.9999682108573","445.8333156175091","j","false","nonmatch","img/ellipse.png","六边","椭圆","ALT1","formal_ALT1_2","","","","","","","","","",""
"null","<span style='color:red; font-size: 70px;'>错误! </span>","null","html-keyboard-response","128","473872","0.0-7.0-1.0-4.0-0.0-1.10","4","3","4","4","4","3","4","4","4","3","5","4","5","4","5","5","5","4","4","5","2","1","3","2","3","2","1","2","1","1","0","1","1","0","0","1","1","0","1","1","0","1","0","1","4","3","4","2","3","1","4","2","2","4","633790726911557632","王","60","","","","","","","","","","","","","","","","","","","","","","","","","","","","","","feedback_test","","","","","","","","","",""
"961","","j","psychophysics","129","475835","0.0-7.0-1.0-4.0-0.0-0.11","4","3","4","4","4","3","4","4","4","3","5","4","5","4","5","5","5","4","4","5","2","1","3","2","3","2","1","2","1","1","0","1","1","0","0","1","1","0","1","1","0","1","0","1","4","3","4","2","3","1","4","2","2","4","633790726911557632","王","60","","","","nonmatch","","","","","","","","","","","","","","key","j","16.652632478632544","799.9999682108573","445.8333156175091","j","true","nonmatch","img/triangle.png","椭圆","三角","ALT1","formal_ALT1_2","","","","","","","","","",""
"null","<span style='color:GreenYellow; font-size: 70px;'>正确! </span>","null","html-keyboard-response","130","476335","0.0-7.0-1.0-4.0-0.0-1.11","4","3","4","4","4","3","4","4","4","3","5","4","5","4","5","5","5","4","4","5","2","1","3","2","3","2","1","2","1","1","0","1","1","0","0","1","1","0","1","1","0","1","0","1","4","3","4","2","3","1","4","2","2","4","633790726911557632","王","60","","","","","","","","","","","","","","","","","","","","","","","","","","","","","","feedback_test","","","","","","","","","",""
"755","","j","psychophysics","131","478093","0.0-7.0-1.0-4.0-0.0-0.12","4","3","4","4","4","3","4","4","4","3","5","4","5","4","5","5","5","4","4","5","2","1","3","2","3","2","1","2","1","1","0","1","1","0","0","1","1","0","1","1","0","1","0","1","4","3","4","2","3","1","4","2","2","4","633790726911557632","王","60","","","","nonmatch","","","","","","","","","","","","","","key","j","16.65416346153842","799.9999682108573","445.8333156175091","j","true","nonmatch","img/trapezoid.png","三角","梯形","ALT1","formal_ALT1_2","","","","","","","","","",""
"null","<span style='color:GreenYellow; font-size: 70px;'>正确! </span>","null","html-keyboard-response","132","478595","0.0-7.0-1.0-4.0-0.0-1.12","4","3","4","4","4","3","4","4","4","3","5","4","5","4","5","5","5","4","4","5","2","1","3","2","3","2","1","2","1","1","0","1","1","0","0","1","1","0","1","1","0","1","0","1","4","3","4","2","3","1","4","2","2","4","633790726911557632","王","60","","","","","","","","","","","","","","","","","","","","","","","","","","","","","","feedback_test","","","","","","","","","",""
"757","","f","psychophysics","133","480354","0.0-7.0-1.0-4.0-0.0-0.13","4","3","4","4","4","3","4","4","4","3","5","4","5","4","5","5","5","4","4","5","2","1","3","2","3","2","1","2","1","1","0","1","1","0","0","1","1","0","1","1","0","1","0","1","4","3","4","2","3","1","4","2","2","4","633790726911557632","王","60","","","","match","","","","","","","","","","","","","","key","f","16.654247619047585","799.9999682108573","445.8333156175091","f","true","match","img/triangle.png","三角","三角","ALT1","formal_ALT1_2","","","","","","","","","",""
"null","<span style='color:GreenYellow; font-size: 70px;'>正确! </span>","null","html-keyboard-response","134","480855","0.0-7.0-1.0-4.0-0.0-1.13","4","3","4","4","4","3","4","4","4","3","5","4","5","4","5","5","5","4","4","5","2","1","3","2","3","2","1","2","1","1","0","1","1","0","0","1","1","0","1","1","0","1","0","1","4","3","4","2","3","1","4","2","2","4","633790726911557632","王","60","","","","","","","","","","","","","","","","","","","","","","","","","","","","","","feedback_test","","","","","","","","","",""
"766","","j","psychophysics","135","482623","0.0-7.0-1.0-4.0-0.0-0.14","4","3","4","4","4","3","4","4","4","3","5","4","5","4","5","5","5","4","4","5","2","1","3","2","3","2","1","2","1","1","0","1","1","0","0","1","1","0","1","1","0","1","0","1","4","3","4","2","3","1","4","2","2","4","633790726911557632","王","60","","","","nonmatch","","","","","","","","","","","","","","key","j","16.649580952381005","799.9999682108573","445.8333156175091","j","true","nonmatch","img/hexagon.png","三角","六边","ALT1","formal_ALT1_2","","","","","","","","","",""
"null","<span style='color:GreenYellow; font-size: 70px;'>正确! </span>","null","html-keyboard-response","136","483125","0.0-7.0-1.0-4.0-0.0-1.14","4","3","4","4","4","3","4","4","4","3","5","4","5","4","5","5","5","4","4","5","2","1","3","2","3","2","1","2","1","1","0","1","1","0","0","1","1","0","1","1","0","1","0","1","4","3","4","2","3","1","4","2","2","4","633790726911557632","王","60","","","","","","","","","","","","","","","","","","","","","","","","","","","","","","feedback_test","","","","","","","","","",""
"710","","f","psychophysics","137","484836","0.0-7.0-1.0-4.0-0.0-0.15","4","3","4","4","4","3","4","4","4","3","5","4","5","4","5","5","5","4","4","5","2","1","3","2","3","2","1","2","1","1","0","1","1","0","0","1","1","0","1","1","0","1","0","1","4","3","4","2","3","1","4","2","2","4","633790726911557632","王","60","","","","match","","","","","","","","","","","","","","key","f","16.653274509804117","799.9999682108573","445.8333156175091","f","true","match","img/triangle.png","三角","三角","ALT1","formal_ALT1_2","","","","","","","","","",""
"null","<span style='color:GreenYellow; font-size: 70px;'>正确! </span>","null","html-keyboard-response","138","485338","0.0-7.0-1.0-4.0-0.0-1.15","4","3","4","4","4","3","4","4","4","3","5","4","5","4","5","5","5","4","4","5","2","1","3","2","3","2","1","2","1","1","0","1","1","0","0","1","1","0","1","1","0","1","0","1","4","3","4","2","3","1","4","2","2","4","633790726911557632","王","60","","","","","","","","","","","","","","","","","","","","","","","","","","","","","","feedback_test","","","","","","","","","",""
"723","","j","psychophysics","139","487063","0.0-7.0-1.0-4.0-0.0-0.16","4","3","4","4","4","3","4","4","4","3","5","4","5","4","5","5","5","4","4","5","2","1","3","2","3","2","1","2","1","1","0","1","1","0","0","1","1","0","1","1","0","1","0","1","4","3","4","2","3","1","4","2","2","4","633790726911557632","王","60","","","","nonmatch","","","","","","","","","","","","","","key","j","16.65320388349542","799.9999682108573","445.8333156175091","j","true","nonmatch","img/triangle.png","六边","三角","ALT1","formal_ALT1_2","","","","","","","","","",""
"null","<span style='color:GreenYellow; font-size: 70px;'>正确! </span>","null","html-keyboard-response","140","487565","0.0-7.0-1.0-4.0-0.0-1.16","4","3","4","4","4","3","4","4","4","3","5","4","5","4","5","5","5","4","4","5","2","1","3","2","3","2","1","2","1","1","0","1","1","0","0","1","1","0","1","1","0","1","0","1","4","3","4","2","3","1","4","2","2","4","633790726911557632","王","60","","","","","","","","","","","","","","","","","","","","","","","","","","","","","","feedback_test","","","","","","","","","",""
"811","","f","psychophysics","141","489377","0.0-7.0-1.0-4.0-0.0-0.17","4","3","4","4","4","3","4","4","4","3","5","4","5","4","5","5","5","4","4","5","2","1","3","2","3","2","1","2","1","1","0","1","1","0","0","1","1","0","1","1","0","1","0","1","4","3","4","2","3","1","4","2","2","4","633790726911557632","王","60","","","","match","","","","","","","","","","","","","","key","f","16.649870370370248","799.9999682108573","445.8333156175091","f","true","match","img/hexagon.png","六边","六边","ALT1","formal_ALT1_2","","","","","","","","","",""
"null","<span style='color:GreenYellow; font-size: 70px;'>正确! </span>","null","html-keyboard-response","142","489878","0.0-7.0-1.0-4.0-0.0-1.17","4","3","4","4","4","3","4","4","4","3","5","4","5","4","5","5","5","4","4","5","2","1","3","2","3","2","1","2","1","1","0","1","1","0","0","1","1","0","1","1","0","1","0","1","4","3","4","2","3","1","4","2","2","4","633790726911557632","王","60","","","","","","","","","","","","","","","","","","","","","","","","","","","","","","feedback_test","","","","","","","","","",""
"612","","f","psychophysics","143","491492","0.0-7.0-1.0-4.0-0.0-0.18","4","3","4","4","4","3","4","4","4","3","5","4","5","4","5","5","5","4","4","5","2","1","3","2","3","2","1","2","1","1","0","1","1","0","0","1","1","0","1","1","0","1","0","1","4","3","4","2","3","1","4","2","2","4","633790726911557632","王","60","","","","match","","","","","","","","","","","","","","key","f","16.653083333333296","799.9999682108573","445.8333156175091","f","true","match","img/hexagon.png","六边","六边","ALT1","formal_ALT1_2","","","","","","","","","",""
"null","<span style='color:GreenYellow; font-size: 70px;'>正确! </span>","null","html-keyboard-response","144","491995","0.0-7.0-1.0-4.0-0.0-1.18","4","3","4","4","4","3","4","4","4","3","5","4","5","4","5","5","5","4","4","5","2","1","3","2","3","2","1","2","1","1","0","1","1","0","0","1","1","0","1","1","0","1","0","1","4","3","4","2","3","1","4","2","2","4","633790726911557632","王","60","","","","","","","","","","","","","","","","","","","","","","","","","","","","","","feedback_test","","","","","","","","","",""
"749","","j","psychophysics","145","493745","0.0-7.0-1.0-4.0-0.0-0.19","4","3","4","4","4","3","4","4","4","3","5","4","5","4","5","5","5","4","4","5","2","1","3","2","3","2","1","2","1","1","0","1","1","0","0","1","1","0","1","1","0","1","0","1","4","3","4","2","3","1","4","2","2","4","633790726911557632","王","60","","","","nonmatch","","","","","","","","","","","","","","key","j","16.65214423076899","799.9999682108573","445.8333156175091","j","true","nonmatch","img/trapezoid.png","椭圆","梯形","ALT1","formal_ALT1_2","","","","","","","","","",""
"null","<span style='color:GreenYellow; font-size: 70px;'>正确! </span>","null","html-keyboard-response","146","494246","0.0-7.0-1.0-4.0-0.0-1.19","4","3","4","4","4","3","4","4","4","3","5","4","5","4","5","5","5","4","4","5","2","1","3","2","3","2","1","2","1","1","0","1","1","0","0","1","1","0","1","1","0","1","0","1","4","3","4","2","3","1","4","2","2","4","633790726911557632","王","60","","","","","","","","","","","","","","","","","","","","","","","","","","","","","","feedback_test","","","","","","","","","",""
"1013","","j","psychophysics","147","496261","0.0-7.0-1.0-4.0-0.0-0.20","4","3","4","4","4","3","4","4","4","3","5","4","5","4","5","5","5","4","4","5","2","1","3","2","3","2","1","2","1","1","0","1","1","0","0","1","1","0","1","1","0","1","0","1","4","3","4","2","3","1","4","2","2","4","633790726911557632","王","60","","","","nonmatch","","","","","","","","","","","","","","key","j","16.65435833333322","799.9999682108573","445.8333156175091","j","true","nonmatch","img/ellipse.png","梯形","椭圆","ALT1","formal_ALT1_2","","","","","","","","","",""
"null","<span style='color:GreenYellow; font-size: 70px;'>正确! </span>","null","html-keyboard-response","148","496762","0.0-7.0-1.0-4.0-0.0-1.20","4","3","4","4","4","3","4","4","4","3","5","4","5","4","5","5","5","4","4","5","2","1","3","2","3","2","1","2","1","1","0","1","1","0","0","1","1","0","1","1","0","1","0","1","4","3","4","2","3","1","4","2","2","4","633790726911557632","王","60","","","","","","","","","","","","","","","","","","","","","","","","","","","","","","feedback_test","","","","","","","","","",""
"939","","f","psychophysics","149","498703","0.0-7.0-1.0-4.0-0.0-0.21","4","3","4","4","4","3","4","4","4","3","5","4","5","4","5","5","5","4","4","5","2","1","3","2","3","2","1","2","1","1","0","1","1","0","0","1","1","0","1","1","0","1","0","1","4","3","4","2","3","1","4","2","2","4","633790726911557632","王","60","","","","match","","","","","","","","","","","","","","key","f","16.653250000000018","799.9999682108573","445.8333156175091","f","true","match","img/ellipse.png","椭圆","椭圆","ALT1","formal_ALT1_2","","","","","","","","","",""
"null","<span style='color:GreenYellow; font-size: 70px;'>正确! </span>","null","html-keyboard-response","150","499204","0.0-7.0-1.0-4.0-0.0-1.21","4","3","4","4","4","3","4","4","4","3","5","4","5","4","5","5","5","4","4","5","2","1","3","2","3","2","1","2","1","1","0","1","1","0","0","1","1","0","1","1","0","1","0","1","4","3","4","2","3","1","4","2","2","4","633790726911557632","王","60","","","","","","","","","","","","","","","","","","","","","","","","","","","","","","feedback_test","","","","","","","","","",""
"689","","f","psychophysics","151","500894","0.0-7.0-1.0-4.0-0.0-0.22","4","3","4","4","4","3","4","4","4","3","5","4","5","4","5","5","5","4","4","5","2","1","3","2","3","2","1","2","1","1","0","1","1","0","0","1","1","0","1","1","0","1","0","1","4","3","4","2","3","1","4","2","2","4","633790726911557632","王","60","","","","match","","","","","","","","","","","","","","key","f","16.65408999999985","799.9999682108573","445.8333156175091","f","true","match","img/triangle.png","三角","三角","ALT1","formal_ALT1_2","","","","","","","","","",""
"null","<span style='color:GreenYellow; font-size: 70px;'>正确! </span>","null","html-keyboard-response","152","501396","0.0-7.0-1.0-4.0-0.0-1.22","4","3","4","4","4","3","4","4","4","3","5","4","5","4","5","5","5","4","4","5","2","1","3","2","3","2","1","2","1","1","0","1","1","0","0","1","1","0","1","1","0","1","0","1","4","3","4","2","3","1","4","2","2","4","633790726911557632","王","60","","","","","","","","","","","","","","","","","","","","","","","","","","","","","","feedback_test","","","","","","","","","",""
"1036","","f","psychophysics","153","503434","0.0-7.0-1.0-4.0-0.0-0.23","4","3","4","4","4","3","4","4","4","3","5","4","5","4","5","5","5","4","4","5","2","1","3","2","3","2","1","2","1","1","0","1","1","0","0","1","1","0","1","1","0","1","0","1","4","3","4","2","3","1","4","2","2","4","633790726911557632","王","60","","","","match","","","","","","","","","","","","","","key","f","16.65361157024841","799.9999682108573","445.8333156175091","f","true","match","img/ellipse.png","椭圆","椭圆","ALT1","formal_ALT1_2","","","","","","","","","",""
"null","<span style='color:GreenYellow; font-size: 70px;'>正确! </span>","null","html-keyboard-response","154","503935","0.0-7.0-1.0-4.0-0.0-1.23","4","3","4","4","4","3","4","4","4","3","5","4","5","4","5","5","5","4","4","5","2","1","3","2","3","2","1","2","1","1","0","1","1","0","0","1","1","0","1","1","0","1","0","1","4","3","4","2","3","1","4","2","2","4","633790726911557632","王","60","","","","","","","","","","","","","","","","","","","","","","","","","","","","","","feedback_test","","","","","","","","","",""
"591","","f","psychophysics","155","505530","0.0-7.0-1.0-4.0-0.0-0.24","4","3","4","4","4","3","4","4","4","3","5","4","5","4","5","5","5","4","4","5","2","1","3","2","3","2","1","2","1","1","0","1","1","0","0","1","1","0","1","1","0","1","0","1","4","3","4","2","3","1","4","2","2","4","633790726911557632","王","60","","","","match","","","","","","","","","","","","","","key","f","16.649157894737282","799.9999682108573","445.8333156175091","j","false","nonmatch","img/ellipse.png","梯形","椭圆","ALT1","formal_ALT1_2","","","","","","","","","",""
"null","<span style='color:red; font-size: 70px;'>错误! </span>","null","html-keyboard-response","156","506032","0.0-7.0-1.0-4.0-0.0-1.24","4","3","4","4","4","3","4","4","4","3","5","4","5","4","5","5","5","4","4","5","2","1","3","2","3","2","1","2","1","1","0","1","1","0","0","1","1","0","1","1","0","1","0","1","4","3","4","2","3","1","4","2","2","4","633790726911557632","王","60","","","","","","","","","","","","","","","","","","","","","","","","","","","","","","feedback_test","","","","","","","","","",""
"981","","j","psychophysics","157","508014","0.0-7.0-1.0-4.0-0.0-0.25","4","3","4","4","4","3","4","4","4","3","5","4","5","4","5","5","5","4","4","5","2","1","3","2","3","2","1","2","1","1","0","1","1","0","0","1","1","0","1","1","0","1","0","1","4","3","4","2","3","1","4","2","2","4","633790726911557632","王","60","","","","nonmatch","","","","","","","","","","","","","","key","j","16.653288135593126","799.9999682108573","445.8333156175091","j","true","nonmatch","img/hexagon.png","梯形","六边","ALT1","formal_ALT1_2","","","","","","","","","",""
"null","<span style='color:GreenYellow; font-size: 70px;'>正确! </span>","null","html-keyboard-response","158","508517","0.0-7.0-1.0-4.0-0.0-1.25","4","3","4","4","4","3","4","4","4","3","5","4","5","4","5","5","5","4","4","5","2","1","3","2","3","2","1","2","1","1","0","1","1","0","0","1","1","0","1","1","0","1","0","1","4","3","4","2","3","1","4","2","2","4","633790726911557632","王","60","","","","","","","","","","","","","","","","","","","","","","","","","","","","","","feedback_test","","","","","","","","","",""
"1019","","j","psychophysics","159","510538","0.0-7.0-1.0-4.0-0.0-0.26","4","3","4","4","4","3","4","4","4","3","5","4","5","4","5","5","5","4","4","5","2","1","3","2","3","2","1","2","1","1","0","1","1","0","0","1","1","0","1","1","0","1","0","1","4","3","4","2","3","1","4","2","2","4","633790726911557632","王","60","","","","nonmatch","","","","","","","","","","","","","","key","j","16.648791666666998","799.9999682108573","445.8333156175091","j","true","nonmatch","img/triangle.png","六边","三角","ALT1","formal_ALT1_2","","","","","","","","","",""
"null","<span style='color:GreenYellow; font-size: 70px;'>正确! </span>","null","html-keyboard-response","160","511040","0.0-7.0-1.0-4.0-0.0-1.26","4","3","4","4","4","3","4","4","4","3","5","4","5","4","5","5","5","4","4","5","2","1","3","2","3","2","1","2","1","1","0","1","1","0","0","1","1","0","1","1","0","1","0","1","4","3","4","2","3","1","4","2","2","4","633790726911557632","王","60","","","","","","","","","","","","","","","","","","","","","","","","","","","","","","feedback_test","","","","","","","","","",""
"775","","f","psychophysics","161","512817","0.0-7.0-1.0-4.0-0.0-0.27","4","3","4","4","4","3","4","4","4","3","5","4","5","4","5","5","5","4","4","5","2","1","3","2","3","2","1","2","1","1","0","1","1","0","0","1","1","0","1","1","0","1","0","1","4","3","4","2","3","1","4","2","2","4","633790726911557632","王","60","","","","match","","","","","","","","","","","","","","key","f","16.65363809523849","799.9999682108573","445.8333156175091","f","true","match","img/trapezoid.png","梯形","梯形","ALT1","formal_ALT1_2","","","","","","","","","",""
"null","<span style='color:GreenYellow; font-size: 70px;'>正确! </span>","null","html-keyboard-response","162","513318","0.0-7.0-1.0-4.0-0.0-1.27","4","3","4","4","4","3","4","4","4","3","5","4","5","4","5","5","5","4","4","5","2","1","3","2","3","2","1","2","1","1","0","1","1","0","0","1","1","0","1","1","0","1","0","1","4","3","4","2","3","1","4","2","2","4","633790726911557632","王","60","","","","","","","","","","","","","","","","","","","","","","","","","","","","","","feedback_test","","","","","","","","","",""
"1154","","j","psychophysics","163","515474","0.0-7.0-1.0-4.0-0.0-0.28","4","3","4","4","4","3","4","4","4","3","5","4","5","4","5","5","5","4","4","5","2","1","3","2","3","2","1","2","1","1","0","1","1","0","0","1","1","0","1","1","0","1","0","1","4","3","4","2","3","1","4","2","2","4","633790726911557632","王","60","","","","nonmatch","","","","","","","","","","","","","","key","j","16.654093023256017","799.9999682108573","445.8333156175091","j","true","nonmatch","img/trapezoid.png","六边","梯形","ALT1","formal_ALT1_2","","","","","","","","","",""
"null","<span style='color:GreenYellow; font-size: 70px;'>正确! </span>","null","html-keyboard-response","164","515988","0.0-7.0-1.0-4.0-0.0-1.28","4","3","4","4","4","3","4","4","4","3","5","4","5","4","5","5","5","4","4","5","2","1","3","2","3","2","1","2","1","1","0","1","1","0","0","1","1","0","1","1","0","1","0","1","4","3","4","2","3","1","4","2","2","4","633790726911557632","王","60","","","","","","","","","","","","","","","","","","","","","","","","","","","","","","feedback_test","","","","","","","","","",""
"null","","null","psychophysics","165","518191","0.0-7.0-1.0-4.0-0.0-0.29","4","3","4","4","4","3","4","4","4","3","5","4","5","4","5","5","5","4","4","5","2","1","3","2","3","2","1","2","1","1","0","1","1","0","0","1","1","0","1","1","0","1","0","1","4","3","4","2","3","1","4","2","2","4","633790726911557632","王","60","","","","null","","","","","","","","","","","","","","key","null","16.65302290076315","799.9999682108573","445.8333156175091","j","false","nonmatch","img/trapezoid.png","椭圆","梯形","ALT1","formal_ALT1_2","","","","","","","","","",""
"null","<span class='add_' style='color:yellow; font-size: 70px;'> 太慢! </span>","null","html-keyboard-response","166","518693","0.0-7.0-1.0-4.0-0.0-1.29","4","3","4","4","4","3","4","4","4","3","5","4","5","4","5","5","5","4","4","5","2","1","3","2","3","2","1","2","1","1","0","1","1","0","0","1","1","0","1","1","0","1","0","1","4","3","4","2","3","1","4","2","2","4","633790726911557632","王","60","","","","","","","","","","","","","","","","","","","","","","","","","","","","","","feedback_test","","","","","","","","","",""
"823","","f","psychophysics","167","520518","0.0-7.0-1.0-4.0-0.0-0.30","4","3","4","4","4","3","4","4","4","3","5","4","5","4","5","5","5","4","4","5","2","1","3","2","3","2","1","2","1","1","0","1","1","0","0","1","1","0","1","1","0","1","0","1","4","3","4","2","3","1","4","2","2","4","633790726911557632","王","60","","","","match","","","","","","","","","","","","","","key","f","16.64735779816492","799.9999682108573","445.8333156175091","f","true","match","img/trapezoid.png","梯形","梯形","ALT1","formal_ALT1_2","","","","","","","","","",""
"null","<span style='color:GreenYellow; font-size: 70px;'>正确! </span>","null","html-keyboard-response","168","521020","0.0-7.0-1.0-4.0-0.0-1.30","4","3","4","4","4","3","4","4","4","3","5","4","5","4","5","5","5","4","4","5","2","1","3","2","3","2","1","2","1","1","0","1","1","0","0","1","1","0","1","1","0","1","0","1","4","3","4","2","3","1","4","2","2","4","633790726911557632","王","60","","","","","","","","","","","","","","","","","","","","","","","","","","","","","","feedback_test","","","","","","","","","",""
"963","","j","psychophysics","169","522985","0.0-7.0-1.0-4.0-0.0-0.31","4","3","4","4","4","3","4","4","4","3","5","4","5","4","5","5","5","4","4","5","2","1","3","2","3","2","1","2","1","1","0","1","1","0","0","1","1","0","1","1","0","1","0","1","4","3","4","2","3","1","4","2","2","4","633790726911557632","王","60","","","","nonmatch","","","","","","","","","","","","","","key","j","16.65310256410207","799.9999682108573","445.8333156175091","j","true","nonmatch","img/ellipse.png","六边","椭圆","ALT1","formal_ALT1_2","","","","","","","","","",""
"null","<span style='color:GreenYellow; font-size: 70px;'>正确! </span>","null","html-keyboard-response","170","523486","0.0-7.0-1.0-4.0-0.0-1.31","4","3","4","4","4","3","4","4","4","3","5","4","5","4","5","5","5","4","4","5","2","1","3","2","3","2","1","2","1","1","0","1","1","0","0","1","1","0","1","1","0","1","0","1","4","3","4","2","3","1","4","2","2","4","633790726911557632","王","60","","","","","","","","","","","","","","","","","","","","","","","","","","","","","","feedback_test","","","","","","","","","",""
"787","","j","psychophysics","171","525275","0.0-7.0-1.0-4.0-0.0-0.32","4","3","4","4","4","3","4","4","4","3","5","4","5","4","5","5","5","4","4","5","2","1","3","2","3","2","1","2","1","1","0","1","1","0","0","1","1","0","1","1","0","1","0","1","4","3","4","2","3","1","4","2","2","4","633790726911557632","王","60","","","","nonmatch","","","","","","","","","","","","","","key","j","16.653245283019473","799.9999682108573","445.8333156175091","j","true","nonmatch","img/trapezoid.png","三角","梯形","ALT1","formal_ALT1_2","","","","","","","","","",""
"null","<span style='color:GreenYellow; font-size: 70px;'>正确! </span>","null","html-keyboard-response","172","525778","0.0-7.0-1.0-4.0-0.0-1.32","4","3","4","4","4","3","4","4","4","3","5","4","5","4","5","5","5","4","4","5","2","1","3","2","3","2","1","2","1","1","0","1","1","0","0","1","1","0","1","1","0","1","0","1","4","3","4","2","3","1","4","2","2","4","633790726911557632","王","60","","","","","","","","","","","","","","","","","","","","","","","","","","","","","","feedback_test","","","","","","","","","",""
"983","","f","psychophysics","173","527764","0.0-7.0-1.0-4.0-0.0-0.33","4","3","4","4","4","3","4","4","4","3","5","4","5","4","5","5","5","4","4","5","2","1","3","2","3","2","1","2","1","1","0","1","1","0","0","1","1","0","1","1","0","1","0","1","4","3","4","2","3","1","4","2","2","4","633790726911557632","王","60","","","","match","","","","","","","","","","","","","","key","f","16.65296610169531","799.9999682108573","445.8333156175091","f","true","match","img/hexagon.png","六边","六边","ALT1","formal_ALT1_2","","","","","","","","","",""
"null","<span style='color:GreenYellow; font-size: 70px;'>正确! </span>","null","html-keyboard-response","174","528265","0.0-7.0-1.0-4.0-0.0-1.33","4","3","4","4","4","3","4","4","4","3","5","4","5","4","5","5","5","4","4","5","2","1","3","2","3","2","1","2","1","1","0","1","1","0","0","1","1","0","1","1","0","1","0","1","4","3","4","2","3","1","4","2","2","4","633790726911557632","王","60","","","","","","","","","","","","","","","","","","","","","","","","","","","","","","feedback_test","","","","","","","","","",""
"887","","j","psychophysics","175","530154","0.0-7.0-1.0-4.0-0.0-0.34","4","3","4","4","4","3","4","4","4","3","5","4","5","4","5","5","5","4","4","5","2","1","3","2","3","2","1","2","1","1","0","1","1","0","0","1","1","0","1","1","0","1","0","1","4","3","4","2","3","1","4","2","2","4","633790726911557632","王","60","","","","nonmatch","","","","","","","","","","","","","","key","j","16.65325892857072","799.9999682108573","445.8333156175091","j","true","nonmatch","img/hexagon.png","椭圆","六边","ALT1","formal_ALT1_2","","","","","","","","","",""
"null","<span style='color:GreenYellow; font-size: 70px;'>正确! </span>","null","html-keyboard-response","176","530655","0.0-7.0-1.0-4.0-0.0-1.34","4","3","4","4","4","3","4","4","4","3","5","4","5","4","5","5","5","4","4","5","2","1","3","2","3","2","1","2","1","1","0","1","1","0","0","1","1","0","1","1","0","1","0","1","4","3","4","2","3","1","4","2","2","4","633790726911557632","王","60","","","","","","","","","","","","","","","","","","","","","","","","","","","","","","feedback_test","","","","","","","","","",""
"748","","f","psychophysics","177","532404","0.0-7.0-1.0-4.0-0.0-0.35","4","3","4","4","4","3","4","4","4","3","5","4","5","4","5","5","5","4","4","5","2","1","3","2","3","2","1","2","1","1","0","1","1","0","0","1","1","0","1","1","0","1","0","1","4","3","4","2","3","1","4","2","2","4","633790726911557632","王","60","","","","match","","","","","","","","","","","","","","key","f","16.653134615385518","799.9999682108573","445.8333156175091","f","true","match","img/triangle.png","三角","三角","ALT1","formal_ALT1_2","","","","","","","","","",""
"null","<span style='color:GreenYellow; font-size: 70px;'>正确! </span>","null","html-keyboard-response","178","532913","0.0-7.0-1.0-4.0-0.0-1.35","4","3","4","4","4","3","4","4","4","3","5","4","5","4","5","5","5","4","4","5","2","1","3","2","3","2","1","2","1","1","0","1","1","0","0","1","1","0","1","1","0","1","0","1","4","3","4","2","3","1","4","2","2","4","633790726911557632","王","60","","","","","","","","","","","","","","","","","","","","","","","","","","","","","","feedback_test","","","","","","","","","",""
"803","","j","psychophysics","179","534719","0.0-7.0-1.0-4.0-0.0-0.36","4","3","4","4","4","3","4","4","4","3","5","4","5","4","5","5","5","4","4","5","2","1","3","2","3","2","1","2","1","1","0","1","1","0","0","1","1","0","1","1","0","1","0","1","4","3","4","2","3","1","4","2","2","4","633790726911557632","王","60","","","","nonmatch","","","","","","","","","","","","","","key","j","16.644607476635496","799.9999682108573","445.8333156175091","j","true","nonmatch","img/ellipse.png","三角","椭圆","ALT1","formal_ALT1_2","","","","","","","","","",""
"null","<span style='color:GreenYellow; font-size: 70px;'>正确! </span>","null","html-keyboard-response","180","535221","0.0-7.0-1.0-4.0-0.0-1.36","4","3","4","4","4","3","4","4","4","3","5","4","5","4","5","5","5","4","4","5","2","1","3","2","3","2","1","2","1","1","0","1","1","0","0","1","1","0","1","1","0","1","0","1","4","3","4","2","3","1","4","2","2","4","633790726911557632","王","60","","","","","","","","","","","","","","","","","","","","","","","","","","","","","","feedback_test","","","","","","","","","",""
