"rt","stimulus","response","trial_type","trial_index","time_elapsed","internal_node_id","ses_1","ses_2","ses_3","ses_4","ses_5","ses_6","ses_7","ses_8","ses_9","ses_10","coreself_1","coreself_2","coreself_3","coreself_4","coreself_5","coreself_6","coreself_7","coreself_8","coreself_9","coreself_10","SGPS_1","SGPS_2","SGPS_3","SGPS_4","SGPS_5","SGPS_6","SGPS_7","SGPS_8","SGPS_9","NPI1","NPI2","NPI3","NPI4","NPI5","NPI6","NPI7","NPI8","NPI9","NPI10","NPI11","NPI12","NPI13","NPI14","NPI15","hsns_1","hsns_2","hsns_3","hsns_4","hsns_5","hsns_6","hsns_7","hsns_8","hsns_9","hsns_10","subj_idx","friend_name","ParticipantID","value","success","user_agent","responses","item_order","radio_event_ids","radio_event_times","key_event_times","mouse_event_times","straightlining","zigzagging","honeypot","timeout","failed_images","failed_audio","failed_video","version_attrib2","version_target2","correct","IAT","screen_id","task_id","RT","condition","word","varname","summary","version_attrib","version_target","time_stamp","view_history","response_type","key_press","avg_frame_time","center_x","center_y","correct_response","identity","Image","question_order"
"66001","
   <p><div style = ""color: white;font-size:25px;"">您好，欢迎参加本次实验。</div> </p>
   <p><div style = ""color: white;font-size:25px;"">为充分保障您的权利，请确保您已经知晓并同意《参与实验同意书》以及《数据公开知情同意书》。</div></p>
   <p><div style = ""color: white;font-size:25px;"">如果您未见过上述内容，请咨询实验员。</div></p>
   <p><div style = ""color: white;font-size:25px;"">如果您选择继续实验，则表示您已经清楚两份知情同意书的内容并同意。</div></p>
   <p><div style = ""color: red;font-size:30px;"">请确保您记得day0的实验编号，您将在本次实验输入该编号，若您忘记，请咨询实验员后作答。</div></p>
   <p> <div style = ""color: green;font-size:25px;""><按空格键至下页></div> </p>
   "," ","html-keyboard-response","0","66003","0.0-0.0","3","3","4","3","3","3","1","3","3","3","4","4","4","4","2","4","4","4","4","4","2","3","1","2","3","2","2","4","2","1","0","1","1","0","0","0","1","1","1","1","0","1","0","0","5","2","4","2","5","4","4","5","3","2","764077949963210754","郭","60","","","","","","","","","","","","","","","","","","","","","","","","","","","","","","","","","","","","","","","",""
"","","","call-function","1","66005","0.0-1.0-0.0","3","3","4","3","3","3","1","3","3","3","4","4","4","4","2","4","4","4","4","4","2","3","1","2","3","2","2","4","2","1","0","1","1","0","0","0","1","1","1","1","0","1","0","0","5","2","4","2","5","4","4","5","3","2","764077949963210754","郭","60","","","","","","","","","","","","","","","","","","","","","","","","","","","","","","","","","","","","","","","",""
"58126","","{""friend_name"":""郭"",""ParticipantID"":""60""}","survey-html-form","2","124131","0.0-1.0-1.0","3","3","4","3","3","3","1","3","3","3","4","4","4","4","2","4","4","4","4","4","2","3","1","2","3","2","2","4","2","1","0","1","1","0","0","0","1","1","1","1","0","1","0","0","5","2","4","2","5","4","4","5","3","2","764077949963210754","郭","60","","","","","","","","","","","","","","","","","","","","","","","","","","","","","","","","","","","","","","","",""
"","","","fullscreen","3","258033","0.0-2.0","3","3","4","3","3","3","1","3","3","3","4","4","4","4","2","4","4","4","4","4","2","3","1","2","3","2","2","4","2","1","0","1","1","0","0","0","1","1","1","1","0","1","0","0","5","2","4","2","5","4","4","5","3","2","764077949963210754","郭","60","","true","{}","","","","","","","","","","","","","","","","","","","","","","","","","","","","","","","","","","","","",""
"41735.80000001192","","{""Q01"":""3"",""Q02"":""3"",""Q03"":""4"",""Q04"":""3"",""Q05"":""3"",""Q06"":""3"",""Q07"":""1"",""Q08"":""3"",""Q09"":""3"",""Q10"":""3""}","survey-template","4","299771","0.0-3.0","3","3","4","3","3","3","1","3","3","3","4","4","4","4","2","4","4","4","4","4","2","3","1","2","3","2","2","4","2","1","0","1","1","0","0","0","1","1","1","1","0","1","0","0","5","2","4","2","5","4","4","5","3","2","764077949963210754","郭","60","","","","{""Q01"":""3"",""Q02"":""3"",""Q03"":""4"",""Q04"":""3"",""Q05"":""3"",""Q06"":""3"",""Q07"":""1"",""Q08"":""3"",""Q09"":""3"",""Q10"":""3""}","[0,1,2,3,4,5,6,7,8,9]","[""Q01"",""Q02"",""Q02"",""Q03"",""Q04"",""Q06"",""Q05"",""Q10"",""Q09"",""Q08"",""Q08"",""Q08"",""Q08"",""Q07""]","[4943.4000000059605,7540.20000000298,8505.40000000596,11978.5,17367.5,20961.10000000894,22194.40000000596,28281.90000000596,29051.5,32093.20000000298,33063.60000000894,34907.80000001192,36090.5,37359.90000000596]","[]","[4943.4000000059605,7540.20000000298,8505.40000000596,11568.10000000894,11978.5,17367.5,19995.20000000298,20961.10000000894,22194.40000000596,26260.80000001192,27362.80000001192,28022.20000000298,28281.90000000596,28749.30000001192,29051.5,32093.20000000298,32714.5,33063.60000000894,34907.80000001192,36090.5,36554,36967.90000000596,37359.90000000596,41734.60000000894]","0.4","0.3333333333333333","0","","","","","","","","","","","","","","","","","","","","","","","","","","","",""
"37566.80000001192","","{""Q01"":""4"",""Q02"":""4"",""Q03"":""4"",""Q04"":""4"",""Q05"":""2"",""Q06"":""4"",""Q07"":""4"",""Q08"":""4"",""Q09"":""4"",""Q10"":""4""}","survey-template","5","337342","0.0-4.0","3","3","4","3","3","3","1","3","3","3","4","4","4","4","2","4","4","4","4","4","2","3","1","2","3","2","2","4","2","1","0","1","1","0","0","0","1","1","1","1","0","1","0","0","5","2","4","2","5","4","4","5","3","2","764077949963210754","郭","60","","","","{""Q01"":""4"",""Q02"":""4"",""Q03"":""4"",""Q04"":""4"",""Q05"":""2"",""Q06"":""4"",""Q07"":""4"",""Q08"":""4"",""Q09"":""4"",""Q10"":""4""}","[0,1,2,3,4,5,6,7,8,9]","[""Q01"",""Q02"",""Q04"",""Q03"",""Q05"",""Q03"",""Q07"",""Q06"",""Q09"",""Q08"",""Q10""]","[2231.4000000059605,6376,9335.300000011921,13062.20000000298,15204.800000011921,15893.90000000596,18604.40000000596,20661.60000000894,23829.20000000298,25452.20000000298,28284.30000001192]","[]","[2231.4000000059605,6010.70000000298,6376,9335.300000011921,13062.20000000298,13508.60000000894,13934.800000011921,15204.800000011921,15893.90000000596,17775.60000000894,18604.40000000596,20325.90000000596,20661.60000000894,22458.80000001192,23829.20000000298,25452.20000000298,27491.20000000298,27886.60000000894,28284.30000001192,37566]","0.5","0","0","","","","","","","","","","","","","","","","","","","","","","","","","","","",""
"","","","preload","6","337926","0.0-5.0","3","3","4","3","3","3","1","3","3","3","4","4","4","4","2","4","4","4","4","4","2","3","1","2","3","2","2","4","2","1","0","1","1","0","0","0","1","1","1","1","0","1","0","0","5","2","4","2","5","4","4","5","3","2","764077949963210754","郭","60","","true","","","","","","","","","","","false","[]","[]","[]","","","","","","","","","","","","","","","","","","","","","","","",""
"13939","
    <h3>词语分类任务</h3>
    <p>在接下来的任务中，你需要对一系列词语进行分类。<p/>
    请先熟悉这些词语，这有利于你完成接下来的任务。</p>
    <table align=""center"" border=1 cellpadding=3 cellspacing=0>
    <tr> <th>类别</th> <th>词语</th> </tr>
    <tr> <td>&emsp;积极&emsp;</td> <td>&emsp;高尚、诚信、善良、君子、廉正、正直&emsp;</td> </tr>
    <tr> <td>&emsp;消极&emsp;</td> <td>&emsp;缺德、卑鄙、不孝、不仁、小人、黑心&emsp;</td> </tr>
    <tr> <td>&emsp;自我&emsp;</td> <td>&emsp;我、我的、自己、自己的、本人、本人的&emsp;</td> </tr>
    <tr> <td>&emsp;他人&emsp;</td> <td>&emsp;他、他的、别人、别人的、他人、他人的&emsp;</td> </tr>
    </table><br/>","0","html-button-response","7","351865","0.0-6.0-1.0-0.0","3","3","4","3","3","3","1","3","3","3","4","4","4","4","2","4","4","4","4","4","2","3","1","2","3","2","2","4","2","1","0","1","1","0","0","0","1","1","1","1","0","1","0","0","5","2","4","2","5","4","4","5","3","2","764077949963210754","郭","60","","","","","","","","","","","","","","","","","2","2","","","","","","","","","","","","","","","","","","","","","",""
"18359","
    <div class=""tag-bottom""><p>
    —— 任务1：对“他人”词和“自我”词分类 ——<p/>
    不同词语会出现在屏幕中央，类别标签将始终显示在屏幕上方<p/>   
    <span style=""color:#FFD866""><b>请根据上方标签的提示，尽可能正确并且快速地做出按键反应</b></span><p/>
    当按键错误时屏幕中会出现<span style=""color:red""> X </span>，需要按另一个键纠正才能继续<br/><p/>
    请把双手食指分别放在键盘的“E”键和“I”键上<p/>
    按<空格键>开始
    </p></div>"," ","html-keyboard-response","8","370226","0.0-6.0-1.0-1.0","3","3","4","3","3","3","1","3","3","3","4","4","4","4","2","4","4","4","4","4","2","3","1","2","3","2","2","4","2","1","0","1","1","0","0","0","1","1","1","1","0","1","0","0","5","2","4","2","5","4","4","5","3","2","764077949963210754","郭","60","","","","","","","","","","","","","","","","","","","","","","","","","","","","","","","","","","","","","","","",""
"null","","null","html-keyboard-response","9","370478","0.0-6.0-1.0-2.0-0.0","3","3","4","3","3","3","1","3","3","3","4","4","4","4","2","4","4","4","4","4","2","3","1","2","3","2","2","4","2","1","0","1","1","0","0","0","1","1","1","1","0","1","0","0","5","2","4","2","5","4","4","5","3","2","764077949963210754","郭","60","","","","","","","","","","","","","","","","","","","","","","","","","","","","","","","","","","","","","","","",""
"930","<p style=""color:rgb(150, 250, 100); font-size: 35px;"">本人的</p>","i","categorize-html","10","371410","0.0-6.0-1.0-2.0-1.0","3","3","4","3","3","3","1","3","3","3","4","4","4","4","2","4","4","4","4","4","2","3","1","2","3","2","2","4","2","1","0","1","1","0","0","0","1","1","1","1","0","1","0","0","5","2","4","2","5","4","4","5","3","2","764077949963210754","郭","60","","","","","","","","","","","","","","","","","","","true","11","1","moral","930","self","本人的","","","","","","","","","","","","","","",""
"null","","null","html-keyboard-response","11","371662","0.0-6.0-1.0-2.0-0.1","3","3","4","3","3","3","1","3","3","3","4","4","4","4","2","4","4","4","4","4","2","3","1","2","3","2","2","4","2","1","0","1","1","0","0","0","1","1","1","1","0","1","0","0","5","2","4","2","5","4","4","5","3","2","764077949963210754","郭","60","","","","","","","","","","","","","","","","","","","","","","","","","","","","","","","","","","","","","","","",""
"505","<p style=""color:rgb(150, 250, 100); font-size: 35px;"">他人</p>","e","categorize-html","12","372171","0.0-6.0-1.0-2.0-1.1","3","3","4","3","3","3","1","3","3","3","4","4","4","4","2","4","4","4","4","4","2","3","1","2","3","2","2","4","2","1","0","1","1","0","0","0","1","1","1","1","0","1","0","0","5","2","4","2","5","4","4","5","3","2","764077949963210754","郭","60","","","","","","","","","","","","","","","","","","","true","11","1","moral","505","other","他人","","","","","","","","","","","","","","",""
"null","","null","html-keyboard-response","13","372423","0.0-6.0-1.0-2.0-0.2","3","3","4","3","3","3","1","3","3","3","4","4","4","4","2","4","4","4","4","4","2","3","1","2","3","2","2","4","2","1","0","1","1","0","0","0","1","1","1","1","0","1","0","0","5","2","4","2","5","4","4","5","3","2","764077949963210754","郭","60","","","","","","","","","","","","","","","","","","","","","","","","","","","","","","","","","","","","","","","",""
"648","<p style=""color:rgb(150, 250, 100); font-size: 35px;"">别人</p>","e","categorize-html","14","373076","0.0-6.0-1.0-2.0-1.2","3","3","4","3","3","3","1","3","3","3","4","4","4","4","2","4","4","4","4","4","2","3","1","2","3","2","2","4","2","1","0","1","1","0","0","0","1","1","1","1","0","1","0","0","5","2","4","2","5","4","4","5","3","2","764077949963210754","郭","60","","","","","","","","","","","","","","","","","","","true","11","1","moral","648","other","别人","","","","","","","","","","","","","","",""
"null","","null","html-keyboard-response","15","373327","0.0-6.0-1.0-2.0-0.3","3","3","4","3","3","3","1","3","3","3","4","4","4","4","2","4","4","4","4","4","2","3","1","2","3","2","2","4","2","1","0","1","1","0","0","0","1","1","1","1","0","1","0","0","5","2","4","2","5","4","4","5","3","2","764077949963210754","郭","60","","","","","","","","","","","","","","","","","","","","","","","","","","","","","","","","","","","","","","","",""
"475","<p style=""color:rgb(150, 250, 100); font-size: 35px;"">我的</p>","i","categorize-html","16","373803","0.0-6.0-1.0-2.0-1.3","3","3","4","3","3","3","1","3","3","3","4","4","4","4","2","4","4","4","4","4","2","3","1","2","3","2","2","4","2","1","0","1","1","0","0","0","1","1","1","1","0","1","0","0","5","2","4","2","5","4","4","5","3","2","764077949963210754","郭","60","","","","","","","","","","","","","","","","","","","true","11","1","moral","475","self","我的","","","","","","","","","","","","","","",""
"null","","null","html-keyboard-response","17","374054","0.0-6.0-1.0-2.0-0.4","3","3","4","3","3","3","1","3","3","3","4","4","4","4","2","4","4","4","4","4","2","3","1","2","3","2","2","4","2","1","0","1","1","0","0","0","1","1","1","1","0","1","0","0","5","2","4","2","5","4","4","5","3","2","764077949963210754","郭","60","","","","","","","","","","","","","","","","","","","","","","","","","","","","","","","","","","","","","","","",""
"370","<p style=""color:rgb(150, 250, 100); font-size: 35px;"">本人</p>","e","categorize-html","18","374799","0.0-6.0-1.0-2.0-1.4","3","3","4","3","3","3","1","3","3","3","4","4","4","4","2","4","4","4","4","4","2","3","1","2","3","2","2","4","2","1","0","1","1","0","0","0","1","1","1","1","0","1","0","0","5","2","4","2","5","4","4","5","3","2","764077949963210754","郭","60","","","","","","","","","","","","","","","","","","","false","11","1","moral","370","self","本人","","","","","","","","","","","","","","",""
"null","","null","html-keyboard-response","19","375051","0.0-6.0-1.0-2.0-0.5","3","3","4","3","3","3","1","3","3","3","4","4","4","4","2","4","4","4","4","4","2","3","1","2","3","2","2","4","2","1","0","1","1","0","0","0","1","1","1","1","0","1","0","0","5","2","4","2","5","4","4","5","3","2","764077949963210754","郭","60","","","","","","","","","","","","","","","","","","","","","","","","","","","","","","","","","","","","","","","",""
"570","<p style=""color:rgb(150, 250, 100); font-size: 35px;"">他</p>","e","categorize-html","20","375621","0.0-6.0-1.0-2.0-1.5","3","3","4","3","3","3","1","3","3","3","4","4","4","4","2","4","4","4","4","4","2","3","1","2","3","2","2","4","2","1","0","1","1","0","0","0","1","1","1","1","0","1","0","0","5","2","4","2","5","4","4","5","3","2","764077949963210754","郭","60","","","","","","","","","","","","","","","","","","","true","11","1","moral","570","other","他","","","","","","","","","","","","","","",""
"null","","null","html-keyboard-response","21","375872","0.0-6.0-1.0-2.0-0.6","3","3","4","3","3","3","1","3","3","3","4","4","4","4","2","4","4","4","4","4","2","3","1","2","3","2","2","4","2","1","0","1","1","0","0","0","1","1","1","1","0","1","0","0","5","2","4","2","5","4","4","5","3","2","764077949963210754","郭","60","","","","","","","","","","","","","","","","","","","","","","","","","","","","","","","","","","","","","","","",""
"717","<p style=""color:rgb(150, 250, 100); font-size: 35px;"">别人的</p>","e","categorize-html","22","376589","0.0-6.0-1.0-2.0-1.6","3","3","4","3","3","3","1","3","3","3","4","4","4","4","2","4","4","4","4","4","2","3","1","2","3","2","2","4","2","1","0","1","1","0","0","0","1","1","1","1","0","1","0","0","5","2","4","2","5","4","4","5","3","2","764077949963210754","郭","60","","","","","","","","","","","","","","","","","","","true","11","1","moral","717","other","别人的","","","","","","","","","","","","","","",""
"null","","null","html-keyboard-response","23","376840","0.0-6.0-1.0-2.0-0.7","3","3","4","3","3","3","1","3","3","3","4","4","4","4","2","4","4","4","4","4","2","3","1","2","3","2","2","4","2","1","0","1","1","0","0","0","1","1","1","1","0","1","0","0","5","2","4","2","5","4","4","5","3","2","764077949963210754","郭","60","","","","","","","","","","","","","","","","","","","","","","","","","","","","","","","","","","","","","","","",""
"569","<p style=""color:rgb(150, 250, 100); font-size: 35px;"">自己的</p>","i","categorize-html","24","377410","0.0-6.0-1.0-2.0-1.7","3","3","4","3","3","3","1","3","3","3","4","4","4","4","2","4","4","4","4","4","2","3","1","2","3","2","2","4","2","1","0","1","1","0","0","0","1","1","1","1","0","1","0","0","5","2","4","2","5","4","4","5","3","2","764077949963210754","郭","60","","","","","","","","","","","","","","","","","","","true","11","1","moral","569","self","自己的","","","","","","","","","","","","","","",""
"null","","null","html-keyboard-response","25","377662","0.0-6.0-1.0-2.0-0.8","3","3","4","3","3","3","1","3","3","3","4","4","4","4","2","4","4","4","4","4","2","3","1","2","3","2","2","4","2","1","0","1","1","0","0","0","1","1","1","1","0","1","0","0","5","2","4","2","5","4","4","5","3","2","764077949963210754","郭","60","","","","","","","","","","","","","","","","","","","","","","","","","","","","","","","","","","","","","","","",""
"544","<p style=""color:rgb(150, 250, 100); font-size: 35px;"">自己</p>","i","categorize-html","26","378206","0.0-6.0-1.0-2.0-1.8","3","3","4","3","3","3","1","3","3","3","4","4","4","4","2","4","4","4","4","4","2","3","1","2","3","2","2","4","2","1","0","1","1","0","0","0","1","1","1","1","0","1","0","0","5","2","4","2","5","4","4","5","3","2","764077949963210754","郭","60","","","","","","","","","","","","","","","","","","","true","11","1","moral","544","self","自己","","","","","","","","","","","","","","",""
"null","","null","html-keyboard-response","27","378458","0.0-6.0-1.0-2.0-0.9","3","3","4","3","3","3","1","3","3","3","4","4","4","4","2","4","4","4","4","4","2","3","1","2","3","2","2","4","2","1","0","1","1","0","0","0","1","1","1","1","0","1","0","0","5","2","4","2","5","4","4","5","3","2","764077949963210754","郭","60","","","","","","","","","","","","","","","","","","","","","","","","","","","","","","","","","","","","","","","",""
"453","<p style=""color:rgb(150, 250, 100); font-size: 35px;"">他人的</p>","e","categorize-html","28","378911","0.0-6.0-1.0-2.0-1.9","3","3","4","3","3","3","1","3","3","3","4","4","4","4","2","4","4","4","4","4","2","3","1","2","3","2","2","4","2","1","0","1","1","0","0","0","1","1","1","1","0","1","0","0","5","2","4","2","5","4","4","5","3","2","764077949963210754","郭","60","","","","","","","","","","","","","","","","","","","true","11","1","moral","453","other","他人的","","","","","","","","","","","","","","",""
"null","","null","html-keyboard-response","29","379162","0.0-6.0-1.0-2.0-0.10","3","3","4","3","3","3","1","3","3","3","4","4","4","4","2","4","4","4","4","4","2","3","1","2","3","2","2","4","2","1","0","1","1","0","0","0","1","1","1","1","0","1","0","0","5","2","4","2","5","4","4","5","3","2","764077949963210754","郭","60","","","","","","","","","","","","","","","","","","","","","","","","","","","","","","","","","","","","","","","",""
"433","<p style=""color:rgb(150, 250, 100); font-size: 35px;"">我</p>","i","categorize-html","30","379596","0.0-6.0-1.0-2.0-1.10","3","3","4","3","3","3","1","3","3","3","4","4","4","4","2","4","4","4","4","4","2","3","1","2","3","2","2","4","2","1","0","1","1","0","0","0","1","1","1","1","0","1","0","0","5","2","4","2","5","4","4","5","3","2","764077949963210754","郭","60","","","","","","","","","","","","","","","","","","","true","11","1","moral","433","self","我","","","","","","","","","","","","","","",""
"null","","null","html-keyboard-response","31","379848","0.0-6.0-1.0-2.0-0.11","3","3","4","3","3","3","1","3","3","3","4","4","4","4","2","4","4","4","4","4","2","3","1","2","3","2","2","4","2","1","0","1","1","0","0","0","1","1","1","1","0","1","0","0","5","2","4","2","5","4","4","5","3","2","764077949963210754","郭","60","","","","","","","","","","","","","","","","","","","","","","","","","","","","","","","","","","","","","","","",""
"476","<p style=""color:rgb(150, 250, 100); font-size: 35px;"">他的</p>","e","categorize-html","32","380325","0.0-6.0-1.0-2.0-1.11","3","3","4","3","3","3","1","3","3","3","4","4","4","4","2","4","4","4","4","4","2","3","1","2","3","2","2","4","2","1","0","1","1","0","0","0","1","1","1","1","0","1","0","0","5","2","4","2","5","4","4","5","3","2","764077949963210754","郭","60","","","","","","","","","","","","","","","","","","","true","11","1","moral","476","other","他的","","","","","","","","","","","","","","",""
"5267","
    <div class=""tag-bottom""><p>
    —— 任务2：对“消极”词和“积极”词分类 ——<p/>   
    <span style=""color:#78DCE8""><b>注意上方，类别标签和需要分类的词语都已经改变</b></span><p/>
    <span style=""color:#FFD866""><b>请根据上方标签的提示，尽可能正确并且快速地做出按键反应</b></span><p/>
    当按键错误时屏幕中会出现<span style=""color:red""> X </span>，需要按另一个键纠正才能继续<br/><p/>
    请把双手食指分别放在键盘的“E”键和“I”键上<p/>
    按<空格键>开始
    </p></div>"," ","html-keyboard-response","33","385592","0.0-6.0-1.0-3.0","3","3","4","3","3","3","1","3","3","3","4","4","4","4","2","4","4","4","4","4","2","3","1","2","3","2","2","4","2","1","0","1","1","0","0","0","1","1","1","1","0","1","0","0","5","2","4","2","5","4","4","5","3","2","764077949963210754","郭","60","","","","","","","","","","","","","","","","","","","","","","","","","","","","","","","","","","","","","","","",""
"null","","null","html-keyboard-response","34","385844","0.0-6.0-1.0-4.0-0.0","3","3","4","3","3","3","1","3","3","3","4","4","4","4","2","4","4","4","4","4","2","3","1","2","3","2","2","4","2","1","0","1","1","0","0","0","1","1","1","1","0","1","0","0","5","2","4","2","5","4","4","5","3","2","764077949963210754","郭","60","","","","","","","","","","","","","","","","","","","","","","","","","","","","","","","","","","","","","","","",""
"892","<p style=""color:white; font-size: 35px;"">黑心</p>","e","categorize-html","35","386736","0.0-6.0-1.0-4.0-1.0","3","3","4","3","3","3","1","3","3","3","4","4","4","4","2","4","4","4","4","4","2","3","1","2","3","2","2","4","2","1","0","1","1","0","0","0","1","1","1","1","0","1","0","0","5","2","4","2","5","4","4","5","3","2","764077949963210754","郭","60","","","","","","","","","","","","","","","","","","","true","12","2","moral","892","negative","黑心","","","","","","","","","","","","","","",""
"null","","null","html-keyboard-response","36","386987","0.0-6.0-1.0-4.0-0.1","3","3","4","3","3","3","1","3","3","3","4","4","4","4","2","4","4","4","4","4","2","3","1","2","3","2","2","4","2","1","0","1","1","0","0","0","1","1","1","1","0","1","0","0","5","2","4","2","5","4","4","5","3","2","764077949963210754","郭","60","","","","","","","","","","","","","","","","","","","","","","","","","","","","","","","","","","","","","","","",""
"538","<p style=""color:white; font-size: 35px;"">高尚</p>","i","categorize-html","37","387526","0.0-6.0-1.0-4.0-1.1","3","3","4","3","3","3","1","3","3","3","4","4","4","4","2","4","4","4","4","4","2","3","1","2","3","2","2","4","2","1","0","1","1","0","0","0","1","1","1","1","0","1","0","0","5","2","4","2","5","4","4","5","3","2","764077949963210754","郭","60","","","","","","","","","","","","","","","","","","","true","12","2","moral","538","positive","高尚","","","","","","","","","","","","","","",""
"null","","null","html-keyboard-response","38","387778","0.0-6.0-1.0-4.0-0.2","3","3","4","3","3","3","1","3","3","3","4","4","4","4","2","4","4","4","4","4","2","3","1","2","3","2","2","4","2","1","0","1","1","0","0","0","1","1","1","1","0","1","0","0","5","2","4","2","5","4","4","5","3","2","764077949963210754","郭","60","","","","","","","","","","","","","","","","","","","","","","","","","","","","","","","","","","","","","","","",""
"696","<p style=""color:white; font-size: 35px;"">君子</p>","i","categorize-html","39","388478","0.0-6.0-1.0-4.0-1.2","3","3","4","3","3","3","1","3","3","3","4","4","4","4","2","4","4","4","4","4","2","3","1","2","3","2","2","4","2","1","0","1","1","0","0","0","1","1","1","1","0","1","0","0","5","2","4","2","5","4","4","5","3","2","764077949963210754","郭","60","","","","","","","","","","","","","","","","","","","true","12","2","moral","696","positive","君子","","","","","","","","","","","","","","",""
"null","","null","html-keyboard-response","40","388729","0.0-6.0-1.0-4.0-0.3","3","3","4","3","3","3","1","3","3","3","4","4","4","4","2","4","4","4","4","4","2","3","1","2","3","2","2","4","2","1","0","1","1","0","0","0","1","1","1","1","0","1","0","0","5","2","4","2","5","4","4","5","3","2","764077949963210754","郭","60","","","","","","","","","","","","","","","","","","","","","","","","","","","","","","","","","","","","","","","",""
"630","<p style=""color:white; font-size: 35px;"">不仁</p>","i","categorize-html","41","389615","0.0-6.0-1.0-4.0-1.3","3","3","4","3","3","3","1","3","3","3","4","4","4","4","2","4","4","4","4","4","2","3","1","2","3","2","2","4","2","1","0","1","1","0","0","0","1","1","1","1","0","1","0","0","5","2","4","2","5","4","4","5","3","2","764077949963210754","郭","60","","","","","","","","","","","","","","","","","","","false","12","2","moral","630","negative","不仁","","","","","","","","","","","","","","",""
"null","","null","html-keyboard-response","42","389867","0.0-6.0-1.0-4.0-0.4","3","3","4","3","3","3","1","3","3","3","4","4","4","4","2","4","4","4","4","4","2","3","1","2","3","2","2","4","2","1","0","1","1","0","0","0","1","1","1","1","0","1","0","0","5","2","4","2","5","4","4","5","3","2","764077949963210754","郭","60","","","","","","","","","","","","","","","","","","","","","","","","","","","","","","","","","","","","","","","",""
"627","<p style=""color:white; font-size: 35px;"">诚信</p>","i","categorize-html","43","390495","0.0-6.0-1.0-4.0-1.4","3","3","4","3","3","3","1","3","3","3","4","4","4","4","2","4","4","4","4","4","2","3","1","2","3","2","2","4","2","1","0","1","1","0","0","0","1","1","1","1","0","1","0","0","5","2","4","2","5","4","4","5","3","2","764077949963210754","郭","60","","","","","","","","","","","","","","","","","","","true","12","2","moral","627","positive","诚信","","","","","","","","","","","","","","",""
"null","","null","html-keyboard-response","44","390747","0.0-6.0-1.0-4.0-0.5","3","3","4","3","3","3","1","3","3","3","4","4","4","4","2","4","4","4","4","4","2","3","1","2","3","2","2","4","2","1","0","1","1","0","0","0","1","1","1","1","0","1","0","0","5","2","4","2","5","4","4","5","3","2","764077949963210754","郭","60","","","","","","","","","","","","","","","","","","","","","","","","","","","","","","","","","","","","","","","",""
"546","<p style=""color:white; font-size: 35px;"">缺德</p>","e","categorize-html","45","391294","0.0-6.0-1.0-4.0-1.5","3","3","4","3","3","3","1","3","3","3","4","4","4","4","2","4","4","4","4","4","2","3","1","2","3","2","2","4","2","1","0","1","1","0","0","0","1","1","1","1","0","1","0","0","5","2","4","2","5","4","4","5","3","2","764077949963210754","郭","60","","","","","","","","","","","","","","","","","","","true","12","2","moral","546","negative","缺德","","","","","","","","","","","","","","",""
"null","","null","html-keyboard-response","46","391545","0.0-6.0-1.0-4.0-0.6","3","3","4","3","3","3","1","3","3","3","4","4","4","4","2","4","4","4","4","4","2","3","1","2","3","2","2","4","2","1","0","1","1","0","0","0","1","1","1","1","0","1","0","0","5","2","4","2","5","4","4","5","3","2","764077949963210754","郭","60","","","","","","","","","","","","","","","","","","","","","","","","","","","","","","","","","","","","","","","",""
"575","<p style=""color:white; font-size: 35px;"">善良</p>","i","categorize-html","47","392122","0.0-6.0-1.0-4.0-1.6","3","3","4","3","3","3","1","3","3","3","4","4","4","4","2","4","4","4","4","4","2","3","1","2","3","2","2","4","2","1","0","1","1","0","0","0","1","1","1","1","0","1","0","0","5","2","4","2","5","4","4","5","3","2","764077949963210754","郭","60","","","","","","","","","","","","","","","","","","","true","12","2","moral","575","positive","善良","","","","","","","","","","","","","","",""
"null","","null","html-keyboard-response","48","392373","0.0-6.0-1.0-4.0-0.7","3","3","4","3","3","3","1","3","3","3","4","4","4","4","2","4","4","4","4","4","2","3","1","2","3","2","2","4","2","1","0","1","1","0","0","0","1","1","1","1","0","1","0","0","5","2","4","2","5","4","4","5","3","2","764077949963210754","郭","60","","","","","","","","","","","","","","","","","","","","","","","","","","","","","","","","","","","","","","","",""
"538","<p style=""color:white; font-size: 35px;"">卑鄙</p>","e","categorize-html","49","392912","0.0-6.0-1.0-4.0-1.7","3","3","4","3","3","3","1","3","3","3","4","4","4","4","2","4","4","4","4","4","2","3","1","2","3","2","2","4","2","1","0","1","1","0","0","0","1","1","1","1","0","1","0","0","5","2","4","2","5","4","4","5","3","2","764077949963210754","郭","60","","","","","","","","","","","","","","","","","","","true","12","2","moral","538","negative","卑鄙","","","","","","","","","","","","","","",""
"null","","null","html-keyboard-response","50","393164","0.0-6.0-1.0-4.0-0.8","3","3","4","3","3","3","1","3","3","3","4","4","4","4","2","4","4","4","4","4","2","3","1","2","3","2","2","4","2","1","0","1","1","0","0","0","1","1","1","1","0","1","0","0","5","2","4","2","5","4","4","5","3","2","764077949963210754","郭","60","","","","","","","","","","","","","","","","","","","","","","","","","","","","","","","","","","","","","","","",""
"1028","<p style=""color:white; font-size: 35px;"">不孝</p>","e","categorize-html","51","394197","0.0-6.0-1.0-4.0-1.8","3","3","4","3","3","3","1","3","3","3","4","4","4","4","2","4","4","4","4","4","2","3","1","2","3","2","2","4","2","1","0","1","1","0","0","0","1","1","1","1","0","1","0","0","5","2","4","2","5","4","4","5","3","2","764077949963210754","郭","60","","","","","","","","","","","","","","","","","","","true","12","2","moral","1028","negative","不孝","","","","","","","","","","","","","","",""
"null","","null","html-keyboard-response","52","394448","0.0-6.0-1.0-4.0-0.9","3","3","4","3","3","3","1","3","3","3","4","4","4","4","2","4","4","4","4","4","2","3","1","2","3","2","2","4","2","1","0","1","1","0","0","0","1","1","1","1","0","1","0","0","5","2","4","2","5","4","4","5","3","2","764077949963210754","郭","60","","","","","","","","","","","","","","","","","","","","","","","","","","","","","","","","","","","","","","","",""
"533","<p style=""color:white; font-size: 35px;"">廉正</p>","i","categorize-html","53","394982","0.0-6.0-1.0-4.0-1.9","3","3","4","3","3","3","1","3","3","3","4","4","4","4","2","4","4","4","4","4","2","3","1","2","3","2","2","4","2","1","0","1","1","0","0","0","1","1","1","1","0","1","0","0","5","2","4","2","5","4","4","5","3","2","764077949963210754","郭","60","","","","","","","","","","","","","","","","","","","true","12","2","moral","533","positive","廉正","","","","","","","","","","","","","","",""
"null","","null","html-keyboard-response","54","395243","0.0-6.0-1.0-4.0-0.10","3","3","4","3","3","3","1","3","3","3","4","4","4","4","2","4","4","4","4","4","2","3","1","2","3","2","2","4","2","1","0","1","1","0","0","0","1","1","1","1","0","1","0","0","5","2","4","2","5","4","4","5","3","2","764077949963210754","郭","60","","","","","","","","","","","","","","","","","","","","","","","","","","","","","","","","","","","","","","","",""
"526","<p style=""color:white; font-size: 35px;"">小人</p>","e","categorize-html","55","395770","0.0-6.0-1.0-4.0-1.10","3","3","4","3","3","3","1","3","3","3","4","4","4","4","2","4","4","4","4","4","2","3","1","2","3","2","2","4","2","1","0","1","1","0","0","0","1","1","1","1","0","1","0","0","5","2","4","2","5","4","4","5","3","2","764077949963210754","郭","60","","","","","","","","","","","","","","","","","","","true","12","2","moral","526","negative","小人","","","","","","","","","","","","","","",""
"null","","null","html-keyboard-response","56","396021","0.0-6.0-1.0-4.0-0.11","3","3","4","3","3","3","1","3","3","3","4","4","4","4","2","4","4","4","4","4","2","3","1","2","3","2","2","4","2","1","0","1","1","0","0","0","1","1","1","1","0","1","0","0","5","2","4","2","5","4","4","5","3","2","764077949963210754","郭","60","","","","","","","","","","","","","","","","","","","","","","","","","","","","","","","","","","","","","","","",""
"553","<p style=""color:white; font-size: 35px;"">正直</p>","i","categorize-html","57","396576","0.0-6.0-1.0-4.0-1.11","3","3","4","3","3","3","1","3","3","3","4","4","4","4","2","4","4","4","4","4","2","3","1","2","3","2","2","4","2","1","0","1","1","0","0","0","1","1","1","1","0","1","0","0","5","2","4","2","5","4","4","5","3","2","764077949963210754","郭","60","","","","","","","","","","","","","","","","","","","true","12","2","moral","553","positive","正直","","","","","","","","","","","","","","",""
"2496","
    <div class=""tag-bottom""><p>
    —— 任务3：对“他人/消极”词和“自我/积极”词分类 ——<p/>
    <span style=""color:#78DCE8""><b>注意上方，之前的四类词语将混合在一起交替呈现</b></span><p/>
    <span style=""color:#FFD866""><b>请根据上方标签的提示，尽可能正确并且快速地做出按键反应</b></span><p/>
    当按键错误时屏幕中会出现<span style=""color:red""> X </span>，需要按另一个键纠正才能继续<br/><p/>
    请把双手食指分别放在键盘的“E”键和“I”键上<p/>
    按<空格键>开始
    </p></div>"," ","html-keyboard-response","58","399072","0.0-6.0-1.0-5.0","3","3","4","3","3","3","1","3","3","3","4","4","4","4","2","4","4","4","4","4","2","3","1","2","3","2","2","4","2","1","0","1","1","0","0","0","1","1","1","1","0","1","0","0","5","2","4","2","5","4","4","5","3","2","764077949963210754","郭","60","","","","","","","","","","","","","","","","","","","","","","","","","","","","","","","","","","","","","","","",""
"null","","null","html-keyboard-response","59","399323","0.0-6.0-1.0-6.0-0.0","3","3","4","3","3","3","1","3","3","3","4","4","4","4","2","4","4","4","4","4","2","3","1","2","3","2","2","4","2","1","0","1","1","0","0","0","1","1","1","1","0","1","0","0","5","2","4","2","5","4","4","5","3","2","764077949963210754","郭","60","","","","","","","","","","","","","","","","","","","","","","","","","","","","","","","","","","","","","","","",""
"968","<p style=""color:rgb(150, 250, 100); font-size: 35px;"">本人的</p>","i","categorize-html","60","400294","0.0-6.0-1.0-6.0-1.0","3","3","4","3","3","3","1","3","3","3","4","4","4","4","2","4","4","4","4","4","2","3","1","2","3","2","2","4","2","1","0","1","1","0","0","0","1","1","1","1","0","1","0","0","5","2","4","2","5","4","4","5","3","2","764077949963210754","郭","60","","","","","","","","","","","","","","","","","","","true","13","3","moral","968","self","本人的","","","","","","","","","","","","","","",""
"null","","null","html-keyboard-response","61","400545","0.0-6.0-1.0-6.0-0.1","3","3","4","3","3","3","1","3","3","3","4","4","4","4","2","4","4","4","4","4","2","3","1","2","3","2","2","4","2","1","0","1","1","0","0","0","1","1","1","1","0","1","0","0","5","2","4","2","5","4","4","5","3","2","764077949963210754","郭","60","","","","","","","","","","","","","","","","","","","","","","","","","","","","","","","","","","","","","","","",""
"1148","<p style=""color:white; font-size: 35px;"">正直</p>","i","categorize-html","62","401694","0.0-6.0-1.0-6.0-1.1","3","3","4","3","3","3","1","3","3","3","4","4","4","4","2","4","4","4","4","4","2","3","1","2","3","2","2","4","2","1","0","1","1","0","0","0","1","1","1","1","0","1","0","0","5","2","4","2","5","4","4","5","3","2","764077949963210754","郭","60","","","","","","","","","","","","","","","","","","","true","13","3","moral","1148","positive","正直","","","","","","","","","","","","","","",""
"null","","null","html-keyboard-response","63","401946","0.0-6.0-1.0-6.0-0.2","3","3","4","3","3","3","1","3","3","3","4","4","4","4","2","4","4","4","4","4","2","3","1","2","3","2","2","4","2","1","0","1","1","0","0","0","1","1","1","1","0","1","0","0","5","2","4","2","5","4","4","5","3","2","764077949963210754","郭","60","","","","","","","","","","","","","","","","","","","","","","","","","","","","","","","","","","","","","","","",""
"835","<p style=""color:rgb(150, 250, 100); font-size: 35px;"">别人的</p>","e","categorize-html","64","402781","0.0-6.0-1.0-6.0-1.2","3","3","4","3","3","3","1","3","3","3","4","4","4","4","2","4","4","4","4","4","2","3","1","2","3","2","2","4","2","1","0","1","1","0","0","0","1","1","1","1","0","1","0","0","5","2","4","2","5","4","4","5","3","2","764077949963210754","郭","60","","","","","","","","","","","","","","","","","","","true","13","3","moral","835","other","别人的","","","","","","","","","","","","","","",""
"null","","null","html-keyboard-response","65","403032","0.0-6.0-1.0-6.0-0.3","3","3","4","3","3","3","1","3","3","3","4","4","4","4","2","4","4","4","4","4","2","3","1","2","3","2","2","4","2","1","0","1","1","0","0","0","1","1","1","1","0","1","0","0","5","2","4","2","5","4","4","5","3","2","764077949963210754","郭","60","","","","","","","","","","","","","","","","","","","","","","","","","","","","","","","","","","","","","","","",""
"1333","<p style=""color:white; font-size: 35px;"">小人</p>","e","categorize-html","66","404366","0.0-6.0-1.0-6.0-1.3","3","3","4","3","3","3","1","3","3","3","4","4","4","4","2","4","4","4","4","4","2","3","1","2","3","2","2","4","2","1","0","1","1","0","0","0","1","1","1","1","0","1","0","0","5","2","4","2","5","4","4","5","3","2","764077949963210754","郭","60","","","","","","","","","","","","","","","","","","","true","13","3","moral","1333","negative","小人","","","","","","","","","","","","","","",""
"null","","null","html-keyboard-response","67","404617","0.0-6.0-1.0-6.0-0.4","3","3","4","3","3","3","1","3","3","3","4","4","4","4","2","4","4","4","4","4","2","3","1","2","3","2","2","4","2","1","0","1","1","0","0","0","1","1","1","1","0","1","0","0","5","2","4","2","5","4","4","5","3","2","764077949963210754","郭","60","","","","","","","","","","","","","","","","","","","","","","","","","","","","","","","","","","","","","","","",""
"501","<p style=""color:rgb(150, 250, 100); font-size: 35px;"">本人</p>","i","categorize-html","68","405122","0.0-6.0-1.0-6.0-1.4","3","3","4","3","3","3","1","3","3","3","4","4","4","4","2","4","4","4","4","4","2","3","1","2","3","2","2","4","2","1","0","1","1","0","0","0","1","1","1","1","0","1","0","0","5","2","4","2","5","4","4","5","3","2","764077949963210754","郭","60","","","","","","","","","","","","","","","","","","","true","13","3","moral","501","self","本人","","","","","","","","","","","","","","",""
"null","","null","html-keyboard-response","69","405373","0.0-6.0-1.0-6.0-0.5","3","3","4","3","3","3","1","3","3","3","4","4","4","4","2","4","4","4","4","4","2","3","1","2","3","2","2","4","2","1","0","1","1","0","0","0","1","1","1","1","0","1","0","0","5","2","4","2","5","4","4","5","3","2","764077949963210754","郭","60","","","","","","","","","","","","","","","","","","","","","","","","","","","","","","","","","","","","","","","",""
"709","<p style=""color:white; font-size: 35px;"">君子</p>","i","categorize-html","70","406082","0.0-6.0-1.0-6.0-1.5","3","3","4","3","3","3","1","3","3","3","4","4","4","4","2","4","4","4","4","4","2","3","1","2","3","2","2","4","2","1","0","1","1","0","0","0","1","1","1","1","0","1","0","0","5","2","4","2","5","4","4","5","3","2","764077949963210754","郭","60","","","","","","","","","","","","","","","","","","","true","13","3","moral","709","positive","君子","","","","","","","","","","","","","","",""
"null","","null","html-keyboard-response","71","406333","0.0-6.0-1.0-6.0-0.6","3","3","4","3","3","3","1","3","3","3","4","4","4","4","2","4","4","4","4","4","2","3","1","2","3","2","2","4","2","1","0","1","1","0","0","0","1","1","1","1","0","1","0","0","5","2","4","2","5","4","4","5","3","2","764077949963210754","郭","60","","","","","","","","","","","","","","","","","","","","","","","","","","","","","","","","","","","","","","","",""
"861","<p style=""color:rgb(150, 250, 100); font-size: 35px;"">他</p>","e","categorize-html","72","407195","0.0-6.0-1.0-6.0-1.6","3","3","4","3","3","3","1","3","3","3","4","4","4","4","2","4","4","4","4","4","2","3","1","2","3","2","2","4","2","1","0","1","1","0","0","0","1","1","1","1","0","1","0","0","5","2","4","2","5","4","4","5","3","2","764077949963210754","郭","60","","","","","","","","","","","","","","","","","","","true","13","3","moral","861","other","他","","","","","","","","","","","","","","",""
"null","","null","html-keyboard-response","73","407446","0.0-6.0-1.0-6.0-0.7","3","3","4","3","3","3","1","3","3","3","4","4","4","4","2","4","4","4","4","4","2","3","1","2","3","2","2","4","2","1","0","1","1","0","0","0","1","1","1","1","0","1","0","0","5","2","4","2","5","4","4","5","3","2","764077949963210754","郭","60","","","","","","","","","","","","","","","","","","","","","","","","","","","","","","","","","","","","","","","",""
"514","<p style=""color:white; font-size: 35px;"">卑鄙</p>","e","categorize-html","74","407965","0.0-6.0-1.0-6.0-1.7","3","3","4","3","3","3","1","3","3","3","4","4","4","4","2","4","4","4","4","4","2","3","1","2","3","2","2","4","2","1","0","1","1","0","0","0","1","1","1","1","0","1","0","0","5","2","4","2","5","4","4","5","3","2","764077949963210754","郭","60","","","","","","","","","","","","","","","","","","","true","13","3","moral","514","negative","卑鄙","","","","","","","","","","","","","","",""
"null","","null","html-keyboard-response","75","408217","0.0-6.0-1.0-6.0-0.8","3","3","4","3","3","3","1","3","3","3","4","4","4","4","2","4","4","4","4","4","2","3","1","2","3","2","2","4","2","1","0","1","1","0","0","0","1","1","1","1","0","1","0","0","5","2","4","2","5","4","4","5","3","2","764077949963210754","郭","60","","","","","","","","","","","","","","","","","","","","","","","","","","","","","","","","","","","","","","","",""
"497","<p style=""color:rgb(150, 250, 100); font-size: 35px;"">我的</p>","i","categorize-html","76","408719","0.0-6.0-1.0-6.0-1.8","3","3","4","3","3","3","1","3","3","3","4","4","4","4","2","4","4","4","4","4","2","3","1","2","3","2","2","4","2","1","0","1","1","0","0","0","1","1","1","1","0","1","0","0","5","2","4","2","5","4","4","5","3","2","764077949963210754","郭","60","","","","","","","","","","","","","","","","","","","true","13","3","moral","497","self","我的","","","","","","","","","","","","","","",""
"null","","null","html-keyboard-response","77","408970","0.0-6.0-1.0-6.0-0.9","3","3","4","3","3","3","1","3","3","3","4","4","4","4","2","4","4","4","4","4","2","3","1","2","3","2","2","4","2","1","0","1","1","0","0","0","1","1","1","1","0","1","0","0","5","2","4","2","5","4","4","5","3","2","764077949963210754","郭","60","","","","","","","","","","","","","","","","","","","","","","","","","","","","","","","","","","","","","","","",""
"779","<p style=""color:white; font-size: 35px;"">缺德</p>","e","categorize-html","78","409750","0.0-6.0-1.0-6.0-1.9","3","3","4","3","3","3","1","3","3","3","4","4","4","4","2","4","4","4","4","4","2","3","1","2","3","2","2","4","2","1","0","1","1","0","0","0","1","1","1","1","0","1","0","0","5","2","4","2","5","4","4","5","3","2","764077949963210754","郭","60","","","","","","","","","","","","","","","","","","","true","13","3","moral","779","negative","缺德","","","","","","","","","","","","","","",""
"null","","null","html-keyboard-response","79","410001","0.0-6.0-1.0-6.0-0.10","3","3","4","3","3","3","1","3","3","3","4","4","4","4","2","4","4","4","4","4","2","3","1","2","3","2","2","4","2","1","0","1","1","0","0","0","1","1","1","1","0","1","0","0","5","2","4","2","5","4","4","5","3","2","764077949963210754","郭","60","","","","","","","","","","","","","","","","","","","","","","","","","","","","","","","","","","","","","","","",""
"986","<p style=""color:rgb(150, 250, 100); font-size: 35px;"">他人</p>","e","categorize-html","80","410988","0.0-6.0-1.0-6.0-1.10","3","3","4","3","3","3","1","3","3","3","4","4","4","4","2","4","4","4","4","4","2","3","1","2","3","2","2","4","2","1","0","1","1","0","0","0","1","1","1","1","0","1","0","0","5","2","4","2","5","4","4","5","3","2","764077949963210754","郭","60","","","","","","","","","","","","","","","","","","","true","13","3","moral","986","other","他人","","","","","","","","","","","","","","",""
"null","","null","html-keyboard-response","81","411238","0.0-6.0-1.0-6.0-0.11","3","3","4","3","3","3","1","3","3","3","4","4","4","4","2","4","4","4","4","4","2","3","1","2","3","2","2","4","2","1","0","1","1","0","0","0","1","1","1","1","0","1","0","0","5","2","4","2","5","4","4","5","3","2","764077949963210754","郭","60","","","","","","","","","","","","","","","","","","","","","","","","","","","","","","","","","","","","","","","",""
"655","<p style=""color:white; font-size: 35px;"">善良</p>","i","categorize-html","82","411895","0.0-6.0-1.0-6.0-1.11","3","3","4","3","3","3","1","3","3","3","4","4","4","4","2","4","4","4","4","4","2","3","1","2","3","2","2","4","2","1","0","1","1","0","0","0","1","1","1","1","0","1","0","0","5","2","4","2","5","4","4","5","3","2","764077949963210754","郭","60","","","","","","","","","","","","","","","","","","","true","13","3","moral","655","positive","善良","","","","","","","","","","","","","","",""
"null","","null","html-keyboard-response","83","412146","0.0-6.0-1.0-6.0-0.12","3","3","4","3","3","3","1","3","3","3","4","4","4","4","2","4","4","4","4","4","2","3","1","2","3","2","2","4","2","1","0","1","1","0","0","0","1","1","1","1","0","1","0","0","5","2","4","2","5","4","4","5","3","2","764077949963210754","郭","60","","","","","","","","","","","","","","","","","","","","","","","","","","","","","","","","","","","","","","","",""
"607","<p style=""color:rgb(150, 250, 100); font-size: 35px;"">他的</p>","e","categorize-html","84","412754","0.0-6.0-1.0-6.0-1.12","3","3","4","3","3","3","1","3","3","3","4","4","4","4","2","4","4","4","4","4","2","3","1","2","3","2","2","4","2","1","0","1","1","0","0","0","1","1","1","1","0","1","0","0","5","2","4","2","5","4","4","5","3","2","764077949963210754","郭","60","","","","","","","","","","","","","","","","","","","true","13","3","moral","607","other","他的","","","","","","","","","","","","","","",""
"null","","null","html-keyboard-response","85","413006","0.0-6.0-1.0-6.0-0.13","3","3","4","3","3","3","1","3","3","3","4","4","4","4","2","4","4","4","4","4","2","3","1","2","3","2","2","4","2","1","0","1","1","0","0","0","1","1","1","1","0","1","0","0","5","2","4","2","5","4","4","5","3","2","764077949963210754","郭","60","","","","","","","","","","","","","","","","","","","","","","","","","","","","","","","","","","","","","","","",""
"635","<p style=""color:white; font-size: 35px;"">不仁</p>","e","categorize-html","86","413642","0.0-6.0-1.0-6.0-1.13","3","3","4","3","3","3","1","3","3","3","4","4","4","4","2","4","4","4","4","4","2","3","1","2","3","2","2","4","2","1","0","1","1","0","0","0","1","1","1","1","0","1","0","0","5","2","4","2","5","4","4","5","3","2","764077949963210754","郭","60","","","","","","","","","","","","","","","","","","","true","13","3","moral","635","negative","不仁","","","","","","","","","","","","","","",""
"null","","null","html-keyboard-response","87","413893","0.0-6.0-1.0-6.0-0.14","3","3","4","3","3","3","1","3","3","3","4","4","4","4","2","4","4","4","4","4","2","3","1","2","3","2","2","4","2","1","0","1","1","0","0","0","1","1","1","1","0","1","0","0","5","2","4","2","5","4","4","5","3","2","764077949963210754","郭","60","","","","","","","","","","","","","","","","","","","","","","","","","","","","","","","","","","","","","","","",""
"530","<p style=""color:rgb(150, 250, 100); font-size: 35px;"">自己的</p>","i","categorize-html","88","414424","0.0-6.0-1.0-6.0-1.14","3","3","4","3","3","3","1","3","3","3","4","4","4","4","2","4","4","4","4","4","2","3","1","2","3","2","2","4","2","1","0","1","1","0","0","0","1","1","1","1","0","1","0","0","5","2","4","2","5","4","4","5","3","2","764077949963210754","郭","60","","","","","","","","","","","","","","","","","","","true","13","3","moral","530","self","自己的","","","","","","","","","","","","","","",""
"null","","null","html-keyboard-response","89","414675","0.0-6.0-1.0-6.0-0.15","3","3","4","3","3","3","1","3","3","3","4","4","4","4","2","4","4","4","4","4","2","3","1","2","3","2","2","4","2","1","0","1","1","0","0","0","1","1","1","1","0","1","0","0","5","2","4","2","5","4","4","5","3","2","764077949963210754","郭","60","","","","","","","","","","","","","","","","","","","","","","","","","","","","","","","","","","","","","","","",""
"459","<p style=""color:white; font-size: 35px;"">廉正</p>","e","categorize-html","90","415453","0.0-6.0-1.0-6.0-1.15","3","3","4","3","3","3","1","3","3","3","4","4","4","4","2","4","4","4","4","4","2","3","1","2","3","2","2","4","2","1","0","1","1","0","0","0","1","1","1","1","0","1","0","0","5","2","4","2","5","4","4","5","3","2","764077949963210754","郭","60","","","","","","","","","","","","","","","","","","","false","13","3","moral","1332.0454545454545","positive","廉正","","","","","","","","","","","","","","",""
"null","","null","html-keyboard-response","91","415704","0.0-6.0-1.0-6.0-0.16","3","3","4","3","3","3","1","3","3","3","4","4","4","4","2","4","4","4","4","4","2","3","1","2","3","2","2","4","2","1","0","1","1","0","0","0","1","1","1","1","0","1","0","0","5","2","4","2","5","4","4","5","3","2","764077949963210754","郭","60","","","","","","","","","","","","","","","","","","","","","","","","","","","","","","","","","","","","","","","",""
"571","<p style=""color:rgb(150, 250, 100); font-size: 35px;"">自己</p>","i","categorize-html","92","416276","0.0-6.0-1.0-6.0-1.16","3","3","4","3","3","3","1","3","3","3","4","4","4","4","2","4","4","4","4","4","2","3","1","2","3","2","2","4","2","1","0","1","1","0","0","0","1","1","1","1","0","1","0","0","5","2","4","2","5","4","4","5","3","2","764077949963210754","郭","60","","","","","","","","","","","","","","","","","","","true","13","3","moral","571","self","自己","","","","","","","","","","","","","","",""
"null","","null","html-keyboard-response","93","416528","0.0-6.0-1.0-6.0-0.17","3","3","4","3","3","3","1","3","3","3","4","4","4","4","2","4","4","4","4","4","2","3","1","2","3","2","2","4","2","1","0","1","1","0","0","0","1","1","1","1","0","1","0","0","5","2","4","2","5","4","4","5","3","2","764077949963210754","郭","60","","","","","","","","","","","","","","","","","","","","","","","","","","","","","","","","","","","","","","","",""
"553","<p style=""color:white; font-size: 35px;"">高尚</p>","i","categorize-html","94","417082","0.0-6.0-1.0-6.0-1.17","3","3","4","3","3","3","1","3","3","3","4","4","4","4","2","4","4","4","4","4","2","3","1","2","3","2","2","4","2","1","0","1","1","0","0","0","1","1","1","1","0","1","0","0","5","2","4","2","5","4","4","5","3","2","764077949963210754","郭","60","","","","","","","","","","","","","","","","","","","true","13","3","moral","553","positive","高尚","","","","","","","","","","","","","","",""
"null","","null","html-keyboard-response","95","417333","0.0-6.0-1.0-6.0-0.18","3","3","4","3","3","3","1","3","3","3","4","4","4","4","2","4","4","4","4","4","2","3","1","2","3","2","2","4","2","1","0","1","1","0","0","0","1","1","1","1","0","1","0","0","5","2","4","2","5","4","4","5","3","2","764077949963210754","郭","60","","","","","","","","","","","","","","","","","","","","","","","","","","","","","","","","","","","","","","","",""
"512","<p style=""color:rgb(150, 250, 100); font-size: 35px;"">他人的</p>","e","categorize-html","96","417846","0.0-6.0-1.0-6.0-1.18","3","3","4","3","3","3","1","3","3","3","4","4","4","4","2","4","4","4","4","4","2","3","1","2","3","2","2","4","2","1","0","1","1","0","0","0","1","1","1","1","0","1","0","0","5","2","4","2","5","4","4","5","3","2","764077949963210754","郭","60","","","","","","","","","","","","","","","","","","","true","13","3","moral","512","other","他人的","","","","","","","","","","","","","","",""
"null","","null","html-keyboard-response","97","418097","0.0-6.0-1.0-6.0-0.19","3","3","4","3","3","3","1","3","3","3","4","4","4","4","2","4","4","4","4","4","2","3","1","2","3","2","2","4","2","1","0","1","1","0","0","0","1","1","1","1","0","1","0","0","5","2","4","2","5","4","4","5","3","2","764077949963210754","郭","60","","","","","","","","","","","","","","","","","","","","","","","","","","","","","","","","","","","","","","","",""
"556","<p style=""color:white; font-size: 35px;"">黑心</p>","e","categorize-html","98","418654","0.0-6.0-1.0-6.0-1.19","3","3","4","3","3","3","1","3","3","3","4","4","4","4","2","4","4","4","4","4","2","3","1","2","3","2","2","4","2","1","0","1","1","0","0","0","1","1","1","1","0","1","0","0","5","2","4","2","5","4","4","5","3","2","764077949963210754","郭","60","","","","","","","","","","","","","","","","","","","true","13","3","moral","556","negative","黑心","","","","","","","","","","","","","","",""
"null","","null","html-keyboard-response","99","418905","0.0-6.0-1.0-6.0-0.20","3","3","4","3","3","3","1","3","3","3","4","4","4","4","2","4","4","4","4","4","2","3","1","2","3","2","2","4","2","1","0","1","1","0","0","0","1","1","1","1","0","1","0","0","5","2","4","2","5","4","4","5","3","2","764077949963210754","郭","60","","","","","","","","","","","","","","","","","","","","","","","","","","","","","","","","","","","","","","","",""
"481","<p style=""color:rgb(150, 250, 100); font-size: 35px;"">别人</p>","i","categorize-html","100","419754","0.0-6.0-1.0-6.0-1.20","3","3","4","3","3","3","1","3","3","3","4","4","4","4","2","4","4","4","4","4","2","3","1","2","3","2","2","4","2","1","0","1","1","0","0","0","1","1","1","1","0","1","0","0","5","2","4","2","5","4","4","5","3","2","764077949963210754","郭","60","","","","","","","","","","","","","","","","","","","false","13","3","moral","1332.0454545454545","other","别人","","","","","","","","","","","","","","",""
"null","","null","html-keyboard-response","101","420006","0.0-6.0-1.0-6.0-0.21","3","3","4","3","3","3","1","3","3","3","4","4","4","4","2","4","4","4","4","4","2","3","1","2","3","2","2","4","2","1","0","1","1","0","0","0","1","1","1","1","0","1","0","0","5","2","4","2","5","4","4","5","3","2","764077949963210754","郭","60","","","","","","","","","","","","","","","","","","","","","","","","","","","","","","","","","","","","","","","",""
"1053","<p style=""color:white; font-size: 35px;"">诚信</p>","i","categorize-html","102","421061","0.0-6.0-1.0-6.0-1.21","3","3","4","3","3","3","1","3","3","3","4","4","4","4","2","4","4","4","4","4","2","3","1","2","3","2","2","4","2","1","0","1","1","0","0","0","1","1","1","1","0","1","0","0","5","2","4","2","5","4","4","5","3","2","764077949963210754","郭","60","","","","","","","","","","","","","","","","","","","true","13","3","moral","1053","positive","诚信","","","","","","","","","","","","","","",""
"null","","null","html-keyboard-response","103","421312","0.0-6.0-1.0-6.0-0.22","3","3","4","3","3","3","1","3","3","3","4","4","4","4","2","4","4","4","4","4","2","3","1","2","3","2","2","4","2","1","0","1","1","0","0","0","1","1","1","1","0","1","0","0","5","2","4","2","5","4","4","5","3","2","764077949963210754","郭","60","","","","","","","","","","","","","","","","","","","","","","","","","","","","","","","","","","","","","","","",""
"645","<p style=""color:rgb(150, 250, 100); font-size: 35px;"">我</p>","i","categorize-html","104","421958","0.0-6.0-1.0-6.0-1.22","3","3","4","3","3","3","1","3","3","3","4","4","4","4","2","4","4","4","4","4","2","3","1","2","3","2","2","4","2","1","0","1","1","0","0","0","1","1","1","1","0","1","0","0","5","2","4","2","5","4","4","5","3","2","764077949963210754","郭","60","","","","","","","","","","","","","","","","","","","true","13","3","moral","645","self","我","","","","","","","","","","","","","","",""
"null","","null","html-keyboard-response","105","422210","0.0-6.0-1.0-6.0-0.23","3","3","4","3","3","3","1","3","3","3","4","4","4","4","2","4","4","4","4","4","2","3","1","2","3","2","2","4","2","1","0","1","1","0","0","0","1","1","1","1","0","1","0","0","5","2","4","2","5","4","4","5","3","2","764077949963210754","郭","60","","","","","","","","","","","","","","","","","","","","","","","","","","","","","","","","","","","","","","","",""
"657","<p style=""color:white; font-size: 35px;"">不孝</p>","e","categorize-html","106","422868","0.0-6.0-1.0-6.0-1.23","3","3","4","3","3","3","1","3","3","3","4","4","4","4","2","4","4","4","4","4","2","3","1","2","3","2","2","4","2","1","0","1","1","0","0","0","1","1","1","1","0","1","0","0","5","2","4","2","5","4","4","5","3","2","764077949963210754","郭","60","","","","","","","","","","","","","","","","","","","true","13","3","moral","657","negative","不孝","","","","","","","","","","","","","","",""
"1055","
    <div class=""tag-bottom""><p>
    —— 任务4：对“他人/消极”词和“自我/积极”词分类 ——<p/>
    <span style=""color:#78DCE8""><b>与刚才的任务完全相同，请再次对这四类词语分类</b></span><p/>
    <span style=""color:#FFD866""><b>请根据上方标签的提示，尽可能正确并且快速地做出按键反应</b></span><p/>
    当按键错误时屏幕中会出现<span style=""color:red""> X </span>，需要按另一个键纠正才能继续<br/><p/>
    请把双手食指分别放在键盘的“E”键和“I”键上<p/>
    按<空格键>开始
    </p></div>"," ","html-keyboard-response","107","423924","0.0-6.0-1.0-7.0","3","3","4","3","3","3","1","3","3","3","4","4","4","4","2","4","4","4","4","4","2","3","1","2","3","2","2","4","2","1","0","1","1","0","0","0","1","1","1","1","0","1","0","0","5","2","4","2","5","4","4","5","3","2","764077949963210754","郭","60","","","","","","","","","","","","","","","","","","","","","","","","","","","","","","","","","","","","","","","",""
"null","","null","html-keyboard-response","108","424175","0.0-6.0-1.0-8.0-0.0","3","3","4","3","3","3","1","3","3","3","4","4","4","4","2","4","4","4","4","4","2","3","1","2","3","2","2","4","2","1","0","1","1","0","0","0","1","1","1","1","0","1","0","0","5","2","4","2","5","4","4","5","3","2","764077949963210754","郭","60","","","","","","","","","","","","","","","","","","","","","","","","","","","","","","","","","","","","","","","",""
"1111","<p style=""color:rgb(150, 250, 100); font-size: 35px;"">我的</p>","i","categorize-html","109","425288","0.0-6.0-1.0-8.0-1.0","3","3","4","3","3","3","1","3","3","3","4","4","4","4","2","4","4","4","4","4","2","3","1","2","3","2","2","4","2","1","0","1","1","0","0","0","1","1","1","1","0","1","0","0","5","2","4","2","5","4","4","5","3","2","764077949963210754","郭","60","","","","","","","","","","","","","","","","","","","true","14","4","moral","1111","self","我的","","","","","","","","","","","","","","",""
"null","","null","html-keyboard-response","110","425540","0.0-6.0-1.0-8.0-0.1","3","3","4","3","3","3","1","3","3","3","4","4","4","4","2","4","4","4","4","4","2","3","1","2","3","2","2","4","2","1","0","1","1","0","0","0","1","1","1","1","0","1","0","0","5","2","4","2","5","4","4","5","3","2","764077949963210754","郭","60","","","","","","","","","","","","","","","","","","","","","","","","","","","","","","","","","","","","","","","",""
"806","<p style=""color:white; font-size: 35px;"">善良</p>","i","categorize-html","111","426348","0.0-6.0-1.0-8.0-1.1","3","3","4","3","3","3","1","3","3","3","4","4","4","4","2","4","4","4","4","4","2","3","1","2","3","2","2","4","2","1","0","1","1","0","0","0","1","1","1","1","0","1","0","0","5","2","4","2","5","4","4","5","3","2","764077949963210754","郭","60","","","","","","","","","","","","","","","","","","","true","14","4","moral","806","positive","善良","","","","","","","","","","","","","","",""
"null","","null","html-keyboard-response","112","426598","0.0-6.0-1.0-8.0-0.2","3","3","4","3","3","3","1","3","3","3","4","4","4","4","2","4","4","4","4","4","2","3","1","2","3","2","2","4","2","1","0","1","1","0","0","0","1","1","1","1","0","1","0","0","5","2","4","2","5","4","4","5","3","2","764077949963210754","郭","60","","","","","","","","","","","","","","","","","","","","","","","","","","","","","","","","","","","","","","","",""
"485","<p style=""color:rgb(150, 250, 100); font-size: 35px;"">他的</p>","e","categorize-html","113","427089","0.0-6.0-1.0-8.0-1.2","3","3","4","3","3","3","1","3","3","3","4","4","4","4","2","4","4","4","4","4","2","3","1","2","3","2","2","4","2","1","0","1","1","0","0","0","1","1","1","1","0","1","0","0","5","2","4","2","5","4","4","5","3","2","764077949963210754","郭","60","","","","","","","","","","","","","","","","","","","true","14","4","moral","485","other","他的","","","","","","","","","","","","","","",""
"null","","null","html-keyboard-response","114","427341","0.0-6.0-1.0-8.0-0.3","3","3","4","3","3","3","1","3","3","3","4","4","4","4","2","4","4","4","4","4","2","3","1","2","3","2","2","4","2","1","0","1","1","0","0","0","1","1","1","1","0","1","0","0","5","2","4","2","5","4","4","5","3","2","764077949963210754","郭","60","","","","","","","","","","","","","","","","","","","","","","","","","","","","","","","","","","","","","","","",""
"577","<p style=""color:white; font-size: 35px;"">不孝</p>","e","categorize-html","115","427918","0.0-6.0-1.0-8.0-1.3","3","3","4","3","3","3","1","3","3","3","4","4","4","4","2","4","4","4","4","4","2","3","1","2","3","2","2","4","2","1","0","1","1","0","0","0","1","1","1","1","0","1","0","0","5","2","4","2","5","4","4","5","3","2","764077949963210754","郭","60","","","","","","","","","","","","","","","","","","","true","14","4","moral","577","negative","不孝","","","","","","","","","","","","","","",""
"null","","null","html-keyboard-response","116","428170","0.0-6.0-1.0-8.0-0.4","3","3","4","3","3","3","1","3","3","3","4","4","4","4","2","4","4","4","4","4","2","3","1","2","3","2","2","4","2","1","0","1","1","0","0","0","1","1","1","1","0","1","0","0","5","2","4","2","5","4","4","5","3","2","764077949963210754","郭","60","","","","","","","","","","","","","","","","","","","","","","","","","","","","","","","","","","","","","","","",""
"729","<p style=""color:rgb(150, 250, 100); font-size: 35px;"">自己</p>","i","categorize-html","117","428900","0.0-6.0-1.0-8.0-1.4","3","3","4","3","3","3","1","3","3","3","4","4","4","4","2","4","4","4","4","4","2","3","1","2","3","2","2","4","2","1","0","1","1","0","0","0","1","1","1","1","0","1","0","0","5","2","4","2","5","4","4","5","3","2","764077949963210754","郭","60","","","","","","","","","","","","","","","","","","","true","14","4","moral","729","self","自己","","","","","","","","","","","","","","",""
"null","","null","html-keyboard-response","118","429153","0.0-6.0-1.0-8.0-0.5","3","3","4","3","3","3","1","3","3","3","4","4","4","4","2","4","4","4","4","4","2","3","1","2","3","2","2","4","2","1","0","1","1","0","0","0","1","1","1","1","0","1","0","0","5","2","4","2","5","4","4","5","3","2","764077949963210754","郭","60","","","","","","","","","","","","","","","","","","","","","","","","","","","","","","","","","","","","","","","",""
"958","<p style=""color:white; font-size: 35px;"">君子</p>","i","categorize-html","119","430116","0.0-6.0-1.0-8.0-1.5","3","3","4","3","3","3","1","3","3","3","4","4","4","4","2","4","4","4","4","4","2","3","1","2","3","2","2","4","2","1","0","1","1","0","0","0","1","1","1","1","0","1","0","0","5","2","4","2","5","4","4","5","3","2","764077949963210754","郭","60","","","","","","","","","","","","","","","","","","","true","14","4","moral","958","positive","君子","","","","","","","","","","","","","","",""
"null","","null","html-keyboard-response","120","430369","0.0-6.0-1.0-8.0-0.6","3","3","4","3","3","3","1","3","3","3","4","4","4","4","2","4","4","4","4","4","2","3","1","2","3","2","2","4","2","1","0","1","1","0","0","0","1","1","1","1","0","1","0","0","5","2","4","2","5","4","4","5","3","2","764077949963210754","郭","60","","","","","","","","","","","","","","","","","","","","","","","","","","","","","","","","","","","","","","","",""
"606","<p style=""color:rgb(150, 250, 100); font-size: 35px;"">他</p>","e","categorize-html","121","430975","0.0-6.0-1.0-8.0-1.6","3","3","4","3","3","3","1","3","3","3","4","4","4","4","2","4","4","4","4","4","2","3","1","2","3","2","2","4","2","1","0","1","1","0","0","0","1","1","1","1","0","1","0","0","5","2","4","2","5","4","4","5","3","2","764077949963210754","郭","60","","","","","","","","","","","","","","","","","","","true","14","4","moral","606","other","他","","","","","","","","","","","","","","",""
"null","","null","html-keyboard-response","122","431227","0.0-6.0-1.0-8.0-0.7","3","3","4","3","3","3","1","3","3","3","4","4","4","4","2","4","4","4","4","4","2","3","1","2","3","2","2","4","2","1","0","1","1","0","0","0","1","1","1","1","0","1","0","0","5","2","4","2","5","4","4","5","3","2","764077949963210754","郭","60","","","","","","","","","","","","","","","","","","","","","","","","","","","","","","","","","","","","","","","",""
"625","<p style=""color:white; font-size: 35px;"">卑鄙</p>","e","categorize-html","123","431853","0.0-6.0-1.0-8.0-1.7","3","3","4","3","3","3","1","3","3","3","4","4","4","4","2","4","4","4","4","4","2","3","1","2","3","2","2","4","2","1","0","1","1","0","0","0","1","1","1","1","0","1","0","0","5","2","4","2","5","4","4","5","3","2","764077949963210754","郭","60","","","","","","","","","","","","","","","","","","","true","14","4","moral","625","negative","卑鄙","","","","","","","","","","","","","","",""
"null","","null","html-keyboard-response","124","432105","0.0-6.0-1.0-8.0-0.8","3","3","4","3","3","3","1","3","3","3","4","4","4","4","2","4","4","4","4","4","2","3","1","2","3","2","2","4","2","1","0","1","1","0","0","0","1","1","1","1","0","1","0","0","5","2","4","2","5","4","4","5","3","2","764077949963210754","郭","60","","","","","","","","","","","","","","","","","","","","","","","","","","","","","","","","","","","","","","","",""
"790","<p style=""color:rgb(150, 250, 100); font-size: 35px;"">别人的</p>","e","categorize-html","125","432896","0.0-6.0-1.0-8.0-1.8","3","3","4","3","3","3","1","3","3","3","4","4","4","4","2","4","4","4","4","4","2","3","1","2","3","2","2","4","2","1","0","1","1","0","0","0","1","1","1","1","0","1","0","0","5","2","4","2","5","4","4","5","3","2","764077949963210754","郭","60","","","","","","","","","","","","","","","","","","","true","14","4","moral","790","other","别人的","","","","","","","","","","","","","","",""
"null","","null","html-keyboard-response","126","433148","0.0-6.0-1.0-8.0-0.9","3","3","4","3","3","3","1","3","3","3","4","4","4","4","2","4","4","4","4","4","2","3","1","2","3","2","2","4","2","1","0","1","1","0","0","0","1","1","1","1","0","1","0","0","5","2","4","2","5","4","4","5","3","2","764077949963210754","郭","60","","","","","","","","","","","","","","","","","","","","","","","","","","","","","","","","","","","","","","","",""
"919","<p style=""color:white; font-size: 35px;"">卑鄙</p>","e","categorize-html","127","434068","0.0-6.0-1.0-8.0-1.9","3","3","4","3","3","3","1","3","3","3","4","4","4","4","2","4","4","4","4","4","2","3","1","2","3","2","2","4","2","1","0","1","1","0","0","0","1","1","1","1","0","1","0","0","5","2","4","2","5","4","4","5","3","2","764077949963210754","郭","60","","","","","","","","","","","","","","","","","","","true","14","4","moral","919","negative","卑鄙","","","","","","","","","","","","","","",""
"null","","null","html-keyboard-response","128","434319","0.0-6.0-1.0-8.0-0.10","3","3","4","3","3","3","1","3","3","3","4","4","4","4","2","4","4","4","4","4","2","3","1","2","3","2","2","4","2","1","0","1","1","0","0","0","1","1","1","1","0","1","0","0","5","2","4","2","5","4","4","5","3","2","764077949963210754","郭","60","","","","","","","","","","","","","","","","","","","","","","","","","","","","","","","","","","","","","","","",""
"433","<p style=""color:rgb(150, 250, 100); font-size: 35px;"">我</p>","i","categorize-html","129","434756","0.0-6.0-1.0-8.0-1.10","3","3","4","3","3","3","1","3","3","3","4","4","4","4","2","4","4","4","4","4","2","3","1","2","3","2","2","4","2","1","0","1","1","0","0","0","1","1","1","1","0","1","0","0","5","2","4","2","5","4","4","5","3","2","764077949963210754","郭","60","","","","","","","","","","","","","","","","","","","true","14","4","moral","433","self","我","","","","","","","","","","","","","","",""
"null","","null","html-keyboard-response","130","435008","0.0-6.0-1.0-8.0-0.11","3","3","4","3","3","3","1","3","3","3","4","4","4","4","2","4","4","4","4","4","2","3","1","2","3","2","2","4","2","1","0","1","1","0","0","0","1","1","1","1","0","1","0","0","5","2","4","2","5","4","4","5","3","2","764077949963210754","郭","60","","","","","","","","","","","","","","","","","","","","","","","","","","","","","","","","","","","","","","","",""
"659","<p style=""color:white; font-size: 35px;"">正直</p>","i","categorize-html","131","435668","0.0-6.0-1.0-8.0-1.11","3","3","4","3","3","3","1","3","3","3","4","4","4","4","2","4","4","4","4","4","2","3","1","2","3","2","2","4","2","1","0","1","1","0","0","0","1","1","1","1","0","1","0","0","5","2","4","2","5","4","4","5","3","2","764077949963210754","郭","60","","","","","","","","","","","","","","","","","","","true","14","4","moral","659","positive","正直","","","","","","","","","","","","","","",""
"null","","null","html-keyboard-response","132","435919","0.0-6.0-1.0-8.0-0.12","3","3","4","3","3","3","1","3","3","3","4","4","4","4","2","4","4","4","4","4","2","3","1","2","3","2","2","4","2","1","0","1","1","0","0","0","1","1","1","1","0","1","0","0","5","2","4","2","5","4","4","5","3","2","764077949963210754","郭","60","","","","","","","","","","","","","","","","","","","","","","","","","","","","","","","","","","","","","","","",""
"753","<p style=""color:rgb(150, 250, 100); font-size: 35px;"">本人</p>","i","categorize-html","133","436672","0.0-6.0-1.0-8.0-1.12","3","3","4","3","3","3","1","3","3","3","4","4","4","4","2","4","4","4","4","4","2","3","1","2","3","2","2","4","2","1","0","1","1","0","0","0","1","1","1","1","0","1","0","0","5","2","4","2","5","4","4","5","3","2","764077949963210754","郭","60","","","","","","","","","","","","","","","","","","","true","14","4","moral","753","self","本人","","","","","","","","","","","","","","",""
"null","","null","html-keyboard-response","134","436924","0.0-6.0-1.0-8.0-0.13","3","3","4","3","3","3","1","3","3","3","4","4","4","4","2","4","4","4","4","4","2","3","1","2","3","2","2","4","2","1","0","1","1","0","0","0","1","1","1","1","0","1","0","0","5","2","4","2","5","4","4","5","3","2","764077949963210754","郭","60","","","","","","","","","","","","","","","","","","","","","","","","","","","","","","","","","","","","","","","",""
"548","<p style=""color:white; font-size: 35px;"">黑心</p>","e","categorize-html","135","437472","0.0-6.0-1.0-8.0-1.13","3","3","4","3","3","3","1","3","3","3","4","4","4","4","2","4","4","4","4","4","2","3","1","2","3","2","2","4","2","1","0","1","1","0","0","0","1","1","1","1","0","1","0","0","5","2","4","2","5","4","4","5","3","2","764077949963210754","郭","60","","","","","","","","","","","","","","","","","","","true","14","4","moral","548","negative","黑心","","","","","","","","","","","","","","",""
"null","","null","html-keyboard-response","136","437723","0.0-6.0-1.0-8.0-0.14","3","3","4","3","3","3","1","3","3","3","4","4","4","4","2","4","4","4","4","4","2","3","1","2","3","2","2","4","2","1","0","1","1","0","0","0","1","1","1","1","0","1","0","0","5","2","4","2","5","4","4","5","3","2","764077949963210754","郭","60","","","","","","","","","","","","","","","","","","","","","","","","","","","","","","","","","","","","","","","",""
"874","<p style=""color:rgb(150, 250, 100); font-size: 35px;"">他的</p>","e","categorize-html","137","438599","0.0-6.0-1.0-8.0-1.14","3","3","4","3","3","3","1","3","3","3","4","4","4","4","2","4","4","4","4","4","2","3","1","2","3","2","2","4","2","1","0","1","1","0","0","0","1","1","1","1","0","1","0","0","5","2","4","2","5","4","4","5","3","2","764077949963210754","郭","60","","","","","","","","","","","","","","","","","","","true","14","4","moral","874","other","他的","","","","","","","","","","","","","","",""
"null","","null","html-keyboard-response","138","438849","0.0-6.0-1.0-8.0-0.15","3","3","4","3","3","3","1","3","3","3","4","4","4","4","2","4","4","4","4","4","2","3","1","2","3","2","2","4","2","1","0","1","1","0","0","0","1","1","1","1","0","1","0","0","5","2","4","2","5","4","4","5","3","2","764077949963210754","郭","60","","","","","","","","","","","","","","","","","","","","","","","","","","","","","","","","","","","","","","","",""
"815","<p style=""color:white; font-size: 35px;"">高尚</p>","i","categorize-html","139","439666","0.0-6.0-1.0-8.0-1.15","3","3","4","3","3","3","1","3","3","3","4","4","4","4","2","4","4","4","4","4","2","3","1","2","3","2","2","4","2","1","0","1","1","0","0","0","1","1","1","1","0","1","0","0","5","2","4","2","5","4","4","5","3","2","764077949963210754","郭","60","","","","","","","","","","","","","","","","","","","true","14","4","moral","815","positive","高尚","","","","","","","","","","","","","","",""
"null","","null","html-keyboard-response","140","439917","0.0-6.0-1.0-8.0-0.16","3","3","4","3","3","3","1","3","3","3","4","4","4","4","2","4","4","4","4","4","2","3","1","2","3","2","2","4","2","1","0","1","1","0","0","0","1","1","1","1","0","1","0","0","5","2","4","2","5","4","4","5","3","2","764077949963210754","郭","60","","","","","","","","","","","","","","","","","","","","","","","","","","","","","","","","","","","","","","","",""
"849","<p style=""color:rgb(150, 250, 100); font-size: 35px;"">本人的</p>","i","categorize-html","141","440768","0.0-6.0-1.0-8.0-1.16","3","3","4","3","3","3","1","3","3","3","4","4","4","4","2","4","4","4","4","4","2","3","1","2","3","2","2","4","2","1","0","1","1","0","0","0","1","1","1","1","0","1","0","0","5","2","4","2","5","4","4","5","3","2","764077949963210754","郭","60","","","","","","","","","","","","","","","","","","","true","14","4","moral","849","self","本人的","","","","","","","","","","","","","","",""
"null","","null","html-keyboard-response","142","441020","0.0-6.0-1.0-8.0-0.17","3","3","4","3","3","3","1","3","3","3","4","4","4","4","2","4","4","4","4","4","2","3","1","2","3","2","2","4","2","1","0","1","1","0","0","0","1","1","1","1","0","1","0","0","5","2","4","2","5","4","4","5","3","2","764077949963210754","郭","60","","","","","","","","","","","","","","","","","","","","","","","","","","","","","","","","","","","","","","","",""
"1191","<p style=""color:white; font-size: 35px;"">诚信</p>","i","categorize-html","143","442215","0.0-6.0-1.0-8.0-1.17","3","3","4","3","3","3","1","3","3","3","4","4","4","4","2","4","4","4","4","4","2","3","1","2","3","2","2","4","2","1","0","1","1","0","0","0","1","1","1","1","0","1","0","0","5","2","4","2","5","4","4","5","3","2","764077949963210754","郭","60","","","","","","","","","","","","","","","","","","","true","14","4","moral","1191","positive","诚信","","","","","","","","","","","","","","",""
"null","","null","html-keyboard-response","144","442468","0.0-6.0-1.0-8.0-0.18","3","3","4","3","3","3","1","3","3","3","4","4","4","4","2","4","4","4","4","4","2","3","1","2","3","2","2","4","2","1","0","1","1","0","0","0","1","1","1","1","0","1","0","0","5","2","4","2","5","4","4","5","3","2","764077949963210754","郭","60","","","","","","","","","","","","","","","","","","","","","","","","","","","","","","","","","","","","","","","",""
"790","<p style=""color:rgb(150, 250, 100); font-size: 35px;"">别人的</p>","i","categorize-html","145","443613","0.0-6.0-1.0-8.0-1.18","3","3","4","3","3","3","1","3","3","3","4","4","4","4","2","4","4","4","4","4","2","3","1","2","3","2","2","4","2","1","0","1","1","0","0","0","1","1","1","1","0","1","0","0","5","2","4","2","5","4","4","5","3","2","764077949963210754","郭","60","","","","","","","","","","","","","","","","","","","false","14","4","moral","1342.9302325581396","other","别人的","","","","","","","","","","","","","","",""
"null","","null","html-keyboard-response","146","443865","0.0-6.0-1.0-8.0-0.19","3","3","4","3","3","3","1","3","3","3","4","4","4","4","2","4","4","4","4","4","2","3","1","2","3","2","2","4","2","1","0","1","1","0","0","0","1","1","1","1","0","1","0","0","5","2","4","2","5","4","4","5","3","2","764077949963210754","郭","60","","","","","","","","","","","","","","","","","","","","","","","","","","","","","","","","","","","","","","","",""
"670","<p style=""color:white; font-size: 35px;"">不仁</p>","e","categorize-html","147","444536","0.0-6.0-1.0-8.0-1.19","3","3","4","3","3","3","1","3","3","3","4","4","4","4","2","4","4","4","4","4","2","3","1","2","3","2","2","4","2","1","0","1","1","0","0","0","1","1","1","1","0","1","0","0","5","2","4","2","5","4","4","5","3","2","764077949963210754","郭","60","","","","","","","","","","","","","","","","","","","true","14","4","moral","670","negative","不仁","","","","","","","","","","","","","","",""
"null","","null","html-keyboard-response","148","444788","0.0-6.0-1.0-8.0-0.20","3","3","4","3","3","3","1","3","3","3","4","4","4","4","2","4","4","4","4","4","2","3","1","2","3","2","2","4","2","1","0","1","1","0","0","0","1","1","1","1","0","1","0","0","5","2","4","2","5","4","4","5","3","2","764077949963210754","郭","60","","","","","","","","","","","","","","","","","","","","","","","","","","","","","","","","","","","","","","","",""
"906","<p style=""color:rgb(150, 250, 100); font-size: 35px;"">他人的</p>","e","categorize-html","149","445695","0.0-6.0-1.0-8.0-1.20","3","3","4","3","3","3","1","3","3","3","4","4","4","4","2","4","4","4","4","4","2","3","1","2","3","2","2","4","2","1","0","1","1","0","0","0","1","1","1","1","0","1","0","0","5","2","4","2","5","4","4","5","3","2","764077949963210754","郭","60","","","","","","","","","","","","","","","","","","","true","14","4","moral","906","other","他人的","","","","","","","","","","","","","","",""
"null","","null","html-keyboard-response","150","445947","0.0-6.0-1.0-8.0-0.21","3","3","4","3","3","3","1","3","3","3","4","4","4","4","2","4","4","4","4","4","2","3","1","2","3","2","2","4","2","1","0","1","1","0","0","0","1","1","1","1","0","1","0","0","5","2","4","2","5","4","4","5","3","2","764077949963210754","郭","60","","","","","","","","","","","","","","","","","","","","","","","","","","","","","","","","","","","","","","","",""
"1150","<p style=""color:white; font-size: 35px;"">缺德</p>","e","categorize-html","151","447097","0.0-6.0-1.0-8.0-1.21","3","3","4","3","3","3","1","3","3","3","4","4","4","4","2","4","4","4","4","4","2","3","1","2","3","2","2","4","2","1","0","1","1","0","0","0","1","1","1","1","0","1","0","0","5","2","4","2","5","4","4","5","3","2","764077949963210754","郭","60","","","","","","","","","","","","","","","","","","","true","14","4","moral","1150","negative","缺德","","","","","","","","","","","","","","",""
"null","","null","html-keyboard-response","152","447349","0.0-6.0-1.0-8.0-0.22","3","3","4","3","3","3","1","3","3","3","4","4","4","4","2","4","4","4","4","4","2","3","1","2","3","2","2","4","2","1","0","1","1","0","0","0","1","1","1","1","0","1","0","0","5","2","4","2","5","4","4","5","3","2","764077949963210754","郭","60","","","","","","","","","","","","","","","","","","","","","","","","","","","","","","","","","","","","","","","",""
"643","<p style=""color:rgb(150, 250, 100); font-size: 35px;"">本人的</p>","i","categorize-html","153","447993","0.0-6.0-1.0-8.0-1.22","3","3","4","3","3","3","1","3","3","3","4","4","4","4","2","4","4","4","4","4","2","3","1","2","3","2","2","4","2","1","0","1","1","0","0","0","1","1","1","1","0","1","0","0","5","2","4","2","5","4","4","5","3","2","764077949963210754","郭","60","","","","","","","","","","","","","","","","","","","true","14","4","moral","643","self","本人的","","","","","","","","","","","","","","",""
"null","","null","html-keyboard-response","154","448243","0.0-6.0-1.0-8.0-0.23","3","3","4","3","3","3","1","3","3","3","4","4","4","4","2","4","4","4","4","4","2","3","1","2","3","2","2","4","2","1","0","1","1","0","0","0","1","1","1","1","0","1","0","0","5","2","4","2","5","4","4","5","3","2","764077949963210754","郭","60","","","","","","","","","","","","","","","","","","","","","","","","","","","","","","","","","","","","","","","",""
"653","<p style=""color:white; font-size: 35px;"">廉正</p>","i","categorize-html","155","448897","0.0-6.0-1.0-8.0-1.23","3","3","4","3","3","3","1","3","3","3","4","4","4","4","2","4","4","4","4","4","2","3","1","2","3","2","2","4","2","1","0","1","1","0","0","0","1","1","1","1","0","1","0","0","5","2","4","2","5","4","4","5","3","2","764077949963210754","郭","60","","","","","","","","","","","","","","","","","","","true","14","4","moral","653","positive","廉正","","","","","","","","","","","","","","",""
"null","","null","html-keyboard-response","156","449148","0.0-6.0-1.0-8.0-0.24","3","3","4","3","3","3","1","3","3","3","4","4","4","4","2","4","4","4","4","4","2","3","1","2","3","2","2","4","2","1","0","1","1","0","0","0","1","1","1","1","0","1","0","0","5","2","4","2","5","4","4","5","3","2","764077949963210754","郭","60","","","","","","","","","","","","","","","","","","","","","","","","","","","","","","","","","","","","","","","",""
"565","<p style=""color:rgb(150, 250, 100); font-size: 35px;"">自己</p>","i","categorize-html","157","449714","0.0-6.0-1.0-8.0-1.24","3","3","4","3","3","3","1","3","3","3","4","4","4","4","2","4","4","4","4","4","2","3","1","2","3","2","2","4","2","1","0","1","1","0","0","0","1","1","1","1","0","1","0","0","5","2","4","2","5","4","4","5","3","2","764077949963210754","郭","60","","","","","","","","","","","","","","","","","","","true","14","4","moral","565","self","自己","","","","","","","","","","","","","","",""
"null","","null","html-keyboard-response","158","449965","0.0-6.0-1.0-8.0-0.25","3","3","4","3","3","3","1","3","3","3","4","4","4","4","2","4","4","4","4","4","2","3","1","2","3","2","2","4","2","1","0","1","1","0","0","0","1","1","1","1","0","1","0","0","5","2","4","2","5","4","4","5","3","2","764077949963210754","郭","60","","","","","","","","","","","","","","","","","","","","","","","","","","","","","","","","","","","","","","","",""
"628","<p style=""color:white; font-size: 35px;"">廉正</p>","i","categorize-html","159","450594","0.0-6.0-1.0-8.0-1.25","3","3","4","3","3","3","1","3","3","3","4","4","4","4","2","4","4","4","4","4","2","3","1","2","3","2","2","4","2","1","0","1","1","0","0","0","1","1","1","1","0","1","0","0","5","2","4","2","5","4","4","5","3","2","764077949963210754","郭","60","","","","","","","","","","","","","","","","","","","true","14","4","moral","628","positive","廉正","","","","","","","","","","","","","","",""
"null","","null","html-keyboard-response","160","450845","0.0-6.0-1.0-8.0-0.26","3","3","4","3","3","3","1","3","3","3","4","4","4","4","2","4","4","4","4","4","2","3","1","2","3","2","2","4","2","1","0","1","1","0","0","0","1","1","1","1","0","1","0","0","5","2","4","2","5","4","4","5","3","2","764077949963210754","郭","60","","","","","","","","","","","","","","","","","","","","","","","","","","","","","","","","","","","","","","","",""
"532","<p style=""color:rgb(150, 250, 100); font-size: 35px;"">他人</p>","e","categorize-html","161","451378","0.0-6.0-1.0-8.0-1.26","3","3","4","3","3","3","1","3","3","3","4","4","4","4","2","4","4","4","4","4","2","3","1","2","3","2","2","4","2","1","0","1","1","0","0","0","1","1","1","1","0","1","0","0","5","2","4","2","5","4","4","5","3","2","764077949963210754","郭","60","","","","","","","","","","","","","","","","","","","true","14","4","moral","532","other","他人","","","","","","","","","","","","","","",""
"null","","null","html-keyboard-response","162","451629","0.0-6.0-1.0-8.0-0.27","3","3","4","3","3","3","1","3","3","3","4","4","4","4","2","4","4","4","4","4","2","3","1","2","3","2","2","4","2","1","0","1","1","0","0","0","1","1","1","1","0","1","0","0","5","2","4","2","5","4","4","5","3","2","764077949963210754","郭","60","","","","","","","","","","","","","","","","","","","","","","","","","","","","","","","","","","","","","","","",""
"665","<p style=""color:white; font-size: 35px;"">不孝</p>","e","categorize-html","163","452300","0.0-6.0-1.0-8.0-1.27","3","3","4","3","3","3","1","3","3","3","4","4","4","4","2","4","4","4","4","4","2","3","1","2","3","2","2","4","2","1","0","1","1","0","0","0","1","1","1","1","0","1","0","0","5","2","4","2","5","4","4","5","3","2","764077949963210754","郭","60","","","","","","","","","","","","","","","","","","","true","14","4","moral","665","negative","不孝","","","","","","","","","","","","","","",""
"null","","null","html-keyboard-response","164","452551","0.0-6.0-1.0-8.0-0.28","3","3","4","3","3","3","1","3","3","3","4","4","4","4","2","4","4","4","4","4","2","3","1","2","3","2","2","4","2","1","0","1","1","0","0","0","1","1","1","1","0","1","0","0","5","2","4","2","5","4","4","5","3","2","764077949963210754","郭","60","","","","","","","","","","","","","","","","","","","","","","","","","","","","","","","","","","","","","","","",""
"678","<p style=""color:rgb(150, 250, 100); font-size: 35px;"">我的</p>","i","categorize-html","165","453230","0.0-6.0-1.0-8.0-1.28","3","3","4","3","3","3","1","3","3","3","4","4","4","4","2","4","4","4","4","4","2","3","1","2","3","2","2","4","2","1","0","1","1","0","0","0","1","1","1","1","0","1","0","0","5","2","4","2","5","4","4","5","3","2","764077949963210754","郭","60","","","","","","","","","","","","","","","","","","","true","14","4","moral","678","self","我的","","","","","","","","","","","","","","",""
"null","","null","html-keyboard-response","166","453489","0.0-6.0-1.0-8.0-0.29","3","3","4","3","3","3","1","3","3","3","4","4","4","4","2","4","4","4","4","4","2","3","1","2","3","2","2","4","2","1","0","1","1","0","0","0","1","1","1","1","0","1","0","0","5","2","4","2","5","4","4","5","3","2","764077949963210754","郭","60","","","","","","","","","","","","","","","","","","","","","","","","","","","","","","","","","","","","","","","",""
"637","<p style=""color:white; font-size: 35px;"">正直</p>","i","categorize-html","167","454128","0.0-6.0-1.0-8.0-1.29","3","3","4","3","3","3","1","3","3","3","4","4","4","4","2","4","4","4","4","4","2","3","1","2","3","2","2","4","2","1","0","1","1","0","0","0","1","1","1","1","0","1","0","0","5","2","4","2","5","4","4","5","3","2","764077949963210754","郭","60","","","","","","","","","","","","","","","","","","","true","14","4","moral","637","positive","正直","","","","","","","","","","","","","","",""
"null","","null","html-keyboard-response","168","454380","0.0-6.0-1.0-8.0-0.30","3","3","4","3","3","3","1","3","3","3","4","4","4","4","2","4","4","4","4","4","2","3","1","2","3","2","2","4","2","1","0","1","1","0","0","0","1","1","1","1","0","1","0","0","5","2","4","2","5","4","4","5","3","2","764077949963210754","郭","60","","","","","","","","","","","","","","","","","","","","","","","","","","","","","","","","","","","","","","","",""
"772","<p style=""color:rgb(150, 250, 100); font-size: 35px;"">他人</p>","e","categorize-html","169","455152","0.0-6.0-1.0-8.0-1.30","3","3","4","3","3","3","1","3","3","3","4","4","4","4","2","4","4","4","4","4","2","3","1","2","3","2","2","4","2","1","0","1","1","0","0","0","1","1","1","1","0","1","0","0","5","2","4","2","5","4","4","5","3","2","764077949963210754","郭","60","","","","","","","","","","","","","","","","","","","true","14","4","moral","772","other","他人","","","","","","","","","","","","","","",""
"null","","null","html-keyboard-response","170","455402","0.0-6.0-1.0-8.0-0.31","3","3","4","3","3","3","1","3","3","3","4","4","4","4","2","4","4","4","4","4","2","3","1","2","3","2","2","4","2","1","0","1","1","0","0","0","1","1","1","1","0","1","0","0","5","2","4","2","5","4","4","5","3","2","764077949963210754","郭","60","","","","","","","","","","","","","","","","","","","","","","","","","","","","","","","","","","","","","","","",""
"661","<p style=""color:white; font-size: 35px;"">小人</p>","e","categorize-html","171","456065","0.0-6.0-1.0-8.0-1.31","3","3","4","3","3","3","1","3","3","3","4","4","4","4","2","4","4","4","4","4","2","3","1","2","3","2","2","4","2","1","0","1","1","0","0","0","1","1","1","1","0","1","0","0","5","2","4","2","5","4","4","5","3","2","764077949963210754","郭","60","","","","","","","","","","","","","","","","","","","true","14","4","moral","661","negative","小人","","","","","","","","","","","","","","",""
"null","","null","html-keyboard-response","172","456316","0.0-6.0-1.0-8.0-0.32","3","3","4","3","3","3","1","3","3","3","4","4","4","4","2","4","4","4","4","4","2","3","1","2","3","2","2","4","2","1","0","1","1","0","0","0","1","1","1","1","0","1","0","0","5","2","4","2","5","4","4","5","3","2","764077949963210754","郭","60","","","","","","","","","","","","","","","","","","","","","","","","","","","","","","","","","","","","","","","",""
"991","<p style=""color:rgb(150, 250, 100); font-size: 35px;"">他</p>","e","categorize-html","173","457309","0.0-6.0-1.0-8.0-1.32","3","3","4","3","3","3","1","3","3","3","4","4","4","4","2","4","4","4","4","4","2","3","1","2","3","2","2","4","2","1","0","1","1","0","0","0","1","1","1","1","0","1","0","0","5","2","4","2","5","4","4","5","3","2","764077949963210754","郭","60","","","","","","","","","","","","","","","","","","","true","14","4","moral","991","other","他","","","","","","","","","","","","","","",""
"null","","null","html-keyboard-response","174","457560","0.0-6.0-1.0-8.0-0.33","3","3","4","3","3","3","1","3","3","3","4","4","4","4","2","4","4","4","4","4","2","3","1","2","3","2","2","4","2","1","0","1","1","0","0","0","1","1","1","1","0","1","0","0","5","2","4","2","5","4","4","5","3","2","764077949963210754","郭","60","","","","","","","","","","","","","","","","","","","","","","","","","","","","","","","","","","","","","","","",""
"587","<p style=""color:white; font-size: 35px;"">诚信</p>","i","categorize-html","175","458148","0.0-6.0-1.0-8.0-1.33","3","3","4","3","3","3","1","3","3","3","4","4","4","4","2","4","4","4","4","4","2","3","1","2","3","2","2","4","2","1","0","1","1","0","0","0","1","1","1","1","0","1","0","0","5","2","4","2","5","4","4","5","3","2","764077949963210754","郭","60","","","","","","","","","","","","","","","","","","","true","14","4","moral","587","positive","诚信","","","","","","","","","","","","","","",""
"null","","null","html-keyboard-response","176","458399","0.0-6.0-1.0-8.0-0.34","3","3","4","3","3","3","1","3","3","3","4","4","4","4","2","4","4","4","4","4","2","3","1","2","3","2","2","4","2","1","0","1","1","0","0","0","1","1","1","1","0","1","0","0","5","2","4","2","5","4","4","5","3","2","764077949963210754","郭","60","","","","","","","","","","","","","","","","","","","","","","","","","","","","","","","","","","","","","","","",""
"576","<p style=""color:rgb(150, 250, 100); font-size: 35px;"">我</p>","i","categorize-html","177","458976","0.0-6.0-1.0-8.0-1.34","3","3","4","3","3","3","1","3","3","3","4","4","4","4","2","4","4","4","4","4","2","3","1","2","3","2","2","4","2","1","0","1","1","0","0","0","1","1","1","1","0","1","0","0","5","2","4","2","5","4","4","5","3","2","764077949963210754","郭","60","","","","","","","","","","","","","","","","","","","true","14","4","moral","576","self","我","","","","","","","","","","","","","","",""
"null","","null","html-keyboard-response","178","459227","0.0-6.0-1.0-8.0-0.35","3","3","4","3","3","3","1","3","3","3","4","4","4","4","2","4","4","4","4","4","2","3","1","2","3","2","2","4","2","1","0","1","1","0","0","0","1","1","1","1","0","1","0","0","5","2","4","2","5","4","4","5","3","2","764077949963210754","郭","60","","","","","","","","","","","","","","","","","","","","","","","","","","","","","","","","","","","","","","","",""
"830","<p style=""color:white; font-size: 35px;"">不仁</p>","e","categorize-html","179","460058","0.0-6.0-1.0-8.0-1.35","3","3","4","3","3","3","1","3","3","3","4","4","4","4","2","4","4","4","4","4","2","3","1","2","3","2","2","4","2","1","0","1","1","0","0","0","1","1","1","1","0","1","0","0","5","2","4","2","5","4","4","5","3","2","764077949963210754","郭","60","","","","","","","","","","","","","","","","","","","true","14","4","moral","830","negative","不仁","","","","","","","","","","","","","","",""
"null","","null","html-keyboard-response","180","460309","0.0-6.0-1.0-8.0-0.36","3","3","4","3","3","3","1","3","3","3","4","4","4","4","2","4","4","4","4","4","2","3","1","2","3","2","2","4","2","1","0","1","1","0","0","0","1","1","1","1","0","1","0","0","5","2","4","2","5","4","4","5","3","2","764077949963210754","郭","60","","","","","","","","","","","","","","","","","","","","","","","","","","","","","","","","","","","","","","","",""
"919","<p style=""color:rgb(150, 250, 100); font-size: 35px;"">别人</p>","e","categorize-html","181","461233","0.0-6.0-1.0-8.0-1.36","3","3","4","3","3","3","1","3","3","3","4","4","4","4","2","4","4","4","4","4","2","3","1","2","3","2","2","4","2","1","0","1","1","0","0","0","1","1","1","1","0","1","0","0","5","2","4","2","5","4","4","5","3","2","764077949963210754","郭","60","","","","","","","","","","","","","","","","","","","true","14","4","moral","919","other","别人","","","","","","","","","","","","","","",""
"null","","null","html-keyboard-response","182","461486","0.0-6.0-1.0-8.0-0.37","3","3","4","3","3","3","1","3","3","3","4","4","4","4","2","4","4","4","4","4","2","3","1","2","3","2","2","4","2","1","0","1","1","0","0","0","1","1","1","1","0","1","0","0","5","2","4","2","5","4","4","5","3","2","764077949963210754","郭","60","","","","","","","","","","","","","","","","","","","","","","","","","","","","","","","","","","","","","","","",""
"647","<p style=""color:white; font-size: 35px;"">黑心</p>","e","categorize-html","183","462134","0.0-6.0-1.0-8.0-1.37","3","3","4","3","3","3","1","3","3","3","4","4","4","4","2","4","4","4","4","4","2","3","1","2","3","2","2","4","2","1","0","1","1","0","0","0","1","1","1","1","0","1","0","0","5","2","4","2","5","4","4","5","3","2","764077949963210754","郭","60","","","","","","","","","","","","","","","","","","","true","14","4","moral","647","negative","黑心","","","","","","","","","","","","","","",""
"null","","null","html-keyboard-response","184","462384","0.0-6.0-1.0-8.0-0.38","3","3","4","3","3","3","1","3","3","3","4","4","4","4","2","4","4","4","4","4","2","3","1","2","3","2","2","4","2","1","0","1","1","0","0","0","1","1","1","1","0","1","0","0","5","2","4","2","5","4","4","5","3","2","764077949963210754","郭","60","","","","","","","","","","","","","","","","","","","","","","","","","","","","","","","","","","","","","","","",""
"456","<p style=""color:rgb(150, 250, 100); font-size: 35px;"">本人</p>","i","categorize-html","185","462841","0.0-6.0-1.0-8.0-1.38","3","3","4","3","3","3","1","3","3","3","4","4","4","4","2","4","4","4","4","4","2","3","1","2","3","2","2","4","2","1","0","1","1","0","0","0","1","1","1","1","0","1","0","0","5","2","4","2","5","4","4","5","3","2","764077949963210754","郭","60","","","","","","","","","","","","","","","","","","","true","14","4","moral","456","self","本人","","","","","","","","","","","","","","",""
"null","","null","html-keyboard-response","186","463093","0.0-6.0-1.0-8.0-0.39","3","3","4","3","3","3","1","3","3","3","4","4","4","4","2","4","4","4","4","4","2","3","1","2","3","2","2","4","2","1","0","1","1","0","0","0","1","1","1","1","0","1","0","0","5","2","4","2","5","4","4","5","3","2","764077949963210754","郭","60","","","","","","","","","","","","","","","","","","","","","","","","","","","","","","","","","","","","","","","",""
"743","<p style=""color:white; font-size: 35px;"">高尚</p>","e","categorize-html","187","464224","0.0-6.0-1.0-8.0-1.39","3","3","4","3","3","3","1","3","3","3","4","4","4","4","2","4","4","4","4","4","2","3","1","2","3","2","2","4","2","1","0","1","1","0","0","0","1","1","1","1","0","1","0","0","5","2","4","2","5","4","4","5","3","2","764077949963210754","郭","60","","","","","","","","","","","","","","","","","","","false","14","4","moral","1342.9302325581396","positive","高尚","","","","","","","","","","","","","","",""
"null","","null","html-keyboard-response","188","464475","0.0-6.0-1.0-8.0-0.40","3","3","4","3","3","3","1","3","3","3","4","4","4","4","2","4","4","4","4","4","2","3","1","2","3","2","2","4","2","1","0","1","1","0","0","0","1","1","1","1","0","1","0","0","5","2","4","2","5","4","4","5","3","2","764077949963210754","郭","60","","","","","","","","","","","","","","","","","","","","","","","","","","","","","","","","","","","","","","","",""
"762","<p style=""color:rgb(150, 250, 100); font-size: 35px;"">别人</p>","e","categorize-html","189","465239","0.0-6.0-1.0-8.0-1.40","3","3","4","3","3","3","1","3","3","3","4","4","4","4","2","4","4","4","4","4","2","3","1","2","3","2","2","4","2","1","0","1","1","0","0","0","1","1","1","1","0","1","0","0","5","2","4","2","5","4","4","5","3","2","764077949963210754","郭","60","","","","","","","","","","","","","","","","","","","true","14","4","moral","762","other","别人","","","","","","","","","","","","","","",""
"null","","null","html-keyboard-response","190","465490","0.0-6.0-1.0-8.0-0.41","3","3","4","3","3","3","1","3","3","3","4","4","4","4","2","4","4","4","4","4","2","3","1","2","3","2","2","4","2","1","0","1","1","0","0","0","1","1","1","1","0","1","0","0","5","2","4","2","5","4","4","5","3","2","764077949963210754","郭","60","","","","","","","","","","","","","","","","","","","","","","","","","","","","","","","","","","","","","","","",""
"662","<p style=""color:white; font-size: 35px;"">小人</p>","i","categorize-html","191","466473","0.0-6.0-1.0-8.0-1.41","3","3","4","3","3","3","1","3","3","3","4","4","4","4","2","4","4","4","4","4","2","3","1","2","3","2","2","4","2","1","0","1","1","0","0","0","1","1","1","1","0","1","0","0","5","2","4","2","5","4","4","5","3","2","764077949963210754","郭","60","","","","","","","","","","","","","","","","","","","false","14","4","moral","1342.9302325581396","negative","小人","","","","","","","","","","","","","","",""
"null","","null","html-keyboard-response","192","466724","0.0-6.0-1.0-8.0-0.42","3","3","4","3","3","3","1","3","3","3","4","4","4","4","2","4","4","4","4","4","2","3","1","2","3","2","2","4","2","1","0","1","1","0","0","0","1","1","1","1","0","1","0","0","5","2","4","2","5","4","4","5","3","2","764077949963210754","郭","60","","","","","","","","","","","","","","","","","","","","","","","","","","","","","","","","","","","","","","","",""
"593","<p style=""color:rgb(150, 250, 100); font-size: 35px;"">自己的</p>","i","categorize-html","193","467318","0.0-6.0-1.0-8.0-1.42","3","3","4","3","3","3","1","3","3","3","4","4","4","4","2","4","4","4","4","4","2","3","1","2","3","2","2","4","2","1","0","1","1","0","0","0","1","1","1","1","0","1","0","0","5","2","4","2","5","4","4","5","3","2","764077949963210754","郭","60","","","","","","","","","","","","","","","","","","","true","14","4","moral","593","self","自己的","","","","","","","","","","","","","","",""
"null","","null","html-keyboard-response","194","467570","0.0-6.0-1.0-8.0-0.43","3","3","4","3","3","3","1","3","3","3","4","4","4","4","2","4","4","4","4","4","2","3","1","2","3","2","2","4","2","1","0","1","1","0","0","0","1","1","1","1","0","1","0","0","5","2","4","2","5","4","4","5","3","2","764077949963210754","郭","60","","","","","","","","","","","","","","","","","","","","","","","","","","","","","","","","","","","","","","","",""
"1028","<p style=""color:white; font-size: 35px;"">善良</p>","i","categorize-html","195","468599","0.0-6.0-1.0-8.0-1.43","3","3","4","3","3","3","1","3","3","3","4","4","4","4","2","4","4","4","4","4","2","3","1","2","3","2","2","4","2","1","0","1","1","0","0","0","1","1","1","1","0","1","0","0","5","2","4","2","5","4","4","5","3","2","764077949963210754","郭","60","","","","","","","","","","","","","","","","","","","true","14","4","moral","1028","positive","善良","","","","","","","","","","","","","","",""
"null","","null","html-keyboard-response","196","468850","0.0-6.0-1.0-8.0-0.44","3","3","4","3","3","3","1","3","3","3","4","4","4","4","2","4","4","4","4","4","2","3","1","2","3","2","2","4","2","1","0","1","1","0","0","0","1","1","1","1","0","1","0","0","5","2","4","2","5","4","4","5","3","2","764077949963210754","郭","60","","","","","","","","","","","","","","","","","","","","","","","","","","","","","","","","","","","","","","","",""
