"rt","stimulus","response","trial_type","trial_index","time_elapsed","internal_node_id","ses_1","ses_2","ses_3","ses_4","ses_5","ses_6","ses_7","ses_8","ses_9","ses_10","coreself_1","coreself_2","coreself_3","coreself_4","coreself_5","coreself_6","coreself_7","coreself_8","coreself_9","coreself_10","SGPS_1","SGPS_2","SGPS_3","SGPS_4","SGPS_5","SGPS_6","SGPS_7","SGPS_8","SGPS_9","NPI1","NPI2","NPI3","NPI4","NPI5","NPI6","NPI7","NPI8","NPI9","NPI10","NPI11","NPI12","NPI13","NPI14","NPI15","hsns_1","hsns_2","hsns_3","hsns_4","hsns_5","hsns_6","hsns_7","hsns_8","hsns_9","hsns_10","subj_idx","friend_name","ParticipantID","value","success","user_agent","responses","item_order","radio_event_ids","radio_event_times","key_event_times","mouse_event_times","straightlining","zigzagging","honeypot","timeout","failed_images","failed_audio","failed_video","version_attrib2","version_target2","correct","IAT","screen_id","task_id","RT","condition","word","varname","summary","version_attrib","version_target","time_stamp","view_history","response_type","key_press","avg_frame_time","center_x","center_y","correct_response","identity","Image","question_order"
"21627","
   <p><div style = ""color: white;font-size:25px;"">您好，欢迎参加本次实验。</div> </p>
   <p><div style = ""color: white;font-size:25px;"">为充分保障您的权利，请确保您已经知晓并同意《参与实验同意书》以及《数据公开知情同意书》。</div></p>
   <p><div style = ""color: white;font-size:25px;"">如果您未见过上述内容，请咨询实验员。</div></p>
   <p><div style = ""color: white;font-size:25px;"">如果您选择继续实验，则表示您已经清楚两份知情同意书的内容并同意。</div></p>
   <p><div style = ""color: red;font-size:30px;"">请确保您记得day0的实验编号，您将在本次实验输入该编号，若您忘记，请咨询实验员后作答。</div></p>
   <p> <div style = ""color: green;font-size:25px;""><按空格键至下页></div> </p>
   "," ","html-keyboard-response","0","21631","0.0-0.0","3","4","4","3","3","3","3","3","4","4","4","4","4","4","4","4","4","4","4","4","1","1","2","1","2","2","2","1","1","0","1","0","0","1","0","0","0","0","0","0","1","0","1","0","4","1","3","2","2","4","4","3","2","1","724701248414023680","王","584","","","","","","","","","","","","","","","","","","","","","","","","","","","","","","","","","","","","","","","",""
"","","","call-function","1","21634","0.0-1.0-0.0","3","4","4","3","3","3","3","3","4","4","4","4","4","4","4","4","4","4","4","4","1","1","2","1","2","2","2","1","1","0","1","0","0","1","0","0","0","0","0","0","1","0","1","0","4","1","3","2","2","4","4","3","2","1","724701248414023680","王","584","","","","","","","","","","","","","","","","","","","","","","","","","","","","","","","","","","","","","","","",""
"27692","","{""friend_name"":""王"",""ParticipantID"":""584""}","survey-html-form","2","49327","0.0-1.0-1.0","3","4","4","3","3","3","3","3","4","4","4","4","4","4","4","4","4","4","4","4","1","1","2","1","2","2","2","1","1","0","1","0","0","1","0","0","0","0","0","0","1","0","1","0","4","1","3","2","2","4","4","3","2","1","724701248414023680","王","584","","","","","","","","","","","","","","","","","","","","","","","","","","","","","","","","","","","","","","","",""
"","","","fullscreen","3","72282","0.0-2.0","3","4","4","3","3","3","3","3","4","4","4","4","4","4","4","4","4","4","4","4","1","1","2","1","2","2","2","1","1","0","1","0","0","1","0","0","0","0","0","0","1","0","1","0","4","1","3","2","2","4","4","3","2","1","724701248414023680","王","584","","true","{}","","","","","","","","","","","","","","","","","","","","","","","","","","","","","","","","","","","","",""
"60147.09999999963","","{""Q01"":""3"",""Q02"":""4"",""Q03"":""4"",""Q04"":""3"",""Q05"":""3"",""Q06"":""3"",""Q07"":""3"",""Q08"":""3"",""Q09"":""4"",""Q10"":""4""}","survey-template","4","132434","0.0-3.0","3","4","4","3","3","3","3","3","4","4","4","4","4","4","4","4","4","4","4","4","1","1","2","1","2","2","2","1","1","0","1","0","0","1","0","0","0","0","0","0","1","0","1","0","4","1","3","2","2","4","4","3","2","1","724701248414023680","王","584","","","","{""Q01"":""3"",""Q02"":""4"",""Q03"":""4"",""Q04"":""3"",""Q05"":""3"",""Q06"":""3"",""Q07"":""3"",""Q08"":""3"",""Q09"":""4"",""Q10"":""4""}","[0,1,2,3,4,5,6,7,8,9]","[""Q01"",""Q02"",""Q03"",""Q04"",""Q05"",""Q06"",""Q07"",""Q08"",""Q09"",""Q10""]","[17657.89999999944,21177.5,25084.299999999814,27328.699999999255,33927.5,36902.299999999814,40859.5,50429.199999999255,55827.199999999255,59054.299999999814]","[]","[17657.89999999944,21177.5,25084.299999999814,27328.699999999255,33927.5,36902.299999999814,40859.5,50429.199999999255,55827.199999999255,59054.299999999814,60145.39999999944]","0.4","0.6666666666666666","0","","","","","","","","","","","","","","","","","","","","","","","","","","","",""
"62868.5","","{""Q01"":""4"",""Q02"":""4"",""Q03"":""4"",""Q04"":""4"",""Q05"":""4"",""Q06"":""4"",""Q07"":""4"",""Q08"":""4"",""Q09"":""4"",""Q10"":""4""}","survey-template","5","195313","0.0-4.0","3","4","4","3","3","3","3","3","4","4","4","4","4","4","4","4","4","4","4","4","1","1","2","1","2","2","2","1","1","0","1","0","0","1","0","0","0","0","0","0","1","0","1","0","4","1","3","2","2","4","4","3","2","1","724701248414023680","王","584","","","","{""Q01"":""4"",""Q02"":""4"",""Q03"":""4"",""Q04"":""4"",""Q05"":""4"",""Q06"":""4"",""Q07"":""4"",""Q08"":""4"",""Q09"":""4"",""Q10"":""4""}","[0,1,2,3,4,5,6,7,8,9]","[""Q01"",""Q02"",""Q03"",""Q04"",""Q05"",""Q06"",""Q07"",""Q07"",""Q08"",""Q09"",""Q10""]","[6424.799999999814,10714.399999999441,16242.599999999627,20137.799999999814,23473.199999999255,25712.299999999814,28189.299999999814,31151.199999999255,34544.39999999944,56475,60876]","[]","[6424.799999999814,10714.399999999441,16242.599999999627,20137.799999999814,23473.199999999255,25712.299999999814,28189.299999999814,31151.199999999255,34544.39999999944,56475,60876,62866.799999999814]","0.6","0","0","","","","","","","","","","","","","","","","","","","","","","","","","","","",""
"","","","preload","6","195664","0.0-5.0","3","4","4","3","3","3","3","3","4","4","4","4","4","4","4","4","4","4","4","4","1","1","2","1","2","2","2","1","1","0","1","0","0","1","0","0","0","0","0","0","1","0","1","0","4","1","3","2","2","4","4","3","2","1","724701248414023680","王","584","","true","","","","","","","","","","","false","[]","[]","[]","","","","","","","","","","","","","","","","","","","","","","","",""
"23556","
    <h3>词语分类任务</h3>
    <p>在接下来的任务中，你需要对一系列词语进行分类。<p/>
    请先熟悉这些词语，这有利于你完成接下来的任务。</p>
    <table align=""center"" border=1 cellpadding=3 cellspacing=0>
    <tr> <th>类别</th> <th>词语</th> </tr>
    <tr> <td>&emsp;积极&emsp;</td> <td>&emsp;高尚、诚信、善良、君子、廉正、正直&emsp;</td> </tr>
    <tr> <td>&emsp;消极&emsp;</td> <td>&emsp;缺德、卑鄙、不孝、不仁、小人、黑心&emsp;</td> </tr>
    <tr> <td>&emsp;自我&emsp;</td> <td>&emsp;我、我的、自己、自己的、本人、本人的&emsp;</td> </tr>
    <tr> <td>&emsp;他人&emsp;</td> <td>&emsp;他、他的、别人、别人的、他人、他人的&emsp;</td> </tr>
    </table><br/>","0","html-button-response","7","219222","0.0-6.0-1.0-0.0","3","4","4","3","3","3","3","3","4","4","4","4","4","4","4","4","4","4","4","4","1","1","2","1","2","2","2","1","1","0","1","0","0","1","0","0","0","0","0","0","1","0","1","0","4","1","3","2","2","4","4","3","2","1","724701248414023680","王","584","","","","","","","","","","","","","","","","","2","2","","","","","","","","","","","","","","","","","","","","","",""
"35452","
    <div class=""tag-bottom""><p>
    —— 任务1：对“他人”词和“自我”词分类 ——<p/>
    不同词语会出现在屏幕中央，类别标签将始终显示在屏幕上方<p/>   
    <span style=""color:#FFD866""><b>请根据上方标签的提示，尽可能正确并且快速地做出按键反应</b></span><p/>
    当按键错误时屏幕中会出现<span style=""color:red""> X </span>，需要按另一个键纠正才能继续<br/><p/>
    请把双手食指分别放在键盘的“E”键和“I”键上<p/>
    按<空格键>开始
    </p></div>"," ","html-keyboard-response","8","254681","0.0-6.0-1.0-1.0","3","4","4","3","3","3","3","3","4","4","4","4","4","4","4","4","4","4","4","4","1","1","2","1","2","2","2","1","1","0","1","0","0","1","0","0","0","0","0","0","1","0","1","0","4","1","3","2","2","4","4","3","2","1","724701248414023680","王","584","","","","","","","","","","","","","","","","","","","","","","","","","","","","","","","","","","","","","","","",""
"null","","null","html-keyboard-response","9","254933","0.0-6.0-1.0-2.0-0.0","3","4","4","3","3","3","3","3","4","4","4","4","4","4","4","4","4","4","4","4","1","1","2","1","2","2","2","1","1","0","1","0","0","1","0","0","0","0","0","0","1","0","1","0","4","1","3","2","2","4","4","3","2","1","724701248414023680","王","584","","","","","","","","","","","","","","","","","","","","","","","","","","","","","","","","","","","","","","","",""
"1325","<p style=""color:rgb(150, 250, 100); font-size: 35px;"">本人</p>","i","categorize-html","10","256262","0.0-6.0-1.0-2.0-1.0","3","4","4","3","3","3","3","3","4","4","4","4","4","4","4","4","4","4","4","4","1","1","2","1","2","2","2","1","1","0","1","0","0","1","0","0","0","0","0","0","1","0","1","0","4","1","3","2","2","4","4","3","2","1","724701248414023680","王","584","","","","","","","","","","","","","","","","","","","true","11","1","moral","1325","self","本人","","","","","","","","","","","","","","",""
"null","","null","html-keyboard-response","11","256517","0.0-6.0-1.0-2.0-0.1","3","4","4","3","3","3","3","3","4","4","4","4","4","4","4","4","4","4","4","4","1","1","2","1","2","2","2","1","1","0","1","0","0","1","0","0","0","0","0","0","1","0","1","0","4","1","3","2","2","4","4","3","2","1","724701248414023680","王","584","","","","","","","","","","","","","","","","","","","","","","","","","","","","","","","","","","","","","","","",""
"812","<p style=""color:rgb(150, 250, 100); font-size: 35px;"">他人</p>","e","categorize-html","12","257332","0.0-6.0-1.0-2.0-1.1","3","4","4","3","3","3","3","3","4","4","4","4","4","4","4","4","4","4","4","4","1","1","2","1","2","2","2","1","1","0","1","0","0","1","0","0","0","0","0","0","1","0","1","0","4","1","3","2","2","4","4","3","2","1","724701248414023680","王","584","","","","","","","","","","","","","","","","","","","true","11","1","moral","812","other","他人","","","","","","","","","","","","","","",""
"null","","null","html-keyboard-response","13","257589","0.0-6.0-1.0-2.0-0.2","3","4","4","3","3","3","3","3","4","4","4","4","4","4","4","4","4","4","4","4","1","1","2","1","2","2","2","1","1","0","1","0","0","1","0","0","0","0","0","0","1","0","1","0","4","1","3","2","2","4","4","3","2","1","724701248414023680","王","584","","","","","","","","","","","","","","","","","","","","","","","","","","","","","","","","","","","","","","","",""
"690","<p style=""color:rgb(150, 250, 100); font-size: 35px;"">别人的</p>","i","categorize-html","14","260130","0.0-6.0-1.0-2.0-1.2","3","4","4","3","3","3","3","3","4","4","4","4","4","4","4","4","4","4","4","4","1","1","2","1","2","2","2","1","1","0","1","0","0","1","0","0","0","0","0","0","1","0","1","0","4","1","3","2","2","4","4","3","2","1","724701248414023680","王","584","","","","","","","","","","","","","","","","","","","false","11","1","moral","690","other","别人的","","","","","","","","","","","","","","",""
"null","","null","html-keyboard-response","15","260388","0.0-6.0-1.0-2.0-0.3","3","4","4","3","3","3","3","3","4","4","4","4","4","4","4","4","4","4","4","4","1","1","2","1","2","2","2","1","1","0","1","0","0","1","0","0","0","0","0","0","1","0","1","0","4","1","3","2","2","4","4","3","2","1","724701248414023680","王","584","","","","","","","","","","","","","","","","","","","","","","","","","","","","","","","","","","","","","","","",""
"730","<p style=""color:rgb(150, 250, 100); font-size: 35px;"">我</p>","i","categorize-html","16","261121","0.0-6.0-1.0-2.0-1.3","3","4","4","3","3","3","3","3","4","4","4","4","4","4","4","4","4","4","4","4","1","1","2","1","2","2","2","1","1","0","1","0","0","1","0","0","0","0","0","0","1","0","1","0","4","1","3","2","2","4","4","3","2","1","724701248414023680","王","584","","","","","","","","","","","","","","","","","","","true","11","1","moral","730","self","我","","","","","","","","","","","","","","",""
"null","","null","html-keyboard-response","17","261373","0.0-6.0-1.0-2.0-0.4","3","4","4","3","3","3","3","3","4","4","4","4","4","4","4","4","4","4","4","4","1","1","2","1","2","2","2","1","1","0","1","0","0","1","0","0","0","0","0","0","1","0","1","0","4","1","3","2","2","4","4","3","2","1","724701248414023680","王","584","","","","","","","","","","","","","","","","","","","","","","","","","","","","","","","","","","","","","","","",""
"826","<p style=""color:rgb(150, 250, 100); font-size: 35px;"">别人</p>","e","categorize-html","18","262202","0.0-6.0-1.0-2.0-1.4","3","4","4","3","3","3","3","3","4","4","4","4","4","4","4","4","4","4","4","4","1","1","2","1","2","2","2","1","1","0","1","0","0","1","0","0","0","0","0","0","1","0","1","0","4","1","3","2","2","4","4","3","2","1","724701248414023680","王","584","","","","","","","","","","","","","","","","","","","true","11","1","moral","826","other","别人","","","","","","","","","","","","","","",""
"null","","null","html-keyboard-response","19","262461","0.0-6.0-1.0-2.0-0.5","3","4","4","3","3","3","3","3","4","4","4","4","4","4","4","4","4","4","4","4","1","1","2","1","2","2","2","1","1","0","1","0","0","1","0","0","0","0","0","0","1","0","1","0","4","1","3","2","2","4","4","3","2","1","724701248414023680","王","584","","","","","","","","","","","","","","","","","","","","","","","","","","","","","","","","","","","","","","","",""
"648","<p style=""color:rgb(150, 250, 100); font-size: 35px;"">我的</p>","i","categorize-html","20","263111","0.0-6.0-1.0-2.0-1.5","3","4","4","3","3","3","3","3","4","4","4","4","4","4","4","4","4","4","4","4","1","1","2","1","2","2","2","1","1","0","1","0","0","1","0","0","0","0","0","0","1","0","1","0","4","1","3","2","2","4","4","3","2","1","724701248414023680","王","584","","","","","","","","","","","","","","","","","","","true","11","1","moral","648","self","我的","","","","","","","","","","","","","","",""
"null","","null","html-keyboard-response","21","263365","0.0-6.0-1.0-2.0-0.6","3","4","4","3","3","3","3","3","4","4","4","4","4","4","4","4","4","4","4","4","1","1","2","1","2","2","2","1","1","0","1","0","0","1","0","0","0","0","0","0","1","0","1","0","4","1","3","2","2","4","4","3","2","1","724701248414023680","王","584","","","","","","","","","","","","","","","","","","","","","","","","","","","","","","","","","","","","","","","",""
"774","<p style=""color:rgb(150, 250, 100); font-size: 35px;"">他的</p>","e","categorize-html","22","264142","0.0-6.0-1.0-2.0-1.6","3","4","4","3","3","3","3","3","4","4","4","4","4","4","4","4","4","4","4","4","1","1","2","1","2","2","2","1","1","0","1","0","0","1","0","0","0","0","0","0","1","0","1","0","4","1","3","2","2","4","4","3","2","1","724701248414023680","王","584","","","","","","","","","","","","","","","","","","","true","11","1","moral","774","other","他的","","","","","","","","","","","","","","",""
"null","","null","html-keyboard-response","23","264397","0.0-6.0-1.0-2.0-0.7","3","4","4","3","3","3","3","3","4","4","4","4","4","4","4","4","4","4","4","4","1","1","2","1","2","2","2","1","1","0","1","0","0","1","0","0","0","0","0","0","1","0","1","0","4","1","3","2","2","4","4","3","2","1","724701248414023680","王","584","","","","","","","","","","","","","","","","","","","","","","","","","","","","","","","","","","","","","","","",""
"602","<p style=""color:rgb(150, 250, 100); font-size: 35px;"">他</p>","e","categorize-html","24","265002","0.0-6.0-1.0-2.0-1.7","3","4","4","3","3","3","3","3","4","4","4","4","4","4","4","4","4","4","4","4","1","1","2","1","2","2","2","1","1","0","1","0","0","1","0","0","0","0","0","0","1","0","1","0","4","1","3","2","2","4","4","3","2","1","724701248414023680","王","584","","","","","","","","","","","","","","","","","","","true","11","1","moral","602","other","他","","","","","","","","","","","","","","",""
"null","","null","html-keyboard-response","25","265253","0.0-6.0-1.0-2.0-0.8","3","4","4","3","3","3","3","3","4","4","4","4","4","4","4","4","4","4","4","4","1","1","2","1","2","2","2","1","1","0","1","0","0","1","0","0","0","0","0","0","1","0","1","0","4","1","3","2","2","4","4","3","2","1","724701248414023680","王","584","","","","","","","","","","","","","","","","","","","","","","","","","","","","","","","","","","","","","","","",""
"516","<p style=""color:rgb(150, 250, 100); font-size: 35px;"">他人的</p>","e","categorize-html","26","265772","0.0-6.0-1.0-2.0-1.8","3","4","4","3","3","3","3","3","4","4","4","4","4","4","4","4","4","4","4","4","1","1","2","1","2","2","2","1","1","0","1","0","0","1","0","0","0","0","0","0","1","0","1","0","4","1","3","2","2","4","4","3","2","1","724701248414023680","王","584","","","","","","","","","","","","","","","","","","","true","11","1","moral","516","other","他人的","","","","","","","","","","","","","","",""
"null","","null","html-keyboard-response","27","266029","0.0-6.0-1.0-2.0-0.9","3","4","4","3","3","3","3","3","4","4","4","4","4","4","4","4","4","4","4","4","1","1","2","1","2","2","2","1","1","0","1","0","0","1","0","0","0","0","0","0","1","0","1","0","4","1","3","2","2","4","4","3","2","1","724701248414023680","王","584","","","","","","","","","","","","","","","","","","","","","","","","","","","","","","","","","","","","","","","",""
"710","<p style=""color:rgb(150, 250, 100); font-size: 35px;"">本人的</p>","i","categorize-html","28","266742","0.0-6.0-1.0-2.0-1.9","3","4","4","3","3","3","3","3","4","4","4","4","4","4","4","4","4","4","4","4","1","1","2","1","2","2","2","1","1","0","1","0","0","1","0","0","0","0","0","0","1","0","1","0","4","1","3","2","2","4","4","3","2","1","724701248414023680","王","584","","","","","","","","","","","","","","","","","","","true","11","1","moral","710","self","本人的","","","","","","","","","","","","","","",""
"null","","null","html-keyboard-response","29","266997","0.0-6.0-1.0-2.0-0.10","3","4","4","3","3","3","3","3","4","4","4","4","4","4","4","4","4","4","4","4","1","1","2","1","2","2","2","1","1","0","1","0","0","1","0","0","0","0","0","0","1","0","1","0","4","1","3","2","2","4","4","3","2","1","724701248414023680","王","584","","","","","","","","","","","","","","","","","","","","","","","","","","","","","","","","","","","","","","","",""
"522","<p style=""color:rgb(150, 250, 100); font-size: 35px;"">自己的</p>","i","categorize-html","30","267522","0.0-6.0-1.0-2.0-1.10","3","4","4","3","3","3","3","3","4","4","4","4","4","4","4","4","4","4","4","4","1","1","2","1","2","2","2","1","1","0","1","0","0","1","0","0","0","0","0","0","1","0","1","0","4","1","3","2","2","4","4","3","2","1","724701248414023680","王","584","","","","","","","","","","","","","","","","","","","true","11","1","moral","522","self","自己的","","","","","","","","","","","","","","",""
"null","","null","html-keyboard-response","31","267772","0.0-6.0-1.0-2.0-0.11","3","4","4","3","3","3","3","3","4","4","4","4","4","4","4","4","4","4","4","4","1","1","2","1","2","2","2","1","1","0","1","0","0","1","0","0","0","0","0","0","1","0","1","0","4","1","3","2","2","4","4","3","2","1","724701248414023680","王","584","","","","","","","","","","","","","","","","","","","","","","","","","","","","","","","","","","","","","","","",""
"516","<p style=""color:rgb(150, 250, 100); font-size: 35px;"">自己</p>","i","categorize-html","32","268291","0.0-6.0-1.0-2.0-1.11","3","4","4","3","3","3","3","3","4","4","4","4","4","4","4","4","4","4","4","4","1","1","2","1","2","2","2","1","1","0","1","0","0","1","0","0","0","0","0","0","1","0","1","0","4","1","3","2","2","4","4","3","2","1","724701248414023680","王","584","","","","","","","","","","","","","","","","","","","true","11","1","moral","516","self","自己","","","","","","","","","","","","","","",""
"11887","
    <div class=""tag-bottom""><p>
    —— 任务2：对“消极”词和“积极”词分类 ——<p/>   
    <span style=""color:#78DCE8""><b>注意上方，类别标签和需要分类的词语都已经改变</b></span><p/>
    <span style=""color:#FFD866""><b>请根据上方标签的提示，尽可能正确并且快速地做出按键反应</b></span><p/>
    当按键错误时屏幕中会出现<span style=""color:red""> X </span>，需要按另一个键纠正才能继续<br/><p/>
    请把双手食指分别放在键盘的“E”键和“I”键上<p/>
    按<空格键>开始
    </p></div>"," ","html-keyboard-response","33","280180","0.0-6.0-1.0-3.0","3","4","4","3","3","3","3","3","4","4","4","4","4","4","4","4","4","4","4","4","1","1","2","1","2","2","2","1","1","0","1","0","0","1","0","0","0","0","0","0","1","0","1","0","4","1","3","2","2","4","4","3","2","1","724701248414023680","王","584","","","","","","","","","","","","","","","","","","","","","","","","","","","","","","","","","","","","","","","",""
"null","","null","html-keyboard-response","34","280437","0.0-6.0-1.0-4.0-0.0","3","4","4","3","3","3","3","3","4","4","4","4","4","4","4","4","4","4","4","4","1","1","2","1","2","2","2","1","1","0","1","0","0","1","0","0","0","0","0","0","1","0","1","0","4","1","3","2","2","4","4","3","2","1","724701248414023680","王","584","","","","","","","","","","","","","","","","","","","","","","","","","","","","","","","","","","","","","","","",""
"1011","<p style=""color:white; font-size: 35px;"">君子</p>","i","categorize-html","35","281451","0.0-6.0-1.0-4.0-1.0","3","4","4","3","3","3","3","3","4","4","4","4","4","4","4","4","4","4","4","4","1","1","2","1","2","2","2","1","1","0","1","0","0","1","0","0","0","0","0","0","1","0","1","0","4","1","3","2","2","4","4","3","2","1","724701248414023680","王","584","","","","","","","","","","","","","","","","","","","true","12","2","moral","1011","positive","君子","","","","","","","","","","","","","","",""
"null","","null","html-keyboard-response","36","281709","0.0-6.0-1.0-4.0-0.1","3","4","4","3","3","3","3","3","4","4","4","4","4","4","4","4","4","4","4","4","1","1","2","1","2","2","2","1","1","0","1","0","0","1","0","0","0","0","0","0","1","0","1","0","4","1","3","2","2","4","4","3","2","1","724701248414023680","王","584","","","","","","","","","","","","","","","","","","","","","","","","","","","","","","","","","","","","","","","",""
"509","<p style=""color:white; font-size: 35px;"">高尚</p>","i","categorize-html","37","282221","0.0-6.0-1.0-4.0-1.1","3","4","4","3","3","3","3","3","4","4","4","4","4","4","4","4","4","4","4","4","1","1","2","1","2","2","2","1","1","0","1","0","0","1","0","0","0","0","0","0","1","0","1","0","4","1","3","2","2","4","4","3","2","1","724701248414023680","王","584","","","","","","","","","","","","","","","","","","","true","12","2","moral","509","positive","高尚","","","","","","","","","","","","","","",""
"null","","null","html-keyboard-response","38","282477","0.0-6.0-1.0-4.0-0.2","3","4","4","3","3","3","3","3","4","4","4","4","4","4","4","4","4","4","4","4","1","1","2","1","2","2","2","1","1","0","1","0","0","1","0","0","0","0","0","0","1","0","1","0","4","1","3","2","2","4","4","3","2","1","724701248414023680","王","584","","","","","","","","","","","","","","","","","","","","","","","","","","","","","","","","","","","","","","","",""
"582","<p style=""color:white; font-size: 35px;"">诚信</p>","i","categorize-html","39","283061","0.0-6.0-1.0-4.0-1.2","3","4","4","3","3","3","3","3","4","4","4","4","4","4","4","4","4","4","4","4","1","1","2","1","2","2","2","1","1","0","1","0","0","1","0","0","0","0","0","0","1","0","1","0","4","1","3","2","2","4","4","3","2","1","724701248414023680","王","584","","","","","","","","","","","","","","","","","","","true","12","2","moral","582","positive","诚信","","","","","","","","","","","","","","",""
"null","","null","html-keyboard-response","40","283317","0.0-6.0-1.0-4.0-0.3","3","4","4","3","3","3","3","3","4","4","4","4","4","4","4","4","4","4","4","4","1","1","2","1","2","2","2","1","1","0","1","0","0","1","0","0","0","0","0","0","1","0","1","0","4","1","3","2","2","4","4","3","2","1","724701248414023680","王","584","","","","","","","","","","","","","","","","","","","","","","","","","","","","","","","","","","","","","","","",""
"671","<p style=""color:white; font-size: 35px;"">小人</p>","e","categorize-html","41","283991","0.0-6.0-1.0-4.0-1.3","3","4","4","3","3","3","3","3","4","4","4","4","4","4","4","4","4","4","4","4","1","1","2","1","2","2","2","1","1","0","1","0","0","1","0","0","0","0","0","0","1","0","1","0","4","1","3","2","2","4","4","3","2","1","724701248414023680","王","584","","","","","","","","","","","","","","","","","","","true","12","2","moral","671","negative","小人","","","","","","","","","","","","","","",""
"null","","null","html-keyboard-response","42","284244","0.0-6.0-1.0-4.0-0.4","3","4","4","3","3","3","3","3","4","4","4","4","4","4","4","4","4","4","4","4","1","1","2","1","2","2","2","1","1","0","1","0","0","1","0","0","0","0","0","0","1","0","1","0","4","1","3","2","2","4","4","3","2","1","724701248414023680","王","584","","","","","","","","","","","","","","","","","","","","","","","","","","","","","","","","","","","","","","","",""
"804","<p style=""color:white; font-size: 35px;"">廉正</p>","i","categorize-html","43","285051","0.0-6.0-1.0-4.0-1.4","3","4","4","3","3","3","3","3","4","4","4","4","4","4","4","4","4","4","4","4","1","1","2","1","2","2","2","1","1","0","1","0","0","1","0","0","0","0","0","0","1","0","1","0","4","1","3","2","2","4","4","3","2","1","724701248414023680","王","584","","","","","","","","","","","","","","","","","","","true","12","2","moral","804","positive","廉正","","","","","","","","","","","","","","",""
"null","","null","html-keyboard-response","44","285309","0.0-6.0-1.0-4.0-0.5","3","4","4","3","3","3","3","3","4","4","4","4","4","4","4","4","4","4","4","4","1","1","2","1","2","2","2","1","1","0","1","0","0","1","0","0","0","0","0","0","1","0","1","0","4","1","3","2","2","4","4","3","2","1","724701248414023680","王","584","","","","","","","","","","","","","","","","","","","","","","","","","","","","","","","","","","","","","","","",""
"609","<p style=""color:white; font-size: 35px;"">卑鄙</p>","e","categorize-html","45","285921","0.0-6.0-1.0-4.0-1.5","3","4","4","3","3","3","3","3","4","4","4","4","4","4","4","4","4","4","4","4","1","1","2","1","2","2","2","1","1","0","1","0","0","1","0","0","0","0","0","0","1","0","1","0","4","1","3","2","2","4","4","3","2","1","724701248414023680","王","584","","","","","","","","","","","","","","","","","","","true","12","2","moral","609","negative","卑鄙","","","","","","","","","","","","","","",""
"null","","null","html-keyboard-response","46","286173","0.0-6.0-1.0-4.0-0.6","3","4","4","3","3","3","3","3","4","4","4","4","4","4","4","4","4","4","4","4","1","1","2","1","2","2","2","1","1","0","1","0","0","1","0","0","0","0","0","0","1","0","1","0","4","1","3","2","2","4","4","3","2","1","724701248414023680","王","584","","","","","","","","","","","","","","","","","","","","","","","","","","","","","","","","","","","","","","","",""
"546","<p style=""color:white; font-size: 35px;"">缺德</p>","e","categorize-html","47","286721","0.0-6.0-1.0-4.0-1.6","3","4","4","3","3","3","3","3","4","4","4","4","4","4","4","4","4","4","4","4","1","1","2","1","2","2","2","1","1","0","1","0","0","1","0","0","0","0","0","0","1","0","1","0","4","1","3","2","2","4","4","3","2","1","724701248414023680","王","584","","","","","","","","","","","","","","","","","","","true","12","2","moral","546","negative","缺德","","","","","","","","","","","","","","",""
"null","","null","html-keyboard-response","48","286973","0.0-6.0-1.0-4.0-0.7","3","4","4","3","3","3","3","3","4","4","4","4","4","4","4","4","4","4","4","4","1","1","2","1","2","2","2","1","1","0","1","0","0","1","0","0","0","0","0","0","1","0","1","0","4","1","3","2","2","4","4","3","2","1","724701248414023680","王","584","","","","","","","","","","","","","","","","","","","","","","","","","","","","","","","","","","","","","","","",""
"666","<p style=""color:white; font-size: 35px;"">正直</p>","i","categorize-html","49","287641","0.0-6.0-1.0-4.0-1.7","3","4","4","3","3","3","3","3","4","4","4","4","4","4","4","4","4","4","4","4","1","1","2","1","2","2","2","1","1","0","1","0","0","1","0","0","0","0","0","0","1","0","1","0","4","1","3","2","2","4","4","3","2","1","724701248414023680","王","584","","","","","","","","","","","","","","","","","","","true","12","2","moral","666","positive","正直","","","","","","","","","","","","","","",""
"null","","null","html-keyboard-response","50","287893","0.0-6.0-1.0-4.0-0.8","3","4","4","3","3","3","3","3","4","4","4","4","4","4","4","4","4","4","4","4","1","1","2","1","2","2","2","1","1","0","1","0","0","1","0","0","0","0","0","0","1","0","1","0","4","1","3","2","2","4","4","3","2","1","724701248414023680","王","584","","","","","","","","","","","","","","","","","","","","","","","","","","","","","","","","","","","","","","","",""
"666","<p style=""color:white; font-size: 35px;"">不仁</p>","e","categorize-html","51","288561","0.0-6.0-1.0-4.0-1.8","3","4","4","3","3","3","3","3","4","4","4","4","4","4","4","4","4","4","4","4","1","1","2","1","2","2","2","1","1","0","1","0","0","1","0","0","0","0","0","0","1","0","1","0","4","1","3","2","2","4","4","3","2","1","724701248414023680","王","584","","","","","","","","","","","","","","","","","","","true","12","2","moral","666","negative","不仁","","","","","","","","","","","","","","",""
"null","","null","html-keyboard-response","52","288812","0.0-6.0-1.0-4.0-0.9","3","4","4","3","3","3","3","3","4","4","4","4","4","4","4","4","4","4","4","4","1","1","2","1","2","2","2","1","1","0","1","0","0","1","0","0","0","0","0","0","1","0","1","0","4","1","3","2","2","4","4","3","2","1","724701248414023680","王","584","","","","","","","","","","","","","","","","","","","","","","","","","","","","","","","","","","","","","","","",""
"627","<p style=""color:white; font-size: 35px;"">黑心</p>","e","categorize-html","53","289442","0.0-6.0-1.0-4.0-1.9","3","4","4","3","3","3","3","3","4","4","4","4","4","4","4","4","4","4","4","4","1","1","2","1","2","2","2","1","1","0","1","0","0","1","0","0","0","0","0","0","1","0","1","0","4","1","3","2","2","4","4","3","2","1","724701248414023680","王","584","","","","","","","","","","","","","","","","","","","true","12","2","moral","627","negative","黑心","","","","","","","","","","","","","","",""
"null","","null","html-keyboard-response","54","289693","0.0-6.0-1.0-4.0-0.10","3","4","4","3","3","3","3","3","4","4","4","4","4","4","4","4","4","4","4","4","1","1","2","1","2","2","2","1","1","0","1","0","0","1","0","0","0","0","0","0","1","0","1","0","4","1","3","2","2","4","4","3","2","1","724701248414023680","王","584","","","","","","","","","","","","","","","","","","","","","","","","","","","","","","","","","","","","","","","",""
"586","<p style=""color:white; font-size: 35px;"">不孝</p>","e","categorize-html","55","290282","0.0-6.0-1.0-4.0-1.10","3","4","4","3","3","3","3","3","4","4","4","4","4","4","4","4","4","4","4","4","1","1","2","1","2","2","2","1","1","0","1","0","0","1","0","0","0","0","0","0","1","0","1","0","4","1","3","2","2","4","4","3","2","1","724701248414023680","王","584","","","","","","","","","","","","","","","","","","","true","12","2","moral","586","negative","不孝","","","","","","","","","","","","","","",""
"null","","null","html-keyboard-response","56","290533","0.0-6.0-1.0-4.0-0.11","3","4","4","3","3","3","3","3","4","4","4","4","4","4","4","4","4","4","4","4","1","1","2","1","2","2","2","1","1","0","1","0","0","1","0","0","0","0","0","0","1","0","1","0","4","1","3","2","2","4","4","3","2","1","724701248414023680","王","584","","","","","","","","","","","","","","","","","","","","","","","","","","","","","","","","","","","","","","","",""
"636","<p style=""color:white; font-size: 35px;"">善良</p>","i","categorize-html","57","291171","0.0-6.0-1.0-4.0-1.11","3","4","4","3","3","3","3","3","4","4","4","4","4","4","4","4","4","4","4","4","1","1","2","1","2","2","2","1","1","0","1","0","0","1","0","0","0","0","0","0","1","0","1","0","4","1","3","2","2","4","4","3","2","1","724701248414023680","王","584","","","","","","","","","","","","","","","","","","","true","12","2","moral","636","positive","善良","","","","","","","","","","","","","","",""
"14788","
    <div class=""tag-bottom""><p>
    —— 任务3：对“他人/消极”词和“自我/积极”词分类 ——<p/>
    <span style=""color:#78DCE8""><b>注意上方，之前的四类词语将混合在一起交替呈现</b></span><p/>
    <span style=""color:#FFD866""><b>请根据上方标签的提示，尽可能正确并且快速地做出按键反应</b></span><p/>
    当按键错误时屏幕中会出现<span style=""color:red""> X </span>，需要按另一个键纠正才能继续<br/><p/>
    请把双手食指分别放在键盘的“E”键和“I”键上<p/>
    按<空格键>开始
    </p></div>"," ","html-keyboard-response","58","305960","0.0-6.0-1.0-5.0","3","4","4","3","3","3","3","3","4","4","4","4","4","4","4","4","4","4","4","4","1","1","2","1","2","2","2","1","1","0","1","0","0","1","0","0","0","0","0","0","1","0","1","0","4","1","3","2","2","4","4","3","2","1","724701248414023680","王","584","","","","","","","","","","","","","","","","","","","","","","","","","","","","","","","","","","","","","","","",""
"null","","null","html-keyboard-response","59","306213","0.0-6.0-1.0-6.0-0.0","3","4","4","3","3","3","3","3","4","4","4","4","4","4","4","4","4","4","4","4","1","1","2","1","2","2","2","1","1","0","1","0","0","1","0","0","0","0","0","0","1","0","1","0","4","1","3","2","2","4","4","3","2","1","724701248414023680","王","584","","","","","","","","","","","","","","","","","","","","","","","","","","","","","","","","","","","","","","","",""
"1166","<p style=""color:rgb(150, 250, 100); font-size: 35px;"">他人</p>","e","categorize-html","60","307381","0.0-6.0-1.0-6.0-1.0","3","4","4","3","3","3","3","3","4","4","4","4","4","4","4","4","4","4","4","4","1","1","2","1","2","2","2","1","1","0","1","0","0","1","0","0","0","0","0","0","1","0","1","0","4","1","3","2","2","4","4","3","2","1","724701248414023680","王","584","","","","","","","","","","","","","","","","","","","true","13","3","moral","1166","other","他人","","","","","","","","","","","","","","",""
"null","","null","html-keyboard-response","61","307637","0.0-6.0-1.0-6.0-0.1","3","4","4","3","3","3","3","3","4","4","4","4","4","4","4","4","4","4","4","4","1","1","2","1","2","2","2","1","1","0","1","0","0","1","0","0","0","0","0","0","1","0","1","0","4","1","3","2","2","4","4","3","2","1","724701248414023680","王","584","","","","","","","","","","","","","","","","","","","","","","","","","","","","","","","","","","","","","","","",""
"741","<p style=""color:white; font-size: 35px;"">善良</p>","i","categorize-html","62","308381","0.0-6.0-1.0-6.0-1.1","3","4","4","3","3","3","3","3","4","4","4","4","4","4","4","4","4","4","4","4","1","1","2","1","2","2","2","1","1","0","1","0","0","1","0","0","0","0","0","0","1","0","1","0","4","1","3","2","2","4","4","3","2","1","724701248414023680","王","584","","","","","","","","","","","","","","","","","","","true","13","3","moral","741","positive","善良","","","","","","","","","","","","","","",""
"null","","null","html-keyboard-response","63","308637","0.0-6.0-1.0-6.0-0.2","3","4","4","3","3","3","3","3","4","4","4","4","4","4","4","4","4","4","4","4","1","1","2","1","2","2","2","1","1","0","1","0","0","1","0","0","0","0","0","0","1","0","1","0","4","1","3","2","2","4","4","3","2","1","724701248414023680","王","584","","","","","","","","","","","","","","","","","","","","","","","","","","","","","","","","","","","","","","","",""
"852","<p style=""color:rgb(150, 250, 100); font-size: 35px;"">自己</p>","i","categorize-html","64","309491","0.0-6.0-1.0-6.0-1.2","3","4","4","3","3","3","3","3","4","4","4","4","4","4","4","4","4","4","4","4","1","1","2","1","2","2","2","1","1","0","1","0","0","1","0","0","0","0","0","0","1","0","1","0","4","1","3","2","2","4","4","3","2","1","724701248414023680","王","584","","","","","","","","","","","","","","","","","","","true","13","3","moral","852","self","自己","","","","","","","","","","","","","","",""
"null","","null","html-keyboard-response","65","309749","0.0-6.0-1.0-6.0-0.3","3","4","4","3","3","3","3","3","4","4","4","4","4","4","4","4","4","4","4","4","1","1","2","1","2","2","2","1","1","0","1","0","0","1","0","0","0","0","0","0","1","0","1","0","4","1","3","2","2","4","4","3","2","1","724701248414023680","王","584","","","","","","","","","","","","","","","","","","","","","","","","","","","","","","","","","","","","","","","",""
"790","<p style=""color:white; font-size: 35px;"">卑鄙</p>","e","categorize-html","66","310541","0.0-6.0-1.0-6.0-1.3","3","4","4","3","3","3","3","3","4","4","4","4","4","4","4","4","4","4","4","4","1","1","2","1","2","2","2","1","1","0","1","0","0","1","0","0","0","0","0","0","1","0","1","0","4","1","3","2","2","4","4","3","2","1","724701248414023680","王","584","","","","","","","","","","","","","","","","","","","true","13","3","moral","790","negative","卑鄙","","","","","","","","","","","","","","",""
"null","","null","html-keyboard-response","67","310797","0.0-6.0-1.0-6.0-0.4","3","4","4","3","3","3","3","3","4","4","4","4","4","4","4","4","4","4","4","4","1","1","2","1","2","2","2","1","1","0","1","0","0","1","0","0","0","0","0","0","1","0","1","0","4","1","3","2","2","4","4","3","2","1","724701248414023680","王","584","","","","","","","","","","","","","","","","","","","","","","","","","","","","","","","","","","","","","","","",""
"772","<p style=""color:rgb(150, 250, 100); font-size: 35px;"">他的</p>","e","categorize-html","68","311571","0.0-6.0-1.0-6.0-1.4","3","4","4","3","3","3","3","3","4","4","4","4","4","4","4","4","4","4","4","4","1","1","2","1","2","2","2","1","1","0","1","0","0","1","0","0","0","0","0","0","1","0","1","0","4","1","3","2","2","4","4","3","2","1","724701248414023680","王","584","","","","","","","","","","","","","","","","","","","true","13","3","moral","772","other","他的","","","","","","","","","","","","","","",""
"null","","null","html-keyboard-response","69","311829","0.0-6.0-1.0-6.0-0.5","3","4","4","3","3","3","3","3","4","4","4","4","4","4","4","4","4","4","4","4","1","1","2","1","2","2","2","1","1","0","1","0","0","1","0","0","0","0","0","0","1","0","1","0","4","1","3","2","2","4","4","3","2","1","724701248414023680","王","584","","","","","","","","","","","","","","","","","","","","","","","","","","","","","","","","","","","","","","","",""
"660","<p style=""color:white; font-size: 35px;"">缺德</p>","e","categorize-html","70","312491","0.0-6.0-1.0-6.0-1.5","3","4","4","3","3","3","3","3","4","4","4","4","4","4","4","4","4","4","4","4","1","1","2","1","2","2","2","1","1","0","1","0","0","1","0","0","0","0","0","0","1","0","1","0","4","1","3","2","2","4","4","3","2","1","724701248414023680","王","584","","","","","","","","","","","","","","","","","","","true","13","3","moral","660","negative","缺德","","","","","","","","","","","","","","",""
"null","","null","html-keyboard-response","71","312749","0.0-6.0-1.0-6.0-0.6","3","4","4","3","3","3","3","3","4","4","4","4","4","4","4","4","4","4","4","4","1","1","2","1","2","2","2","1","1","0","1","0","0","1","0","0","0","0","0","0","1","0","1","0","4","1","3","2","2","4","4","3","2","1","724701248414023680","王","584","","","","","","","","","","","","","","","","","","","","","","","","","","","","","","","","","","","","","","","",""
"820","<p style=""color:rgb(150, 250, 100); font-size: 35px;"">本人的</p>","i","categorize-html","72","313571","0.0-6.0-1.0-6.0-1.6","3","4","4","3","3","3","3","3","4","4","4","4","4","4","4","4","4","4","4","4","1","1","2","1","2","2","2","1","1","0","1","0","0","1","0","0","0","0","0","0","1","0","1","0","4","1","3","2","2","4","4","3","2","1","724701248414023680","王","584","","","","","","","","","","","","","","","","","","","true","13","3","moral","820","self","本人的","","","","","","","","","","","","","","",""
"null","","null","html-keyboard-response","73","313829","0.0-6.0-1.0-6.0-0.7","3","4","4","3","3","3","3","3","4","4","4","4","4","4","4","4","4","4","4","4","1","1","2","1","2","2","2","1","1","0","1","0","0","1","0","0","0","0","0","0","1","0","1","0","4","1","3","2","2","4","4","3","2","1","724701248414023680","王","584","","","","","","","","","","","","","","","","","","","","","","","","","","","","","","","","","","","","","","","",""
"710","<p style=""color:white; font-size: 35px;"">高尚</p>","i","categorize-html","74","314541","0.0-6.0-1.0-6.0-1.7","3","4","4","3","3","3","3","3","4","4","4","4","4","4","4","4","4","4","4","4","1","1","2","1","2","2","2","1","1","0","1","0","0","1","0","0","0","0","0","0","1","0","1","0","4","1","3","2","2","4","4","3","2","1","724701248414023680","王","584","","","","","","","","","","","","","","","","","","","true","13","3","moral","710","positive","高尚","","","","","","","","","","","","","","",""
"null","","null","html-keyboard-response","75","314798","0.0-6.0-1.0-6.0-0.8","3","4","4","3","3","3","3","3","4","4","4","4","4","4","4","4","4","4","4","4","1","1","2","1","2","2","2","1","1","0","1","0","0","1","0","0","0","0","0","0","1","0","1","0","4","1","3","2","2","4","4","3","2","1","724701248414023680","王","584","","","","","","","","","","","","","","","","","","","","","","","","","","","","","","","","","","","","","","","",""
"721","<p style=""color:rgb(150, 250, 100); font-size: 35px;"">他</p>","e","categorize-html","76","315522","0.0-6.0-1.0-6.0-1.8","3","4","4","3","3","3","3","3","4","4","4","4","4","4","4","4","4","4","4","4","1","1","2","1","2","2","2","1","1","0","1","0","0","1","0","0","0","0","0","0","1","0","1","0","4","1","3","2","2","4","4","3","2","1","724701248414023680","王","584","","","","","","","","","","","","","","","","","","","true","13","3","moral","721","other","他","","","","","","","","","","","","","","",""
"null","","null","html-keyboard-response","77","315774","0.0-6.0-1.0-6.0-0.9","3","4","4","3","3","3","3","3","4","4","4","4","4","4","4","4","4","4","4","4","1","1","2","1","2","2","2","1","1","0","1","0","0","1","0","0","0","0","0","0","1","0","1","0","4","1","3","2","2","4","4","3","2","1","724701248414023680","王","584","","","","","","","","","","","","","","","","","","","","","","","","","","","","","","","","","","","","","","","",""
"656","<p style=""color:white; font-size: 35px;"">不孝</p>","e","categorize-html","78","316432","0.0-6.0-1.0-6.0-1.9","3","4","4","3","3","3","3","3","4","4","4","4","4","4","4","4","4","4","4","4","1","1","2","1","2","2","2","1","1","0","1","0","0","1","0","0","0","0","0","0","1","0","1","0","4","1","3","2","2","4","4","3","2","1","724701248414023680","王","584","","","","","","","","","","","","","","","","","","","true","13","3","moral","656","negative","不孝","","","","","","","","","","","","","","",""
"null","","null","html-keyboard-response","79","316686","0.0-6.0-1.0-6.0-0.10","3","4","4","3","3","3","3","3","4","4","4","4","4","4","4","4","4","4","4","4","1","1","2","1","2","2","2","1","1","0","1","0","0","1","0","0","0","0","0","0","1","0","1","0","4","1","3","2","2","4","4","3","2","1","724701248414023680","王","584","","","","","","","","","","","","","","","","","","","","","","","","","","","","","","","","","","","","","","","",""
"713","<p style=""color:rgb(150, 250, 100); font-size: 35px;"">本人</p>","i","categorize-html","80","317402","0.0-6.0-1.0-6.0-1.10","3","4","4","3","3","3","3","3","4","4","4","4","4","4","4","4","4","4","4","4","1","1","2","1","2","2","2","1","1","0","1","0","0","1","0","0","0","0","0","0","1","0","1","0","4","1","3","2","2","4","4","3","2","1","724701248414023680","王","584","","","","","","","","","","","","","","","","","","","true","13","3","moral","713","self","本人","","","","","","","","","","","","","","",""
"null","","null","html-keyboard-response","81","317654","0.0-6.0-1.0-6.0-0.11","3","4","4","3","3","3","3","3","4","4","4","4","4","4","4","4","4","4","4","4","1","1","2","1","2","2","2","1","1","0","1","0","0","1","0","0","0","0","0","0","1","0","1","0","4","1","3","2","2","4","4","3","2","1","724701248414023680","王","584","","","","","","","","","","","","","","","","","","","","","","","","","","","","","","","","","","","","","","","",""
"735","<p style=""color:white; font-size: 35px;"">正直</p>","i","categorize-html","82","318392","0.0-6.0-1.0-6.0-1.11","3","4","4","3","3","3","3","3","4","4","4","4","4","4","4","4","4","4","4","4","1","1","2","1","2","2","2","1","1","0","1","0","0","1","0","0","0","0","0","0","1","0","1","0","4","1","3","2","2","4","4","3","2","1","724701248414023680","王","584","","","","","","","","","","","","","","","","","","","true","13","3","moral","735","positive","正直","","","","","","","","","","","","","","",""
"null","","null","html-keyboard-response","83","318646","0.0-6.0-1.0-6.0-0.12","3","4","4","3","3","3","3","3","4","4","4","4","4","4","4","4","4","4","4","4","1","1","2","1","2","2","2","1","1","0","1","0","0","1","0","0","0","0","0","0","1","0","1","0","4","1","3","2","2","4","4","3","2","1","724701248414023680","王","584","","","","","","","","","","","","","","","","","","","","","","","","","","","","","","","","","","","","","","","",""
"713","<p style=""color:rgb(150, 250, 100); font-size: 35px;"">我</p>","i","categorize-html","84","319362","0.0-6.0-1.0-6.0-1.12","3","4","4","3","3","3","3","3","4","4","4","4","4","4","4","4","4","4","4","4","1","1","2","1","2","2","2","1","1","0","1","0","0","1","0","0","0","0","0","0","1","0","1","0","4","1","3","2","2","4","4","3","2","1","724701248414023680","王","584","","","","","","","","","","","","","","","","","","","true","13","3","moral","713","self","我","","","","","","","","","","","","","","",""
"null","","null","html-keyboard-response","85","319614","0.0-6.0-1.0-6.0-0.13","3","4","4","3","3","3","3","3","4","4","4","4","4","4","4","4","4","4","4","4","1","1","2","1","2","2","2","1","1","0","1","0","0","1","0","0","0","0","0","0","1","0","1","0","4","1","3","2","2","4","4","3","2","1","724701248414023680","王","584","","","","","","","","","","","","","","","","","","","","","","","","","","","","","","","","","","","","","","","",""
"825","<p style=""color:white; font-size: 35px;"">君子</p>","i","categorize-html","86","320442","0.0-6.0-1.0-6.0-1.13","3","4","4","3","3","3","3","3","4","4","4","4","4","4","4","4","4","4","4","4","1","1","2","1","2","2","2","1","1","0","1","0","0","1","0","0","0","0","0","0","1","0","1","0","4","1","3","2","2","4","4","3","2","1","724701248414023680","王","584","","","","","","","","","","","","","","","","","","","true","13","3","moral","825","positive","君子","","","","","","","","","","","","","","",""
"null","","null","html-keyboard-response","87","320694","0.0-6.0-1.0-6.0-0.14","3","4","4","3","3","3","3","3","4","4","4","4","4","4","4","4","4","4","4","4","1","1","2","1","2","2","2","1","1","0","1","0","0","1","0","0","0","0","0","0","1","0","1","0","4","1","3","2","2","4","4","3","2","1","724701248414023680","王","584","","","","","","","","","","","","","","","","","","","","","","","","","","","","","","","","","","","","","","","",""
"605","<p style=""color:rgb(150, 250, 100); font-size: 35px;"">他人的</p>","e","categorize-html","88","321302","0.0-6.0-1.0-6.0-1.14","3","4","4","3","3","3","3","3","4","4","4","4","4","4","4","4","4","4","4","4","1","1","2","1","2","2","2","1","1","0","1","0","0","1","0","0","0","0","0","0","1","0","1","0","4","1","3","2","2","4","4","3","2","1","724701248414023680","王","584","","","","","","","","","","","","","","","","","","","true","13","3","moral","605","other","他人的","","","","","","","","","","","","","","",""
"null","","null","html-keyboard-response","89","321558","0.0-6.0-1.0-6.0-0.15","3","4","4","3","3","3","3","3","4","4","4","4","4","4","4","4","4","4","4","4","1","1","2","1","2","2","2","1","1","0","1","0","0","1","0","0","0","0","0","0","1","0","1","0","4","1","3","2","2","4","4","3","2","1","724701248414023680","王","584","","","","","","","","","","","","","","","","","","","","","","","","","","","","","","","","","","","","","","","",""
"611","<p style=""color:white; font-size: 35px;"">小人</p>","e","categorize-html","90","322172","0.0-6.0-1.0-6.0-1.15","3","4","4","3","3","3","3","3","4","4","4","4","4","4","4","4","4","4","4","4","1","1","2","1","2","2","2","1","1","0","1","0","0","1","0","0","0","0","0","0","1","0","1","0","4","1","3","2","2","4","4","3","2","1","724701248414023680","王","584","","","","","","","","","","","","","","","","","","","true","13","3","moral","611","negative","小人","","","","","","","","","","","","","","",""
"null","","null","html-keyboard-response","91","322430","0.0-6.0-1.0-6.0-0.16","3","4","4","3","3","3","3","3","4","4","4","4","4","4","4","4","4","4","4","4","1","1","2","1","2","2","2","1","1","0","1","0","0","1","0","0","0","0","0","0","1","0","1","0","4","1","3","2","2","4","4","3","2","1","724701248414023680","王","584","","","","","","","","","","","","","","","","","","","","","","","","","","","","","","","","","","","","","","","",""
"718","<p style=""color:rgb(150, 250, 100); font-size: 35px;"">别人</p>","e","categorize-html","92","323151","0.0-6.0-1.0-6.0-1.16","3","4","4","3","3","3","3","3","4","4","4","4","4","4","4","4","4","4","4","4","1","1","2","1","2","2","2","1","1","0","1","0","0","1","0","0","0","0","0","0","1","0","1","0","4","1","3","2","2","4","4","3","2","1","724701248414023680","王","584","","","","","","","","","","","","","","","","","","","true","13","3","moral","718","other","别人","","","","","","","","","","","","","","",""
"null","","null","html-keyboard-response","93","323406","0.0-6.0-1.0-6.0-0.17","3","4","4","3","3","3","3","3","4","4","4","4","4","4","4","4","4","4","4","4","1","1","2","1","2","2","2","1","1","0","1","0","0","1","0","0","0","0","0","0","1","0","1","0","4","1","3","2","2","4","4","3","2","1","724701248414023680","王","584","","","","","","","","","","","","","","","","","","","","","","","","","","","","","","","","","","","","","","","",""
"793","<p style=""color:white; font-size: 35px;"">廉正</p>","i","categorize-html","94","324202","0.0-6.0-1.0-6.0-1.17","3","4","4","3","3","3","3","3","4","4","4","4","4","4","4","4","4","4","4","4","1","1","2","1","2","2","2","1","1","0","1","0","0","1","0","0","0","0","0","0","1","0","1","0","4","1","3","2","2","4","4","3","2","1","724701248414023680","王","584","","","","","","","","","","","","","","","","","","","true","13","3","moral","793","positive","廉正","","","","","","","","","","","","","","",""
"null","","null","html-keyboard-response","95","324453","0.0-6.0-1.0-6.0-0.18","3","4","4","3","3","3","3","3","4","4","4","4","4","4","4","4","4","4","4","4","1","1","2","1","2","2","2","1","1","0","1","0","0","1","0","0","0","0","0","0","1","0","1","0","4","1","3","2","2","4","4","3","2","1","724701248414023680","王","584","","","","","","","","","","","","","","","","","","","","","","","","","","","","","","","","","","","","","","","",""
"936","<p style=""color:rgb(150, 250, 100); font-size: 35px;"">我的</p>","i","categorize-html","96","325392","0.0-6.0-1.0-6.0-1.18","3","4","4","3","3","3","3","3","4","4","4","4","4","4","4","4","4","4","4","4","1","1","2","1","2","2","2","1","1","0","1","0","0","1","0","0","0","0","0","0","1","0","1","0","4","1","3","2","2","4","4","3","2","1","724701248414023680","王","584","","","","","","","","","","","","","","","","","","","true","13","3","moral","936","self","我的","","","","","","","","","","","","","","",""
"null","","null","html-keyboard-response","97","325646","0.0-6.0-1.0-6.0-0.19","3","4","4","3","3","3","3","3","4","4","4","4","4","4","4","4","4","4","4","4","1","1","2","1","2","2","2","1","1","0","1","0","0","1","0","0","0","0","0","0","1","0","1","0","4","1","3","2","2","4","4","3","2","1","724701248414023680","王","584","","","","","","","","","","","","","","","","","","","","","","","","","","","","","","","","","","","","","","","",""
"653","<p style=""color:white; font-size: 35px;"">不仁</p>","e","categorize-html","98","326302","0.0-6.0-1.0-6.0-1.19","3","4","4","3","3","3","3","3","4","4","4","4","4","4","4","4","4","4","4","4","1","1","2","1","2","2","2","1","1","0","1","0","0","1","0","0","0","0","0","0","1","0","1","0","4","1","3","2","2","4","4","3","2","1","724701248414023680","王","584","","","","","","","","","","","","","","","","","","","true","13","3","moral","653","negative","不仁","","","","","","","","","","","","","","",""
"null","","null","html-keyboard-response","99","326557","0.0-6.0-1.0-6.0-0.20","3","4","4","3","3","3","3","3","4","4","4","4","4","4","4","4","4","4","4","4","1","1","2","1","2","2","2","1","1","0","1","0","0","1","0","0","0","0","0","0","1","0","1","0","4","1","3","2","2","4","4","3","2","1","724701248414023680","王","584","","","","","","","","","","","","","","","","","","","","","","","","","","","","","","","","","","","","","","","",""
"802","<p style=""color:rgb(150, 250, 100); font-size: 35px;"">自己的</p>","i","categorize-html","100","327362","0.0-6.0-1.0-6.0-1.20","3","4","4","3","3","3","3","3","4","4","4","4","4","4","4","4","4","4","4","4","1","1","2","1","2","2","2","1","1","0","1","0","0","1","0","0","0","0","0","0","1","0","1","0","4","1","3","2","2","4","4","3","2","1","724701248414023680","王","584","","","","","","","","","","","","","","","","","","","true","13","3","moral","802","self","自己的","","","","","","","","","","","","","","",""
"null","","null","html-keyboard-response","101","327613","0.0-6.0-1.0-6.0-0.21","3","4","4","3","3","3","3","3","4","4","4","4","4","4","4","4","4","4","4","4","1","1","2","1","2","2","2","1","1","0","1","0","0","1","0","0","0","0","0","0","1","0","1","0","4","1","3","2","2","4","4","3","2","1","724701248414023680","王","584","","","","","","","","","","","","","","","","","","","","","","","","","","","","","","","","","","","","","","","",""
"755","<p style=""color:white; font-size: 35px;"">黑心</p>","e","categorize-html","102","328372","0.0-6.0-1.0-6.0-1.21","3","4","4","3","3","3","3","3","4","4","4","4","4","4","4","4","4","4","4","4","1","1","2","1","2","2","2","1","1","0","1","0","0","1","0","0","0","0","0","0","1","0","1","0","4","1","3","2","2","4","4","3","2","1","724701248414023680","王","584","","","","","","","","","","","","","","","","","","","true","13","3","moral","755","negative","黑心","","","","","","","","","","","","","","",""
"null","","null","html-keyboard-response","103","328629","0.0-6.0-1.0-6.0-0.22","3","4","4","3","3","3","3","3","4","4","4","4","4","4","4","4","4","4","4","4","1","1","2","1","2","2","2","1","1","0","1","0","0","1","0","0","0","0","0","0","1","0","1","0","4","1","3","2","2","4","4","3","2","1","724701248414023680","王","584","","","","","","","","","","","","","","","","","","","","","","","","","","","","","","","","","","","","","","","",""
"780","<p style=""color:rgb(150, 250, 100); font-size: 35px;"">别人的</p>","e","categorize-html","104","329412","0.0-6.0-1.0-6.0-1.22","3","4","4","3","3","3","3","3","4","4","4","4","4","4","4","4","4","4","4","4","1","1","2","1","2","2","2","1","1","0","1","0","0","1","0","0","0","0","0","0","1","0","1","0","4","1","3","2","2","4","4","3","2","1","724701248414023680","王","584","","","","","","","","","","","","","","","","","","","true","13","3","moral","780","other","别人的","","","","","","","","","","","","","","",""
"null","","null","html-keyboard-response","105","329669","0.0-6.0-1.0-6.0-0.23","3","4","4","3","3","3","3","3","4","4","4","4","4","4","4","4","4","4","4","4","1","1","2","1","2","2","2","1","1","0","1","0","0","1","0","0","0","0","0","0","1","0","1","0","4","1","3","2","2","4","4","3","2","1","724701248414023680","王","584","","","","","","","","","","","","","","","","","","","","","","","","","","","","","","","","","","","","","","","",""
"670","<p style=""color:white; font-size: 35px;"">诚信</p>","i","categorize-html","106","330342","0.0-6.0-1.0-6.0-1.23","3","4","4","3","3","3","3","3","4","4","4","4","4","4","4","4","4","4","4","4","1","1","2","1","2","2","2","1","1","0","1","0","0","1","0","0","0","0","0","0","1","0","1","0","4","1","3","2","2","4","4","3","2","1","724701248414023680","王","584","","","","","","","","","","","","","","","","","","","true","13","3","moral","670","positive","诚信","","","","","","","","","","","","","","",""
"37217","
    <div class=""tag-bottom""><p>
    —— 任务4：对“他人/消极”词和“自我/积极”词分类 ——<p/>
    <span style=""color:#78DCE8""><b>与刚才的任务完全相同，请再次对这四类词语分类</b></span><p/>
    <span style=""color:#FFD866""><b>请根据上方标签的提示，尽可能正确并且快速地做出按键反应</b></span><p/>
    当按键错误时屏幕中会出现<span style=""color:red""> X </span>，需要按另一个键纠正才能继续<br/><p/>
    请把双手食指分别放在键盘的“E”键和“I”键上<p/>
    按<空格键>开始
    </p></div>"," ","html-keyboard-response","107","367560","0.0-6.0-1.0-7.0","3","4","4","3","3","3","3","3","4","4","4","4","4","4","4","4","4","4","4","4","1","1","2","1","2","2","2","1","1","0","1","0","0","1","0","0","0","0","0","0","1","0","1","0","4","1","3","2","2","4","4","3","2","1","724701248414023680","王","584","","","","","","","","","","","","","","","","","","","","","","","","","","","","","","","","","","","","","","","",""
"null","","null","html-keyboard-response","108","367813","0.0-6.0-1.0-8.0-0.0","3","4","4","3","3","3","3","3","4","4","4","4","4","4","4","4","4","4","4","4","1","1","2","1","2","2","2","1","1","0","1","0","0","1","0","0","0","0","0","0","1","0","1","0","4","1","3","2","2","4","4","3","2","1","724701248414023680","王","584","","","","","","","","","","","","","","","","","","","","","","","","","","","","","","","","","","","","","","","",""
"1965","<p style=""color:rgb(150, 250, 100); font-size: 35px;"">我</p>","i","categorize-html","109","369781","0.0-6.0-1.0-8.0-1.0","3","4","4","3","3","3","3","3","4","4","4","4","4","4","4","4","4","4","4","4","1","1","2","1","2","2","2","1","1","0","1","0","0","1","0","0","0","0","0","0","1","0","1","0","4","1","3","2","2","4","4","3","2","1","724701248414023680","王","584","","","","","","","","","","","","","","","","","","","true","14","4","moral","1965","self","我","","","","","","","","","","","","","","",""
"null","","null","html-keyboard-response","110","370038","0.0-6.0-1.0-8.0-0.1","3","4","4","3","3","3","3","3","4","4","4","4","4","4","4","4","4","4","4","4","1","1","2","1","2","2","2","1","1","0","1","0","0","1","0","0","0","0","0","0","1","0","1","0","4","1","3","2","2","4","4","3","2","1","724701248414023680","王","584","","","","","","","","","","","","","","","","","","","","","","","","","","","","","","","","","","","","","","","",""
"2360","<p style=""color:white; font-size: 35px;"">廉正</p>","i","categorize-html","111","372401","0.0-6.0-1.0-8.0-1.1","3","4","4","3","3","3","3","3","4","4","4","4","4","4","4","4","4","4","4","4","1","1","2","1","2","2","2","1","1","0","1","0","0","1","0","0","0","0","0","0","1","0","1","0","4","1","3","2","2","4","4","3","2","1","724701248414023680","王","584","","","","","","","","","","","","","","","","","","","true","14","4","moral","2360","positive","廉正","","","","","","","","","","","","","","",""
"null","","null","html-keyboard-response","112","372653","0.0-6.0-1.0-8.0-0.2","3","4","4","3","3","3","3","3","4","4","4","4","4","4","4","4","4","4","4","4","1","1","2","1","2","2","2","1","1","0","1","0","0","1","0","0","0","0","0","0","1","0","1","0","4","1","3","2","2","4","4","3","2","1","724701248414023680","王","584","","","","","","","","","","","","","","","","","","","","","","","","","","","","","","","","","","","","","","","",""
"1525","<p style=""color:rgb(150, 250, 100); font-size: 35px;"">别人的</p>","e","categorize-html","113","374181","0.0-6.0-1.0-8.0-1.2","3","4","4","3","3","3","3","3","4","4","4","4","4","4","4","4","4","4","4","4","1","1","2","1","2","2","2","1","1","0","1","0","0","1","0","0","0","0","0","0","1","0","1","0","4","1","3","2","2","4","4","3","2","1","724701248414023680","王","584","","","","","","","","","","","","","","","","","","","true","14","4","moral","1525","other","别人的","","","","","","","","","","","","","","",""
"null","","null","html-keyboard-response","114","374438","0.0-6.0-1.0-8.0-0.3","3","4","4","3","3","3","3","3","4","4","4","4","4","4","4","4","4","4","4","4","1","1","2","1","2","2","2","1","1","0","1","0","0","1","0","0","0","0","0","0","1","0","1","0","4","1","3","2","2","4","4","3","2","1","724701248414023680","王","584","","","","","","","","","","","","","","","","","","","","","","","","","","","","","","","","","","","","","","","",""
"671","<p style=""color:white; font-size: 35px;"">缺德</p>","e","categorize-html","115","375111","0.0-6.0-1.0-8.0-1.3","3","4","4","3","3","3","3","3","4","4","4","4","4","4","4","4","4","4","4","4","1","1","2","1","2","2","2","1","1","0","1","0","0","1","0","0","0","0","0","0","1","0","1","0","4","1","3","2","2","4","4","3","2","1","724701248414023680","王","584","","","","","","","","","","","","","","","","","","","true","14","4","moral","671","negative","缺德","","","","","","","","","","","","","","",""
"null","","null","html-keyboard-response","116","375366","0.0-6.0-1.0-8.0-0.4","3","4","4","3","3","3","3","3","4","4","4","4","4","4","4","4","4","4","4","4","1","1","2","1","2","2","2","1","1","0","1","0","0","1","0","0","0","0","0","0","1","0","1","0","4","1","3","2","2","4","4","3","2","1","724701248414023680","王","584","","","","","","","","","","","","","","","","","","","","","","","","","","","","","","","","","","","","","","","",""
"713","<p style=""color:rgb(150, 250, 100); font-size: 35px;"">本人</p>","i","categorize-html","117","376081","0.0-6.0-1.0-8.0-1.4","3","4","4","3","3","3","3","3","4","4","4","4","4","4","4","4","4","4","4","4","1","1","2","1","2","2","2","1","1","0","1","0","0","1","0","0","0","0","0","0","1","0","1","0","4","1","3","2","2","4","4","3","2","1","724701248414023680","王","584","","","","","","","","","","","","","","","","","","","true","14","4","moral","713","self","本人","","","","","","","","","","","","","","",""
"null","","null","html-keyboard-response","118","376334","0.0-6.0-1.0-8.0-0.5","3","4","4","3","3","3","3","3","4","4","4","4","4","4","4","4","4","4","4","4","1","1","2","1","2","2","2","1","1","0","1","0","0","1","0","0","0","0","0","0","1","0","1","0","4","1","3","2","2","4","4","3","2","1","724701248414023680","王","584","","","","","","","","","","","","","","","","","","","","","","","","","","","","","","","","","","","","","","","",""
"1465","<p style=""color:white; font-size: 35px;"">高尚</p>","i","categorize-html","119","377802","0.0-6.0-1.0-8.0-1.5","3","4","4","3","3","3","3","3","4","4","4","4","4","4","4","4","4","4","4","4","1","1","2","1","2","2","2","1","1","0","1","0","0","1","0","0","0","0","0","0","1","0","1","0","4","1","3","2","2","4","4","3","2","1","724701248414023680","王","584","","","","","","","","","","","","","","","","","","","true","14","4","moral","1465","positive","高尚","","","","","","","","","","","","","","",""
"null","","null","html-keyboard-response","120","378054","0.0-6.0-1.0-8.0-0.6","3","4","4","3","3","3","3","3","4","4","4","4","4","4","4","4","4","4","4","4","1","1","2","1","2","2","2","1","1","0","1","0","0","1","0","0","0","0","0","0","1","0","1","0","4","1","3","2","2","4","4","3","2","1","724701248414023680","王","584","","","","","","","","","","","","","","","","","","","","","","","","","","","","","","","","","","","","","","","",""
"885","<p style=""color:rgb(150, 250, 100); font-size: 35px;"">他</p>","e","categorize-html","121","378941","0.0-6.0-1.0-8.0-1.6","3","4","4","3","3","3","3","3","4","4","4","4","4","4","4","4","4","4","4","4","1","1","2","1","2","2","2","1","1","0","1","0","0","1","0","0","0","0","0","0","1","0","1","0","4","1","3","2","2","4","4","3","2","1","724701248414023680","王","584","","","","","","","","","","","","","","","","","","","true","14","4","moral","885","other","他","","","","","","","","","","","","","","",""
"null","","null","html-keyboard-response","122","379198","0.0-6.0-1.0-8.0-0.7","3","4","4","3","3","3","3","3","4","4","4","4","4","4","4","4","4","4","4","4","1","1","2","1","2","2","2","1","1","0","1","0","0","1","0","0","0","0","0","0","1","0","1","0","4","1","3","2","2","4","4","3","2","1","724701248414023680","王","584","","","","","","","","","","","","","","","","","","","","","","","","","","","","","","","","","","","","","","","",""
"1031","<p style=""color:white; font-size: 35px;"">卑鄙</p>","e","categorize-html","123","380231","0.0-6.0-1.0-8.0-1.7","3","4","4","3","3","3","3","3","4","4","4","4","4","4","4","4","4","4","4","4","1","1","2","1","2","2","2","1","1","0","1","0","0","1","0","0","0","0","0","0","1","0","1","0","4","1","3","2","2","4","4","3","2","1","724701248414023680","王","584","","","","","","","","","","","","","","","","","","","true","14","4","moral","1031","negative","卑鄙","","","","","","","","","","","","","","",""
"null","","null","html-keyboard-response","124","380486","0.0-6.0-1.0-8.0-0.8","3","4","4","3","3","3","3","3","4","4","4","4","4","4","4","4","4","4","4","4","1","1","2","1","2","2","2","1","1","0","1","0","0","1","0","0","0","0","0","0","1","0","1","0","4","1","3","2","2","4","4","3","2","1","724701248414023680","王","584","","","","","","","","","","","","","","","","","","","","","","","","","","","","","","","","","","","","","","","",""
"703","<p style=""color:rgb(150, 250, 100); font-size: 35px;"">自己</p>","i","categorize-html","125","381191","0.0-6.0-1.0-8.0-1.8","3","4","4","3","3","3","3","3","4","4","4","4","4","4","4","4","4","4","4","4","1","1","2","1","2","2","2","1","1","0","1","0","0","1","0","0","0","0","0","0","1","0","1","0","4","1","3","2","2","4","4","3","2","1","724701248414023680","王","584","","","","","","","","","","","","","","","","","","","true","14","4","moral","703","self","自己","","","","","","","","","","","","","","",""
"null","","null","html-keyboard-response","126","381446","0.0-6.0-1.0-8.0-0.9","3","4","4","3","3","3","3","3","4","4","4","4","4","4","4","4","4","4","4","4","1","1","2","1","2","2","2","1","1","0","1","0","0","1","0","0","0","0","0","0","1","0","1","0","4","1","3","2","2","4","4","3","2","1","724701248414023680","王","584","","","","","","","","","","","","","","","","","","","","","","","","","","","","","","","","","","","","","","","",""
"802","<p style=""color:white; font-size: 35px;"">正直</p>","i","categorize-html","127","382252","0.0-6.0-1.0-8.0-1.9","3","4","4","3","3","3","3","3","4","4","4","4","4","4","4","4","4","4","4","4","1","1","2","1","2","2","2","1","1","0","1","0","0","1","0","0","0","0","0","0","1","0","1","0","4","1","3","2","2","4","4","3","2","1","724701248414023680","王","584","","","","","","","","","","","","","","","","","","","true","14","4","moral","802","positive","正直","","","","","","","","","","","","","","",""
"null","","null","html-keyboard-response","128","382510","0.0-6.0-1.0-8.0-0.10","3","4","4","3","3","3","3","3","4","4","4","4","4","4","4","4","4","4","4","4","1","1","2","1","2","2","2","1","1","0","1","0","0","1","0","0","0","0","0","0","1","0","1","0","4","1","3","2","2","4","4","3","2","1","724701248414023680","王","584","","","","","","","","","","","","","","","","","","","","","","","","","","","","","","","","","","","","","","","",""
"538","<p style=""color:rgb(150, 250, 100); font-size: 35px;"">别人</p>","e","categorize-html","129","383051","0.0-6.0-1.0-8.0-1.10","3","4","4","3","3","3","3","3","4","4","4","4","4","4","4","4","4","4","4","4","1","1","2","1","2","2","2","1","1","0","1","0","0","1","0","0","0","0","0","0","1","0","1","0","4","1","3","2","2","4","4","3","2","1","724701248414023680","王","584","","","","","","","","","","","","","","","","","","","true","14","4","moral","538","other","别人","","","","","","","","","","","","","","",""
"null","","null","html-keyboard-response","130","383310","0.0-6.0-1.0-8.0-0.11","3","4","4","3","3","3","3","3","4","4","4","4","4","4","4","4","4","4","4","4","1","1","2","1","2","2","2","1","1","0","1","0","0","1","0","0","0","0","0","0","1","0","1","0","4","1","3","2","2","4","4","3","2","1","724701248414023680","王","584","","","","","","","","","","","","","","","","","","","","","","","","","","","","","","","","","","","","","","","",""
"858","<p style=""color:white; font-size: 35px;"">黑心</p>","e","categorize-html","131","384171","0.0-6.0-1.0-8.0-1.11","3","4","4","3","3","3","3","3","4","4","4","4","4","4","4","4","4","4","4","4","1","1","2","1","2","2","2","1","1","0","1","0","0","1","0","0","0","0","0","0","1","0","1","0","4","1","3","2","2","4","4","3","2","1","724701248414023680","王","584","","","","","","","","","","","","","","","","","","","true","14","4","moral","858","negative","黑心","","","","","","","","","","","","","","",""
"null","","null","html-keyboard-response","132","384430","0.0-6.0-1.0-8.0-0.12","3","4","4","3","3","3","3","3","4","4","4","4","4","4","4","4","4","4","4","4","1","1","2","1","2","2","2","1","1","0","1","0","0","1","0","0","0","0","0","0","1","0","1","0","4","1","3","2","2","4","4","3","2","1","724701248414023680","王","584","","","","","","","","","","","","","","","","","","","","","","","","","","","","","","","","","","","","","","","",""
"1198","<p style=""color:rgb(150, 250, 100); font-size: 35px;"">我的</p>","i","categorize-html","133","385631","0.0-6.0-1.0-8.0-1.12","3","4","4","3","3","3","3","3","4","4","4","4","4","4","4","4","4","4","4","4","1","1","2","1","2","2","2","1","1","0","1","0","0","1","0","0","0","0","0","0","1","0","1","0","4","1","3","2","2","4","4","3","2","1","724701248414023680","王","584","","","","","","","","","","","","","","","","","","","true","14","4","moral","1198","self","我的","","","","","","","","","","","","","","",""
"null","","null","html-keyboard-response","134","385886","0.0-6.0-1.0-8.0-0.13","3","4","4","3","3","3","3","3","4","4","4","4","4","4","4","4","4","4","4","4","1","1","2","1","2","2","2","1","1","0","1","0","0","1","0","0","0","0","0","0","1","0","1","0","4","1","3","2","2","4","4","3","2","1","724701248414023680","王","584","","","","","","","","","","","","","","","","","","","","","","","","","","","","","","","","","","","","","","","",""
"762","<p style=""color:white; font-size: 35px;"">正直</p>","i","categorize-html","135","386651","0.0-6.0-1.0-8.0-1.13","3","4","4","3","3","3","3","3","4","4","4","4","4","4","4","4","4","4","4","4","1","1","2","1","2","2","2","1","1","0","1","0","0","1","0","0","0","0","0","0","1","0","1","0","4","1","3","2","2","4","4","3","2","1","724701248414023680","王","584","","","","","","","","","","","","","","","","","","","true","14","4","moral","762","positive","正直","","","","","","","","","","","","","","",""
"null","","null","html-keyboard-response","136","386910","0.0-6.0-1.0-8.0-0.14","3","4","4","3","3","3","3","3","4","4","4","4","4","4","4","4","4","4","4","4","1","1","2","1","2","2","2","1","1","0","1","0","0","1","0","0","0","0","0","0","1","0","1","0","4","1","3","2","2","4","4","3","2","1","724701248414023680","王","584","","","","","","","","","","","","","","","","","","","","","","","","","","","","","","","","","","","","","","","",""
"648","<p style=""color:rgb(150, 250, 100); font-size: 35px;"">他人的</p>","e","categorize-html","137","387561","0.0-6.0-1.0-8.0-1.14","3","4","4","3","3","3","3","3","4","4","4","4","4","4","4","4","4","4","4","4","1","1","2","1","2","2","2","1","1","0","1","0","0","1","0","0","0","0","0","0","1","0","1","0","4","1","3","2","2","4","4","3","2","1","724701248414023680","王","584","","","","","","","","","","","","","","","","","","","true","14","4","moral","648","other","他人的","","","","","","","","","","","","","","",""
"null","","null","html-keyboard-response","138","387815","0.0-6.0-1.0-8.0-0.15","3","4","4","3","3","3","3","3","4","4","4","4","4","4","4","4","4","4","4","4","1","1","2","1","2","2","2","1","1","0","1","0","0","1","0","0","0","0","0","0","1","0","1","0","4","1","3","2","2","4","4","3","2","1","724701248414023680","王","584","","","","","","","","","","","","","","","","","","","","","","","","","","","","","","","","","","","","","","","",""
"534","<p style=""color:white; font-size: 35px;"">卑鄙</p>","e","categorize-html","139","388351","0.0-6.0-1.0-8.0-1.15","3","4","4","3","3","3","3","3","4","4","4","4","4","4","4","4","4","4","4","4","1","1","2","1","2","2","2","1","1","0","1","0","0","1","0","0","0","0","0","0","1","0","1","0","4","1","3","2","2","4","4","3","2","1","724701248414023680","王","584","","","","","","","","","","","","","","","","","","","true","14","4","moral","534","negative","卑鄙","","","","","","","","","","","","","","",""
"null","","null","html-keyboard-response","140","388606","0.0-6.0-1.0-8.0-0.16","3","4","4","3","3","3","3","3","4","4","4","4","4","4","4","4","4","4","4","4","1","1","2","1","2","2","2","1","1","0","1","0","0","1","0","0","0","0","0","0","1","0","1","0","4","1","3","2","2","4","4","3","2","1","724701248414023680","王","584","","","","","","","","","","","","","","","","","","","","","","","","","","","","","","","","","","","","","","","",""
"592","<p style=""color:rgb(150, 250, 100); font-size: 35px;"">自己的</p>","i","categorize-html","141","389201","0.0-6.0-1.0-8.0-1.16","3","4","4","3","3","3","3","3","4","4","4","4","4","4","4","4","4","4","4","4","1","1","2","1","2","2","2","1","1","0","1","0","0","1","0","0","0","0","0","0","1","0","1","0","4","1","3","2","2","4","4","3","2","1","724701248414023680","王","584","","","","","","","","","","","","","","","","","","","true","14","4","moral","592","self","自己的","","","","","","","","","","","","","","",""
"null","","null","html-keyboard-response","142","389454","0.0-6.0-1.0-8.0-0.17","3","4","4","3","3","3","3","3","4","4","4","4","4","4","4","4","4","4","4","4","1","1","2","1","2","2","2","1","1","0","1","0","0","1","0","0","0","0","0","0","1","0","1","0","4","1","3","2","2","4","4","3","2","1","724701248414023680","王","584","","","","","","","","","","","","","","","","","","","","","","","","","","","","","","","","","","","","","","","",""
"684","<p style=""color:white; font-size: 35px;"">高尚</p>","i","categorize-html","143","390141","0.0-6.0-1.0-8.0-1.17","3","4","4","3","3","3","3","3","4","4","4","4","4","4","4","4","4","4","4","4","1","1","2","1","2","2","2","1","1","0","1","0","0","1","0","0","0","0","0","0","1","0","1","0","4","1","3","2","2","4","4","3","2","1","724701248414023680","王","584","","","","","","","","","","","","","","","","","","","true","14","4","moral","684","positive","高尚","","","","","","","","","","","","","","",""
"null","","null","html-keyboard-response","144","390398","0.0-6.0-1.0-8.0-0.18","3","4","4","3","3","3","3","3","4","4","4","4","4","4","4","4","4","4","4","4","1","1","2","1","2","2","2","1","1","0","1","0","0","1","0","0","0","0","0","0","1","0","1","0","4","1","3","2","2","4","4","3","2","1","724701248414023680","王","584","","","","","","","","","","","","","","","","","","","","","","","","","","","","","","","","","","","","","","","",""
"630","<p style=""color:rgb(150, 250, 100); font-size: 35px;"">他人</p>","e","categorize-html","145","391031","0.0-6.0-1.0-8.0-1.18","3","4","4","3","3","3","3","3","4","4","4","4","4","4","4","4","4","4","4","4","1","1","2","1","2","2","2","1","1","0","1","0","0","1","0","0","0","0","0","0","1","0","1","0","4","1","3","2","2","4","4","3","2","1","724701248414023680","王","584","","","","","","","","","","","","","","","","","","","true","14","4","moral","630","other","他人","","","","","","","","","","","","","","",""
"null","","null","html-keyboard-response","146","391286","0.0-6.0-1.0-8.0-0.19","3","4","4","3","3","3","3","3","4","4","4","4","4","4","4","4","4","4","4","4","1","1","2","1","2","2","2","1","1","0","1","0","0","1","0","0","0","0","0","0","1","0","1","0","4","1","3","2","2","4","4","3","2","1","724701248414023680","王","584","","","","","","","","","","","","","","","","","","","","","","","","","","","","","","","","","","","","","","","",""
"972","<p style=""color:white; font-size: 35px;"">小人</p>","e","categorize-html","147","392261","0.0-6.0-1.0-8.0-1.19","3","4","4","3","3","3","3","3","4","4","4","4","4","4","4","4","4","4","4","4","1","1","2","1","2","2","2","1","1","0","1","0","0","1","0","0","0","0","0","0","1","0","1","0","4","1","3","2","2","4","4","3","2","1","724701248414023680","王","584","","","","","","","","","","","","","","","","","","","true","14","4","moral","972","negative","小人","","","","","","","","","","","","","","",""
"null","","null","html-keyboard-response","148","392518","0.0-6.0-1.0-8.0-0.20","3","4","4","3","3","3","3","3","4","4","4","4","4","4","4","4","4","4","4","4","1","1","2","1","2","2","2","1","1","0","1","0","0","1","0","0","0","0","0","0","1","0","1","0","4","1","3","2","2","4","4","3","2","1","724701248414023680","王","584","","","","","","","","","","","","","","","","","","","","","","","","","","","","","","","","","","","","","","","",""
"630","<p style=""color:rgb(150, 250, 100); font-size: 35px;"">我的</p>","i","categorize-html","149","393151","0.0-6.0-1.0-8.0-1.20","3","4","4","3","3","3","3","3","4","4","4","4","4","4","4","4","4","4","4","4","1","1","2","1","2","2","2","1","1","0","1","0","0","1","0","0","0","0","0","0","1","0","1","0","4","1","3","2","2","4","4","3","2","1","724701248414023680","王","584","","","","","","","","","","","","","","","","","","","true","14","4","moral","630","self","我的","","","","","","","","","","","","","","",""
"null","","null","html-keyboard-response","150","393406","0.0-6.0-1.0-8.0-0.21","3","4","4","3","3","3","3","3","4","4","4","4","4","4","4","4","4","4","4","4","1","1","2","1","2","2","2","1","1","0","1","0","0","1","0","0","0","0","0","0","1","0","1","0","4","1","3","2","2","4","4","3","2","1","724701248414023680","王","584","","","","","","","","","","","","","","","","","","","","","","","","","","","","","","","","","","","","","","","",""
"1023","<p style=""color:white; font-size: 35px;"">不仁</p>","e","categorize-html","151","394431","0.0-6.0-1.0-8.0-1.21","3","4","4","3","3","3","3","3","4","4","4","4","4","4","4","4","4","4","4","4","1","1","2","1","2","2","2","1","1","0","1","0","0","1","0","0","0","0","0","0","1","0","1","0","4","1","3","2","2","4","4","3","2","1","724701248414023680","王","584","","","","","","","","","","","","","","","","","","","true","14","4","moral","1023","negative","不仁","","","","","","","","","","","","","","",""
"null","","null","html-keyboard-response","152","394686","0.0-6.0-1.0-8.0-0.22","3","4","4","3","3","3","3","3","4","4","4","4","4","4","4","4","4","4","4","4","1","1","2","1","2","2","2","1","1","0","1","0","0","1","0","0","0","0","0","0","1","0","1","0","4","1","3","2","2","4","4","3","2","1","724701248414023680","王","584","","","","","","","","","","","","","","","","","","","","","","","","","","","","","","","","","","","","","","","",""
"682","<p style=""color:rgb(150, 250, 100); font-size: 35px;"">他的</p>","e","categorize-html","153","395371","0.0-6.0-1.0-8.0-1.22","3","4","4","3","3","3","3","3","4","4","4","4","4","4","4","4","4","4","4","4","1","1","2","1","2","2","2","1","1","0","1","0","0","1","0","0","0","0","0","0","1","0","1","0","4","1","3","2","2","4","4","3","2","1","724701248414023680","王","584","","","","","","","","","","","","","","","","","","","true","14","4","moral","682","other","他的","","","","","","","","","","","","","","",""
"null","","null","html-keyboard-response","154","395630","0.0-6.0-1.0-8.0-0.23","3","4","4","3","3","3","3","3","4","4","4","4","4","4","4","4","4","4","4","4","1","1","2","1","2","2","2","1","1","0","1","0","0","1","0","0","0","0","0","0","1","0","1","0","4","1","3","2","2","4","4","3","2","1","724701248414023680","王","584","","","","","","","","","","","","","","","","","","","","","","","","","","","","","","","","","","","","","","","",""
"669","<p style=""color:white; font-size: 35px;"">君子</p>","i","categorize-html","155","396301","0.0-6.0-1.0-8.0-1.23","3","4","4","3","3","3","3","3","4","4","4","4","4","4","4","4","4","4","4","4","1","1","2","1","2","2","2","1","1","0","1","0","0","1","0","0","0","0","0","0","1","0","1","0","4","1","3","2","2","4","4","3","2","1","724701248414023680","王","584","","","","","","","","","","","","","","","","","","","true","14","4","moral","669","positive","君子","","","","","","","","","","","","","","",""
"null","","null","html-keyboard-response","156","396558","0.0-6.0-1.0-8.0-0.24","3","4","4","3","3","3","3","3","4","4","4","4","4","4","4","4","4","4","4","4","1","1","2","1","2","2","2","1","1","0","1","0","0","1","0","0","0","0","0","0","1","0","1","0","4","1","3","2","2","4","4","3","2","1","724701248414023680","王","584","","","","","","","","","","","","","","","","","","","","","","","","","","","","","","","","","","","","","","","",""
"630","<p style=""color:rgb(150, 250, 100); font-size: 35px;"">他的</p>","e","categorize-html","157","397191","0.0-6.0-1.0-8.0-1.24","3","4","4","3","3","3","3","3","4","4","4","4","4","4","4","4","4","4","4","4","1","1","2","1","2","2","2","1","1","0","1","0","0","1","0","0","0","0","0","0","1","0","1","0","4","1","3","2","2","4","4","3","2","1","724701248414023680","王","584","","","","","","","","","","","","","","","","","","","true","14","4","moral","630","other","他的","","","","","","","","","","","","","","",""
"null","","null","html-keyboard-response","158","397446","0.0-6.0-1.0-8.0-0.25","3","4","4","3","3","3","3","3","4","4","4","4","4","4","4","4","4","4","4","4","1","1","2","1","2","2","2","1","1","0","1","0","0","1","0","0","0","0","0","0","1","0","1","0","4","1","3","2","2","4","4","3","2","1","724701248414023680","王","584","","","","","","","","","","","","","","","","","","","","","","","","","","","","","","","","","","","","","","","",""
"892","<p style=""color:white; font-size: 35px;"">不孝</p>","e","categorize-html","159","398341","0.0-6.0-1.0-8.0-1.25","3","4","4","3","3","3","3","3","4","4","4","4","4","4","4","4","4","4","4","4","1","1","2","1","2","2","2","1","1","0","1","0","0","1","0","0","0","0","0","0","1","0","1","0","4","1","3","2","2","4","4","3","2","1","724701248414023680","王","584","","","","","","","","","","","","","","","","","","","true","14","4","moral","892","negative","不孝","","","","","","","","","","","","","","",""
"null","","null","html-keyboard-response","160","398598","0.0-6.0-1.0-8.0-0.26","3","4","4","3","3","3","3","3","4","4","4","4","4","4","4","4","4","4","4","4","1","1","2","1","2","2","2","1","1","0","1","0","0","1","0","0","0","0","0","0","1","0","1","0","4","1","3","2","2","4","4","3","2","1","724701248414023680","王","584","","","","","","","","","","","","","","","","","","","","","","","","","","","","","","","","","","","","","","","",""
"591","<p style=""color:rgb(150, 250, 100); font-size: 35px;"">我</p>","i","categorize-html","161","399191","0.0-6.0-1.0-8.0-1.26","3","4","4","3","3","3","3","3","4","4","4","4","4","4","4","4","4","4","4","4","1","1","2","1","2","2","2","1","1","0","1","0","0","1","0","0","0","0","0","0","1","0","1","0","4","1","3","2","2","4","4","3","2","1","724701248414023680","王","584","","","","","","","","","","","","","","","","","","","true","14","4","moral","591","self","我","","","","","","","","","","","","","","",""
"null","","null","html-keyboard-response","162","399446","0.0-6.0-1.0-8.0-0.27","3","4","4","3","3","3","3","3","4","4","4","4","4","4","4","4","4","4","4","4","1","1","2","1","2","2","2","1","1","0","1","0","0","1","0","0","0","0","0","0","1","0","1","0","4","1","3","2","2","4","4","3","2","1","724701248414023680","王","584","","","","","","","","","","","","","","","","","","","","","","","","","","","","","","","","","","","","","","","",""
"652","<p style=""color:white; font-size: 35px;"">诚信</p>","i","categorize-html","163","400101","0.0-6.0-1.0-8.0-1.27","3","4","4","3","3","3","3","3","4","4","4","4","4","4","4","4","4","4","4","4","1","1","2","1","2","2","2","1","1","0","1","0","0","1","0","0","0","0","0","0","1","0","1","0","4","1","3","2","2","4","4","3","2","1","724701248414023680","王","584","","","","","","","","","","","","","","","","","","","true","14","4","moral","652","positive","诚信","","","","","","","","","","","","","","",""
"null","","null","html-keyboard-response","164","400358","0.0-6.0-1.0-8.0-0.28","3","4","4","3","3","3","3","3","4","4","4","4","4","4","4","4","4","4","4","4","1","1","2","1","2","2","2","1","1","0","1","0","0","1","0","0","0","0","0","0","1","0","1","0","4","1","3","2","2","4","4","3","2","1","724701248414023680","王","584","","","","","","","","","","","","","","","","","","","","","","","","","","","","","","","","","","","","","","","",""
"680","<p style=""color:rgb(150, 250, 100); font-size: 35px;"">本人</p>","i","categorize-html","165","401041","0.0-6.0-1.0-8.0-1.28","3","4","4","3","3","3","3","3","4","4","4","4","4","4","4","4","4","4","4","4","1","1","2","1","2","2","2","1","1","0","1","0","0","1","0","0","0","0","0","0","1","0","1","0","4","1","3","2","2","4","4","3","2","1","724701248414023680","王","584","","","","","","","","","","","","","","","","","","","true","14","4","moral","680","self","本人","","","","","","","","","","","","","","",""
"null","","null","html-keyboard-response","166","401294","0.0-6.0-1.0-8.0-0.29","3","4","4","3","3","3","3","3","4","4","4","4","4","4","4","4","4","4","4","4","1","1","2","1","2","2","2","1","1","0","1","0","0","1","0","0","0","0","0","0","1","0","1","0","4","1","3","2","2","4","4","3","2","1","724701248414023680","王","584","","","","","","","","","","","","","","","","","","","","","","","","","","","","","","","","","","","","","","","",""
"1394","<p style=""color:white; font-size: 35px;"">不孝</p>","e","categorize-html","167","402691","0.0-6.0-1.0-8.0-1.29","3","4","4","3","3","3","3","3","4","4","4","4","4","4","4","4","4","4","4","4","1","1","2","1","2","2","2","1","1","0","1","0","0","1","0","0","0","0","0","0","1","0","1","0","4","1","3","2","2","4","4","3","2","1","724701248414023680","王","584","","","","","","","","","","","","","","","","","","","true","14","4","moral","1394","negative","不孝","","","","","","","","","","","","","","",""
"null","","null","html-keyboard-response","168","402950","0.0-6.0-1.0-8.0-0.30","3","4","4","3","3","3","3","3","4","4","4","4","4","4","4","4","4","4","4","4","1","1","2","1","2","2","2","1","1","0","1","0","0","1","0","0","0","0","0","0","1","0","1","0","4","1","3","2","2","4","4","3","2","1","724701248414023680","王","584","","","","","","","","","","","","","","","","","","","","","","","","","","","","","","","","","","","","","","","",""
"758","<p style=""color:rgb(150, 250, 100); font-size: 35px;"">他人</p>","e","categorize-html","169","403711","0.0-6.0-1.0-8.0-1.30","3","4","4","3","3","3","3","3","4","4","4","4","4","4","4","4","4","4","4","4","1","1","2","1","2","2","2","1","1","0","1","0","0","1","0","0","0","0","0","0","1","0","1","0","4","1","3","2","2","4","4","3","2","1","724701248414023680","王","584","","","","","","","","","","","","","","","","","","","true","14","4","moral","758","other","他人","","","","","","","","","","","","","","",""
"null","","null","html-keyboard-response","170","403966","0.0-6.0-1.0-8.0-0.31","3","4","4","3","3","3","3","3","4","4","4","4","4","4","4","4","4","4","4","4","1","1","2","1","2","2","2","1","1","0","1","0","0","1","0","0","0","0","0","0","1","0","1","0","4","1","3","2","2","4","4","3","2","1","724701248414023680","王","584","","","","","","","","","","","","","","","","","","","","","","","","","","","","","","","","","","","","","","","",""
"592","<p style=""color:white; font-size: 35px;"">君子</p>","i","categorize-html","171","404561","0.0-6.0-1.0-8.0-1.31","3","4","4","3","3","3","3","3","4","4","4","4","4","4","4","4","4","4","4","4","1","1","2","1","2","2","2","1","1","0","1","0","0","1","0","0","0","0","0","0","1","0","1","0","4","1","3","2","2","4","4","3","2","1","724701248414023680","王","584","","","","","","","","","","","","","","","","","","","true","14","4","moral","592","positive","君子","","","","","","","","","","","","","","",""
"null","","null","html-keyboard-response","172","404814","0.0-6.0-1.0-8.0-0.32","3","4","4","3","3","3","3","3","4","4","4","4","4","4","4","4","4","4","4","4","1","1","2","1","2","2","2","1","1","0","1","0","0","1","0","0","0","0","0","0","1","0","1","0","4","1","3","2","2","4","4","3","2","1","724701248414023680","王","584","","","","","","","","","","","","","","","","","","","","","","","","","","","","","","","","","","","","","","","",""
"614","<p style=""color:rgb(150, 250, 100); font-size: 35px;"">自己</p>","i","categorize-html","173","405431","0.0-6.0-1.0-8.0-1.32","3","4","4","3","3","3","3","3","4","4","4","4","4","4","4","4","4","4","4","4","1","1","2","1","2","2","2","1","1","0","1","0","0","1","0","0","0","0","0","0","1","0","1","0","4","1","3","2","2","4","4","3","2","1","724701248414023680","王","584","","","","","","","","","","","","","","","","","","","true","14","4","moral","614","self","自己","","","","","","","","","","","","","","",""
"null","","null","html-keyboard-response","174","405686","0.0-6.0-1.0-8.0-0.33","3","4","4","3","3","3","3","3","4","4","4","4","4","4","4","4","4","4","4","4","1","1","2","1","2","2","2","1","1","0","1","0","0","1","0","0","0","0","0","0","1","0","1","0","4","1","3","2","2","4","4","3","2","1","724701248414023680","王","584","","","","","","","","","","","","","","","","","","","","","","","","","","","","","","","","","","","","","","","",""
"582","<p style=""color:white; font-size: 35px;"">缺德</p>","e","categorize-html","175","406271","0.0-6.0-1.0-8.0-1.33","3","4","4","3","3","3","3","3","4","4","4","4","4","4","4","4","4","4","4","4","1","1","2","1","2","2","2","1","1","0","1","0","0","1","0","0","0","0","0","0","1","0","1","0","4","1","3","2","2","4","4","3","2","1","724701248414023680","王","584","","","","","","","","","","","","","","","","","","","true","14","4","moral","582","negative","缺德","","","","","","","","","","","","","","",""
"null","","null","html-keyboard-response","176","406526","0.0-6.0-1.0-8.0-0.34","3","4","4","3","3","3","3","3","4","4","4","4","4","4","4","4","4","4","4","4","1","1","2","1","2","2","2","1","1","0","1","0","0","1","0","0","0","0","0","0","1","0","1","0","4","1","3","2","2","4","4","3","2","1","724701248414023680","王","584","","","","","","","","","","","","","","","","","","","","","","","","","","","","","","","","","","","","","","","",""
"902","<p style=""color:rgb(150, 250, 100); font-size: 35px;"">他</p>","e","categorize-html","177","407431","0.0-6.0-1.0-8.0-1.34","3","4","4","3","3","3","3","3","4","4","4","4","4","4","4","4","4","4","4","4","1","1","2","1","2","2","2","1","1","0","1","0","0","1","0","0","0","0","0","0","1","0","1","0","4","1","3","2","2","4","4","3","2","1","724701248414023680","王","584","","","","","","","","","","","","","","","","","","","true","14","4","moral","902","other","他","","","","","","","","","","","","","","",""
"null","","null","html-keyboard-response","178","407686","0.0-6.0-1.0-8.0-0.35","3","4","4","3","3","3","3","3","4","4","4","4","4","4","4","4","4","4","4","4","1","1","2","1","2","2","2","1","1","0","1","0","0","1","0","0","0","0","0","0","1","0","1","0","4","1","3","2","2","4","4","3","2","1","724701248414023680","王","584","","","","","","","","","","","","","","","","","","","","","","","","","","","","","","","","","","","","","","","",""
"802","<p style=""color:white; font-size: 35px;"">善良</p>","i","categorize-html","179","408491","0.0-6.0-1.0-8.0-1.35","3","4","4","3","3","3","3","3","4","4","4","4","4","4","4","4","4","4","4","4","1","1","2","1","2","2","2","1","1","0","1","0","0","1","0","0","0","0","0","0","1","0","1","0","4","1","3","2","2","4","4","3","2","1","724701248414023680","王","584","","","","","","","","","","","","","","","","","","","true","14","4","moral","802","positive","善良","","","","","","","","","","","","","","",""
"null","","null","html-keyboard-response","180","408742","0.0-6.0-1.0-8.0-0.36","3","4","4","3","3","3","3","3","4","4","4","4","4","4","4","4","4","4","4","4","1","1","2","1","2","2","2","1","1","0","1","0","0","1","0","0","0","0","0","0","1","0","1","0","4","1","3","2","2","4","4","3","2","1","724701248414023680","王","584","","","","","","","","","","","","","","","","","","","","","","","","","","","","","","","","","","","","","","","",""
"626","<p style=""color:rgb(150, 250, 100); font-size: 35px;"">自己的</p>","i","categorize-html","181","409371","0.0-6.0-1.0-8.0-1.36","3","4","4","3","3","3","3","3","4","4","4","4","4","4","4","4","4","4","4","4","1","1","2","1","2","2","2","1","1","0","1","0","0","1","0","0","0","0","0","0","1","0","1","0","4","1","3","2","2","4","4","3","2","1","724701248414023680","王","584","","","","","","","","","","","","","","","","","","","true","14","4","moral","626","self","自己的","","","","","","","","","","","","","","",""
"null","","null","html-keyboard-response","182","409630","0.0-6.0-1.0-8.0-0.37","3","4","4","3","3","3","3","3","4","4","4","4","4","4","4","4","4","4","4","4","1","1","2","1","2","2","2","1","1","0","1","0","0","1","0","0","0","0","0","0","1","0","1","0","4","1","3","2","2","4","4","3","2","1","724701248414023680","王","584","","","","","","","","","","","","","","","","","","","","","","","","","","","","","","","","","","","","","","","",""
"608","<p style=""color:white; font-size: 35px;"">小人</p>","e","categorize-html","183","410241","0.0-6.0-1.0-8.0-1.37","3","4","4","3","3","3","3","3","4","4","4","4","4","4","4","4","4","4","4","4","1","1","2","1","2","2","2","1","1","0","1","0","0","1","0","0","0","0","0","0","1","0","1","0","4","1","3","2","2","4","4","3","2","1","724701248414023680","王","584","","","","","","","","","","","","","","","","","","","true","14","4","moral","608","negative","小人","","","","","","","","","","","","","","",""
"null","","null","html-keyboard-response","184","410494","0.0-6.0-1.0-8.0-0.38","3","4","4","3","3","3","3","3","4","4","4","4","4","4","4","4","4","4","4","4","1","1","2","1","2","2","2","1","1","0","1","0","0","1","0","0","0","0","0","0","1","0","1","0","4","1","3","2","2","4","4","3","2","1","724701248414023680","王","584","","","","","","","","","","","","","","","","","","","","","","","","","","","","","","","","","","","","","","","",""
"654","<p style=""color:rgb(150, 250, 100); font-size: 35px;"">别人</p>","e","categorize-html","185","411151","0.0-6.0-1.0-8.0-1.38","3","4","4","3","3","3","3","3","4","4","4","4","4","4","4","4","4","4","4","4","1","1","2","1","2","2","2","1","1","0","1","0","0","1","0","0","0","0","0","0","1","0","1","0","4","1","3","2","2","4","4","3","2","1","724701248414023680","王","584","","","","","","","","","","","","","","","","","","","true","14","4","moral","654","other","别人","","","","","","","","","","","","","","",""
"null","","null","html-keyboard-response","186","411406","0.0-6.0-1.0-8.0-0.39","3","4","4","3","3","3","3","3","4","4","4","4","4","4","4","4","4","4","4","4","1","1","2","1","2","2","2","1","1","0","1","0","0","1","0","0","0","0","0","0","1","0","1","0","4","1","3","2","2","4","4","3","2","1","724701248414023680","王","584","","","","","","","","","","","","","","","","","","","","","","","","","","","","","","","","","","","","","","","",""
"672","<p style=""color:white; font-size: 35px;"">廉正</p>","i","categorize-html","187","412081","0.0-6.0-1.0-8.0-1.39","3","4","4","3","3","3","3","3","4","4","4","4","4","4","4","4","4","4","4","4","1","1","2","1","2","2","2","1","1","0","1","0","0","1","0","0","0","0","0","0","1","0","1","0","4","1","3","2","2","4","4","3","2","1","724701248414023680","王","584","","","","","","","","","","","","","","","","","","","true","14","4","moral","672","positive","廉正","","","","","","","","","","","","","","",""
"null","","null","html-keyboard-response","188","412334","0.0-6.0-1.0-8.0-0.40","3","4","4","3","3","3","3","3","4","4","4","4","4","4","4","4","4","4","4","4","1","1","2","1","2","2","2","1","1","0","1","0","0","1","0","0","0","0","0","0","1","0","1","0","4","1","3","2","2","4","4","3","2","1","724701248414023680","王","584","","","","","","","","","","","","","","","","","","","","","","","","","","","","","","","","","","","","","","","",""
"734","<p style=""color:rgb(150, 250, 100); font-size: 35px;"">本人的</p>","i","categorize-html","189","413071","0.0-6.0-1.0-8.0-1.40","3","4","4","3","3","3","3","3","4","4","4","4","4","4","4","4","4","4","4","4","1","1","2","1","2","2","2","1","1","0","1","0","0","1","0","0","0","0","0","0","1","0","1","0","4","1","3","2","2","4","4","3","2","1","724701248414023680","王","584","","","","","","","","","","","","","","","","","","","true","14","4","moral","734","self","本人的","","","","","","","","","","","","","","",""
"null","","null","html-keyboard-response","190","413326","0.0-6.0-1.0-8.0-0.41","3","4","4","3","3","3","3","3","4","4","4","4","4","4","4","4","4","4","4","4","1","1","2","1","2","2","2","1","1","0","1","0","0","1","0","0","0","0","0","0","1","0","1","0","4","1","3","2","2","4","4","3","2","1","724701248414023680","王","584","","","","","","","","","","","","","","","","","","","","","","","","","","","","","","","","","","","","","","","",""
"572","<p style=""color:white; font-size: 35px;"">诚信</p>","i","categorize-html","191","413901","0.0-6.0-1.0-8.0-1.41","3","4","4","3","3","3","3","3","4","4","4","4","4","4","4","4","4","4","4","4","1","1","2","1","2","2","2","1","1","0","1","0","0","1","0","0","0","0","0","0","1","0","1","0","4","1","3","2","2","4","4","3","2","1","724701248414023680","王","584","","","","","","","","","","","","","","","","","","","true","14","4","moral","572","positive","诚信","","","","","","","","","","","","","","",""
"null","","null","html-keyboard-response","192","414158","0.0-6.0-1.0-8.0-0.42","3","4","4","3","3","3","3","3","4","4","4","4","4","4","4","4","4","4","4","4","1","1","2","1","2","2","2","1","1","0","1","0","0","1","0","0","0","0","0","0","1","0","1","0","4","1","3","2","2","4","4","3","2","1","724701248414023680","王","584","","","","","","","","","","","","","","","","","","","","","","","","","","","","","","","","","","","","","","","",""
"710","<p style=""color:rgb(150, 250, 100); font-size: 35px;"">他人的</p>","e","categorize-html","193","414871","0.0-6.0-1.0-8.0-1.42","3","4","4","3","3","3","3","3","4","4","4","4","4","4","4","4","4","4","4","4","1","1","2","1","2","2","2","1","1","0","1","0","0","1","0","0","0","0","0","0","1","0","1","0","4","1","3","2","2","4","4","3","2","1","724701248414023680","王","584","","","","","","","","","","","","","","","","","","","true","14","4","moral","710","other","他人的","","","","","","","","","","","","","","",""
"null","","null","html-keyboard-response","194","415127","0.0-6.0-1.0-8.0-0.43","3","4","4","3","3","3","3","3","4","4","4","4","4","4","4","4","4","4","4","4","1","1","2","1","2","2","2","1","1","0","1","0","0","1","0","0","0","0","0","0","1","0","1","0","4","1","3","2","2","4","4","3","2","1","724701248414023680","王","584","","","","","","","","","","","","","","","","","","","","","","","","","","","","","","","","","","","","","","","",""
"631","<p style=""color:white; font-size: 35px;"">不仁</p>","e","categorize-html","195","415761","0.0-6.0-1.0-8.0-1.43","3","4","4","3","3","3","3","3","4","4","4","4","4","4","4","4","4","4","4","4","1","1","2","1","2","2","2","1","1","0","1","0","0","1","0","0","0","0","0","0","1","0","1","0","4","1","3","2","2","4","4","3","2","1","724701248414023680","王","584","","","","","","","","","","","","","","","","","","","true","14","4","moral","631","negative","不仁","","","","","","","","","","","","","","",""
"null","","null","html-keyboard-response","196","416014","0.0-6.0-1.0-8.0-0.44","3","4","4","3","3","3","3","3","4","4","4","4","4","4","4","4","4","4","4","4","1","1","2","1","2","2","2","1","1","0","1","0","0","1","0","0","0","0","0","0","1","0","1","0","4","1","3","2","2","4","4","3","2","1","724701248414023680","王","584","","","","","","","","","","","","","","","","","","","","","","","","","","","","","","","","","","","","","","","",""
"674","<p style=""color:rgb(150, 250, 100); font-size: 35px;"">本人的</p>","i","categorize-html","197","416691","0.0-6.0-1.0-8.0-1.44","3","4","4","3","3","3","3","3","4","4","4","4","4","4","4","4","4","4","4","4","1","1","2","1","2","2","2","1","1","0","1","0","0","1","0","0","0","0","0","0","1","0","1","0","4","1","3","2","2","4","4","3","2","1","724701248414023680","王","584","","","","","","","","","","","","","","","","","","","true","14","4","moral","674","self","本人的","","","","","","","","","","","","","","",""
