"rt","stimulus","response","trial_type","trial_index","time_elapsed","internal_node_id","ses_1","ses_2","ses_3","ses_4","ses_5","ses_6","ses_7","ses_8","ses_9","ses_10","coreself_1","coreself_2","coreself_3","coreself_4","coreself_5","coreself_6","coreself_7","coreself_8","coreself_9","coreself_10","SGPS_1","SGPS_2","SGPS_3","SGPS_4","SGPS_5","SGPS_6","SGPS_7","SGPS_8","SGPS_9","NPI1","NPI2","NPI3","NPI4","NPI5","NPI6","NPI7","NPI8","NPI9","NPI10","NPI11","NPI12","NPI13","NPI14","NPI15","hsns_1","hsns_2","hsns_3","hsns_4","hsns_5","hsns_6","hsns_7","hsns_8","hsns_9","hsns_10","subj_idx","friend_name","ParticipantID","value","success","user_agent","responses","item_order","radio_event_ids","radio_event_times","key_event_times","mouse_event_times","straightlining","zigzagging","honeypot","timeout","failed_images","failed_audio","failed_video","version_attrib","version_target","correct","IAT","screen_id","task_id","RT","condition","word","varname","summary","version_attrib2","version_target2","time_stamp","view_history","response_type","key_press","avg_frame_time","center_x","center_y","correct_response","identity","Image","question_order"
"2213","
   <p><div style = ""color: white;font-size:25px;"">您好，欢迎参加本次实验。</div> </p>
   <p><div style = ""color: white;font-size:25px;"">为充分保障您的权利，请确保您已经知晓并同意《参与实验同意书》以及《数据公开知情同意书》。</div></p>
   <p><div style = ""color: white;font-size:25px;"">如果您未见过上述内容，请咨询实验员。</div></p>
   <p><div style = ""color: white;font-size:25px;"">如果您选择继续实验，则表示您已经清楚两份知情同意书的内容并同意。</div></p>
   <p><div style = ""color: red;font-size:30px;"">请确保您记得day0的实验编号，您将在本次实验输入该编号，若您忘记，请咨询实验员后作答。</div></p>
   <p> <div style = ""color: green;font-size:25px;""><按空格键至下页></div> </p>
   "," ","html-keyboard-response","0","2217","0.0-0.0","3","4","4","3","3","3","3","1","3","4","5","4","2","4","4","5","5","4","4","4","4","4","4","5","4","4","4","5","4","1","0","1","1","0","1","1","0","1","1","1","0","1","0","1","5","2","4","2","5","4","4","4","5","4","763807579603472386","刘","403","","","","","","","","","","","","","","","","","","","","","","","","","","","","","","","","","","","","","","","",""
"","","","call-function","1","2220","0.0-1.0-0.0","3","4","4","3","3","3","3","1","3","4","5","4","2","4","4","5","5","4","4","4","4","4","4","5","4","4","4","5","4","1","0","1","1","0","1","1","0","1","1","1","0","1","0","1","5","2","4","2","5","4","4","4","5","4","763807579603472386","刘","403","","","","","","","","","","","","","","","","","","","","","","","","","","","","","","","","","","","","","","","",""
"35144","","{""friend_name"":""刘"",""ParticipantID"":""403""}","survey-html-form","2","37366","0.0-1.0-1.0","3","4","4","3","3","3","3","1","3","4","5","4","2","4","4","5","5","4","4","4","4","4","4","5","4","4","4","5","4","1","0","1","1","0","1","1","0","1","1","1","0","1","0","1","5","2","4","2","5","4","4","4","5","4","763807579603472386","刘","403","","","","","","","","","","","","","","","","","","","","","","","","","","","","","","","","","","","","","","","",""
"","","","fullscreen","3","53347","0.0-2.0","3","4","4","3","3","3","3","1","3","4","5","4","2","4","4","5","5","4","4","4","4","4","4","5","4","4","4","5","4","1","0","1","1","0","1","1","0","1","1","1","0","1","0","1","5","2","4","2","5","4","4","4","5","4","763807579603472386","刘","403","","true","{}","","","","","","","","","","","","","","","","","","","","","","","","","","","","","","","","","","","","",""
"69207.19999992847","","{""Q01"":""3"",""Q02"":""4"",""Q03"":""4"",""Q04"":""3"",""Q05"":""3"",""Q06"":""3"",""Q07"":""3"",""Q08"":""1"",""Q09"":""3"",""Q10"":""4""}","survey-template","4","122560","0.0-3.0","3","4","4","3","3","3","3","1","3","4","5","4","2","4","4","5","5","4","4","4","4","4","4","5","4","4","4","5","4","1","0","1","1","0","1","1","0","1","1","1","0","1","0","1","5","2","4","2","5","4","4","4","5","4","763807579603472386","刘","403","","","","{""Q01"":""3"",""Q02"":""4"",""Q03"":""4"",""Q04"":""3"",""Q05"":""3"",""Q06"":""3"",""Q07"":""3"",""Q08"":""1"",""Q09"":""3"",""Q10"":""4""}","[0,1,2,3,4,5,6,7,8,9]","[""Q01"",""Q02"",""Q03"",""Q03"",""Q04"",""Q05"",""Q06"",""Q07"",""Q07"",""Q08"",""Q09"",""Q10""]","[53233.39999997616,55468.799999952316,57133.10000002384,57205.10000002384,58101,59541.699999928474,60735.299999952316,61764.60000002384,63165.60000002384,65294.60000002384,66781.29999995232,68015.60000002384]","[]","[53233.39999997616,55468.799999952316,57133.10000002384,57205.10000002384,58101,59541.699999928474,60324.699999928474,60735.299999952316,61764.60000002384,63165.60000002384,64724.60000002384,65294.60000002384,66781.29999995232,67549.69999992847,68015.60000002384,69204.89999997616]","0.4","0.6666666666666666","0","","","","","","","","","","","","","","","","","","","","","","","","","","","",""
"35439.699999928474","","{""Q01"":""5"",""Q02"":""4"",""Q03"":""2"",""Q04"":""4"",""Q05"":""4"",""Q06"":""5"",""Q07"":""5"",""Q08"":""4"",""Q09"":""4"",""Q10"":""4""}","survey-template","5","158009","0.0-4.0","3","4","4","3","3","3","3","1","3","4","5","4","2","4","4","5","5","4","4","4","4","4","4","5","4","4","4","5","4","1","0","1","1","0","1","1","0","1","1","1","0","1","0","1","5","2","4","2","5","4","4","4","5","4","763807579603472386","刘","403","","","","{""Q01"":""5"",""Q02"":""4"",""Q03"":""2"",""Q04"":""4"",""Q05"":""4"",""Q06"":""5"",""Q07"":""5"",""Q08"":""4"",""Q09"":""4"",""Q10"":""4""}","[0,1,2,3,4,5,6,7,8,9]","[""Q01"",""Q02"",""Q03"",""Q04"",""Q05"",""Q06"",""Q07"",""Q08"",""Q08"",""Q09"",""Q10""]","[18284,19044.899999976158,22006.100000023842,23092.799999952316,24876.899999976158,26254.100000023842,28700.399999976158,29816.799999952316,29891.899999976158,31533.600000023842,33388.799999952316]","[]","[17884.199999928474,18284,19044.899999976158,21524.600000023842,22006.100000023842,23092.799999952316,24876.899999976158,26254.100000023842,28188.299999952316,28700.399999976158,29816.799999952316,29891.899999976158,31533.600000023842,33388.799999952316,35437.799999952316]","0.4","0.2222222222222222","0","","","","","","","","","","","","","","","","","","","","","","","","","","","",""
"","","","preload","6","158670","0.0-5.0","3","4","4","3","3","3","3","1","3","4","5","4","2","4","4","5","5","4","4","4","4","4","4","5","4","4","4","5","4","1","0","1","1","0","1","1","0","1","1","1","0","1","0","1","5","2","4","2","5","4","4","4","5","4","763807579603472386","刘","403","","true","","","","","","","","","","","false","[]","[]","[]","","","","","","","","","","","","","","","","","","","","","","","",""
"30885","
    <h3>词语分类任务</h3>
    <p>在接下来的任务中，你需要对一系列词语进行分类。</p>
    <p>请先熟悉这些词语，这有利于你完成接下来的任务。</p>
    <table align=""center"" border=1 cellpadding=3 cellspacing=0>
    <tr> <th>类别</th> <th>词语</th> </tr>
    <tr> <td>&emsp;积极&emsp;</td> <td>&emsp;能干、全能、全才、高效、精干、天才&emsp;</td> </tr>
    <tr> <td>&emsp;消极&emsp;</td> <td>&emsp;无能、低能、废物、拙笨、愚钝、蠢笨&emsp;</td> </tr>
    <tr> <td>&emsp;自我&emsp;</td> <td>&emsp;我、我的、自己、自己的、本人、本人的&emsp;</td> </tr>
    <tr> <td>&emsp;他人&emsp;</td> <td>&emsp;他、他的、别人、别人的、他人、他人的&emsp;</td> </tr>
    </table><br/>","0","html-button-response","7","189556","0.0-6.0-0.0-0.0","3","4","4","3","3","3","3","1","3","4","5","4","2","4","4","5","5","4","4","4","4","4","4","5","4","4","4","5","4","1","0","1","1","0","1","1","0","1","1","1","0","1","0","1","5","2","4","2","5","4","4","4","5","4","763807579603472386","刘","403","","","","","","","","","","","","","","","","","2","1","","","","","","","","","","","","","","","","","","","","","",""
"327226","
    <div class=""tag-bottom"">
    <p> —— 任务1：对“自我”词和“他人”词分类 ——<p/>
    不同词语会出现在屏幕中央，类别标签将始终显示在屏幕上方<p/>   
    <span style=""color:#FFD866""><b>请根据上方标签的提示，尽可能正确并且快速地做出按键反应</b></span><p/>
    当按键错误时屏幕中会出现<span style=""color:red""> X </span>，需要按另一个键纠正才能继续<br/><p/>
    请把双手食指分别放在键盘的“E”键和“I”键上<p/>
    按<空格键>开始
    </p></div>"," ","html-keyboard-response","8","516788","0.0-6.0-0.0-1.0","3","4","4","3","3","3","3","1","3","4","5","4","2","4","4","5","5","4","4","4","4","4","4","5","4","4","4","5","4","1","0","1","1","0","1","1","0","1","1","1","0","1","0","1","5","2","4","2","5","4","4","4","5","4","763807579603472386","刘","403","","","","","","","","","","","","","","","","","","","","","","","","","","","","","","","","","","","","","","","",""
"null","","null","html-keyboard-response","9","517041","0.0-6.0-0.0-2.0-0.0","3","4","4","3","3","3","3","1","3","4","5","4","2","4","4","5","5","4","4","4","4","4","4","5","4","4","4","5","4","1","0","1","1","0","1","1","0","1","1","1","0","1","0","1","5","2","4","2","5","4","4","4","5","4","763807579603472386","刘","403","","","","","","","","","","","","","","","","","","","","","","","","","","","","","","","","","","","","","","","",""
"659","<p style=""color:rgb(150, 250, 100); font-size: 35px;"">我</p>","e","categorize-html","10","517709","0.0-6.0-0.0-2.0-1.0","3","4","4","3","3","3","3","1","3","4","5","4","2","4","4","5","5","4","4","4","4","4","4","5","4","4","4","5","4","1","0","1","1","0","1","1","0","1","1","1","0","1","0","1","5","2","4","2","5","4","4","4","5","4","763807579603472386","刘","403","","","","","","","","","","","","","","","","","","","true","1","1","ability","659","self","我","","","","","","","","","","","","","","",""
"null","","null","html-keyboard-response","11","517967","0.0-6.0-0.0-2.0-0.1","3","4","4","3","3","3","3","1","3","4","5","4","2","4","4","5","5","4","4","4","4","4","4","5","4","4","4","5","4","1","0","1","1","0","1","1","0","1","1","1","0","1","0","1","5","2","4","2","5","4","4","4","5","4","763807579603472386","刘","403","","","","","","","","","","","","","","","","","","","","","","","","","","","","","","","","","","","","","","","",""
"780","<p style=""color:rgb(150, 250, 100); font-size: 35px;"">自己的</p>","e","categorize-html","12","518748","0.0-6.0-0.0-2.0-1.1","3","4","4","3","3","3","3","1","3","4","5","4","2","4","4","5","5","4","4","4","4","4","4","5","4","4","4","5","4","1","0","1","1","0","1","1","0","1","1","1","0","1","0","1","5","2","4","2","5","4","4","4","5","4","763807579603472386","刘","403","","","","","","","","","","","","","","","","","","","true","1","1","ability","780","self","自己的","","","","","","","","","","","","","","",""
"null","","null","html-keyboard-response","13","519000","0.0-6.0-0.0-2.0-0.2","3","4","4","3","3","3","3","1","3","4","5","4","2","4","4","5","5","4","4","4","4","4","4","5","4","4","4","5","4","1","0","1","1","0","1","1","0","1","1","1","0","1","0","1","5","2","4","2","5","4","4","4","5","4","763807579603472386","刘","403","","","","","","","","","","","","","","","","","","","","","","","","","","","","","","","","","","","","","","","",""
"574","<p style=""color:rgb(150, 250, 100); font-size: 35px;"">本人</p>","i","categorize-html","14","520076","0.0-6.0-0.0-2.0-1.2","3","4","4","3","3","3","3","1","3","4","5","4","2","4","4","5","5","4","4","4","4","4","4","5","4","4","4","5","4","1","0","1","1","0","1","1","0","1","1","1","0","1","0","1","5","2","4","2","5","4","4","4","5","4","763807579603472386","刘","403","","","","","","","","","","","","","","","","","","","false","1","1","ability","574","self","本人","","","","","","","","","","","","","","",""
"null","","null","html-keyboard-response","15","520331","0.0-6.0-0.0-2.0-0.3","3","4","4","3","3","3","3","1","3","4","5","4","2","4","4","5","5","4","4","4","4","4","4","5","4","4","4","5","4","1","0","1","1","0","1","1","0","1","1","1","0","1","0","1","5","2","4","2","5","4","4","4","5","4","763807579603472386","刘","403","","","","","","","","","","","","","","","","","","","","","","","","","","","","","","","","","","","","","","","",""
"575","<p style=""color:rgb(150, 250, 100); font-size: 35px;"">别人</p>","i","categorize-html","16","520910","0.0-6.0-0.0-2.0-1.3","3","4","4","3","3","3","3","1","3","4","5","4","2","4","4","5","5","4","4","4","4","4","4","5","4","4","4","5","4","1","0","1","1","0","1","1","0","1","1","1","0","1","0","1","5","2","4","2","5","4","4","4","5","4","763807579603472386","刘","403","","","","","","","","","","","","","","","","","","","true","1","1","ability","575","other","别人","","","","","","","","","","","","","","",""
"null","","null","html-keyboard-response","17","521165","0.0-6.0-0.0-2.0-0.4","3","4","4","3","3","3","3","1","3","4","5","4","2","4","4","5","5","4","4","4","4","4","4","5","4","4","4","5","4","1","0","1","1","0","1","1","0","1","1","1","0","1","0","1","5","2","4","2","5","4","4","4","5","4","763807579603472386","刘","403","","","","","","","","","","","","","","","","","","","","","","","","","","","","","","","","","","","","","","","",""
"895","<p style=""color:rgb(150, 250, 100); font-size: 35px;"">他的</p>","i","categorize-html","18","522066","0.0-6.0-0.0-2.0-1.4","3","4","4","3","3","3","3","1","3","4","5","4","2","4","4","5","5","4","4","4","4","4","4","5","4","4","4","5","4","1","0","1","1","0","1","1","0","1","1","1","0","1","0","1","5","2","4","2","5","4","4","4","5","4","763807579603472386","刘","403","","","","","","","","","","","","","","","","","","","true","1","1","ability","895","other","他的","","","","","","","","","","","","","","",""
"null","","null","html-keyboard-response","19","522320","0.0-6.0-0.0-2.0-0.5","3","4","4","3","3","3","3","1","3","4","5","4","2","4","4","5","5","4","4","4","4","4","4","5","4","4","4","5","4","1","0","1","1","0","1","1","0","1","1","1","0","1","0","1","5","2","4","2","5","4","4","4","5","4","763807579603472386","刘","403","","","","","","","","","","","","","","","","","","","","","","","","","","","","","","","","","","","","","","","",""
"802","<p style=""color:rgb(150, 250, 100); font-size: 35px;"">自己</p>","e","categorize-html","20","523125","0.0-6.0-0.0-2.0-1.5","3","4","4","3","3","3","3","1","3","4","5","4","2","4","4","5","5","4","4","4","4","4","4","5","4","4","4","5","4","1","0","1","1","0","1","1","0","1","1","1","0","1","0","1","5","2","4","2","5","4","4","4","5","4","763807579603472386","刘","403","","","","","","","","","","","","","","","","","","","true","1","1","ability","802","self","自己","","","","","","","","","","","","","","",""
"null","","null","html-keyboard-response","21","523385","0.0-6.0-0.0-2.0-0.6","3","4","4","3","3","3","3","1","3","4","5","4","2","4","4","5","5","4","4","4","4","4","4","5","4","4","4","5","4","1","0","1","1","0","1","1","0","1","1","1","0","1","0","1","5","2","4","2","5","4","4","4","5","4","763807579603472386","刘","403","","","","","","","","","","","","","","","","","","","","","","","","","","","","","","","","","","","","","","","",""
"652","<p style=""color:rgb(150, 250, 100); font-size: 35px;"">本人的</p>","e","categorize-html","22","524042","0.0-6.0-0.0-2.0-1.6","3","4","4","3","3","3","3","1","3","4","5","4","2","4","4","5","5","4","4","4","4","4","4","5","4","4","4","5","4","1","0","1","1","0","1","1","0","1","1","1","0","1","0","1","5","2","4","2","5","4","4","4","5","4","763807579603472386","刘","403","","","","","","","","","","","","","","","","","","","true","1","1","ability","652","self","本人的","","","","","","","","","","","","","","",""
"null","","null","html-keyboard-response","23","524300","0.0-6.0-0.0-2.0-0.7","3","4","4","3","3","3","3","1","3","4","5","4","2","4","4","5","5","4","4","4","4","4","4","5","4","4","4","5","4","1","0","1","1","0","1","1","0","1","1","1","0","1","0","1","5","2","4","2","5","4","4","4","5","4","763807579603472386","刘","403","","","","","","","","","","","","","","","","","","","","","","","","","","","","","","","","","","","","","","","",""
"584","<p style=""color:rgb(150, 250, 100); font-size: 35px;"">他</p>","i","categorize-html","24","524889","0.0-6.0-0.0-2.0-1.7","3","4","4","3","3","3","3","1","3","4","5","4","2","4","4","5","5","4","4","4","4","4","4","5","4","4","4","5","4","1","0","1","1","0","1","1","0","1","1","1","0","1","0","1","5","2","4","2","5","4","4","4","5","4","763807579603472386","刘","403","","","","","","","","","","","","","","","","","","","true","1","1","ability","584","other","他","","","","","","","","","","","","","","",""
"null","","null","html-keyboard-response","25","525149","0.0-6.0-0.0-2.0-0.8","3","4","4","3","3","3","3","1","3","4","5","4","2","4","4","5","5","4","4","4","4","4","4","5","4","4","4","5","4","1","0","1","1","0","1","1","0","1","1","1","0","1","0","1","5","2","4","2","5","4","4","4","5","4","763807579603472386","刘","403","","","","","","","","","","","","","","","","","","","","","","","","","","","","","","","","","","","","","","","",""
"893","<p style=""color:rgb(150, 250, 100); font-size: 35px;"">他人</p>","i","categorize-html","26","526046","0.0-6.0-0.0-2.0-1.8","3","4","4","3","3","3","3","1","3","4","5","4","2","4","4","5","5","4","4","4","4","4","4","5","4","4","4","5","4","1","0","1","1","0","1","1","0","1","1","1","0","1","0","1","5","2","4","2","5","4","4","4","5","4","763807579603472386","刘","403","","","","","","","","","","","","","","","","","","","true","1","1","ability","893","other","他人","","","","","","","","","","","","","","",""
"null","","null","html-keyboard-response","27","526301","0.0-6.0-0.0-2.0-0.9","3","4","4","3","3","3","3","1","3","4","5","4","2","4","4","5","5","4","4","4","4","4","4","5","4","4","4","5","4","1","0","1","1","0","1","1","0","1","1","1","0","1","0","1","5","2","4","2","5","4","4","4","5","4","763807579603472386","刘","403","","","","","","","","","","","","","","","","","","","","","","","","","","","","","","","","","","","","","","","",""
"402","<p style=""color:rgb(150, 250, 100); font-size: 35px;"">我的</p>","e","categorize-html","28","526709","0.0-6.0-0.0-2.0-1.9","3","4","4","3","3","3","3","1","3","4","5","4","2","4","4","5","5","4","4","4","4","4","4","5","4","4","4","5","4","1","0","1","1","0","1","1","0","1","1","1","0","1","0","1","5","2","4","2","5","4","4","4","5","4","763807579603472386","刘","403","","","","","","","","","","","","","","","","","","","true","1","1","ability","402","self","我的","","","","","","","","","","","","","","",""
"null","","null","html-keyboard-response","29","526962","0.0-6.0-0.0-2.0-0.10","3","4","4","3","3","3","3","1","3","4","5","4","2","4","4","5","5","4","4","4","4","4","4","5","4","4","4","5","4","1","0","1","1","0","1","1","0","1","1","1","0","1","0","1","5","2","4","2","5","4","4","4","5","4","763807579603472386","刘","403","","","","","","","","","","","","","","","","","","","","","","","","","","","","","","","","","","","","","","","",""
"578","<p style=""color:rgb(150, 250, 100); font-size: 35px;"">他人的</p>","i","categorize-html","30","527546","0.0-6.0-0.0-2.0-1.10","3","4","4","3","3","3","3","1","3","4","5","4","2","4","4","5","5","4","4","4","4","4","4","5","4","4","4","5","4","1","0","1","1","0","1","1","0","1","1","1","0","1","0","1","5","2","4","2","5","4","4","4","5","4","763807579603472386","刘","403","","","","","","","","","","","","","","","","","","","true","1","1","ability","578","other","他人的","","","","","","","","","","","","","","",""
"null","","null","html-keyboard-response","31","527803","0.0-6.0-0.0-2.0-0.11","3","4","4","3","3","3","3","1","3","4","5","4","2","4","4","5","5","4","4","4","4","4","4","5","4","4","4","5","4","1","0","1","1","0","1","1","0","1","1","1","0","1","0","1","5","2","4","2","5","4","4","4","5","4","763807579603472386","刘","403","","","","","","","","","","","","","","","","","","","","","","","","","","","","","","","","","","","","","","","",""
"948","<p style=""color:rgb(150, 250, 100); font-size: 35px;"">别人的</p>","i","categorize-html","32","528754","0.0-6.0-0.0-2.0-1.11","3","4","4","3","3","3","3","1","3","4","5","4","2","4","4","5","5","4","4","4","4","4","4","5","4","4","4","5","4","1","0","1","1","0","1","1","0","1","1","1","0","1","0","1","5","2","4","2","5","4","4","4","5","4","763807579603472386","刘","403","","","","","","","","","","","","","","","","","","","true","1","1","ability","948","other","别人的","","","","","","","","","","","","","","",""
"1718","
    <div class=""tag-bottom""><p>
    —— 任务2：对“消极”词和“积极”词分类 ——<p/>   
    <span style=""color:#78DCE8""><b>注意上方，类别标签和需要分类的词语都已经改变</b></span><p/>
    <span style=""color:#FFD866""><b>请根据上方标签的提示，尽可能正确并且快速地做出按键反应</b></span><p/>
    当按键错误时屏幕中会出现<span style=""color:red""> X </span>，需要按另一个键纠正才能继续<br/><p/>
    请把双手食指分别放在键盘的“E”键和“I”键上<p/>
    按<空格键>开始
    </p></div>"," ","html-keyboard-response","33","530473","0.0-6.0-0.0-3.0","3","4","4","3","3","3","3","1","3","4","5","4","2","4","4","5","5","4","4","4","4","4","4","5","4","4","4","5","4","1","0","1","1","0","1","1","0","1","1","1","0","1","0","1","5","2","4","2","5","4","4","4","5","4","763807579603472386","刘","403","","","","","","","","","","","","","","","","","","","","","","","","","","","","","","","","","","","","","","","",""
"null","","null","html-keyboard-response","34","530733","0.0-6.0-0.0-4.0-0.0","3","4","4","3","3","3","3","1","3","4","5","4","2","4","4","5","5","4","4","4","4","4","4","5","4","4","4","5","4","1","0","1","1","0","1","1","0","1","1","1","0","1","0","1","5","2","4","2","5","4","4","4","5","4","763807579603472386","刘","403","","","","","","","","","","","","","","","","","","","","","","","","","","","","","","","","","","","","","","","",""
"784","<p style=""color:white; font-size: 35px;"">能干</p>","i","categorize-html","35","531525","0.0-6.0-0.0-4.0-1.0","3","4","4","3","3","3","3","1","3","4","5","4","2","4","4","5","5","4","4","4","4","4","4","5","4","4","4","5","4","1","0","1","1","0","1","1","0","1","1","1","0","1","0","1","5","2","4","2","5","4","4","4","5","4","763807579603472386","刘","403","","","","","","","","","","","","","","","","","","","true","2","2","ability","784","positive","能干","","","","","","","","","","","","","","",""
"null","","null","html-keyboard-response","36","531783","0.0-6.0-0.0-4.0-0.1","3","4","4","3","3","3","3","1","3","4","5","4","2","4","4","5","5","4","4","4","4","4","4","5","4","4","4","5","4","1","0","1","1","0","1","1","0","1","1","1","0","1","0","1","5","2","4","2","5","4","4","4","5","4","763807579603472386","刘","403","","","","","","","","","","","","","","","","","","","","","","","","","","","","","","","","","","","","","","","",""
"503","<p style=""color:white; font-size: 35px;"">无能</p>","e","categorize-html","37","532290","0.0-6.0-0.0-4.0-1.1","3","4","4","3","3","3","3","1","3","4","5","4","2","4","4","5","5","4","4","4","4","4","4","5","4","4","4","5","4","1","0","1","1","0","1","1","0","1","1","1","0","1","0","1","5","2","4","2","5","4","4","4","5","4","763807579603472386","刘","403","","","","","","","","","","","","","","","","","","","true","2","2","ability","503","negative","无能","","","","","","","","","","","","","","",""
"null","","null","html-keyboard-response","38","532549","0.0-6.0-0.0-4.0-0.2","3","4","4","3","3","3","3","1","3","4","5","4","2","4","4","5","5","4","4","4","4","4","4","5","4","4","4","5","4","1","0","1","1","0","1","1","0","1","1","1","0","1","0","1","5","2","4","2","5","4","4","4","5","4","763807579603472386","刘","403","","","","","","","","","","","","","","","","","","","","","","","","","","","","","","","","","","","","","","","",""
"586","<p style=""color:white; font-size: 35px;"">废物</p>","e","categorize-html","39","533139","0.0-6.0-0.0-4.0-1.2","3","4","4","3","3","3","3","1","3","4","5","4","2","4","4","5","5","4","4","4","4","4","4","5","4","4","4","5","4","1","0","1","1","0","1","1","0","1","1","1","0","1","0","1","5","2","4","2","5","4","4","4","5","4","763807579603472386","刘","403","","","","","","","","","","","","","","","","","","","true","2","2","ability","586","negative","废物","","","","","","","","","","","","","","",""
"null","","null","html-keyboard-response","40","533398","0.0-6.0-0.0-4.0-0.3","3","4","4","3","3","3","3","1","3","4","5","4","2","4","4","5","5","4","4","4","4","4","4","5","4","4","4","5","4","1","0","1","1","0","1","1","0","1","1","1","0","1","0","1","5","2","4","2","5","4","4","4","5","4","763807579603472386","刘","403","","","","","","","","","","","","","","","","","","","","","","","","","","","","","","","","","","","","","","","",""
"492","<p style=""color:white; font-size: 35px;"">精干</p>","i","categorize-html","41","533894","0.0-6.0-0.0-4.0-1.3","3","4","4","3","3","3","3","1","3","4","5","4","2","4","4","5","5","4","4","4","4","4","4","5","4","4","4","5","4","1","0","1","1","0","1","1","0","1","1","1","0","1","0","1","5","2","4","2","5","4","4","4","5","4","763807579603472386","刘","403","","","","","","","","","","","","","","","","","","","true","2","2","ability","492","positive","精干","","","","","","","","","","","","","","",""
"null","","null","html-keyboard-response","42","534149","0.0-6.0-0.0-4.0-0.4","3","4","4","3","3","3","3","1","3","4","5","4","2","4","4","5","5","4","4","4","4","4","4","5","4","4","4","5","4","1","0","1","1","0","1","1","0","1","1","1","0","1","0","1","5","2","4","2","5","4","4","4","5","4","763807579603472386","刘","403","","","","","","","","","","","","","","","","","","","","","","","","","","","","","","","","","","","","","","","",""
"511","<p style=""color:white; font-size: 35px;"">愚钝</p>","e","categorize-html","43","534664","0.0-6.0-0.0-4.0-1.4","3","4","4","3","3","3","3","1","3","4","5","4","2","4","4","5","5","4","4","4","4","4","4","5","4","4","4","5","4","1","0","1","1","0","1","1","0","1","1","1","0","1","0","1","5","2","4","2","5","4","4","4","5","4","763807579603472386","刘","403","","","","","","","","","","","","","","","","","","","true","2","2","ability","511","negative","愚钝","","","","","","","","","","","","","","",""
"null","","null","html-keyboard-response","44","534923","0.0-6.0-0.0-4.0-0.5","3","4","4","3","3","3","3","1","3","4","5","4","2","4","4","5","5","4","4","4","4","4","4","5","4","4","4","5","4","1","0","1","1","0","1","1","0","1","1","1","0","1","0","1","5","2","4","2","5","4","4","4","5","4","763807579603472386","刘","403","","","","","","","","","","","","","","","","","","","","","","","","","","","","","","","","","","","","","","","",""
"596","<p style=""color:white; font-size: 35px;"">拙笨</p>","e","categorize-html","45","535523","0.0-6.0-0.0-4.0-1.5","3","4","4","3","3","3","3","1","3","4","5","4","2","4","4","5","5","4","4","4","4","4","4","5","4","4","4","5","4","1","0","1","1","0","1","1","0","1","1","1","0","1","0","1","5","2","4","2","5","4","4","4","5","4","763807579603472386","刘","403","","","","","","","","","","","","","","","","","","","true","2","2","ability","596","negative","拙笨","","","","","","","","","","","","","","",""
"null","","null","html-keyboard-response","46","535776","0.0-6.0-0.0-4.0-0.6","3","4","4","3","3","3","3","1","3","4","5","4","2","4","4","5","5","4","4","4","4","4","4","5","4","4","4","5","4","1","0","1","1","0","1","1","0","1","1","1","0","1","0","1","5","2","4","2","5","4","4","4","5","4","763807579603472386","刘","403","","","","","","","","","","","","","","","","","","","","","","","","","","","","","","","","","","","","","","","",""
"497","<p style=""color:white; font-size: 35px;"">高效</p>","i","categorize-html","47","536278","0.0-6.0-0.0-4.0-1.6","3","4","4","3","3","3","3","1","3","4","5","4","2","4","4","5","5","4","4","4","4","4","4","5","4","4","4","5","4","1","0","1","1","0","1","1","0","1","1","1","0","1","0","1","5","2","4","2","5","4","4","4","5","4","763807579603472386","刘","403","","","","","","","","","","","","","","","","","","","true","2","2","ability","497","positive","高效","","","","","","","","","","","","","","",""
"null","","null","html-keyboard-response","48","536531","0.0-6.0-0.0-4.0-0.7","3","4","4","3","3","3","3","1","3","4","5","4","2","4","4","5","5","4","4","4","4","4","4","5","4","4","4","5","4","1","0","1","1","0","1","1","0","1","1","1","0","1","0","1","5","2","4","2","5","4","4","4","5","4","763807579603472386","刘","403","","","","","","","","","","","","","","","","","","","","","","","","","","","","","","","","","","","","","","","",""
"617","<p style=""color:white; font-size: 35px;"">全能</p>","i","categorize-html","49","537154","0.0-6.0-0.0-4.0-1.7","3","4","4","3","3","3","3","1","3","4","5","4","2","4","4","5","5","4","4","4","4","4","4","5","4","4","4","5","4","1","0","1","1","0","1","1","0","1","1","1","0","1","0","1","5","2","4","2","5","4","4","4","5","4","763807579603472386","刘","403","","","","","","","","","","","","","","","","","","","true","2","2","ability","617","positive","全能","","","","","","","","","","","","","","",""
"null","","null","html-keyboard-response","50","537415","0.0-6.0-0.0-4.0-0.8","3","4","4","3","3","3","3","1","3","4","5","4","2","4","4","5","5","4","4","4","4","4","4","5","4","4","4","5","4","1","0","1","1","0","1","1","0","1","1","1","0","1","0","1","5","2","4","2","5","4","4","4","5","4","763807579603472386","刘","403","","","","","","","","","","","","","","","","","","","","","","","","","","","","","","","","","","","","","","","",""
"536","<p style=""color:white; font-size: 35px;"">蠢笨</p>","e","categorize-html","51","537956","0.0-6.0-0.0-4.0-1.8","3","4","4","3","3","3","3","1","3","4","5","4","2","4","4","5","5","4","4","4","4","4","4","5","4","4","4","5","4","1","0","1","1","0","1","1","0","1","1","1","0","1","0","1","5","2","4","2","5","4","4","4","5","4","763807579603472386","刘","403","","","","","","","","","","","","","","","","","","","true","2","2","ability","536","negative","蠢笨","","","","","","","","","","","","","","",""
"null","","null","html-keyboard-response","52","538208","0.0-6.0-0.0-4.0-0.9","3","4","4","3","3","3","3","1","3","4","5","4","2","4","4","5","5","4","4","4","4","4","4","5","4","4","4","5","4","1","0","1","1","0","1","1","0","1","1","1","0","1","0","1","5","2","4","2","5","4","4","4","5","4","763807579603472386","刘","403","","","","","","","","","","","","","","","","","","","","","","","","","","","","","","","","","","","","","","","",""
"606","<p style=""color:white; font-size: 35px;"">全才</p>","i","categorize-html","53","538820","0.0-6.0-0.0-4.0-1.9","3","4","4","3","3","3","3","1","3","4","5","4","2","4","4","5","5","4","4","4","4","4","4","5","4","4","4","5","4","1","0","1","1","0","1","1","0","1","1","1","0","1","0","1","5","2","4","2","5","4","4","4","5","4","763807579603472386","刘","403","","","","","","","","","","","","","","","","","","","true","2","2","ability","606","positive","全才","","","","","","","","","","","","","","",""
"null","","null","html-keyboard-response","54","539081","0.0-6.0-0.0-4.0-0.10","3","4","4","3","3","3","3","1","3","4","5","4","2","4","4","5","5","4","4","4","4","4","4","5","4","4","4","5","4","1","0","1","1","0","1","1","0","1","1","1","0","1","0","1","5","2","4","2","5","4","4","4","5","4","763807579603472386","刘","403","","","","","","","","","","","","","","","","","","","","","","","","","","","","","","","","","","","","","","","",""
"784","<p style=""color:white; font-size: 35px;"">天才</p>","i","categorize-html","55","539870","0.0-6.0-0.0-4.0-1.10","3","4","4","3","3","3","3","1","3","4","5","4","2","4","4","5","5","4","4","4","4","4","4","5","4","4","4","5","4","1","0","1","1","0","1","1","0","1","1","1","0","1","0","1","5","2","4","2","5","4","4","4","5","4","763807579603472386","刘","403","","","","","","","","","","","","","","","","","","","true","2","2","ability","784","positive","天才","","","","","","","","","","","","","","",""
"null","","null","html-keyboard-response","56","540133","0.0-6.0-0.0-4.0-0.11","3","4","4","3","3","3","3","1","3","4","5","4","2","4","4","5","5","4","4","4","4","4","4","5","4","4","4","5","4","1","0","1","1","0","1","1","0","1","1","1","0","1","0","1","5","2","4","2","5","4","4","4","5","4","763807579603472386","刘","403","","","","","","","","","","","","","","","","","","","","","","","","","","","","","","","","","","","","","","","",""
"501","<p style=""color:white; font-size: 35px;"">低能</p>","e","categorize-html","57","540638","0.0-6.0-0.0-4.0-1.11","3","4","4","3","3","3","3","1","3","4","5","4","2","4","4","5","5","4","4","4","4","4","4","5","4","4","4","5","4","1","0","1","1","0","1","1","0","1","1","1","0","1","0","1","5","2","4","2","5","4","4","4","5","4","763807579603472386","刘","403","","","","","","","","","","","","","","","","","","","true","2","2","ability","501","negative","低能","","","","","","","","","","","","","","",""
"3362","
    <div class=""tag-bottom""><p>
    —— 任务3：对“自我/消极”词和“他人/积极”词分类 ——<p/>
    <span style=""color:#78DCE8""><b>注意上方，之前的四类词语将混合在一起交替呈现</b></span><p/>
    <span style=""color:#FFD866""><b>请根据上方标签的提示，尽可能正确并且快速地做出按键反应</b></span><p/>
    当按键错误时屏幕中会出现<span style=""color:red""> X </span>，需要按另一个键纠正才能继续<br/><p/>
    请把双手食指分别放在键盘的“E”键和“I”键上<p/>
    按<空格键>开始
    </p></div>"," ","html-keyboard-response","58","544002","0.0-6.0-0.0-5.0","3","4","4","3","3","3","3","1","3","4","5","4","2","4","4","5","5","4","4","4","4","4","4","5","4","4","4","5","4","1","0","1","1","0","1","1","0","1","1","1","0","1","0","1","5","2","4","2","5","4","4","4","5","4","763807579603472386","刘","403","","","","","","","","","","","","","","","","","","","","","","","","","","","","","","","","","","","","","","","",""
"null","","null","html-keyboard-response","59","544256","0.0-6.0-0.0-6.0-0.0","3","4","4","3","3","3","3","1","3","4","5","4","2","4","4","5","5","4","4","4","4","4","4","5","4","4","4","5","4","1","0","1","1","0","1","1","0","1","1","1","0","1","0","1","5","2","4","2","5","4","4","4","5","4","763807579603472386","刘","403","","","","","","","","","","","","","","","","","","","","","","","","","","","","","","","","","","","","","","","",""
"617","<p style=""color:rgb(150, 250, 100); font-size: 35px;"">本人</p>","e","categorize-html","60","544879","0.0-6.0-0.0-6.0-1.0","3","4","4","3","3","3","3","1","3","4","5","4","2","4","4","5","5","4","4","4","4","4","4","5","4","4","4","5","4","1","0","1","1","0","1","1","0","1","1","1","0","1","0","1","5","2","4","2","5","4","4","4","5","4","763807579603472386","刘","403","","","","","","","","","","","","","","","","","","","true","3","3","ability","617","self","本人","","","","","","","","","","","","","","",""
"null","","null","html-keyboard-response","61","545139","0.0-6.0-0.0-6.0-0.1","3","4","4","3","3","3","3","1","3","4","5","4","2","4","4","5","5","4","4","4","4","4","4","5","4","4","4","5","4","1","0","1","1","0","1","1","0","1","1","1","0","1","0","1","5","2","4","2","5","4","4","4","5","4","763807579603472386","刘","403","","","","","","","","","","","","","","","","","","","","","","","","","","","","","","","","","","","","","","","",""
"586","<p style=""color:white; font-size: 35px;"">无能</p>","e","categorize-html","62","545731","0.0-6.0-0.0-6.0-1.1","3","4","4","3","3","3","3","1","3","4","5","4","2","4","4","5","5","4","4","4","4","4","4","5","4","4","4","5","4","1","0","1","1","0","1","1","0","1","1","1","0","1","0","1","5","2","4","2","5","4","4","4","5","4","763807579603472386","刘","403","","","","","","","","","","","","","","","","","","","true","3","3","ability","586","negative","无能","","","","","","","","","","","","","","",""
"null","","null","html-keyboard-response","63","545983","0.0-6.0-0.0-6.0-0.2","3","4","4","3","3","3","3","1","3","4","5","4","2","4","4","5","5","4","4","4","4","4","4","5","4","4","4","5","4","1","0","1","1","0","1","1","0","1","1","1","0","1","0","1","5","2","4","2","5","4","4","4","5","4","763807579603472386","刘","403","","","","","","","","","","","","","","","","","","","","","","","","","","","","","","","","","","","","","","","",""
"478","<p style=""color:rgb(150, 250, 100); font-size: 35px;"">别人</p>","i","categorize-html","64","546466","0.0-6.0-0.0-6.0-1.2","3","4","4","3","3","3","3","1","3","4","5","4","2","4","4","5","5","4","4","4","4","4","4","5","4","4","4","5","4","1","0","1","1","0","1","1","0","1","1","1","0","1","0","1","5","2","4","2","5","4","4","4","5","4","763807579603472386","刘","403","","","","","","","","","","","","","","","","","","","true","3","3","ability","478","other","别人","","","","","","","","","","","","","","",""
"null","","null","html-keyboard-response","65","546723","0.0-6.0-0.0-6.0-0.3","3","4","4","3","3","3","3","1","3","4","5","4","2","4","4","5","5","4","4","4","4","4","4","5","4","4","4","5","4","1","0","1","1","0","1","1","0","1","1","1","0","1","0","1","5","2","4","2","5","4","4","4","5","4","763807579603472386","刘","403","","","","","","","","","","","","","","","","","","","","","","","","","","","","","","","","","","","","","","","",""
"2111","<p style=""color:white; font-size: 35px;"">精干</p>","i","categorize-html","66","548839","0.0-6.0-0.0-6.0-1.3","3","4","4","3","3","3","3","1","3","4","5","4","2","4","4","5","5","4","4","4","4","4","4","5","4","4","4","5","4","1","0","1","1","0","1","1","0","1","1","1","0","1","0","1","5","2","4","2","5","4","4","4","5","4","763807579603472386","刘","403","","","","","","","","","","","","","","","","","","","true","3","3","ability","2111","positive","精干","","","","","","","","","","","","","","",""
"null","","null","html-keyboard-response","67","549099","0.0-6.0-0.0-6.0-0.4","3","4","4","3","3","3","3","1","3","4","5","4","2","4","4","5","5","4","4","4","4","4","4","5","4","4","4","5","4","1","0","1","1","0","1","1","0","1","1","1","0","1","0","1","5","2","4","2","5","4","4","4","5","4","763807579603472386","刘","403","","","","","","","","","","","","","","","","","","","","","","","","","","","","","","","","","","","","","","","",""
"8738","<p style=""color:rgb(150, 250, 100); font-size: 35px;"">我的</p>","e","categorize-html","68","557842","0.0-6.0-0.0-6.0-1.4","3","4","4","3","3","3","3","1","3","4","5","4","2","4","4","5","5","4","4","4","4","4","4","5","4","4","4","5","4","1","0","1","1","0","1","1","0","1","1","1","0","1","0","1","5","2","4","2","5","4","4","4","5","4","763807579603472386","刘","403","","","","","","","","","","","","","","","","","","","true","3","3","ability","8738","self","我的","","","","","","","","","","","","","","",""
"null","","null","html-keyboard-response","69","558096","0.0-6.0-0.0-6.0-0.5","3","4","4","3","3","3","3","1","3","4","5","4","2","4","4","5","5","4","4","4","4","4","4","5","4","4","4","5","4","1","0","1","1","0","1","1","0","1","1","1","0","1","0","1","5","2","4","2","5","4","4","4","5","4","763807579603472386","刘","403","","","","","","","","","","","","","","","","","","","","","","","","","","","","","","","","","","","","","","","",""
"2301","<p style=""color:white; font-size: 35px;"">天才</p>","i","categorize-html","70","560402","0.0-6.0-0.0-6.0-1.5","3","4","4","3","3","3","3","1","3","4","5","4","2","4","4","5","5","4","4","4","4","4","4","5","4","4","4","5","4","1","0","1","1","0","1","1","0","1","1","1","0","1","0","1","5","2","4","2","5","4","4","4","5","4","763807579603472386","刘","403","","","","","","","","","","","","","","","","","","","true","3","3","ability","2301","positive","天才","","","","","","","","","","","","","","",""
"null","","null","html-keyboard-response","71","560664","0.0-6.0-0.0-6.0-0.6","3","4","4","3","3","3","3","1","3","4","5","4","2","4","4","5","5","4","4","4","4","4","4","5","4","4","4","5","4","1","0","1","1","0","1","1","0","1","1","1","0","1","0","1","5","2","4","2","5","4","4","4","5","4","763807579603472386","刘","403","","","","","","","","","","","","","","","","","","","","","","","","","","","","","","","","","","","","","","","",""
"576","<p style=""color:rgb(150, 250, 100); font-size: 35px;"">他</p>","e","categorize-html","72","561725","0.0-6.0-0.0-6.0-1.6","3","4","4","3","3","3","3","1","3","4","5","4","2","4","4","5","5","4","4","4","4","4","4","5","4","4","4","5","4","1","0","1","1","0","1","1","0","1","1","1","0","1","0","1","5","2","4","2","5","4","4","4","5","4","763807579603472386","刘","403","","","","","","","","","","","","","","","","","","","false","3","3","ability","2425.6315789473683","other","他","","","","","","","","","","","","","","",""
"null","","null","html-keyboard-response","73","561980","0.0-6.0-0.0-6.0-0.7","3","4","4","3","3","3","3","1","3","4","5","4","2","4","4","5","5","4","4","4","4","4","4","5","4","4","4","5","4","1","0","1","1","0","1","1","0","1","1","1","0","1","0","1","5","2","4","2","5","4","4","4","5","4","763807579603472386","刘","403","","","","","","","","","","","","","","","","","","","","","","","","","","","","","","","","","","","","","","","",""
"1447","<p style=""color:white; font-size: 35px;"">低能</p>","e","categorize-html","74","563434","0.0-6.0-0.0-6.0-1.7","3","4","4","3","3","3","3","1","3","4","5","4","2","4","4","5","5","4","4","4","4","4","4","5","4","4","4","5","4","1","0","1","1","0","1","1","0","1","1","1","0","1","0","1","5","2","4","2","5","4","4","4","5","4","763807579603472386","刘","403","","","","","","","","","","","","","","","","","","","true","3","3","ability","1447","negative","低能","","","","","","","","","","","","","","",""
"null","","null","html-keyboard-response","75","563687","0.0-6.0-0.0-6.0-0.8","3","4","4","3","3","3","3","1","3","4","5","4","2","4","4","5","5","4","4","4","4","4","4","5","4","4","4","5","4","1","0","1","1","0","1","1","0","1","1","1","0","1","0","1","5","2","4","2","5","4","4","4","5","4","763807579603472386","刘","403","","","","","","","","","","","","","","","","","","","","","","","","","","","","","","","","","","","","","","","",""
"607","<p style=""color:rgb(150, 250, 100); font-size: 35px;"">他人的</p>","i","categorize-html","76","564299","0.0-6.0-0.0-6.0-1.8","3","4","4","3","3","3","3","1","3","4","5","4","2","4","4","5","5","4","4","4","4","4","4","5","4","4","4","5","4","1","0","1","1","0","1","1","0","1","1","1","0","1","0","1","5","2","4","2","5","4","4","4","5","4","763807579603472386","刘","403","","","","","","","","","","","","","","","","","","","true","3","3","ability","607","other","他人的","","","","","","","","","","","","","","",""
"null","","null","html-keyboard-response","77","564565","0.0-6.0-0.0-6.0-0.9","3","4","4","3","3","3","3","1","3","4","5","4","2","4","4","5","5","4","4","4","4","4","4","5","4","4","4","5","4","1","0","1","1","0","1","1","0","1","1","1","0","1","0","1","5","2","4","2","5","4","4","4","5","4","763807579603472386","刘","403","","","","","","","","","","","","","","","","","","","","","","","","","","","","","","","","","","","","","","","",""
"563","<p style=""color:white; font-size: 35px;"">能干</p>","i","categorize-html","78","565133","0.0-6.0-0.0-6.0-1.9","3","4","4","3","3","3","3","1","3","4","5","4","2","4","4","5","5","4","4","4","4","4","4","5","4","4","4","5","4","1","0","1","1","0","1","1","0","1","1","1","0","1","0","1","5","2","4","2","5","4","4","4","5","4","763807579603472386","刘","403","","","","","","","","","","","","","","","","","","","true","3","3","ability","563","positive","能干","","","","","","","","","","","","","","",""
"null","","null","html-keyboard-response","79","565393","0.0-6.0-0.0-6.0-0.10","3","4","4","3","3","3","3","1","3","4","5","4","2","4","4","5","5","4","4","4","4","4","4","5","4","4","4","5","4","1","0","1","1","0","1","1","0","1","1","1","0","1","0","1","5","2","4","2","5","4","4","4","5","4","763807579603472386","刘","403","","","","","","","","","","","","","","","","","","","","","","","","","","","","","","","","","","","","","","","",""
"1439","<p style=""color:rgb(150, 250, 100); font-size: 35px;"">自己的</p>","i","categorize-html","80","567323","0.0-6.0-0.0-6.0-1.10","3","4","4","3","3","3","3","1","3","4","5","4","2","4","4","5","5","4","4","4","4","4","4","5","4","4","4","5","4","1","0","1","1","0","1","1","0","1","1","1","0","1","0","1","5","2","4","2","5","4","4","4","5","4","763807579603472386","刘","403","","","","","","","","","","","","","","","","","","","false","3","3","ability","2425.6315789473683","self","自己的","","","","","","","","","","","","","","",""
"null","","null","html-keyboard-response","81","567585","0.0-6.0-0.0-6.0-0.11","3","4","4","3","3","3","3","1","3","4","5","4","2","4","4","5","5","4","4","4","4","4","4","5","4","4","4","5","4","1","0","1","1","0","1","1","0","1","1","1","0","1","0","1","5","2","4","2","5","4","4","4","5","4","763807579603472386","刘","403","","","","","","","","","","","","","","","","","","","","","","","","","","","","","","","","","","","","","","","",""
"597","<p style=""color:white; font-size: 35px;"">废物</p>","e","categorize-html","82","568187","0.0-6.0-0.0-6.0-1.11","3","4","4","3","3","3","3","1","3","4","5","4","2","4","4","5","5","4","4","4","4","4","4","5","4","4","4","5","4","1","0","1","1","0","1","1","0","1","1","1","0","1","0","1","5","2","4","2","5","4","4","4","5","4","763807579603472386","刘","403","","","","","","","","","","","","","","","","","","","true","3","3","ability","597","negative","废物","","","","","","","","","","","","","","",""
"null","","null","html-keyboard-response","83","568442","0.0-6.0-0.0-6.0-0.12","3","4","4","3","3","3","3","1","3","4","5","4","2","4","4","5","5","4","4","4","4","4","4","5","4","4","4","5","4","1","0","1","1","0","1","1","0","1","1","1","0","1","0","1","5","2","4","2","5","4","4","4","5","4","763807579603472386","刘","403","","","","","","","","","","","","","","","","","","","","","","","","","","","","","","","","","","","","","","","",""
"695","<p style=""color:rgb(150, 250, 100); font-size: 35px;"">自己</p>","e","categorize-html","84","569142","0.0-6.0-0.0-6.0-1.12","3","4","4","3","3","3","3","1","3","4","5","4","2","4","4","5","5","4","4","4","4","4","4","5","4","4","4","5","4","1","0","1","1","0","1","1","0","1","1","1","0","1","0","1","5","2","4","2","5","4","4","4","5","4","763807579603472386","刘","403","","","","","","","","","","","","","","","","","","","true","3","3","ability","695","self","自己","","","","","","","","","","","","","","",""
"null","","null","html-keyboard-response","85","569401","0.0-6.0-0.0-6.0-0.13","3","4","4","3","3","3","3","1","3","4","5","4","2","4","4","5","5","4","4","4","4","4","4","5","4","4","4","5","4","1","0","1","1","0","1","1","0","1","1","1","0","1","0","1","5","2","4","2","5","4","4","4","5","4","763807579603472386","刘","403","","","","","","","","","","","","","","","","","","","","","","","","","","","","","","","","","","","","","","","",""
"808","<p style=""color:white; font-size: 35px;"">愚钝</p>","e","categorize-html","86","570215","0.0-6.0-0.0-6.0-1.13","3","4","4","3","3","3","3","1","3","4","5","4","2","4","4","5","5","4","4","4","4","4","4","5","4","4","4","5","4","1","0","1","1","0","1","1","0","1","1","1","0","1","0","1","5","2","4","2","5","4","4","4","5","4","763807579603472386","刘","403","","","","","","","","","","","","","","","","","","","true","3","3","ability","808","negative","愚钝","","","","","","","","","","","","","","",""
"null","","null","html-keyboard-response","87","570467","0.0-6.0-0.0-6.0-0.14","3","4","4","3","3","3","3","1","3","4","5","4","2","4","4","5","5","4","4","4","4","4","4","5","4","4","4","5","4","1","0","1","1","0","1","1","0","1","1","1","0","1","0","1","5","2","4","2","5","4","4","4","5","4","763807579603472386","刘","403","","","","","","","","","","","","","","","","","","","","","","","","","","","","","","","","","","","","","","","",""
"695","<p style=""color:rgb(150, 250, 100); font-size: 35px;"">他人</p>","i","categorize-html","88","571168","0.0-6.0-0.0-6.0-1.14","3","4","4","3","3","3","3","1","3","4","5","4","2","4","4","5","5","4","4","4","4","4","4","5","4","4","4","5","4","1","0","1","1","0","1","1","0","1","1","1","0","1","0","1","5","2","4","2","5","4","4","4","5","4","763807579603472386","刘","403","","","","","","","","","","","","","","","","","","","true","3","3","ability","695","other","他人","","","","","","","","","","","","","","",""
"null","","null","html-keyboard-response","89","571424","0.0-6.0-0.0-6.0-0.15","3","4","4","3","3","3","3","1","3","4","5","4","2","4","4","5","5","4","4","4","4","4","4","5","4","4","4","5","4","1","0","1","1","0","1","1","0","1","1","1","0","1","0","1","5","2","4","2","5","4","4","4","5","4","763807579603472386","刘","403","","","","","","","","","","","","","","","","","","","","","","","","","","","","","","","","","","","","","","","",""
"1392","<p style=""color:white; font-size: 35px;"">全能</p>","i","categorize-html","90","572820","0.0-6.0-0.0-6.0-1.15","3","4","4","3","3","3","3","1","3","4","5","4","2","4","4","5","5","4","4","4","4","4","4","5","4","4","4","5","4","1","0","1","1","0","1","1","0","1","1","1","0","1","0","1","5","2","4","2","5","4","4","4","5","4","763807579603472386","刘","403","","","","","","","","","","","","","","","","","","","true","3","3","ability","1392","positive","全能","","","","","","","","","","","","","","",""
"null","","null","html-keyboard-response","91","573080","0.0-6.0-0.0-6.0-0.16","3","4","4","3","3","3","3","1","3","4","5","4","2","4","4","5","5","4","4","4","4","4","4","5","4","4","4","5","4","1","0","1","1","0","1","1","0","1","1","1","0","1","0","1","5","2","4","2","5","4","4","4","5","4","763807579603472386","刘","403","","","","","","","","","","","","","","","","","","","","","","","","","","","","","","","","","","","","","","","",""
"615","<p style=""color:rgb(150, 250, 100); font-size: 35px;"">本人的</p>","i","categorize-html","92","574068","0.0-6.0-0.0-6.0-1.16","3","4","4","3","3","3","3","1","3","4","5","4","2","4","4","5","5","4","4","4","4","4","4","5","4","4","4","5","4","1","0","1","1","0","1","1","0","1","1","1","0","1","0","1","5","2","4","2","5","4","4","4","5","4","763807579603472386","刘","403","","","","","","","","","","","","","","","","","","","false","3","3","ability","2425.6315789473683","self","本人的","","","","","","","","","","","","","","",""
"null","","null","html-keyboard-response","93","574330","0.0-6.0-0.0-6.0-0.17","3","4","4","3","3","3","3","1","3","4","5","4","2","4","4","5","5","4","4","4","4","4","4","5","4","4","4","5","4","1","0","1","1","0","1","1","0","1","1","1","0","1","0","1","5","2","4","2","5","4","4","4","5","4","763807579603472386","刘","403","","","","","","","","","","","","","","","","","","","","","","","","","","","","","","","","","","","","","","","",""
"7566","<p style=""color:white; font-size: 35px;"">全才</p>","i","categorize-html","94","581900","0.0-6.0-0.0-6.0-1.17","3","4","4","3","3","3","3","1","3","4","5","4","2","4","4","5","5","4","4","4","4","4","4","5","4","4","4","5","4","1","0","1","1","0","1","1","0","1","1","1","0","1","0","1","5","2","4","2","5","4","4","4","5","4","763807579603472386","刘","403","","","","","","","","","","","","","","","","","","","true","3","3","ability","7566","positive","全才","","","","","","","","","","","","","","",""
"null","","null","html-keyboard-response","95","582165","0.0-6.0-0.0-6.0-0.18","3","4","4","3","3","3","3","1","3","4","5","4","2","4","4","5","5","4","4","4","4","4","4","5","4","4","4","5","4","1","0","1","1","0","1","1","0","1","1","1","0","1","0","1","5","2","4","2","5","4","4","4","5","4","763807579603472386","刘","403","","","","","","","","","","","","","","","","","","","","","","","","","","","","","","","","","","","","","","","",""
"470","<p style=""color:rgb(150, 250, 100); font-size: 35px;"">别人的</p>","e","categorize-html","96","582955","0.0-6.0-0.0-6.0-1.18","3","4","4","3","3","3","3","1","3","4","5","4","2","4","4","5","5","4","4","4","4","4","4","5","4","4","4","5","4","1","0","1","1","0","1","1","0","1","1","1","0","1","0","1","5","2","4","2","5","4","4","4","5","4","763807579603472386","刘","403","","","","","","","","","","","","","","","","","","","false","3","3","ability","2425.6315789473683","other","别人的","","","","","","","","","","","","","","",""
"null","","null","html-keyboard-response","97","583224","0.0-6.0-0.0-6.0-0.19","3","4","4","3","3","3","3","1","3","4","5","4","2","4","4","5","5","4","4","4","4","4","4","5","4","4","4","5","4","1","0","1","1","0","1","1","0","1","1","1","0","1","0","1","5","2","4","2","5","4","4","4","5","4","763807579603472386","刘","403","","","","","","","","","","","","","","","","","","","","","","","","","","","","","","","","","","","","","","","",""
"3633","<p style=""color:white; font-size: 35px;"">拙笨</p>","e","categorize-html","98","586862","0.0-6.0-0.0-6.0-1.19","3","4","4","3","3","3","3","1","3","4","5","4","2","4","4","5","5","4","4","4","4","4","4","5","4","4","4","5","4","1","0","1","1","0","1","1","0","1","1","1","0","1","0","1","5","2","4","2","5","4","4","4","5","4","763807579603472386","刘","403","","","","","","","","","","","","","","","","","","","true","3","3","ability","3633","negative","拙笨","","","","","","","","","","","","","","",""
"null","","null","html-keyboard-response","99","587123","0.0-6.0-0.0-6.0-0.20","3","4","4","3","3","3","3","1","3","4","5","4","2","4","4","5","5","4","4","4","4","4","4","5","4","4","4","5","4","1","0","1","1","0","1","1","0","1","1","1","0","1","0","1","5","2","4","2","5","4","4","4","5","4","763807579603472386","刘","403","","","","","","","","","","","","","","","","","","","","","","","","","","","","","","","","","","","","","","","",""
"715","<p style=""color:rgb(150, 250, 100); font-size: 35px;"">我</p>","i","categorize-html","100","588319","0.0-6.0-0.0-6.0-1.20","3","4","4","3","3","3","3","1","3","4","5","4","2","4","4","5","5","4","4","4","4","4","4","5","4","4","4","5","4","1","0","1","1","0","1","1","0","1","1","1","0","1","0","1","5","2","4","2","5","4","4","4","5","4","763807579603472386","刘","403","","","","","","","","","","","","","","","","","","","false","3","3","ability","2425.6315789473683","self","我","","","","","","","","","","","","","","",""
"null","","null","html-keyboard-response","101","588577","0.0-6.0-0.0-6.0-0.21","3","4","4","3","3","3","3","1","3","4","5","4","2","4","4","5","5","4","4","4","4","4","4","5","4","4","4","5","4","1","0","1","1","0","1","1","0","1","1","1","0","1","0","1","5","2","4","2","5","4","4","4","5","4","763807579603472386","刘","403","","","","","","","","","","","","","","","","","","","","","","","","","","","","","","","","","","","","","","","",""
"644","<p style=""color:white; font-size: 35px;"">蠢笨</p>","e","categorize-html","102","589226","0.0-6.0-0.0-6.0-1.21","3","4","4","3","3","3","3","1","3","4","5","4","2","4","4","5","5","4","4","4","4","4","4","5","4","4","4","5","4","1","0","1","1","0","1","1","0","1","1","1","0","1","0","1","5","2","4","2","5","4","4","4","5","4","763807579603472386","刘","403","","","","","","","","","","","","","","","","","","","true","3","3","ability","644","negative","蠢笨","","","","","","","","","","","","","","",""
"null","","null","html-keyboard-response","103","589479","0.0-6.0-0.0-6.0-0.22","3","4","4","3","3","3","3","1","3","4","5","4","2","4","4","5","5","4","4","4","4","4","4","5","4","4","4","5","4","1","0","1","1","0","1","1","0","1","1","1","0","1","0","1","5","2","4","2","5","4","4","4","5","4","763807579603472386","刘","403","","","","","","","","","","","","","","","","","","","","","","","","","","","","","","","","","","","","","","","",""
"529","<p style=""color:rgb(150, 250, 100); font-size: 35px;"">他的</p>","i","categorize-html","104","590013","0.0-6.0-0.0-6.0-1.22","3","4","4","3","3","3","3","1","3","4","5","4","2","4","4","5","5","4","4","4","4","4","4","5","4","4","4","5","4","1","0","1","1","0","1","1","0","1","1","1","0","1","0","1","5","2","4","2","5","4","4","4","5","4","763807579603472386","刘","403","","","","","","","","","","","","","","","","","","","true","3","3","ability","529","other","他的","","","","","","","","","","","","","","",""
"null","","null","html-keyboard-response","105","590278","0.0-6.0-0.0-6.0-0.23","3","4","4","3","3","3","3","1","3","4","5","4","2","4","4","5","5","4","4","4","4","4","4","5","4","4","4","5","4","1","0","1","1","0","1","1","0","1","1","1","0","1","0","1","5","2","4","2","5","4","4","4","5","4","763807579603472386","刘","403","","","","","","","","","","","","","","","","","","","","","","","","","","","","","","","","","","","","","","","",""
"680","<p style=""color:white; font-size: 35px;"">高效</p>","i","categorize-html","106","590963","0.0-6.0-0.0-6.0-1.23","3","4","4","3","3","3","3","1","3","4","5","4","2","4","4","5","5","4","4","4","4","4","4","5","4","4","4","5","4","1","0","1","1","0","1","1","0","1","1","1","0","1","0","1","5","2","4","2","5","4","4","4","5","4","763807579603472386","刘","403","","","","","","","","","","","","","","","","","","","true","3","3","ability","680","positive","高效","","","","","","","","","","","","","","",""
"15808","
    <div class=""tag-bottom""><p>
    —— 任务4：对“自我/消极”词和“他人/积极”词分类 ——<p/>
    <span style=""color:#78DCE8""><b>与刚才的任务完全相同，请再次对这四类词语分类</b></span><p/>
    <span style=""color:#FFD866""><b>请根据上方标签的提示，尽可能正确并且快速地做出按键反应</b></span><p/>
    当按键错误时屏幕中会出现<span style=""color:red""> X </span>，需要按另一个键纠正才能继续<br/><p/>
    请把双手食指分别放在键盘的“E”键和“I”键上<p/>
    按<空格键>开始
    </p></div>"," ","html-keyboard-response","107","606773","0.0-6.0-0.0-7.0","3","4","4","3","3","3","3","1","3","4","5","4","2","4","4","5","5","4","4","4","4","4","4","5","4","4","4","5","4","1","0","1","1","0","1","1","0","1","1","1","0","1","0","1","5","2","4","2","5","4","4","4","5","4","763807579603472386","刘","403","","","","","","","","","","","","","","","","","","","","","","","","","","","","","","","","","","","","","","","",""
"null","","null","html-keyboard-response","108","607033","0.0-6.0-0.0-8.0-0.0","3","4","4","3","3","3","3","1","3","4","5","4","2","4","4","5","5","4","4","4","4","4","4","5","4","4","4","5","4","1","0","1","1","0","1","1","0","1","1","1","0","1","0","1","5","2","4","2","5","4","4","4","5","4","763807579603472386","刘","403","","","","","","","","","","","","","","","","","","","","","","","","","","","","","","","","","","","","","","","",""
"746","<p style=""color:rgb(150, 250, 100); font-size: 35px;"">本人</p>","e","categorize-html","109","607786","0.0-6.0-0.0-8.0-1.0","3","4","4","3","3","3","3","1","3","4","5","4","2","4","4","5","5","4","4","4","4","4","4","5","4","4","4","5","4","1","0","1","1","0","1","1","0","1","1","1","0","1","0","1","5","2","4","2","5","4","4","4","5","4","763807579603472386","刘","403","","","","","","","","","","","","","","","","","","","true","4","4","ability","746","self","本人","","","","","","","","","","","","","","",""
"null","","null","html-keyboard-response","110","608040","0.0-6.0-0.0-8.0-0.1","3","4","4","3","3","3","3","1","3","4","5","4","2","4","4","5","5","4","4","4","4","4","4","5","4","4","4","5","4","1","0","1","1","0","1","1","0","1","1","1","0","1","0","1","5","2","4","2","5","4","4","4","5","4","763807579603472386","刘","403","","","","","","","","","","","","","","","","","","","","","","","","","","","","","","","","","","","","","","","",""
"750","<p style=""color:white; font-size: 35px;"">废物</p>","e","categorize-html","111","608794","0.0-6.0-0.0-8.0-1.1","3","4","4","3","3","3","3","1","3","4","5","4","2","4","4","5","5","4","4","4","4","4","4","5","4","4","4","5","4","1","0","1","1","0","1","1","0","1","1","1","0","1","0","1","5","2","4","2","5","4","4","4","5","4","763807579603472386","刘","403","","","","","","","","","","","","","","","","","","","true","4","4","ability","750","negative","废物","","","","","","","","","","","","","","",""
"null","","null","html-keyboard-response","112","609047","0.0-6.0-0.0-8.0-0.2","3","4","4","3","3","3","3","1","3","4","5","4","2","4","4","5","5","4","4","4","4","4","4","5","4","4","4","5","4","1","0","1","1","0","1","1","0","1","1","1","0","1","0","1","5","2","4","2","5","4","4","4","5","4","763807579603472386","刘","403","","","","","","","","","","","","","","","","","","","","","","","","","","","","","","","","","","","","","","","",""
"492","<p style=""color:rgb(150, 250, 100); font-size: 35px;"">他人的</p>","i","categorize-html","113","609544","0.0-6.0-0.0-8.0-1.2","3","4","4","3","3","3","3","1","3","4","5","4","2","4","4","5","5","4","4","4","4","4","4","5","4","4","4","5","4","1","0","1","1","0","1","1","0","1","1","1","0","1","0","1","5","2","4","2","5","4","4","4","5","4","763807579603472386","刘","403","","","","","","","","","","","","","","","","","","","true","4","4","ability","492","other","他人的","","","","","","","","","","","","","","",""
"null","","null","html-keyboard-response","114","609798","0.0-6.0-0.0-8.0-0.3","3","4","4","3","3","3","3","1","3","4","5","4","2","4","4","5","5","4","4","4","4","4","4","5","4","4","4","5","4","1","0","1","1","0","1","1","0","1","1","1","0","1","0","1","5","2","4","2","5","4","4","4","5","4","763807579603472386","刘","403","","","","","","","","","","","","","","","","","","","","","","","","","","","","","","","","","","","","","","","",""
"465","<p style=""color:white; font-size: 35px;"">能干</p>","i","categorize-html","115","610268","0.0-6.0-0.0-8.0-1.3","3","4","4","3","3","3","3","1","3","4","5","4","2","4","4","5","5","4","4","4","4","4","4","5","4","4","4","5","4","1","0","1","1","0","1","1","0","1","1","1","0","1","0","1","5","2","4","2","5","4","4","4","5","4","763807579603472386","刘","403","","","","","","","","","","","","","","","","","","","true","4","4","ability","465","positive","能干","","","","","","","","","","","","","","",""
"null","","null","html-keyboard-response","116","610529","0.0-6.0-0.0-8.0-0.4","3","4","4","3","3","3","3","1","3","4","5","4","2","4","4","5","5","4","4","4","4","4","4","5","4","4","4","5","4","1","0","1","1","0","1","1","0","1","1","1","0","1","0","1","5","2","4","2","5","4","4","4","5","4","763807579603472386","刘","403","","","","","","","","","","","","","","","","","","","","","","","","","","","","","","","","","","","","","","","",""
"528","<p style=""color:rgb(150, 250, 100); font-size: 35px;"">他的</p>","i","categorize-html","117","611062","0.0-6.0-0.0-8.0-1.4","3","4","4","3","3","3","3","1","3","4","5","4","2","4","4","5","5","4","4","4","4","4","4","5","4","4","4","5","4","1","0","1","1","0","1","1","0","1","1","1","0","1","0","1","5","2","4","2","5","4","4","4","5","4","763807579603472386","刘","403","","","","","","","","","","","","","","","","","","","true","4","4","ability","528","other","他的","","","","","","","","","","","","","","",""
"null","","null","html-keyboard-response","118","611317","0.0-6.0-0.0-8.0-0.5","3","4","4","3","3","3","3","1","3","4","5","4","2","4","4","5","5","4","4","4","4","4","4","5","4","4","4","5","4","1","0","1","1","0","1","1","0","1","1","1","0","1","0","1","5","2","4","2","5","4","4","4","5","4","763807579603472386","刘","403","","","","","","","","","","","","","","","","","","","","","","","","","","","","","","","","","","","","","","","",""
"564","<p style=""color:white; font-size: 35px;"">高效</p>","i","categorize-html","119","611885","0.0-6.0-0.0-8.0-1.5","3","4","4","3","3","3","3","1","3","4","5","4","2","4","4","5","5","4","4","4","4","4","4","5","4","4","4","5","4","1","0","1","1","0","1","1","0","1","1","1","0","1","0","1","5","2","4","2","5","4","4","4","5","4","763807579603472386","刘","403","","","","","","","","","","","","","","","","","","","true","4","4","ability","564","positive","高效","","","","","","","","","","","","","","",""
"null","","null","html-keyboard-response","120","612140","0.0-6.0-0.0-8.0-0.6","3","4","4","3","3","3","3","1","3","4","5","4","2","4","4","5","5","4","4","4","4","4","4","5","4","4","4","5","4","1","0","1","1","0","1","1","0","1","1","1","0","1","0","1","5","2","4","2","5","4","4","4","5","4","763807579603472386","刘","403","","","","","","","","","","","","","","","","","","","","","","","","","","","","","","","","","","","","","","","",""
"690","<p style=""color:rgb(150, 250, 100); font-size: 35px;"">我</p>","e","categorize-html","121","612835","0.0-6.0-0.0-8.0-1.6","3","4","4","3","3","3","3","1","3","4","5","4","2","4","4","5","5","4","4","4","4","4","4","5","4","4","4","5","4","1","0","1","1","0","1","1","0","1","1","1","0","1","0","1","5","2","4","2","5","4","4","4","5","4","763807579603472386","刘","403","","","","","","","","","","","","","","","","","","","true","4","4","ability","690","self","我","","","","","","","","","","","","","","",""
"null","","null","html-keyboard-response","122","613097","0.0-6.0-0.0-8.0-0.7","3","4","4","3","3","3","3","1","3","4","5","4","2","4","4","5","5","4","4","4","4","4","4","5","4","4","4","5","4","1","0","1","1","0","1","1","0","1","1","1","0","1","0","1","5","2","4","2","5","4","4","4","5","4","763807579603472386","刘","403","","","","","","","","","","","","","","","","","","","","","","","","","","","","","","","","","","","","","","","",""
"549","<p style=""color:white; font-size: 35px;"">愚钝</p>","e","categorize-html","123","613651","0.0-6.0-0.0-8.0-1.7","3","4","4","3","3","3","3","1","3","4","5","4","2","4","4","5","5","4","4","4","4","4","4","5","4","4","4","5","4","1","0","1","1","0","1","1","0","1","1","1","0","1","0","1","5","2","4","2","5","4","4","4","5","4","763807579603472386","刘","403","","","","","","","","","","","","","","","","","","","true","4","4","ability","549","negative","愚钝","","","","","","","","","","","","","","",""
"null","","null","html-keyboard-response","124","613906","0.0-6.0-0.0-8.0-0.8","3","4","4","3","3","3","3","1","3","4","5","4","2","4","4","5","5","4","4","4","4","4","4","5","4","4","4","5","4","1","0","1","1","0","1","1","0","1","1","1","0","1","0","1","5","2","4","2","5","4","4","4","5","4","763807579603472386","刘","403","","","","","","","","","","","","","","","","","","","","","","","","","","","","","","","","","","","","","","","",""
"764","<p style=""color:rgb(150, 250, 100); font-size: 35px;"">自己的</p>","e","categorize-html","125","614675","0.0-6.0-0.0-8.0-1.8","3","4","4","3","3","3","3","1","3","4","5","4","2","4","4","5","5","4","4","4","4","4","4","5","4","4","4","5","4","1","0","1","1","0","1","1","0","1","1","1","0","1","0","1","5","2","4","2","5","4","4","4","5","4","763807579603472386","刘","403","","","","","","","","","","","","","","","","","","","true","4","4","ability","764","self","自己的","","","","","","","","","","","","","","",""
"null","","null","html-keyboard-response","126","614937","0.0-6.0-0.0-8.0-0.9","3","4","4","3","3","3","3","1","3","4","5","4","2","4","4","5","5","4","4","4","4","4","4","5","4","4","4","5","4","1","0","1","1","0","1","1","0","1","1","1","0","1","0","1","5","2","4","2","5","4","4","4","5","4","763807579603472386","刘","403","","","","","","","","","","","","","","","","","","","","","","","","","","","","","","","","","","","","","","","",""
"644","<p style=""color:white; font-size: 35px;"">全能</p>","i","categorize-html","127","615585","0.0-6.0-0.0-8.0-1.9","3","4","4","3","3","3","3","1","3","4","5","4","2","4","4","5","5","4","4","4","4","4","4","5","4","4","4","5","4","1","0","1","1","0","1","1","0","1","1","1","0","1","0","1","5","2","4","2","5","4","4","4","5","4","763807579603472386","刘","403","","","","","","","","","","","","","","","","","","","true","4","4","ability","644","positive","全能","","","","","","","","","","","","","","",""
"null","","null","html-keyboard-response","128","615838","0.0-6.0-0.0-8.0-0.10","3","4","4","3","3","3","3","1","3","4","5","4","2","4","4","5","5","4","4","4","4","4","4","5","4","4","4","5","4","1","0","1","1","0","1","1","0","1","1","1","0","1","0","1","5","2","4","2","5","4","4","4","5","4","763807579603472386","刘","403","","","","","","","","","","","","","","","","","","","","","","","","","","","","","","","","","","","","","","","",""
"499","<p style=""color:rgb(150, 250, 100); font-size: 35px;"">别人</p>","i","categorize-html","129","616343","0.0-6.0-0.0-8.0-1.10","3","4","4","3","3","3","3","1","3","4","5","4","2","4","4","5","5","4","4","4","4","4","4","5","4","4","4","5","4","1","0","1","1","0","1","1","0","1","1","1","0","1","0","1","5","2","4","2","5","4","4","4","5","4","763807579603472386","刘","403","","","","","","","","","","","","","","","","","","","true","4","4","ability","499","other","别人","","","","","","","","","","","","","","",""
"null","","null","html-keyboard-response","130","616601","0.0-6.0-0.0-8.0-0.11","3","4","4","3","3","3","3","1","3","4","5","4","2","4","4","5","5","4","4","4","4","4","4","5","4","4","4","5","4","1","0","1","1","0","1","1","0","1","1","1","0","1","0","1","5","2","4","2","5","4","4","4","5","4","763807579603472386","刘","403","","","","","","","","","","","","","","","","","","","","","","","","","","","","","","","","","","","","","","","",""
"503","<p style=""color:white; font-size: 35px;"">无能</p>","e","categorize-html","131","617109","0.0-6.0-0.0-8.0-1.11","3","4","4","3","3","3","3","1","3","4","5","4","2","4","4","5","5","4","4","4","4","4","4","5","4","4","4","5","4","1","0","1","1","0","1","1","0","1","1","1","0","1","0","1","5","2","4","2","5","4","4","4","5","4","763807579603472386","刘","403","","","","","","","","","","","","","","","","","","","true","4","4","ability","503","negative","无能","","","","","","","","","","","","","","",""
"null","","null","html-keyboard-response","132","617365","0.0-6.0-0.0-8.0-0.12","3","4","4","3","3","3","3","1","3","4","5","4","2","4","4","5","5","4","4","4","4","4","4","5","4","4","4","5","4","1","0","1","1","0","1","1","0","1","1","1","0","1","0","1","5","2","4","2","5","4","4","4","5","4","763807579603472386","刘","403","","","","","","","","","","","","","","","","","","","","","","","","","","","","","","","","","","","","","","","",""
"532","<p style=""color:rgb(150, 250, 100); font-size: 35px;"">他人</p>","i","categorize-html","133","617901","0.0-6.0-0.0-8.0-1.12","3","4","4","3","3","3","3","1","3","4","5","4","2","4","4","5","5","4","4","4","4","4","4","5","4","4","4","5","4","1","0","1","1","0","1","1","0","1","1","1","0","1","0","1","5","2","4","2","5","4","4","4","5","4","763807579603472386","刘","403","","","","","","","","","","","","","","","","","","","true","4","4","ability","532","other","他人","","","","","","","","","","","","","","",""
"null","","null","html-keyboard-response","134","618161","0.0-6.0-0.0-8.0-0.13","3","4","4","3","3","3","3","1","3","4","5","4","2","4","4","5","5","4","4","4","4","4","4","5","4","4","4","5","4","1","0","1","1","0","1","1","0","1","1","1","0","1","0","1","5","2","4","2","5","4","4","4","5","4","763807579603472386","刘","403","","","","","","","","","","","","","","","","","","","","","","","","","","","","","","","","","","","","","","","",""
"524","<p style=""color:white; font-size: 35px;"">废物</p>","e","categorize-html","135","618687","0.0-6.0-0.0-8.0-1.13","3","4","4","3","3","3","3","1","3","4","5","4","2","4","4","5","5","4","4","4","4","4","4","5","4","4","4","5","4","1","0","1","1","0","1","1","0","1","1","1","0","1","0","1","5","2","4","2","5","4","4","4","5","4","763807579603472386","刘","403","","","","","","","","","","","","","","","","","","","true","4","4","ability","524","negative","废物","","","","","","","","","","","","","","",""
"null","","null","html-keyboard-response","136","618946","0.0-6.0-0.0-8.0-0.14","3","4","4","3","3","3","3","1","3","4","5","4","2","4","4","5","5","4","4","4","4","4","4","5","4","4","4","5","4","1","0","1","1","0","1","1","0","1","1","1","0","1","0","1","5","2","4","2","5","4","4","4","5","4","763807579603472386","刘","403","","","","","","","","","","","","","","","","","","","","","","","","","","","","","","","","","","","","","","","",""
"675","<p style=""color:rgb(150, 250, 100); font-size: 35px;"">自己</p>","e","categorize-html","137","619626","0.0-6.0-0.0-8.0-1.14","3","4","4","3","3","3","3","1","3","4","5","4","2","4","4","5","5","4","4","4","4","4","4","5","4","4","4","5","4","1","0","1","1","0","1","1","0","1","1","1","0","1","0","1","5","2","4","2","5","4","4","4","5","4","763807579603472386","刘","403","","","","","","","","","","","","","","","","","","","true","4","4","ability","675","self","自己","","","","","","","","","","","","","","",""
"null","","null","html-keyboard-response","138","619887","0.0-6.0-0.0-8.0-0.15","3","4","4","3","3","3","3","1","3","4","5","4","2","4","4","5","5","4","4","4","4","4","4","5","4","4","4","5","4","1","0","1","1","0","1","1","0","1","1","1","0","1","0","1","5","2","4","2","5","4","4","4","5","4","763807579603472386","刘","403","","","","","","","","","","","","","","","","","","","","","","","","","","","","","","","","","","","","","","","",""
"490","<p style=""color:white; font-size: 35px;"">高效</p>","i","categorize-html","139","620382","0.0-6.0-0.0-8.0-1.15","3","4","4","3","3","3","3","1","3","4","5","4","2","4","4","5","5","4","4","4","4","4","4","5","4","4","4","5","4","1","0","1","1","0","1","1","0","1","1","1","0","1","0","1","5","2","4","2","5","4","4","4","5","4","763807579603472386","刘","403","","","","","","","","","","","","","","","","","","","true","4","4","ability","490","positive","高效","","","","","","","","","","","","","","",""
"null","","null","html-keyboard-response","140","620639","0.0-6.0-0.0-8.0-0.16","3","4","4","3","3","3","3","1","3","4","5","4","2","4","4","5","5","4","4","4","4","4","4","5","4","4","4","5","4","1","0","1","1","0","1","1","0","1","1","1","0","1","0","1","5","2","4","2","5","4","4","4","5","4","763807579603472386","刘","403","","","","","","","","","","","","","","","","","","","","","","","","","","","","","","","","","","","","","","","",""
"544","<p style=""color:rgb(150, 250, 100); font-size: 35px;"">别人的</p>","i","categorize-html","141","621188","0.0-6.0-0.0-8.0-1.16","3","4","4","3","3","3","3","1","3","4","5","4","2","4","4","5","5","4","4","4","4","4","4","5","4","4","4","5","4","1","0","1","1","0","1","1","0","1","1","1","0","1","0","1","5","2","4","2","5","4","4","4","5","4","763807579603472386","刘","403","","","","","","","","","","","","","","","","","","","true","4","4","ability","544","other","别人的","","","","","","","","","","","","","","",""
"null","","null","html-keyboard-response","142","621449","0.0-6.0-0.0-8.0-0.17","3","4","4","3","3","3","3","1","3","4","5","4","2","4","4","5","5","4","4","4","4","4","4","5","4","4","4","5","4","1","0","1","1","0","1","1","0","1","1","1","0","1","0","1","5","2","4","2","5","4","4","4","5","4","763807579603472386","刘","403","","","","","","","","","","","","","","","","","","","","","","","","","","","","","","","","","","","","","","","",""
"645","<p style=""color:white; font-size: 35px;"">天才</p>","i","categorize-html","143","622099","0.0-6.0-0.0-8.0-1.17","3","4","4","3","3","3","3","1","3","4","5","4","2","4","4","5","5","4","4","4","4","4","4","5","4","4","4","5","4","1","0","1","1","0","1","1","0","1","1","1","0","1","0","1","5","2","4","2","5","4","4","4","5","4","763807579603472386","刘","403","","","","","","","","","","","","","","","","","","","true","4","4","ability","645","positive","天才","","","","","","","","","","","","","","",""
"null","","null","html-keyboard-response","144","622360","0.0-6.0-0.0-8.0-0.18","3","4","4","3","3","3","3","1","3","4","5","4","2","4","4","5","5","4","4","4","4","4","4","5","4","4","4","5","4","1","0","1","1","0","1","1","0","1","1","1","0","1","0","1","5","2","4","2","5","4","4","4","5","4","763807579603472386","刘","403","","","","","","","","","","","","","","","","","","","","","","","","","","","","","","","","","","","","","","","",""
"1001","<p style=""color:rgb(150, 250, 100); font-size: 35px;"">自己</p>","e","categorize-html","145","623366","0.0-6.0-0.0-8.0-1.18","3","4","4","3","3","3","3","1","3","4","5","4","2","4","4","5","5","4","4","4","4","4","4","5","4","4","4","5","4","1","0","1","1","0","1","1","0","1","1","1","0","1","0","1","5","2","4","2","5","4","4","4","5","4","763807579603472386","刘","403","","","","","","","","","","","","","","","","","","","true","4","4","ability","1001","self","自己","","","","","","","","","","","","","","",""
"null","","null","html-keyboard-response","146","623625","0.0-6.0-0.0-8.0-0.19","3","4","4","3","3","3","3","1","3","4","5","4","2","4","4","5","5","4","4","4","4","4","4","5","4","4","4","5","4","1","0","1","1","0","1","1","0","1","1","1","0","1","0","1","5","2","4","2","5","4","4","4","5","4","763807579603472386","刘","403","","","","","","","","","","","","","","","","","","","","","","","","","","","","","","","","","","","","","","","",""
"576","<p style=""color:white; font-size: 35px;"">拙笨</p>","e","categorize-html","147","624206","0.0-6.0-0.0-8.0-1.19","3","4","4","3","3","3","3","1","3","4","5","4","2","4","4","5","5","4","4","4","4","4","4","5","4","4","4","5","4","1","0","1","1","0","1","1","0","1","1","1","0","1","0","1","5","2","4","2","5","4","4","4","5","4","763807579603472386","刘","403","","","","","","","","","","","","","","","","","","","true","4","4","ability","576","negative","拙笨","","","","","","","","","","","","","","",""
"null","","null","html-keyboard-response","148","624465","0.0-6.0-0.0-8.0-0.20","3","4","4","3","3","3","3","1","3","4","5","4","2","4","4","5","5","4","4","4","4","4","4","5","4","4","4","5","4","1","0","1","1","0","1","1","0","1","1","1","0","1","0","1","5","2","4","2","5","4","4","4","5","4","763807579603472386","刘","403","","","","","","","","","","","","","","","","","","","","","","","","","","","","","","","","","","","","","","","",""
"603","<p style=""color:rgb(150, 250, 100); font-size: 35px;"">他人的</p>","i","categorize-html","149","625072","0.0-6.0-0.0-8.0-1.20","3","4","4","3","3","3","3","1","3","4","5","4","2","4","4","5","5","4","4","4","4","4","4","5","4","4","4","5","4","1","0","1","1","0","1","1","0","1","1","1","0","1","0","1","5","2","4","2","5","4","4","4","5","4","763807579603472386","刘","403","","","","","","","","","","","","","","","","","","","true","4","4","ability","603","other","他人的","","","","","","","","","","","","","","",""
"null","","null","html-keyboard-response","150","625330","0.0-6.0-0.0-8.0-0.21","3","4","4","3","3","3","3","1","3","4","5","4","2","4","4","5","5","4","4","4","4","4","4","5","4","4","4","5","4","1","0","1","1","0","1","1","0","1","1","1","0","1","0","1","5","2","4","2","5","4","4","4","5","4","763807579603472386","刘","403","","","","","","","","","","","","","","","","","","","","","","","","","","","","","","","","","","","","","","","",""
"705","<p style=""color:white; font-size: 35px;"">低能</p>","e","categorize-html","151","626040","0.0-6.0-0.0-8.0-1.21","3","4","4","3","3","3","3","1","3","4","5","4","2","4","4","5","5","4","4","4","4","4","4","5","4","4","4","5","4","1","0","1","1","0","1","1","0","1","1","1","0","1","0","1","5","2","4","2","5","4","4","4","5","4","763807579603472386","刘","403","","","","","","","","","","","","","","","","","","","true","4","4","ability","705","negative","低能","","","","","","","","","","","","","","",""
"null","","null","html-keyboard-response","152","626296","0.0-6.0-0.0-8.0-0.22","3","4","4","3","3","3","3","1","3","4","5","4","2","4","4","5","5","4","4","4","4","4","4","5","4","4","4","5","4","1","0","1","1","0","1","1","0","1","1","1","0","1","0","1","5","2","4","2","5","4","4","4","5","4","763807579603472386","刘","403","","","","","","","","","","","","","","","","","","","","","","","","","","","","","","","","","","","","","","","",""
"576","<p style=""color:rgb(150, 250, 100); font-size: 35px;"">我的</p>","e","categorize-html","153","626877","0.0-6.0-0.0-8.0-1.22","3","4","4","3","3","3","3","1","3","4","5","4","2","4","4","5","5","4","4","4","4","4","4","5","4","4","4","5","4","1","0","1","1","0","1","1","0","1","1","1","0","1","0","1","5","2","4","2","5","4","4","4","5","4","763807579603472386","刘","403","","","","","","","","","","","","","","","","","","","true","4","4","ability","576","self","我的","","","","","","","","","","","","","","",""
"null","","null","html-keyboard-response","154","627132","0.0-6.0-0.0-8.0-0.23","3","4","4","3","3","3","3","1","3","4","5","4","2","4","4","5","5","4","4","4","4","4","4","5","4","4","4","5","4","1","0","1","1","0","1","1","0","1","1","1","0","1","0","1","5","2","4","2","5","4","4","4","5","4","763807579603472386","刘","403","","","","","","","","","","","","","","","","","","","","","","","","","","","","","","","","","","","","","","","",""
"581","<p style=""color:white; font-size: 35px;"">精干</p>","i","categorize-html","155","627718","0.0-6.0-0.0-8.0-1.23","3","4","4","3","3","3","3","1","3","4","5","4","2","4","4","5","5","4","4","4","4","4","4","5","4","4","4","5","4","1","0","1","1","0","1","1","0","1","1","1","0","1","0","1","5","2","4","2","5","4","4","4","5","4","763807579603472386","刘","403","","","","","","","","","","","","","","","","","","","true","4","4","ability","581","positive","精干","","","","","","","","","","","","","","",""
"null","","null","html-keyboard-response","156","627976","0.0-6.0-0.0-8.0-0.24","3","4","4","3","3","3","3","1","3","4","5","4","2","4","4","5","5","4","4","4","4","4","4","5","4","4","4","5","4","1","0","1","1","0","1","1","0","1","1","1","0","1","0","1","5","2","4","2","5","4","4","4","5","4","763807579603472386","刘","403","","","","","","","","","","","","","","","","","","","","","","","","","","","","","","","","","","","","","","","",""
"737","<p style=""color:rgb(150, 250, 100); font-size: 35px;"">本人</p>","e","categorize-html","157","628716","0.0-6.0-0.0-8.0-1.24","3","4","4","3","3","3","3","1","3","4","5","4","2","4","4","5","5","4","4","4","4","4","4","5","4","4","4","5","4","1","0","1","1","0","1","1","0","1","1","1","0","1","0","1","5","2","4","2","5","4","4","4","5","4","763807579603472386","刘","403","","","","","","","","","","","","","","","","","","","true","4","4","ability","737","self","本人","","","","","","","","","","","","","","",""
"null","","null","html-keyboard-response","158","628977","0.0-6.0-0.0-8.0-0.25","3","4","4","3","3","3","3","1","3","4","5","4","2","4","4","5","5","4","4","4","4","4","4","5","4","4","4","5","4","1","0","1","1","0","1","1","0","1","1","1","0","1","0","1","5","2","4","2","5","4","4","4","5","4","763807579603472386","刘","403","","","","","","","","","","","","","","","","","","","","","","","","","","","","","","","","","","","","","","","",""
"564","<p style=""color:white; font-size: 35px;"">拙笨</p>","e","categorize-html","159","629545","0.0-6.0-0.0-8.0-1.25","3","4","4","3","3","3","3","1","3","4","5","4","2","4","4","5","5","4","4","4","4","4","4","5","4","4","4","5","4","1","0","1","1","0","1","1","0","1","1","1","0","1","0","1","5","2","4","2","5","4","4","4","5","4","763807579603472386","刘","403","","","","","","","","","","","","","","","","","","","true","4","4","ability","564","negative","拙笨","","","","","","","","","","","","","","",""
"null","","null","html-keyboard-response","160","629801","0.0-6.0-0.0-8.0-0.26","3","4","4","3","3","3","3","1","3","4","5","4","2","4","4","5","5","4","4","4","4","4","4","5","4","4","4","5","4","1","0","1","1","0","1","1","0","1","1","1","0","1","0","1","5","2","4","2","5","4","4","4","5","4","763807579603472386","刘","403","","","","","","","","","","","","","","","","","","","","","","","","","","","","","","","","","","","","","","","",""
"559","<p style=""color:rgb(150, 250, 100); font-size: 35px;"">他</p>","i","categorize-html","161","630366","0.0-6.0-0.0-8.0-1.26","3","4","4","3","3","3","3","1","3","4","5","4","2","4","4","5","5","4","4","4","4","4","4","5","4","4","4","5","4","1","0","1","1","0","1","1","0","1","1","1","0","1","0","1","5","2","4","2","5","4","4","4","5","4","763807579603472386","刘","403","","","","","","","","","","","","","","","","","","","true","4","4","ability","559","other","他","","","","","","","","","","","","","","",""
"null","","null","html-keyboard-response","162","630627","0.0-6.0-0.0-8.0-0.27","3","4","4","3","3","3","3","1","3","4","5","4","2","4","4","5","5","4","4","4","4","4","4","5","4","4","4","5","4","1","0","1","1","0","1","1","0","1","1","1","0","1","0","1","5","2","4","2","5","4","4","4","5","4","763807579603472386","刘","403","","","","","","","","","","","","","","","","","","","","","","","","","","","","","","","","","","","","","","","",""
"701","<p style=""color:white; font-size: 35px;"">全才</p>","i","categorize-html","163","631333","0.0-6.0-0.0-8.0-1.27","3","4","4","3","3","3","3","1","3","4","5","4","2","4","4","5","5","4","4","4","4","4","4","5","4","4","4","5","4","1","0","1","1","0","1","1","0","1","1","1","0","1","0","1","5","2","4","2","5","4","4","4","5","4","763807579603472386","刘","403","","","","","","","","","","","","","","","","","","","true","4","4","ability","701","positive","全才","","","","","","","","","","","","","","",""
"null","","null","html-keyboard-response","164","631593","0.0-6.0-0.0-8.0-0.28","3","4","4","3","3","3","3","1","3","4","5","4","2","4","4","5","5","4","4","4","4","4","4","5","4","4","4","5","4","1","0","1","1","0","1","1","0","1","1","1","0","1","0","1","5","2","4","2","5","4","4","4","5","4","763807579603472386","刘","403","","","","","","","","","","","","","","","","","","","","","","","","","","","","","","","","","","","","","","","",""
"584","<p style=""color:rgb(150, 250, 100); font-size: 35px;"">自己的</p>","e","categorize-html","165","632181","0.0-6.0-0.0-8.0-1.28","3","4","4","3","3","3","3","1","3","4","5","4","2","4","4","5","5","4","4","4","4","4","4","5","4","4","4","5","4","1","0","1","1","0","1","1","0","1","1","1","0","1","0","1","5","2","4","2","5","4","4","4","5","4","763807579603472386","刘","403","","","","","","","","","","","","","","","","","","","true","4","4","ability","584","self","自己的","","","","","","","","","","","","","","",""
"null","","null","html-keyboard-response","166","632439","0.0-6.0-0.0-8.0-0.29","3","4","4","3","3","3","3","1","3","4","5","4","2","4","4","5","5","4","4","4","4","4","4","5","4","4","4","5","4","1","0","1","1","0","1","1","0","1","1","1","0","1","0","1","5","2","4","2","5","4","4","4","5","4","763807579603472386","刘","403","","","","","","","","","","","","","","","","","","","","","","","","","","","","","","","","","","","","","","","",""
"651","<p style=""color:white; font-size: 35px;"">天才</p>","i","categorize-html","167","633096","0.0-6.0-0.0-8.0-1.29","3","4","4","3","3","3","3","1","3","4","5","4","2","4","4","5","5","4","4","4","4","4","4","5","4","4","4","5","4","1","0","1","1","0","1","1","0","1","1","1","0","1","0","1","5","2","4","2","5","4","4","4","5","4","763807579603472386","刘","403","","","","","","","","","","","","","","","","","","","true","4","4","ability","651","positive","天才","","","","","","","","","","","","","","",""
"null","","null","html-keyboard-response","168","633353","0.0-6.0-0.0-8.0-0.30","3","4","4","3","3","3","3","1","3","4","5","4","2","4","4","5","5","4","4","4","4","4","4","5","4","4","4","5","4","1","0","1","1","0","1","1","0","1","1","1","0","1","0","1","5","2","4","2","5","4","4","4","5","4","763807579603472386","刘","403","","","","","","","","","","","","","","","","","","","","","","","","","","","","","","","","","","","","","","","",""
"698","<p style=""color:rgb(150, 250, 100); font-size: 35px;"">他人</p>","i","categorize-html","169","634056","0.0-6.0-0.0-8.0-1.30","3","4","4","3","3","3","3","1","3","4","5","4","2","4","4","5","5","4","4","4","4","4","4","5","4","4","4","5","4","1","0","1","1","0","1","1","0","1","1","1","0","1","0","1","5","2","4","2","5","4","4","4","5","4","763807579603472386","刘","403","","","","","","","","","","","","","","","","","","","true","4","4","ability","698","other","他人","","","","","","","","","","","","","","",""
"null","","null","html-keyboard-response","170","634311","0.0-6.0-0.0-8.0-0.31","3","4","4","3","3","3","3","1","3","4","5","4","2","4","4","5","5","4","4","4","4","4","4","5","4","4","4","5","4","1","0","1","1","0","1","1","0","1","1","1","0","1","0","1","5","2","4","2","5","4","4","4","5","4","763807579603472386","刘","403","","","","","","","","","","","","","","","","","","","","","","","","","","","","","","","","","","","","","","","",""
"516","<p style=""color:white; font-size: 35px;"">低能</p>","e","categorize-html","171","634831","0.0-6.0-0.0-8.0-1.31","3","4","4","3","3","3","3","1","3","4","5","4","2","4","4","5","5","4","4","4","4","4","4","5","4","4","4","5","4","1","0","1","1","0","1","1","0","1","1","1","0","1","0","1","5","2","4","2","5","4","4","4","5","4","763807579603472386","刘","403","","","","","","","","","","","","","","","","","","","true","4","4","ability","516","negative","低能","","","","","","","","","","","","","","",""
"null","","null","html-keyboard-response","172","635087","0.0-6.0-0.0-8.0-0.32","3","4","4","3","3","3","3","1","3","4","5","4","2","4","4","5","5","4","4","4","4","4","4","5","4","4","4","5","4","1","0","1","1","0","1","1","0","1","1","1","0","1","0","1","5","2","4","2","5","4","4","4","5","4","763807579603472386","刘","403","","","","","","","","","","","","","","","","","","","","","","","","","","","","","","","","","","","","","","","",""
"710","<p style=""color:rgb(150, 250, 100); font-size: 35px;"">我</p>","i","categorize-html","173","636309","0.0-6.0-0.0-8.0-1.32","3","4","4","3","3","3","3","1","3","4","5","4","2","4","4","5","5","4","4","4","4","4","4","5","4","4","4","5","4","1","0","1","1","0","1","1","0","1","1","1","0","1","0","1","5","2","4","2","5","4","4","4","5","4","763807579603472386","刘","403","","","","","","","","","","","","","","","","","","","false","4","4","ability","1271.5434782608695","self","我","","","","","","","","","","","","","","",""
"null","","null","html-keyboard-response","174","636564","0.0-6.0-0.0-8.0-0.33","3","4","4","3","3","3","3","1","3","4","5","4","2","4","4","5","5","4","4","4","4","4","4","5","4","4","4","5","4","1","0","1","1","0","1","1","0","1","1","1","0","1","0","1","5","2","4","2","5","4","4","4","5","4","763807579603472386","刘","403","","","","","","","","","","","","","","","","","","","","","","","","","","","","","","","","","","","","","","","",""
"526","<p style=""color:white; font-size: 35px;"">精干</p>","i","categorize-html","175","637094","0.0-6.0-0.0-8.0-1.33","3","4","4","3","3","3","3","1","3","4","5","4","2","4","4","5","5","4","4","4","4","4","4","5","4","4","4","5","4","1","0","1","1","0","1","1","0","1","1","1","0","1","0","1","5","2","4","2","5","4","4","4","5","4","763807579603472386","刘","403","","","","","","","","","","","","","","","","","","","true","4","4","ability","526","positive","精干","","","","","","","","","","","","","","",""
"null","","null","html-keyboard-response","176","637349","0.0-6.0-0.0-8.0-0.34","3","4","4","3","3","3","3","1","3","4","5","4","2","4","4","5","5","4","4","4","4","4","4","5","4","4","4","5","4","1","0","1","1","0","1","1","0","1","1","1","0","1","0","1","5","2","4","2","5","4","4","4","5","4","763807579603472386","刘","403","","","","","","","","","","","","","","","","","","","","","","","","","","","","","","","","","","","","","","","",""
"802","<p style=""color:rgb(150, 250, 100); font-size: 35px;"">他</p>","i","categorize-html","177","638156","0.0-6.0-0.0-8.0-1.34","3","4","4","3","3","3","3","1","3","4","5","4","2","4","4","5","5","4","4","4","4","4","4","5","4","4","4","5","4","1","0","1","1","0","1","1","0","1","1","1","0","1","0","1","5","2","4","2","5","4","4","4","5","4","763807579603472386","刘","403","","","","","","","","","","","","","","","","","","","true","4","4","ability","802","other","他","","","","","","","","","","","","","","",""
"null","","null","html-keyboard-response","178","638409","0.0-6.0-0.0-8.0-0.35","3","4","4","3","3","3","3","1","3","4","5","4","2","4","4","5","5","4","4","4","4","4","4","5","4","4","4","5","4","1","0","1","1","0","1","1","0","1","1","1","0","1","0","1","5","2","4","2","5","4","4","4","5","4","763807579603472386","刘","403","","","","","","","","","","","","","","","","","","","","","","","","","","","","","","","","","","","","","","","",""
"535","<p style=""color:white; font-size: 35px;"">蠢笨</p>","e","categorize-html","179","638949","0.0-6.0-0.0-8.0-1.35","3","4","4","3","3","3","3","1","3","4","5","4","2","4","4","5","5","4","4","4","4","4","4","5","4","4","4","5","4","1","0","1","1","0","1","1","0","1","1","1","0","1","0","1","5","2","4","2","5","4","4","4","5","4","763807579603472386","刘","403","","","","","","","","","","","","","","","","","","","true","4","4","ability","535","negative","蠢笨","","","","","","","","","","","","","","",""
"null","","null","html-keyboard-response","180","639205","0.0-6.0-0.0-8.0-0.36","3","4","4","3","3","3","3","1","3","4","5","4","2","4","4","5","5","4","4","4","4","4","4","5","4","4","4","5","4","1","0","1","1","0","1","1","0","1","1","1","0","1","0","1","5","2","4","2","5","4","4","4","5","4","763807579603472386","刘","403","","","","","","","","","","","","","","","","","","","","","","","","","","","","","","","","","","","","","","","",""
"954","<p style=""color:rgb(150, 250, 100); font-size: 35px;"">他的</p>","i","categorize-html","181","640164","0.0-6.0-0.0-8.0-1.36","3","4","4","3","3","3","3","1","3","4","5","4","2","4","4","5","5","4","4","4","4","4","4","5","4","4","4","5","4","1","0","1","1","0","1","1","0","1","1","1","0","1","0","1","5","2","4","2","5","4","4","4","5","4","763807579603472386","刘","403","","","","","","","","","","","","","","","","","","","true","4","4","ability","954","other","他的","","","","","","","","","","","","","","",""
"null","","null","html-keyboard-response","182","640428","0.0-6.0-0.0-8.0-0.37","3","4","4","3","3","3","3","1","3","4","5","4","2","4","4","5","5","4","4","4","4","4","4","5","4","4","4","5","4","1","0","1","1","0","1","1","0","1","1","1","0","1","0","1","5","2","4","2","5","4","4","4","5","4","763807579603472386","刘","403","","","","","","","","","","","","","","","","","","","","","","","","","","","","","","","","","","","","","","","",""
"897","<p style=""color:white; font-size: 35px;"">能干</p>","i","categorize-html","183","641329","0.0-6.0-0.0-8.0-1.37","3","4","4","3","3","3","3","1","3","4","5","4","2","4","4","5","5","4","4","4","4","4","4","5","4","4","4","5","4","1","0","1","1","0","1","1","0","1","1","1","0","1","0","1","5","2","4","2","5","4","4","4","5","4","763807579603472386","刘","403","","","","","","","","","","","","","","","","","","","true","4","4","ability","897","positive","能干","","","","","","","","","","","","","","",""
"null","","null","html-keyboard-response","184","641585","0.0-6.0-0.0-8.0-0.38","3","4","4","3","3","3","3","1","3","4","5","4","2","4","4","5","5","4","4","4","4","4","4","5","4","4","4","5","4","1","0","1","1","0","1","1","0","1","1","1","0","1","0","1","5","2","4","2","5","4","4","4","5","4","763807579603472386","刘","403","","","","","","","","","","","","","","","","","","","","","","","","","","","","","","","","","","","","","","","",""
"927","<p style=""color:rgb(150, 250, 100); font-size: 35px;"">本人的</p>","i","categorize-html","185","642877","0.0-6.0-0.0-8.0-1.38","3","4","4","3","3","3","3","1","3","4","5","4","2","4","4","5","5","4","4","4","4","4","4","5","4","4","4","5","4","1","0","1","1","0","1","1","0","1","1","1","0","1","0","1","5","2","4","2","5","4","4","4","5","4","763807579603472386","刘","403","","","","","","","","","","","","","","","","","","","false","4","4","ability","1271.5434782608695","self","本人的","","","","","","","","","","","","","","",""
"null","","null","html-keyboard-response","186","643131","0.0-6.0-0.0-8.0-0.39","3","4","4","3","3","3","3","1","3","4","5","4","2","4","4","5","5","4","4","4","4","4","4","5","4","4","4","5","4","1","0","1","1","0","1","1","0","1","1","1","0","1","0","1","5","2","4","2","5","4","4","4","5","4","763807579603472386","刘","403","","","","","","","","","","","","","","","","","","","","","","","","","","","","","","","","","","","","","","","",""
"643","<p style=""color:white; font-size: 35px;"">蠢笨</p>","e","categorize-html","187","643779","0.0-6.0-0.0-8.0-1.39","3","4","4","3","3","3","3","1","3","4","5","4","2","4","4","5","5","4","4","4","4","4","4","5","4","4","4","5","4","1","0","1","1","0","1","1","0","1","1","1","0","1","0","1","5","2","4","2","5","4","4","4","5","4","763807579603472386","刘","403","","","","","","","","","","","","","","","","","","","true","4","4","ability","643","negative","蠢笨","","","","","","","","","","","","","","",""
"null","","null","html-keyboard-response","188","644033","0.0-6.0-0.0-8.0-0.40","3","4","4","3","3","3","3","1","3","4","5","4","2","4","4","5","5","4","4","4","4","4","4","5","4","4","4","5","4","1","0","1","1","0","1","1","0","1","1","1","0","1","0","1","5","2","4","2","5","4","4","4","5","4","763807579603472386","刘","403","","","","","","","","","","","","","","","","","","","","","","","","","","","","","","","","","","","","","","","",""
"800","<p style=""color:rgb(150, 250, 100); font-size: 35px;"">本人的</p>","e","categorize-html","189","644838","0.0-6.0-0.0-8.0-1.40","3","4","4","3","3","3","3","1","3","4","5","4","2","4","4","5","5","4","4","4","4","4","4","5","4","4","4","5","4","1","0","1","1","0","1","1","0","1","1","1","0","1","0","1","5","2","4","2","5","4","4","4","5","4","763807579603472386","刘","403","","","","","","","","","","","","","","","","","","","true","4","4","ability","800","self","本人的","","","","","","","","","","","","","","",""
"null","","null","html-keyboard-response","190","645092","0.0-6.0-0.0-8.0-0.41","3","4","4","3","3","3","3","1","3","4","5","4","2","4","4","5","5","4","4","4","4","4","4","5","4","4","4","5","4","1","0","1","1","0","1","1","0","1","1","1","0","1","0","1","5","2","4","2","5","4","4","4","5","4","763807579603472386","刘","403","","","","","","","","","","","","","","","","","","","","","","","","","","","","","","","","","","","","","","","",""
"1232","<p style=""color:white; font-size: 35px;"">愚钝</p>","e","categorize-html","191","646328","0.0-6.0-0.0-8.0-1.41","3","4","4","3","3","3","3","1","3","4","5","4","2","4","4","5","5","4","4","4","4","4","4","5","4","4","4","5","4","1","0","1","1","0","1","1","0","1","1","1","0","1","0","1","5","2","4","2","5","4","4","4","5","4","763807579603472386","刘","403","","","","","","","","","","","","","","","","","","","true","4","4","ability","1232","negative","愚钝","","","","","","","","","","","","","","",""
"null","","null","html-keyboard-response","192","646593","0.0-6.0-0.0-8.0-0.42","3","4","4","3","3","3","3","1","3","4","5","4","2","4","4","5","5","4","4","4","4","4","4","5","4","4","4","5","4","1","0","1","1","0","1","1","0","1","1","1","0","1","0","1","5","2","4","2","5","4","4","4","5","4","763807579603472386","刘","403","","","","","","","","","","","","","","","","","","","","","","","","","","","","","","","","","","","","","","","",""
"593","<p style=""color:rgb(150, 250, 100); font-size: 35px;"">别人</p>","i","categorize-html","193","647190","0.0-6.0-0.0-8.0-1.42","3","4","4","3","3","3","3","1","3","4","5","4","2","4","4","5","5","4","4","4","4","4","4","5","4","4","4","5","4","1","0","1","1","0","1","1","0","1","1","1","0","1","0","1","5","2","4","2","5","4","4","4","5","4","763807579603472386","刘","403","","","","","","","","","","","","","","","","","","","true","4","4","ability","593","other","别人","","","","","","","","","","","","","","",""
"null","","null","html-keyboard-response","194","647447","0.0-6.0-0.0-8.0-0.43","3","4","4","3","3","3","3","1","3","4","5","4","2","4","4","5","5","4","4","4","4","4","4","5","4","4","4","5","4","1","0","1","1","0","1","1","0","1","1","1","0","1","0","1","5","2","4","2","5","4","4","4","5","4","763807579603472386","刘","403","","","","","","","","","","","","","","","","","","","","","","","","","","","","","","","","","","","","","","","",""
"714","<p style=""color:white; font-size: 35px;"">全能</p>","i","categorize-html","195","648166","0.0-6.0-0.0-8.0-1.43","3","4","4","3","3","3","3","1","3","4","5","4","2","4","4","5","5","4","4","4","4","4","4","5","4","4","4","5","4","1","0","1","1","0","1","1","0","1","1","1","0","1","0","1","5","2","4","2","5","4","4","4","5","4","763807579603472386","刘","403","","","","","","","","","","","","","","","","","","","true","4","4","ability","714","positive","全能","","","","","","","","","","","","","","",""
"null","","null","html-keyboard-response","196","648427","0.0-6.0-0.0-8.0-0.44","3","4","4","3","3","3","3","1","3","4","5","4","2","4","4","5","5","4","4","4","4","4","4","5","4","4","4","5","4","1","0","1","1","0","1","1","0","1","1","1","0","1","0","1","5","2","4","2","5","4","4","4","5","4","763807579603472386","刘","403","","","","","","","","","","","","","","","","","","","","","","","","","","","","","","","","","","","","","","","",""
