"rt","stimulus","response","trial_type","trial_index","time_elapsed","internal_node_id","ses_1","ses_2","ses_3","ses_4","ses_5","ses_6","ses_7","ses_8","ses_9","ses_10","coreself_1","coreself_2","coreself_3","coreself_4","coreself_5","coreself_6","coreself_7","coreself_8","coreself_9","coreself_10","SGPS_1","SGPS_2","SGPS_3","SGPS_4","SGPS_5","SGPS_6","SGPS_7","SGPS_8","SGPS_9","NPI1","NPI2","NPI3","NPI4","NPI5","NPI6","NPI7","NPI8","NPI9","NPI10","NPI11","NPI12","NPI13","NPI14","NPI15","hsns_1","hsns_2","hsns_3","hsns_4","hsns_5","hsns_6","hsns_7","hsns_8","hsns_9","hsns_10","subj_idx","friend_name","ParticipantID","value","success","user_agent","responses","item_order","radio_event_ids","radio_event_times","key_event_times","mouse_event_times","straightlining","zigzagging","honeypot","timeout","failed_images","failed_audio","failed_video","view_history","response_type","key_press","avg_frame_time","center_x","center_y","correct_response","correct","identity","Image","word","condition","task_id","screen_id","time_stamp","version_attrib","version_target","IAT","RT","varname","summary","version_attrib2","version_target2","question_order"
"14679","
   <p><div style = ""color: white;font-size:25px;"">您好，欢迎参加本次实验。</div> </p>
   <p><div style = ""color: white;font-size:25px;"">为充分保障您的权利，请确保您已经知晓并同意《参与实验同意书》以及《数据公开知情同意书》。</div></p>
   <p><div style = ""color: white;font-size:25px;"">如果您未见过上述内容，请咨询实验员。</div></p>
   <p><div style = ""color: white;font-size:25px;"">如果您选择继续实验，则表示您已经清楚两份知情同意书的内容并同意。</div></p>
   <p><div style = ""color: red;font-size:30px;"">请确保您记得day0的实验编号，您将在本次实验输入该编号，若您忘记，请咨询实验员后作答。</div></p>
   <p> <div style = ""color: green;font-size:25px;""><按空格键至下页></div> </p>
   "," ","html-keyboard-response","0","14682","0.0-0.0","2","2","3","3","2","2","2","2","2","2","3","2","1","3","2","2","2","2","2","2","2","2","2","2","2","1","1","4","1","1","0","1","1","0","0","1","1","1","1","1","0","0","0","1","5","3","4","5","5","4","3","5","4","2","770428348274053122","郭","681","","","","","","","","","","","","","","","","","","","","","","","","","","","","","","","","","","","","","","","",""
"","","","call-function","1","14684","0.0-1.0-0.0","2","2","3","3","2","2","2","2","2","2","3","2","1","3","2","2","2","2","2","2","2","2","2","2","2","1","1","4","1","1","0","1","1","0","0","1","1","1","1","1","0","0","0","1","5","3","4","5","5","4","3","5","4","2","770428348274053122","郭","681","","","","","","","","","","","","","","","","","","","","","","","","","","","","","","","","","","","","","","","",""
"9635","","{""friend_name"":""郭"",""ParticipantID"":""681""}","survey-html-form","2","24320","0.0-1.0-1.0","2","2","3","3","2","2","2","2","2","2","3","2","1","3","2","2","2","2","2","2","2","2","2","2","2","1","1","4","1","1","0","1","1","0","0","1","1","1","1","1","0","0","0","1","5","3","4","5","5","4","3","5","4","2","770428348274053122","郭","681","","","","","","","","","","","","","","","","","","","","","","","","","","","","","","","","","","","","","","","",""
"","","","fullscreen","3","26192","0.0-2.0","2","2","3","3","2","2","2","2","2","2","3","2","1","3","2","2","2","2","2","2","2","2","2","2","2","1","1","4","1","1","0","1","1","0","0","1","1","1","1","1","0","0","0","1","5","3","4","5","5","4","3","5","4","2","770428348274053122","郭","681","","true","{}","","","","","","","","","","","","","","","","","","","","","","","","","","","","","","","","","","","","",""
"65908","","{""Q01"":""2"",""Q02"":""2"",""Q03"":""3"",""Q04"":""3"",""Q05"":""2"",""Q06"":""2"",""Q07"":""2"",""Q08"":""2"",""Q09"":""2"",""Q10"":""2""}","survey-template","4","92102","0.0-3.0","2","2","3","3","2","2","2","2","2","2","3","2","1","3","2","2","2","2","2","2","2","2","2","2","2","1","1","4","1","1","0","1","1","0","0","1","1","1","1","1","0","0","0","1","5","3","4","5","5","4","3","5","4","2","770428348274053122","郭","681","","","","{""Q01"":""2"",""Q02"":""2"",""Q03"":""3"",""Q04"":""3"",""Q05"":""2"",""Q06"":""2"",""Q07"":""2"",""Q08"":""2"",""Q09"":""2"",""Q10"":""2""}","[0,1,2,3,4,5,6,7,8,9]","[""Q01"",""Q10"",""Q09"",""Q07"",""Q07"",""Q07"",""Q08"",""Q05"",""Q06"",""Q06"",""Q04"",""Q03"",""Q02"",""Q01"",""Q03""]","[5098.199999988079,37592,41677.09999999404,43047.29999999702,43895,44766.79999999702,49718,50895.29999999702,51406.89999999106,52037.09999999404,52900.29999999702,55564.69999998808,57150.09999999404,60850.19999998808,64255.5]","[]","[4153.0999999940395,4667.399999991059,5098.199999988079,36875.09999999404,37332.09999999404,37592,38772.89999999106,39260.89999999106,39670,40337.29999999702,40816.69999998808,41186.79999999702,41677.09999999404,43047.29999999702,43620,43895,44766.79999999702,48943.09999999404,49401.69999998808,49718,50895.29999999702,51406.89999999106,52037.09999999404,52900.29999999702,55151.19999998808,55564.69999998808,56847.69999998808,57150.09999999404,57859.89999999106,58614,60270.29999999702,60850.19999998808,64255.5,65907.29999999702]","0.5","0.3333333333333333","0","","","","","","","","","","","","","","","","","","","","","","","","","","","",""
"22677.39999999106","","{""Q01"":""3"",""Q02"":""2"",""Q03"":""1"",""Q04"":""3"",""Q05"":""2"",""Q06"":""2"",""Q07"":""2"",""Q08"":""2"",""Q09"":""2"",""Q10"":""2""}","survey-template","5","114784","0.0-4.0","2","2","3","3","2","2","2","2","2","2","3","2","1","3","2","2","2","2","2","2","2","2","2","2","2","1","1","4","1","1","0","1","1","0","0","1","1","1","1","1","0","0","0","1","5","3","4","5","5","4","3","5","4","2","770428348274053122","郭","681","","","","{""Q01"":""3"",""Q02"":""2"",""Q03"":""1"",""Q04"":""3"",""Q05"":""2"",""Q06"":""2"",""Q07"":""2"",""Q08"":""2"",""Q09"":""2"",""Q10"":""2""}","[0,1,2,3,4,5,6,7,8,9]","[""Q01"",""Q02"",""Q03"",""Q04"",""Q05"",""Q05"",""Q06"",""Q07"",""Q08"",""Q09"",""Q09"",""Q10""]","[5026.29999999702,6339.79999999702,8721.89999999106,9964.59999999404,11547.09999999404,12671.59999999404,14813.29999999702,16138.29999999702,17945.39999999106,19741.09999999404,21461.59999999404,22145.09999999404]","[]","[3990.2999999970198,4408,5026.29999999702,6339.79999999702,7312.0999999940395,7816,8721.89999999106,9964.59999999404,10919.09999999404,11547.09999999404,11994.89999999106,12671.59999999404,13727.199999988079,14371.699999988079,14813.29999999702,15856.29999999702,16138.29999999702,16933.09999999404,17945.39999999106,19257.59999999404,19741.09999999404,20206.89999999106,20545.79999999702,21461.59999999404,22145.09999999404,22479.29999999702,22676]","0.5","0.3333333333333333","0","","","","","","","","","","","","","","","","","","","","","","","","","","","",""
"","","","preload","6","115290","0.0-5.0","2","2","3","3","2","2","2","2","2","2","3","2","1","3","2","2","2","2","2","2","2","2","2","2","2","1","1","4","1","1","0","1","1","0","0","1","1","1","1","1","0","0","0","1","5","3","4","5","5","4","3","5","4","2","770428348274053122","郭","681","","true","","","","","","","","","","","false","[]","[]","[]","","","","","","","","","","","","","","","","","","","","","","","",""
"2948","","","instructions","7","118239","0.0-6.0","2","2","3","3","2","2","2","2","2","2","3","2","1","3","2","2","2","2","2","2","2","2","2","2","2","1","1","4","1","1","0","1","1","0","0","1","1","1","1","1","0","0","0","1","5","3","4","5","5","4","3","5","4","2","770428348274053122","郭","681","","","","","","","","","","","","","","","","","[{""page_index"":0,""viewing_time"":2948}]","","","","","","","","","","","","","","","","","","","","","","",""
"3645","","","instructions","8","121885","0.0-7.0-0.0-0.0","2","2","3","3","2","2","2","2","2","2","3","2","1","3","2","2","2","2","2","2","2","2","2","2","2","1","1","4","1","1","0","1","1","0","0","1","1","1","1","1","0","0","0","1","5","3","4","5","5","4","3","5","4","2","770428348274053122","郭","681","","","","","","","","","","","","","","","","","[{""page_index"":0,""viewing_time"":893},{""page_index"":1,""viewing_time"":1029},{""page_index"":2,""viewing_time"":1724}]","","","","","","","","","","","","","","","","","","","","","","",""
"null","","null","psychophysics","9","124090","0.0-7.0-0.0-1.0-0.0-0.0","2","2","3","3","2","2","2","2","2","2","3","2","1","3","2","2","2","2","2","2","2","2","2","2","2","1","1","4","1","1","0","1","1","0","0","1","1","1","1","1","0","0","0","1","5","3","4","5","5","4","3","5","4","2","770428348274053122","郭","681","","","","null","","","","","","","","","","","","","","key","null","16.66751908396952","768","428","f","false","nonmatch","img/square.png","五边","方形","ALT1_1","prac_ALT1_1","","","","","","","","","",""
"null","<span class='add_' style='color:yellow; font-size: 70px;'> 太慢! </span>","null","html-keyboard-response","10","124593","0.0-7.0-0.0-1.0-0.0-1.0","2","2","3","3","2","2","2","2","2","2","3","2","1","3","2","2","2","2","2","2","2","2","2","2","2","1","1","4","1","1","0","1","1","0","0","1","1","1","1","1","0","0","0","1","5","3","4","5","5","4","3","5","4","2","770428348274053122","郭","681","","","","","","","","","","","","","","","","","","","","","","","","","","","","","","feedback_test","","","","","","","","","",""
"499","","j","psychophysics","11","126100","0.0-7.0-0.0-1.0-0.0-0.1","2","2","3","3","2","2","2","2","2","2","3","2","1","3","2","2","2","2","2","2","2","2","2","2","2","1","1","4","1","1","0","1","1","0","0","1","1","1","1","1","0","0","0","1","5","3","4","5","5","4","3","5","4","2","770428348274053122","郭","681","","","","match","","","","","","","","","","","","","","key","j","16.66658426966293","768","428","j","true","match","img/diamond.png","菱形","菱形","ALT1_1","prac_ALT1_1","","","","","","","","","",""
"null","<span style='color:GreenYellow; font-size: 70px;'>正确! </span>","null","html-keyboard-response","12","126601","0.0-7.0-0.0-1.0-0.0-1.1","2","2","3","3","2","2","2","2","2","2","3","2","1","3","2","2","2","2","2","2","2","2","2","2","2","1","1","4","1","1","0","1","1","0","0","1","1","1","1","1","0","0","0","1","5","3","4","5","5","4","3","5","4","2","770428348274053122","郭","681","","","","","","","","","","","","","","","","","","","","","","","","","","","","","","feedback_test","","","","","","","","","",""
"169","","f","psychophysics","13","127785","0.0-7.0-0.0-1.0-0.0-0.2","2","2","3","3","2","2","2","2","2","2","3","2","1","3","2","2","2","2","2","2","2","2","2","2","2","1","1","4","1","1","0","1","1","0","0","1","1","1","1","1","0","0","0","1","5","3","4","5","5","4","3","5","4","2","770428348274053122","郭","681","","","","nonmatch","","","","","","","","","","","","","","key","f","16.66734285714296","768","428","f","true","nonmatch","img/pentagon.png","方形","五边","ALT1_1","prac_ALT1_1","","","","","","","","","",""
"null","<span style='color:yellow; font-size: 70px;'>过快! </span>","null","html-keyboard-response","14","128301","0.0-7.0-0.0-1.0-0.0-1.2","2","2","3","3","2","2","2","2","2","2","3","2","1","3","2","2","2","2","2","2","2","2","2","2","2","1","1","4","1","1","0","1","1","0","0","1","1","1","1","1","0","0","0","1","5","3","4","5","5","4","3","5","4","2","770428348274053122","郭","681","","","","","","","","","","","","","","","","","","","","","","","","","","","","","","feedback_test","","","","","","","","","",""
"29","","j","psychophysics","15","129332","0.0-7.0-0.0-1.0-0.0-0.3","2","2","3","3","2","2","2","2","2","2","3","2","1","3","2","2","2","2","2","2","2","2","2","2","2","1","1","4","1","1","0","1","1","0","0","1","1","1","1","1","0","0","0","1","5","3","4","5","5","4","3","5","4","2","770428348274053122","郭","681","","","","match","","","","","","","","","","","","","","key","j","16.66677049180344","768","428","j","true","match","img/pentagon.png","五边","五边","ALT1_1","prac_ALT1_1","","","","","","","","","",""
"null","<span style='color:yellow; font-size: 70px;'>过快! </span>","null","html-keyboard-response","16","129833","0.0-7.0-0.0-1.0-0.0-1.3","2","2","3","3","2","2","2","2","2","2","3","2","1","3","2","2","2","2","2","2","2","2","2","2","2","1","1","4","1","1","0","1","1","0","0","1","1","1","1","1","0","0","0","1","5","3","4","5","5","4","3","5","4","2","770428348274053122","郭","681","","","","","","","","","","","","","","","","","","","","","","","","","","","","","","feedback_test","","","","","","","","","",""
"202","","j","psychophysics","17","131037","0.0-7.0-0.0-1.0-0.0-0.4","2","2","3","3","2","2","2","2","2","2","3","2","1","3","2","2","2","2","2","2","2","2","2","2","2","1","1","4","1","1","0","1","1","0","0","1","1","1","1","1","0","0","0","1","5","3","4","5","5","4","3","5","4","2","770428348274053122","郭","681","","","","match","","","","","","","","","","","","","","key","j","16.671126760563297","768","428","j","true","match","img/square.png","方形","方形","ALT1_1","prac_ALT1_1","","","","","","","","","",""
"null","<span style='color:GreenYellow; font-size: 70px;'>正确! </span>","null","html-keyboard-response","18","131546","0.0-7.0-0.0-1.0-0.0-1.4","2","2","3","3","2","2","2","2","2","2","3","2","1","3","2","2","2","2","2","2","2","2","2","2","2","1","1","4","1","1","0","1","1","0","0","1","1","1","1","1","0","0","0","1","5","3","4","5","5","4","3","5","4","2","770428348274053122","郭","681","","","","","","","","","","","","","","","","","","","","","","","","","","","","","","feedback_test","","","","","","","","","",""
"75","","f","psychophysics","19","132622","0.0-7.0-0.0-1.0-0.0-0.5","2","2","3","3","2","2","2","2","2","2","3","2","1","3","2","2","2","2","2","2","2","2","2","2","2","1","1","4","1","1","0","1","1","0","0","1","1","1","1","1","0","0","0","1","5","3","4","5","5","4","3","5","4","2","770428348274053122","郭","681","","","","nonmatch","","","","","","","","","","","","","","key","f","16.671920634920724","768","428","f","true","nonmatch","img/diamond.png","方形","菱形","ALT1_1","prac_ALT1_1","","","","","","","","","",""
"null","<span style='color:yellow; font-size: 70px;'>过快! </span>","null","html-keyboard-response","20","133123","0.0-7.0-0.0-1.0-0.0-1.5","2","2","3","3","2","2","2","2","2","2","3","2","1","3","2","2","2","2","2","2","2","2","2","2","2","1","1","4","1","1","0","1","1","0","0","1","1","1","1","1","0","0","0","1","5","3","4","5","5","4","3","5","4","2","770428348274053122","郭","681","","","","","","","","","","","","","","","","","","","","","","","","","","","","","","feedback_test","","","","","","","","","",""
"142","","j","psychophysics","21","134267","0.0-7.0-0.0-1.0-0.0-0.6","2","2","3","3","2","2","2","2","2","2","3","2","1","3","2","2","2","2","2","2","2","2","2","2","2","1","1","4","1","1","0","1","1","0","0","1","1","1","1","1","0","0","0","1","5","3","4","5","5","4","3","5","4","2","770428348274053122","郭","681","","","","match","","","","","","","","","","","","","","key","j","16.66847058823495","768","428","j","true","match","img/diamond.png","菱形","菱形","ALT1_1","prac_ALT1_1","","","","","","","","","",""
"null","<span style='color:yellow; font-size: 70px;'>过快! </span>","null","html-keyboard-response","22","134768","0.0-7.0-0.0-1.0-0.0-1.6","2","2","3","3","2","2","2","2","2","2","3","2","1","3","2","2","2","2","2","2","2","2","2","2","2","1","1","4","1","1","0","1","1","0","0","1","1","1","1","1","0","0","0","1","5","3","4","5","5","4","3","5","4","2","770428348274053122","郭","681","","","","","","","","","","","","","","","","","","","","","","","","","","","","","","feedback_test","","","","","","","","","",""
"268","","j","psychophysics","23","136037","0.0-7.0-0.0-1.0-0.0-0.7","2","2","3","3","2","2","2","2","2","2","3","2","1","3","2","2","2","2","2","2","2","2","2","2","2","1","1","4","1","1","0","1","1","0","0","1","1","1","1","1","0","0","0","1","5","3","4","5","5","4","3","5","4","2","770428348274053122","郭","681","","","","match","","","","","","","","","","","","","","key","j","16.667346666666756","768","428","f","false","nonmatch","img/ellipse.png","五边","椭圆","ALT1_1","prac_ALT1_1","","","","","","","","","",""
"null","<span style='color:red; font-size: 70px;'>错误! </span>","null","html-keyboard-response","24","136538","0.0-7.0-0.0-1.0-0.0-1.7","2","2","3","3","2","2","2","2","2","2","3","2","1","3","2","2","2","2","2","2","2","2","2","2","2","1","1","4","1","1","0","1","1","0","0","1","1","1","1","1","0","0","0","1","5","3","4","5","5","4","3","5","4","2","770428348274053122","郭","681","","","","","","","","","","","","","","","","","","","","","","","","","","","","","","feedback_test","","","","","","","","","",""
"111","","j","psychophysics","25","137652","0.0-7.0-0.0-1.0-0.0-0.8","2","2","3","3","2","2","2","2","2","2","3","2","1","3","2","2","2","2","2","2","2","2","2","2","2","1","1","4","1","1","0","1","1","0","0","1","1","1","1","1","0","0","0","1","5","3","4","5","5","4","3","5","4","2","770428348274053122","郭","681","","","","match","","","","","","","","","","","","","","key","j","16.66948484848465","768","428","f","false","nonmatch","img/diamond.png","椭圆","菱形","ALT1_1","prac_ALT1_1","","","","","","","","","",""
"null","<span style='color:yellow; font-size: 70px;'>过快! </span>","null","html-keyboard-response","26","138155","0.0-7.0-0.0-1.0-0.0-1.8","2","2","3","3","2","2","2","2","2","2","3","2","1","3","2","2","2","2","2","2","2","2","2","2","2","1","1","4","1","1","0","1","1","0","0","1","1","1","1","1","0","0","0","1","5","3","4","5","5","4","3","5","4","2","770428348274053122","郭","681","","","","","","","","","","","","","","","","","","","","","","","","","","","","","","feedback_test","","","","","","","","","",""
"238","","f","psychophysics","27","139394","0.0-7.0-0.0-1.0-0.0-0.9","2","2","3","3","2","2","2","2","2","2","3","2","1","3","2","2","2","2","2","2","2","2","2","2","2","1","1","4","1","1","0","1","1","0","0","1","1","1","1","1","0","0","0","1","5","3","4","5","5","4","3","5","4","2","770428348274053122","郭","681","","","","nonmatch","","","","","","","","","","","","","","key","f","16.66655405405382","768","428","j","false","match","img/pentagon.png","五边","五边","ALT1_1","prac_ALT1_1","","","","","","","","","",""
"null","<span style='color:red; font-size: 70px;'>错误! </span>","null","html-keyboard-response","28","139895","0.0-7.0-0.0-1.0-0.0-1.9","2","2","3","3","2","2","2","2","2","2","3","2","1","3","2","2","2","2","2","2","2","2","2","2","2","1","1","4","1","1","0","1","1","0","0","1","1","1","1","1","0","0","0","1","5","3","4","5","5","4","3","5","4","2","770428348274053122","郭","681","","","","","","","","","","","","","","","","","","","","","","","","","","","","","","feedback_test","","","","","","","","","",""
"231","","j","psychophysics","29","141127","0.0-7.0-0.0-1.0-0.0-0.10","2","2","3","3","2","2","2","2","2","2","3","2","1","3","2","2","2","2","2","2","2","2","2","2","2","1","1","4","1","1","0","1","1","0","0","1","1","1","1","1","0","0","0","1","5","3","4","5","5","4","3","5","4","2","770428348274053122","郭","681","","","","match","","","","","","","","","","","","","","key","j","16.666863013698787","768","428","j","true","match","img/diamond.png","菱形","菱形","ALT1_1","prac_ALT1_1","","","","","","","","","",""
"null","<span style='color:GreenYellow; font-size: 70px;'>正确! </span>","null","html-keyboard-response","30","141628","0.0-7.0-0.0-1.0-0.0-1.10","2","2","3","3","2","2","2","2","2","2","3","2","1","3","2","2","2","2","2","2","2","2","2","2","2","1","1","4","1","1","0","1","1","0","0","1","1","1","1","1","0","0","0","1","5","3","4","5","5","4","3","5","4","2","770428348274053122","郭","681","","","","","","","","","","","","","","","","","","","","","","","","","","","","","","feedback_test","","","","","","","","","",""
"303","","f","psychophysics","31","142933","0.0-7.0-0.0-1.0-0.0-0.11","2","2","3","3","2","2","2","2","2","2","3","2","1","3","2","2","2","2","2","2","2","2","2","2","2","1","1","4","1","1","0","1","1","0","0","1","1","1","1","1","0","0","0","1","5","3","4","5","5","4","3","5","4","2","770428348274053122","郭","681","","","","nonmatch","","","","","","","","","","","","","","key","f","16.669948051948186","768","428","f","true","nonmatch","img/ellipse.png","方形","椭圆","ALT1_1","prac_ALT1_1","","","","","","","","","",""
"null","<span style='color:GreenYellow; font-size: 70px;'>正确! </span>","null","html-keyboard-response","32","143434","0.0-7.0-0.0-1.0-0.0-1.11","2","2","3","3","2","2","2","2","2","2","3","2","1","3","2","2","2","2","2","2","2","2","2","2","2","1","1","4","1","1","0","1","1","0","0","1","1","1","1","1","0","0","0","1","5","3","4","5","5","4","3","5","4","2","770428348274053122","郭","681","","","","","","","","","","","","","","","","","","","","","","","","","","","","","","feedback_test","","","","","","","","","",""
"286","","j","psychophysics","33","144722","0.0-7.0-0.0-1.0-0.0-0.12","2","2","3","3","2","2","2","2","2","2","3","2","1","3","2","2","2","2","2","2","2","2","2","2","2","1","1","4","1","1","0","1","1","0","0","1","1","1","1","1","0","0","0","1","5","3","4","5","5","4","3","5","4","2","770428348274053122","郭","681","","","","match","","","","","","","","","","","","","","key","j","16.668526315789343","768","428","f","false","nonmatch","img/diamond.png","五边","菱形","ALT1_1","prac_ALT1_1","","","","","","","","","",""
"null","<span style='color:red; font-size: 70px;'>错误! </span>","null","html-keyboard-response","34","145223","0.0-7.0-0.0-1.0-0.0-1.12","2","2","3","3","2","2","2","2","2","2","3","2","1","3","2","2","2","2","2","2","2","2","2","2","2","1","1","4","1","1","0","1","1","0","0","1","1","1","1","1","0","0","0","1","5","3","4","5","5","4","3","5","4","2","770428348274053122","郭","681","","","","","","","","","","","","","","","","","","","","","","","","","","","","","","feedback_test","","","","","","","","","",""
"388","","f","psychophysics","35","146614","0.0-7.0-0.0-1.0-0.0-0.13","2","2","3","3","2","2","2","2","2","2","3","2","1","3","2","2","2","2","2","2","2","2","2","2","2","1","1","4","1","1","0","1","1","0","0","1","1","1","1","1","0","0","0","1","5","3","4","5","5","4","3","5","4","2","770428348274053122","郭","681","","","","nonmatch","","","","","","","","","","","","","","key","f","16.66730120481926","768","428","f","true","nonmatch","img/pentagon.png","椭圆","五边","ALT1_1","prac_ALT1_1","","","","","","","","","",""
"null","<span style='color:GreenYellow; font-size: 70px;'>正确! </span>","null","html-keyboard-response","36","147116","0.0-7.0-0.0-1.0-0.0-1.13","2","2","3","3","2","2","2","2","2","2","3","2","1","3","2","2","2","2","2","2","2","2","2","2","2","1","1","4","1","1","0","1","1","0","0","1","1","1","1","1","0","0","0","1","5","3","4","5","5","4","3","5","4","2","770428348274053122","郭","681","","","","","","","","","","","","","","","","","","","","","","","","","","","","","","feedback_test","","","","","","","","","",""
"265","","f","psychophysics","37","148383","0.0-7.0-0.0-1.0-0.0-0.14","2","2","3","3","2","2","2","2","2","2","3","2","1","3","2","2","2","2","2","2","2","2","2","2","2","1","1","4","1","1","0","1","1","0","0","1","1","1","1","1","0","0","0","1","5","3","4","5","5","4","3","5","4","2","770428348274053122","郭","681","","","","nonmatch","","","","","","","","","","","","","","key","f","16.667266666666837","768","428","j","false","match","img/ellipse.png","椭圆","椭圆","ALT1_1","prac_ALT1_1","","","","","","","","","",""
"null","<span style='color:red; font-size: 70px;'>错误! </span>","null","html-keyboard-response","38","148884","0.0-7.0-0.0-1.0-0.0-1.14","2","2","3","3","2","2","2","2","2","2","3","2","1","3","2","2","2","2","2","2","2","2","2","2","2","1","1","4","1","1","0","1","1","0","0","1","1","1","1","1","0","0","0","1","5","3","4","5","5","4","3","5","4","2","770428348274053122","郭","681","","","","","","","","","","","","","","","","","","","","","","","","","","","","","","feedback_test","","","","","","","","","",""
"351","","j","psychophysics","39","150237","0.0-7.0-0.0-1.0-0.0-0.15","2","2","3","3","2","2","2","2","2","2","3","2","1","3","2","2","2","2","2","2","2","2","2","2","2","1","1","4","1","1","0","1","1","0","0","1","1","1","1","1","0","0","0","1","5","3","4","5","5","4","3","5","4","2","770428348274053122","郭","681","","","","match","","","","","","","","","","","","","","key","j","16.667649999999774","768","428","j","true","match","img/pentagon.png","五边","五边","ALT1_1","prac_ALT1_1","","","","","","","","","",""
"null","<span style='color:GreenYellow; font-size: 70px;'>正确! </span>","null","html-keyboard-response","40","150738","0.0-7.0-0.0-1.0-0.0-1.15","2","2","3","3","2","2","2","2","2","2","3","2","1","3","2","2","2","2","2","2","2","2","2","2","2","1","1","4","1","1","0","1","1","0","0","1","1","1","1","1","0","0","0","1","5","3","4","5","5","4","3","5","4","2","770428348274053122","郭","681","","","","","","","","","","","","","","","","","","","","","","","","","","","","","","feedback_test","","","","","","","","","",""
"363","","f","psychophysics","41","152101","0.0-7.0-0.0-1.0-0.0-0.16","2","2","3","3","2","2","2","2","2","2","3","2","1","3","2","2","2","2","2","2","2","2","2","2","2","1","1","4","1","1","0","1","1","0","0","1","1","1","1","1","0","0","0","1","5","3","4","5","5","4","3","5","4","2","770428348274053122","郭","681","","","","nonmatch","","","","","","","","","","","","","","key","f","16.669592592592515","768","428","f","true","nonmatch","img/ellipse.png","菱形","椭圆","ALT1_1","prac_ALT1_1","","","","","","","","","",""
"null","<span style='color:GreenYellow; font-size: 70px;'>正确! </span>","null","html-keyboard-response","42","152617","0.0-7.0-0.0-1.0-0.0-1.16","2","2","3","3","2","2","2","2","2","2","3","2","1","3","2","2","2","2","2","2","2","2","2","2","2","1","1","4","1","1","0","1","1","0","0","1","1","1","1","1","0","0","0","1","5","3","4","5","5","4","3","5","4","2","770428348274053122","郭","681","","","","","","","","","","","","","","","","","","","","","","","","","","","","","","feedback_test","","","","","","","","","",""
"245","","j","psychophysics","43","153863","0.0-7.0-0.0-1.0-0.0-0.17","2","2","3","3","2","2","2","2","2","2","3","2","1","3","2","2","2","2","2","2","2","2","2","2","2","1","1","4","1","1","0","1","1","0","0","1","1","1","1","1","0","0","0","1","5","3","4","5","5","4","3","5","4","2","770428348274053122","郭","681","","","","match","","","","","","","","","","","","","","key","j","16.66709459459486","768","428","j","true","match","img/square.png","方形","方形","ALT1_1","prac_ALT1_1","","","","","","","","","",""
"null","<span style='color:GreenYellow; font-size: 70px;'>正确! </span>","null","html-keyboard-response","44","154365","0.0-7.0-0.0-1.0-0.0-1.17","2","2","3","3","2","2","2","2","2","2","3","2","1","3","2","2","2","2","2","2","2","2","2","2","2","1","1","4","1","1","0","1","1","0","0","1","1","1","1","1","0","0","0","1","5","3","4","5","5","4","3","5","4","2","770428348274053122","郭","681","","","","","","","","","","","","","","","","","","","","","","","","","","","","","","feedback_test","","","","","","","","","",""
"471","","f","psychophysics","45","155837","0.0-7.0-0.0-1.0-0.0-0.18","2","2","3","3","2","2","2","2","2","2","3","2","1","3","2","2","2","2","2","2","2","2","2","2","2","1","1","4","1","1","0","1","1","0","0","1","1","1","1","1","0","0","0","1","5","3","4","5","5","4","3","5","4","2","770428348274053122","郭","681","","","","nonmatch","","","","","","","","","","","","","","key","f","16.667241379310546","768","428","j","false","match","img/ellipse.png","椭圆","椭圆","ALT1_1","prac_ALT1_1","","","","","","","","","",""
"null","<span style='color:red; font-size: 70px;'>错误! </span>","null","html-keyboard-response","46","156338","0.0-7.0-0.0-1.0-0.0-1.18","2","2","3","3","2","2","2","2","2","2","3","2","1","3","2","2","2","2","2","2","2","2","2","2","2","1","1","4","1","1","0","1","1","0","0","1","1","1","1","1","0","0","0","1","5","3","4","5","5","4","3","5","4","2","770428348274053122","郭","681","","","","","","","","","","","","","","","","","","","","","","","","","","","","","","feedback_test","","","","","","","","","",""
"670","","j","psychophysics","47","158011","0.0-7.0-0.0-1.0-0.0-0.19","2","2","3","3","2","2","2","2","2","2","3","2","1","3","2","2","2","2","2","2","2","2","2","2","2","1","1","4","1","1","0","1","1","0","0","1","1","1","1","1","0","0","0","1","5","3","4","5","5","4","3","5","4","2","770428348274053122","郭","681","","","","match","","","","","","","","","","","","","","key","j","16.66774999999994","768","428","f","false","nonmatch","img/square.png","菱形","方形","ALT1_1","prac_ALT1_1","","","","","","","","","",""
"null","<span style='color:red; font-size: 70px;'>错误! </span>","null","html-keyboard-response","48","158511","0.0-7.0-0.0-1.0-0.0-1.19","2","2","3","3","2","2","2","2","2","2","3","2","1","3","2","2","2","2","2","2","2","2","2","2","2","1","1","4","1","1","0","1","1","0","0","1","1","1","1","1","0","0","0","1","5","3","4","5","5","4","3","5","4","2","770428348274053122","郭","681","","","","","","","","","","","","","","","","","","","","","","","","","","","","","","feedback_test","","","","","","","","","",""
"214","","j","psychophysics","49","159727","0.0-7.0-0.0-1.0-0.0-0.20","2","2","3","3","2","2","2","2","2","2","3","2","1","3","2","2","2","2","2","2","2","2","2","2","2","1","1","4","1","1","0","1","1","0","0","1","1","1","1","1","0","0","0","1","5","3","4","5","5","4","3","5","4","2","770428348274053122","郭","681","","","","match","","","","","","","","","","","","","","key","j","16.66433333333326","768","428","f","false","nonmatch","img/square.png","椭圆","方形","ALT1_1","prac_ALT1_1","","","","","","","","","",""
"null","<span style='color:red; font-size: 70px;'>错误! </span>","null","html-keyboard-response","50","160229","0.0-7.0-0.0-1.0-0.0-1.20","2","2","3","3","2","2","2","2","2","2","3","2","1","3","2","2","2","2","2","2","2","2","2","2","2","1","1","4","1","1","0","1","1","0","0","1","1","1","1","1","0","0","0","1","5","3","4","5","5","4","3","5","4","2","770428348274053122","郭","681","","","","","","","","","","","","","","","","","","","","","","","","","","","","","","feedback_test","","","","","","","","","",""
"621","","f","psychophysics","51","161852","0.0-7.0-0.0-1.0-0.0-0.21","2","2","3","3","2","2","2","2","2","2","3","2","1","3","2","2","2","2","2","2","2","2","2","2","2","1","1","4","1","1","0","1","1","0","0","1","1","1","1","1","0","0","0","1","5","3","4","5","5","4","3","5","4","2","770428348274053122","郭","681","","","","nonmatch","","","","","","","","","","","","","","key","f","16.667479166666755","768","428","f","true","nonmatch","img/pentagon.png","菱形","五边","ALT1_1","prac_ALT1_1","","","","","","","","","",""
"null","<span style='color:GreenYellow; font-size: 70px;'>正确! </span>","null","html-keyboard-response","52","162353","0.0-7.0-0.0-1.0-0.0-1.21","2","2","3","3","2","2","2","2","2","2","3","2","1","3","2","2","2","2","2","2","2","2","2","2","2","1","1","4","1","1","0","1","1","0","0","1","1","1","1","1","0","0","0","1","5","3","4","5","5","4","3","5","4","2","770428348274053122","郭","681","","","","","","","","","","","","","","","","","","","","","","","","","","","","","","feedback_test","","","","","","","","","",""
"648","","f","psychophysics","53","164003","0.0-7.0-0.0-1.0-0.0-0.22","2","2","3","3","2","2","2","2","2","2","3","2","1","3","2","2","2","2","2","2","2","2","2","2","2","1","1","4","1","1","0","1","1","0","0","1","1","1","1","1","0","0","0","1","5","3","4","5","5","4","3","5","4","2","770428348274053122","郭","681","","","","nonmatch","","","","","","","","","","","","","","key","f","16.667326530612403","768","428","j","false","match","img/ellipse.png","椭圆","椭圆","ALT1_1","prac_ALT1_1","","","","","","","","","",""
"null","<span style='color:red; font-size: 70px;'>错误! </span>","null","html-keyboard-response","54","164505","0.0-7.0-0.0-1.0-0.0-1.22","2","2","3","3","2","2","2","2","2","2","3","2","1","3","2","2","2","2","2","2","2","2","2","2","2","1","1","4","1","1","0","1","1","0","0","1","1","1","1","1","0","0","0","1","5","3","4","5","5","4","3","5","4","2","770428348274053122","郭","681","","","","","","","","","","","","","","","","","","","","","","","","","","","","","","feedback_test","","","","","","","","","",""
"527","","j","psychophysics","55","166033","0.0-7.0-0.0-1.0-0.0-0.23","2","2","3","3","2","2","2","2","2","2","3","2","1","3","2","2","2","2","2","2","2","2","2","2","2","1","1","4","1","1","0","1","1","0","0","1","1","1","1","1","0","0","0","1","5","3","4","5","5","4","3","5","4","2","770428348274053122","郭","681","","","","match","","","","","","","","","","","","","","key","j","16.670307692307606","768","428","j","true","match","img/square.png","方形","方形","ALT1_1","prac_ALT1_1","","","","","","","","","",""
"null","<span style='color:GreenYellow; font-size: 70px;'>正确! </span>","null","html-keyboard-response","56","166534","0.0-7.0-0.0-1.0-0.0-1.23","2","2","3","3","2","2","2","2","2","2","3","2","1","3","2","2","2","2","2","2","2","2","2","2","2","1","1","4","1","1","0","1","1","0","0","1","1","1","1","1","0","0","0","1","5","3","4","5","5","4","3","5","4","2","770428348274053122","郭","681","","","","","","","","","","","","","","","","","","","","","","","","","","","","","","feedback_test","","","","","","","","","",""
"720","","j","psychophysics","57","168256","0.0-7.0-0.0-1.0-0.0-0.24","2","2","3","3","2","2","2","2","2","2","3","2","1","3","2","2","2","2","2","2","2","2","2","2","2","1","1","4","1","1","0","1","1","0","0","1","1","1","1","1","0","0","0","1","5","3","4","5","5","4","3","5","4","2","770428348274053122","郭","681","","","","match","","","","","","","","","","","","","","key","j","16.668647058823435","768","428","j","true","match","img/pentagon.png","五边","五边","ALT1_1","prac_ALT1_1","","","","","","","","","",""
"null","<span style='color:GreenYellow; font-size: 70px;'>正确! </span>","null","html-keyboard-response","58","168757","0.0-7.0-0.0-1.0-0.0-1.24","2","2","3","3","2","2","2","2","2","2","3","2","1","3","2","2","2","2","2","2","2","2","2","2","2","1","1","4","1","1","0","1","1","0","0","1","1","1","1","1","0","0","0","1","5","3","4","5","5","4","3","5","4","2","770428348274053122","郭","681","","","","","","","","","","","","","","","","","","","","","","","","","","","","","","feedback_test","","","","","","","","","",""
"681","","f","psychophysics","59","170439","0.0-7.0-0.0-1.0-0.0-0.25","2","2","3","3","2","2","2","2","2","2","3","2","1","3","2","2","2","2","2","2","2","2","2","2","2","1","1","4","1","1","0","1","1","0","0","1","1","1","1","1","0","0","0","1","5","3","4","5","5","4","3","5","4","2","770428348274053122","郭","681","","","","nonmatch","","","","","","","","","","","","","","key","f","16.667699999999897","768","428","f","true","nonmatch","img/ellipse.png","方形","椭圆","ALT1_1","prac_ALT1_1","","","","","","","","","",""
"null","<span style='color:GreenYellow; font-size: 70px;'>正确! </span>","null","html-keyboard-response","60","170940","0.0-7.0-0.0-1.0-0.0-1.25","2","2","3","3","2","2","2","2","2","2","3","2","1","3","2","2","2","2","2","2","2","2","2","2","2","1","1","4","1","1","0","1","1","0","0","1","1","1","1","1","0","0","0","1","5","3","4","5","5","4","3","5","4","2","770428348274053122","郭","681","","","","","","","","","","","","","","","","","","","","","","","","","","","","","","feedback_test","","","","","","","","","",""
"716","","j","psychophysics","61","172657","0.0-7.0-0.0-1.0-0.0-0.26","2","2","3","3","2","2","2","2","2","2","3","2","1","3","2","2","2","2","2","2","2","2","2","2","2","1","1","4","1","1","0","1","1","0","0","1","1","1","1","1","0","0","0","1","5","3","4","5","5","4","3","5","4","2","770428348274053122","郭","681","","","","match","","","","","","","","","","","","","","key","j","16.66735294117654","768","428","j","true","match","img/diamond.png","菱形","菱形","ALT1_1","prac_ALT1_1","","","","","","","","","",""
"null","<span style='color:GreenYellow; font-size: 70px;'>正确! </span>","null","html-keyboard-response","62","173158","0.0-7.0-0.0-1.0-0.0-1.26","2","2","3","3","2","2","2","2","2","2","3","2","1","3","2","2","2","2","2","2","2","2","2","2","2","1","1","4","1","1","0","1","1","0","0","1","1","1","1","1","0","0","0","1","5","3","4","5","5","4","3","5","4","2","770428348274053122","郭","681","","","","","","","","","","","","","","","","","","","","","","","","","","","","","","feedback_test","","","","","","","","","",""
"744","","j","psychophysics","63","174904","0.0-7.0-0.0-1.0-0.0-0.27","2","2","3","3","2","2","2","2","2","2","3","2","1","3","2","2","2","2","2","2","2","2","2","2","2","1","1","4","1","1","0","1","1","0","0","1","1","1","1","1","0","0","0","1","5","3","4","5","5","4","3","5","4","2","770428348274053122","郭","681","","","","match","","","","","","","","","","","","","","key","j","16.666776699029267","768","428","f","false","nonmatch","img/pentagon.png","椭圆","五边","ALT1_1","prac_ALT1_1","","","","","","","","","",""
"null","<span style='color:red; font-size: 70px;'>错误! </span>","null","html-keyboard-response","64","175406","0.0-7.0-0.0-1.0-0.0-1.27","2","2","3","3","2","2","2","2","2","2","3","2","1","3","2","2","2","2","2","2","2","2","2","2","2","1","1","4","1","1","0","1","1","0","0","1","1","1","1","1","0","0","0","1","5","3","4","5","5","4","3","5","4","2","770428348274053122","郭","681","","","","","","","","","","","","","","","","","","","","","","","","","","","","","","feedback_test","","","","","","","","","",""
"411","","j","psychophysics","65","176820","0.0-7.0-0.0-1.0-0.0-0.28","2","2","3","3","2","2","2","2","2","2","3","2","1","3","2","2","2","2","2","2","2","2","2","2","2","1","1","4","1","1","0","1","1","0","0","1","1","1","1","1","0","0","0","1","5","3","4","5","5","4","3","5","4","2","770428348274053122","郭","681","","","","match","","","","","","","","","","","","","","key","j","16.66790476190467","768","428","f","false","nonmatch","img/diamond.png","五边","菱形","ALT1_1","prac_ALT1_1","","","","","","","","","",""
"null","<span style='color:red; font-size: 70px;'>错误! </span>","null","html-keyboard-response","66","177320","0.0-7.0-0.0-1.0-0.0-1.28","2","2","3","3","2","2","2","2","2","2","3","2","1","3","2","2","2","2","2","2","2","2","2","2","2","1","1","4","1","1","0","1","1","0","0","1","1","1","1","1","0","0","0","1","5","3","4","5","5","4","3","5","4","2","770428348274053122","郭","681","","","","","","","","","","","","","","","","","","","","","","","","","","","","","","feedback_test","","","","","","","","","",""
"279","","j","psychophysics","67","178600","0.0-7.0-0.0-1.0-0.0-0.29","2","2","3","3","2","2","2","2","2","2","3","2","1","3","2","2","2","2","2","2","2","2","2","2","2","1","1","4","1","1","0","1","1","0","0","1","1","1","1","1","0","0","0","1","5","3","4","5","5","4","3","5","4","2","770428348274053122","郭","681","","","","match","","","","","","","","","","","","","","key","j","16.66782894736848","768","428","f","false","nonmatch","img/ellipse.png","菱形","椭圆","ALT1_1","prac_ALT1_1","","","","","","","","","",""
"null","<span style='color:red; font-size: 70px;'>错误! </span>","null","html-keyboard-response","68","179103","0.0-7.0-0.0-1.0-0.0-1.29","2","2","3","3","2","2","2","2","2","2","3","2","1","3","2","2","2","2","2","2","2","2","2","2","2","1","1","4","1","1","0","1","1","0","0","1","1","1","1","1","0","0","0","1","5","3","4","5","5","4","3","5","4","2","770428348274053122","郭","681","","","","","","","","","","","","","","","","","","","","","","","","","","","","","","feedback_test","","","","","","","","","",""
"5","","j","psychophysics","69","180109","0.0-7.0-0.0-1.0-0.0-0.30","2","2","3","3","2","2","2","2","2","2","3","2","1","3","2","2","2","2","2","2","2","2","2","2","2","1","1","4","1","1","0","1","1","0","0","1","1","1","1","1","0","0","0","1","5","3","4","5","5","4","3","5","4","2","770428348274053122","郭","681","","","","match","","","","","","","","","","","","","","key","j","16.664883333333517","768","428","f","false","nonmatch","img/pentagon.png","方形","五边","ALT1_1","prac_ALT1_1","","","","","","","","","",""
"null","<span style='color:yellow; font-size: 70px;'>过快! </span>","null","html-keyboard-response","70","180610","0.0-7.0-0.0-1.0-0.0-1.30","2","2","3","3","2","2","2","2","2","2","3","2","1","3","2","2","2","2","2","2","2","2","2","2","2","1","1","4","1","1","0","1","1","0","0","1","1","1","1","1","0","0","0","1","5","3","4","5","5","4","3","5","4","2","770428348274053122","郭","681","","","","","","","","","","","","","","","","","","","","","","","","","","","","","","feedback_test","","","","","","","","","",""
"333","","j","psychophysics","71","181943","0.0-7.0-0.0-1.0-0.0-0.31","2","2","3","3","2","2","2","2","2","2","3","2","1","3","2","2","2","2","2","2","2","2","2","2","2","1","1","4","1","1","0","1","1","0","0","1","1","1","1","1","0","0","0","1","5","3","4","5","5","4","3","5","4","2","770428348274053122","郭","681","","","","match","","","","","","","","","","","","","","key","j","16.66765822784841","768","428","j","true","match","img/diamond.png","菱形","菱形","ALT1_1","prac_ALT1_1","","","","","","","","","",""
"null","<span style='color:GreenYellow; font-size: 70px;'>正确! </span>","null","html-keyboard-response","72","182445","0.0-7.0-0.0-1.0-0.0-1.31","2","2","3","3","2","2","2","2","2","2","3","2","1","3","2","2","2","2","2","2","2","2","2","2","2","1","1","4","1","1","0","1","1","0","0","1","1","1","1","1","0","0","0","1","5","3","4","5","5","4","3","5","4","2","770428348274053122","郭","681","","","","","","","","","","","","","","","","","","","","","","","","","","","","","","feedback_test","","","","","","","","","",""
"433","","j","psychophysics","73","183879","0.0-7.0-0.0-1.0-0.0-0.32","2","2","3","3","2","2","2","2","2","2","3","2","1","3","2","2","2","2","2","2","2","2","2","2","2","1","1","4","1","1","0","1","1","0","0","1","1","1","1","1","0","0","0","1","5","3","4","5","5","4","3","5","4","2","770428348274053122","郭","681","","","","match","","","","","","","","","","","","","","key","j","16.66543529411771","768","428","f","false","nonmatch","img/diamond.png","椭圆","菱形","ALT1_1","prac_ALT1_1","","","","","","","","","",""
"null","<span style='color:red; font-size: 70px;'>错误! </span>","null","html-keyboard-response","74","184380","0.0-7.0-0.0-1.0-0.0-1.32","2","2","3","3","2","2","2","2","2","2","3","2","1","3","2","2","2","2","2","2","2","2","2","2","2","1","1","4","1","1","0","1","1","0","0","1","1","1","1","1","0","0","0","1","5","3","4","5","5","4","3","5","4","2","770428348274053122","郭","681","","","","","","","","","","","","","","","","","","","","","","","","","","","","","","feedback_test","","","","","","","","","",""
"448","","j","psychophysics","75","185829","0.0-7.0-0.0-1.0-0.0-0.33","2","2","3","3","2","2","2","2","2","2","3","2","1","3","2","2","2","2","2","2","2","2","2","2","2","1","1","4","1","1","0","1","1","0","0","1","1","1","1","1","0","0","0","1","5","3","4","5","5","4","3","5","4","2","770428348274053122","郭","681","","","","match","","","","","","","","","","","","","","key","j","16.670558139534943","768","428","j","true","match","img/ellipse.png","椭圆","椭圆","ALT1_1","prac_ALT1_1","","","","","","","","","",""
"null","<span style='color:GreenYellow; font-size: 70px;'>正确! </span>","null","html-keyboard-response","76","186329","0.0-7.0-0.0-1.0-0.0-1.33","2","2","3","3","2","2","2","2","2","2","3","2","1","3","2","2","2","2","2","2","2","2","2","2","2","1","1","4","1","1","0","1","1","0","0","1","1","1","1","1","0","0","0","1","5","3","4","5","5","4","3","5","4","2","770428348274053122","郭","681","","","","","","","","","","","","","","","","","","","","","","","","","","","","","","feedback_test","","","","","","","","","",""
"141","","j","psychophysics","77","187472","0.0-7.0-0.0-1.0-0.0-0.34","2","2","3","3","2","2","2","2","2","2","3","2","1","3","2","2","2","2","2","2","2","2","2","2","2","1","1","4","1","1","0","1","1","0","0","1","1","1","1","1","0","0","0","1","5","3","4","5","5","4","3","5","4","2","770428348274053122","郭","681","","","","match","","","","","","","","","","","","","","key","j","16.667402985074848","768","428","j","true","match","img/pentagon.png","五边","五边","ALT1_1","prac_ALT1_1","","","","","","","","","",""
"null","<span style='color:yellow; font-size: 70px;'>过快! </span>","null","html-keyboard-response","78","187974","0.0-7.0-0.0-1.0-0.0-1.34","2","2","3","3","2","2","2","2","2","2","3","2","1","3","2","2","2","2","2","2","2","2","2","2","2","1","1","4","1","1","0","1","1","0","0","1","1","1","1","1","0","0","0","1","5","3","4","5","5","4","3","5","4","2","770428348274053122","郭","681","","","","","","","","","","","","","","","","","","","","","","","","","","","","","","feedback_test","","","","","","","","","",""
"596","","j","psychophysics","79","189571","0.0-7.0-0.0-1.0-0.0-0.35","2","2","3","3","2","2","2","2","2","2","3","2","1","3","2","2","2","2","2","2","2","2","2","2","2","1","1","4","1","1","0","1","1","0","0","1","1","1","1","1","0","0","0","1","5","3","4","5","5","4","3","5","4","2","770428348274053122","郭","681","","","","match","","","","","","","","","","","","","","key","j","16.656031914893475","768","428","j","true","match","img/ellipse.png","椭圆","椭圆","ALT1_1","prac_ALT1_1","","","","","","","","","",""
"null","<span style='color:GreenYellow; font-size: 70px;'>正确! </span>","null","html-keyboard-response","80","190072","0.0-7.0-0.0-1.0-0.0-1.35","2","2","3","3","2","2","2","2","2","2","3","2","1","3","2","2","2","2","2","2","2","2","2","2","2","1","1","4","1","1","0","1","1","0","0","1","1","1","1","1","0","0","0","1","5","3","4","5","5","4","3","5","4","2","770428348274053122","郭","681","","","","","","","","","","","","","","","","","","","","","","","","","","","","","","feedback_test","","","","","","","","","",""
"372","","j","psychophysics","81","191446","0.0-7.0-0.0-1.0-0.0-0.36","2","2","3","3","2","2","2","2","2","2","3","2","1","3","2","2","2","2","2","2","2","2","2","2","2","1","1","4","1","1","0","1","1","0","0","1","1","1","1","1","0","0","0","1","5","3","4","5","5","4","3","5","4","2","770428348274053122","郭","681","","","","match","","","","","","","","","","","","","","key","j","16.672573170731862","768","428","f","false","nonmatch","img/square.png","椭圆","方形","ALT1_1","prac_ALT1_1","","","","","","","","","",""
"null","<span style='color:red; font-size: 70px;'>错误! </span>","null","html-keyboard-response","82","191947","0.0-7.0-0.0-1.0-0.0-1.36","2","2","3","3","2","2","2","2","2","2","3","2","1","3","2","2","2","2","2","2","2","2","2","2","2","1","1","4","1","1","0","1","1","0","0","1","1","1","1","1","0","0","0","1","5","3","4","5","5","4","3","5","4","2","770428348274053122","郭","681","","","","","","","","","","","","","","","","","","","","","","","","","","","","","","feedback_test","","","","","","","","","",""
"860","","j","psychophysics","83","193807","0.0-7.0-0.0-1.0-0.0-0.37","2","2","3","3","2","2","2","2","2","2","3","2","1","3","2","2","2","2","2","2","2","2","2","2","2","1","1","4","1","1","0","1","1","0","0","1","1","1","1","1","0","0","0","1","5","3","4","5","5","4","3","5","4","2","770428348274053122","郭","681","","","","match","","","","","","","","","","","","","","key","j","16.665572727272625","768","428","f","false","nonmatch","img/square.png","五边","方形","ALT1_1","prac_ALT1_1","","","","","","","","","",""
"null","<span style='color:red; font-size: 70px;'>错误! </span>","null","html-keyboard-response","84","194309","0.0-7.0-0.0-1.0-0.0-1.37","2","2","3","3","2","2","2","2","2","2","3","2","1","3","2","2","2","2","2","2","2","2","2","2","2","1","1","4","1","1","0","1","1","0","0","1","1","1","1","1","0","0","0","1","5","3","4","5","5","4","3","5","4","2","770428348274053122","郭","681","","","","","","","","","","","","","","","","","","","","","","","","","","","","","","feedback_test","","","","","","","","","",""
"791","","j","psychophysics","85","196100","0.0-7.0-0.0-1.0-0.0-0.38","2","2","3","3","2","2","2","2","2","2","3","2","1","3","2","2","2","2","2","2","2","2","2","2","2","1","1","4","1","1","0","1","1","0","0","1","1","1","1","1","0","0","0","1","5","3","4","5","5","4","3","5","4","2","770428348274053122","郭","681","","","","match","","","","","","","","","","","","","","key","j","16.66729245283026","768","428","j","true","match","img/diamond.png","菱形","菱形","ALT1_1","prac_ALT1_1","","","","","","","","","",""
"null","<span style='color:GreenYellow; font-size: 70px;'>正确! </span>","null","html-keyboard-response","86","196603","0.0-7.0-0.0-1.0-0.0-1.38","2","2","3","3","2","2","2","2","2","2","3","2","1","3","2","2","2","2","2","2","2","2","2","2","2","1","1","4","1","1","0","1","1","0","0","1","1","1","1","1","0","0","0","1","5","3","4","5","5","4","3","5","4","2","770428348274053122","郭","681","","","","","","","","","","","","","","","","","","","","","","","","","","","","","","feedback_test","","","","","","","","","",""
"395","","j","psychophysics","87","198000","0.0-7.0-0.0-1.0-0.0-0.39","2","2","3","3","2","2","2","2","2","2","3","2","1","3","2","2","2","2","2","2","2","2","2","2","2","1","1","4","1","1","0","1","1","0","0","1","1","1","1","1","0","0","0","1","5","3","4","5","5","4","3","5","4","2","770428348274053122","郭","681","","","","match","","","","","","","","","","","","","","key","j","16.667867469879397","768","428","f","false","nonmatch","img/diamond.png","方形","菱形","ALT1_1","prac_ALT1_1","","","","","","","","","",""
"null","<span style='color:red; font-size: 70px;'>错误! </span>","null","html-keyboard-response","88","198501","0.0-7.0-0.0-1.0-0.0-1.39","2","2","3","3","2","2","2","2","2","2","3","2","1","3","2","2","2","2","2","2","2","2","2","2","2","1","1","4","1","1","0","1","1","0","0","1","1","1","1","1","0","0","0","1","5","3","4","5","5","4","3","5","4","2","770428348274053122","郭","681","","","","","","","","","","","","","","","","","","","","","","","","","","","","","","feedback_test","","","","","","","","","",""
"814","","j","psychophysics","89","200315","0.0-7.0-0.0-1.0-0.0-0.40","2","2","3","3","2","2","2","2","2","2","3","2","1","3","2","2","2","2","2","2","2","2","2","2","2","1","1","4","1","1","0","1","1","0","0","1","1","1","1","1","0","0","0","1","5","3","4","5","5","4","3","5","4","2","770428348274053122","郭","681","","","","match","","","","","","","","","","","","","","key","j","16.66742592592588","768","428","j","true","match","img/square.png","方形","方形","ALT1_1","prac_ALT1_1","","","","","","","","","",""
"null","<span style='color:GreenYellow; font-size: 70px;'>正确! </span>","null","html-keyboard-response","90","200818","0.0-7.0-0.0-1.0-0.0-1.40","2","2","3","3","2","2","2","2","2","2","3","2","1","3","2","2","2","2","2","2","2","2","2","2","2","1","1","4","1","1","0","1","1","0","0","1","1","1","1","1","0","0","0","1","5","3","4","5","5","4","3","5","4","2","770428348274053122","郭","681","","","","","","","","","","","","","","","","","","","","","","","","","","","","","","feedback_test","","","","","","","","","",""
"null","","null","psychophysics","91","203023","0.0-7.0-0.0-1.0-0.0-0.41","2","2","3","3","2","2","2","2","2","2","3","2","1","3","2","2","2","2","2","2","2","2","2","2","2","1","1","4","1","1","0","1","1","0","0","1","1","1","1","1","0","0","0","1","5","3","4","5","5","4","3","5","4","2","770428348274053122","郭","681","","","","null","","","","","","","","","","","","","","key","null","16.66756488549619","768","428","f","false","nonmatch","img/ellipse.png","五边","椭圆","ALT1_1","prac_ALT1_1","","","","","","","","","",""
"null","<span class='add_' style='color:yellow; font-size: 70px;'> 太慢! </span>","null","html-keyboard-response","92","203525","0.0-7.0-0.0-1.0-0.0-1.41","2","2","3","3","2","2","2","2","2","2","3","2","1","3","2","2","2","2","2","2","2","2","2","2","2","1","1","4","1","1","0","1","1","0","0","1","1","1","1","1","0","0","0","1","5","3","4","5","5","4","3","5","4","2","770428348274053122","郭","681","","","","","","","","","","","","","","","","","","","","","","","","","","","","","","feedback_test","","","","","","","","","",""
"null","","null","psychophysics","93","205726","0.0-7.0-0.0-1.0-0.0-0.42","2","2","3","3","2","2","2","2","2","2","3","2","1","3","2","2","2","2","2","2","2","2","2","2","2","1","1","4","1","1","0","1","1","0","0","1","1","1","1","1","0","0","0","1","5","3","4","5","5","4","3","5","4","2","770428348274053122","郭","681","","","","null","","","","","","","","","","","","","","key","null","16.65837692307698","768","428","f","false","nonmatch","img/square.png","菱形","方形","ALT1_1","prac_ALT1_1","","","","","","","","","",""
"null","<span class='add_' style='color:yellow; font-size: 70px;'> 太慢! </span>","null","html-keyboard-response","94","206228","0.0-7.0-0.0-1.0-0.0-1.42","2","2","3","3","2","2","2","2","2","2","3","2","1","3","2","2","2","2","2","2","2","2","2","2","2","1","1","4","1","1","0","1","1","0","0","1","1","1","1","1","0","0","0","1","5","3","4","5","5","4","3","5","4","2","770428348274053122","郭","681","","","","","","","","","","","","","","","","","","","","","","","","","","","","","","feedback_test","","","","","","","","","",""
"null","","null","psychophysics","95","208433","0.0-7.0-0.0-1.0-0.0-0.43","2","2","3","3","2","2","2","2","2","2","3","2","1","3","2","2","2","2","2","2","2","2","2","2","2","1","1","4","1","1","0","1","1","0","0","1","1","1","1","1","0","0","0","1","5","3","4","5","5","4","3","5","4","2","770428348274053122","郭","681","","","","null","","","","","","","","","","","","","","key","null","16.66675572519085","768","428","f","false","nonmatch","img/pentagon.png","菱形","五边","ALT1_1","prac_ALT1_1","","","","","","","","","",""
"null","<span class='add_' style='color:yellow; font-size: 70px;'> 太慢! </span>","null","html-keyboard-response","96","208936","0.0-7.0-0.0-1.0-0.0-1.43","2","2","3","3","2","2","2","2","2","2","3","2","1","3","2","2","2","2","2","2","2","2","2","2","2","1","1","4","1","1","0","1","1","0","0","1","1","1","1","1","0","0","0","1","5","3","4","5","5","4","3","5","4","2","770428348274053122","郭","681","","","","","","","","","","","","","","","","","","","","","","","","","","","","","","feedback_test","","","","","","","","","",""
"null","","null","psychophysics","97","211138","0.0-7.0-0.0-1.0-0.0-0.44","2","2","3","3","2","2","2","2","2","2","3","2","1","3","2","2","2","2","2","2","2","2","2","2","2","1","1","4","1","1","0","1","1","0","0","1","1","1","1","1","0","0","0","1","5","3","4","5","5","4","3","5","4","2","770428348274053122","郭","681","","","","null","","","","","","","","","","","","","","key","null","16.666938931297757","768","428","j","false","match","img/pentagon.png","五边","五边","ALT1_1","prac_ALT1_1","","","","","","","","","",""
"null","<span class='add_' style='color:yellow; font-size: 70px;'> 太慢! </span>","null","html-keyboard-response","98","211639","0.0-7.0-0.0-1.0-0.0-1.44","2","2","3","3","2","2","2","2","2","2","3","2","1","3","2","2","2","2","2","2","2","2","2","2","2","1","1","4","1","1","0","1","1","0","0","1","1","1","1","1","0","0","0","1","5","3","4","5","5","4","3","5","4","2","770428348274053122","郭","681","","","","","","","","","","","","","","","","","","","","","","","","","","","","","","feedback_test","","","","","","","","","",""
"240","","j","psychophysics","99","212881","0.0-7.0-0.0-1.0-0.0-0.45","2","2","3","3","2","2","2","2","2","2","3","2","1","3","2","2","2","2","2","2","2","2","2","2","2","1","1","4","1","1","0","1","1","0","0","1","1","1","1","1","0","0","0","1","5","3","4","5","5","4","3","5","4","2","770428348274053122","郭","681","","","","match","","","","","","","","","","","","","","key","j","16.671324324324125","768","428","j","true","match","img/square.png","方形","方形","ALT1_1","prac_ALT1_1","","","","","","","","","",""
"null","<span style='color:GreenYellow; font-size: 70px;'>正确! </span>","null","html-keyboard-response","100","213394","0.0-7.0-0.0-1.0-0.0-1.45","2","2","3","3","2","2","2","2","2","2","3","2","1","3","2","2","2","2","2","2","2","2","2","2","2","1","1","4","1","1","0","1","1","0","0","1","1","1","1","1","0","0","0","1","5","3","4","5","5","4","3","5","4","2","770428348274053122","郭","681","","","","","","","","","","","","","","","","","","","","","","","","","","","","","","feedback_test","","","","","","","","","",""
"519","","j","psychophysics","101","214915","0.0-7.0-0.0-1.0-0.0-0.46","2","2","3","3","2","2","2","2","2","2","3","2","1","3","2","2","2","2","2","2","2","2","2","2","2","1","1","4","1","1","0","1","1","0","0","1","1","1","1","1","0","0","0","1","5","3","4","5","5","4","3","5","4","2","770428348274053122","郭","681","","","","match","","","","","","","","","","","","","","key","j","16.67048888888902","768","428","j","true","match","img/ellipse.png","椭圆","椭圆","ALT1_1","prac_ALT1_1","","","","","","","","","",""
"null","<span style='color:GreenYellow; font-size: 70px;'>正确! </span>","null","html-keyboard-response","102","215416","0.0-7.0-0.0-1.0-0.0-1.46","2","2","3","3","2","2","2","2","2","2","3","2","1","3","2","2","2","2","2","2","2","2","2","2","2","1","1","4","1","1","0","1","1","0","0","1","1","1","1","1","0","0","0","1","5","3","4","5","5","4","3","5","4","2","770428348274053122","郭","681","","","","","","","","","","","","","","","","","","","","","","","","","","","","","","feedback_test","","","","","","","","","",""
"null","","null","psychophysics","103","217622","0.0-7.0-0.0-1.0-0.0-0.47","2","2","3","3","2","2","2","2","2","2","3","2","1","3","2","2","2","2","2","2","2","2","2","2","2","1","1","4","1","1","0","1","1","0","0","1","1","1","1","1","0","0","0","1","5","3","4","5","5","4","3","5","4","2","770428348274053122","郭","681","","","","null","","","","","","","","","","","","","","key","null","16.666664122137284","768","428","j","false","match","img/square.png","方形","方形","ALT1_1","prac_ALT1_1","","","","","","","","","",""
"null","<span class='add_' style='color:yellow; font-size: 70px;'> 太慢! </span>","null","html-keyboard-response","104","218124","0.0-7.0-0.0-1.0-0.0-1.47","2","2","3","3","2","2","2","2","2","2","3","2","1","3","2","2","2","2","2","2","2","2","2","2","2","1","1","4","1","1","0","1","1","0","0","1","1","1","1","1","0","0","0","1","5","3","4","5","5","4","3","5","4","2","770428348274053122","郭","681","","","","","","","","","","","","","","","","","","","","","","","","","","","","","","feedback_test","","","","","","","","","",""
"2491","<style>.context{color:white; font-size: 35px; line-height:40px}</style>                            <div><p class='context'>您正确回答了52% 的试次。</p><p class='context'>您的平均反应时为406毫秒。</p><p class='context'>按空格键继续。</p></div>","j","html-keyboard-response","105","220616","0.0-7.0-0.0-1.0-1.0-0.0","2","2","3","3","2","2","2","2","2","2","3","2","1","3","2","2","2","2","2","2","2","2","2","2","2","1","1","4","1","1","0","1","1","0","0","1","1","1","1","1","0","0","0","1","5","3","4","5","5","4","3","5","4","2","770428348274053122","郭","681","","","","","","","","","","","","","","","","","","","","","","","","","","","","","","","","","","","","","","","",""
"42161","","","instructions","106","262778","0.0-7.0-0.0-1.0-1.0-1.0","2","2","3","3","2","2","2","2","2","2","3","2","1","3","2","2","2","2","2","2","2","2","2","2","2","1","1","4","1","1","0","1","1","0","0","1","1","1","1","1","0","0","0","1","5","3","4","5","5","4","3","5","4","2","770428348274053122","郭","681","","","","","","","","","","","","","","","","","[{""page_index"":0,""viewing_time"":34112},{""page_index"":1,""viewing_time"":5970},{""page_index"":2,""viewing_time"":2079}]","","","","","","","","","","","","","","","","","","","","","","",""
"655","","j","psychophysics","107","264436","0.0-7.0-0.0-1.1-0.1-0.48","2","2","3","3","2","2","2","2","2","2","3","2","1","3","2","2","2","2","2","2","2","2","2","2","2","1","1","4","1","1","0","1","1","0","0","1","1","1","1","1","0","0","0","1","5","3","4","5","5","4","3","5","4","2","770428348274053122","郭","681","","","","match","","","","","","","","","","","","","","key","j","16.669581632653124","768","428","j","true","match","img/ellipse.png","椭圆","椭圆","ALT1_1","prac_ALT1_1","","","","","","","","","",""
"null","<span style='color:GreenYellow; font-size: 70px;'>正确! </span>","null","html-keyboard-response","108","264937","0.0-7.0-0.0-1.1-0.1-1.48","2","2","3","3","2","2","2","2","2","2","3","2","1","3","2","2","2","2","2","2","2","2","2","2","2","1","1","4","1","1","0","1","1","0","0","1","1","1","1","1","0","0","0","1","5","3","4","5","5","4","3","5","4","2","770428348274053122","郭","681","","","","","","","","","","","","","","","","","","","","","","","","","","","","","","feedback_test","","","","","","","","","",""
"686","","f","psychophysics","109","266626","0.0-7.0-0.0-1.1-0.1-0.49","2","2","3","3","2","2","2","2","2","2","3","2","1","3","2","2","2","2","2","2","2","2","2","2","2","1","1","4","1","1","0","1","1","0","0","1","1","1","1","1","0","0","0","1","5","3","4","5","5","4","3","5","4","2","770428348274053122","郭","681","","","","nonmatch","","","","","","","","","","","","","","key","f","16.66659405940595","768","428","f","true","nonmatch","img/pentagon.png","椭圆","五边","ALT1_1","prac_ALT1_1","","","","","","","","","",""
"null","<span style='color:GreenYellow; font-size: 70px;'>正确! </span>","null","html-keyboard-response","110","267126","0.0-7.0-0.0-1.1-0.1-1.49","2","2","3","3","2","2","2","2","2","2","3","2","1","3","2","2","2","2","2","2","2","2","2","2","2","1","1","4","1","1","0","1","1","0","0","1","1","1","1","1","0","0","0","1","5","3","4","5","5","4","3","5","4","2","770428348274053122","郭","681","","","","","","","","","","","","","","","","","","","","","","","","","","","","","","feedback_test","","","","","","","","","",""
"754","","j","psychophysics","111","268881","0.0-7.0-0.0-1.1-0.1-0.50","2","2","3","3","2","2","2","2","2","2","3","2","1","3","2","2","2","2","2","2","2","2","2","2","2","1","1","4","1","1","0","1","1","0","0","1","1","1","1","1","0","0","0","1","5","3","4","5","5","4","3","5","4","2","770428348274053122","郭","681","","","","match","","","","","","","","","","","","","","key","j","16.666663461538867","768","428","f","false","nonmatch","img/ellipse.png","菱形","椭圆","ALT1_1","prac_ALT1_1","","","","","","","","","",""
"null","<span style='color:red; font-size: 70px;'>错误! </span>","null","html-keyboard-response","112","269382","0.0-7.0-0.0-1.1-0.1-1.50","2","2","3","3","2","2","2","2","2","2","3","2","1","3","2","2","2","2","2","2","2","2","2","2","2","1","1","4","1","1","0","1","1","0","0","1","1","1","1","1","0","0","0","1","5","3","4","5","5","4","3","5","4","2","770428348274053122","郭","681","","","","","","","","","","","","","","","","","","","","","","","","","","","","","","feedback_test","","","","","","","","","",""
"543","","j","psychophysics","113","270927","0.0-7.0-0.0-1.1-0.1-0.51","2","2","3","3","2","2","2","2","2","2","3","2","1","3","2","2","2","2","2","2","2","2","2","2","2","1","1","4","1","1","0","1","1","0","0","1","1","1","1","1","0","0","0","1","5","3","4","5","5","4","3","5","4","2","770428348274053122","郭","681","","","","match","","","","","","","","","","","","","","key","j","16.667913043477988","768","428","j","true","match","img/square.png","方形","方形","ALT1_1","prac_ALT1_1","","","","","","","","","",""
"null","<span style='color:GreenYellow; font-size: 70px;'>正确! </span>","null","html-keyboard-response","114","271430","0.0-7.0-0.0-1.1-0.1-1.51","2","2","3","3","2","2","2","2","2","2","3","2","1","3","2","2","2","2","2","2","2","2","2","2","2","1","1","4","1","1","0","1","1","0","0","1","1","1","1","1","0","0","0","1","5","3","4","5","5","4","3","5","4","2","770428348274053122","郭","681","","","","","","","","","","","","","","","","","","","","","","","","","","","","","","feedback_test","","","","","","","","","",""
"698","","j","psychophysics","115","273130","0.0-7.0-0.0-1.1-0.1-0.52","2","2","3","3","2","2","2","2","2","2","3","2","1","3","2","2","2","2","2","2","2","2","2","2","2","1","1","4","1","1","0","1","1","0","0","1","1","1","1","1","0","0","0","1","5","3","4","5","5","4","3","5","4","2","770428348274053122","郭","681","","","","match","","","","","","","","","","","","","","key","j","16.667237623762407","768","428","j","true","match","img/pentagon.png","五边","五边","ALT1_1","prac_ALT1_1","","","","","","","","","",""
"null","<span style='color:GreenYellow; font-size: 70px;'>正确! </span>","null","html-keyboard-response","116","273631","0.0-7.0-0.0-1.1-0.1-1.52","2","2","3","3","2","2","2","2","2","2","3","2","1","3","2","2","2","2","2","2","2","2","2","2","2","1","1","4","1","1","0","1","1","0","0","1","1","1","1","1","0","0","0","1","5","3","4","5","5","4","3","5","4","2","770428348274053122","郭","681","","","","","","","","","","","","","","","","","","","","","","","","","","","","","","feedback_test","","","","","","","","","",""
"690","","j","psychophysics","117","275323","0.0-7.0-0.0-1.1-0.1-0.53","2","2","3","3","2","2","2","2","2","2","3","2","1","3","2","2","2","2","2","2","2","2","2","2","2","1","1","4","1","1","0","1","1","0","0","1","1","1","1","1","0","0","0","1","5","3","4","5","5","4","3","5","4","2","770428348274053122","郭","681","","","","match","","","","","","","","","","","","","","key","j","16.66698000000033","768","428","j","true","match","img/ellipse.png","椭圆","椭圆","ALT1_1","prac_ALT1_1","","","","","","","","","",""
"null","<span style='color:GreenYellow; font-size: 70px;'>正确! </span>","null","html-keyboard-response","118","275824","0.0-7.0-0.0-1.1-0.1-1.53","2","2","3","3","2","2","2","2","2","2","3","2","1","3","2","2","2","2","2","2","2","2","2","2","2","1","1","4","1","1","0","1","1","0","0","1","1","1","1","1","0","0","0","1","5","3","4","5","5","4","3","5","4","2","770428348274053122","郭","681","","","","","","","","","","","","","","","","","","","","","","","","","","","","","","feedback_test","","","","","","","","","",""
"777","","f","psychophysics","119","277602","0.0-7.0-0.0-1.1-0.1-0.54","2","2","3","3","2","2","2","2","2","2","3","2","1","3","2","2","2","2","2","2","2","2","2","2","2","1","1","4","1","1","0","1","1","0","0","1","1","1","1","1","0","0","0","1","5","3","4","5","5","4","3","5","4","2","770428348274053122","郭","681","","","","nonmatch","","","","","","","","","","","","","","key","f","16.655314285714468","768","428","f","true","nonmatch","img/diamond.png","方形","菱形","ALT1_1","prac_ALT1_1","","","","","","","","","",""
"null","<span style='color:GreenYellow; font-size: 70px;'>正确! </span>","null","html-keyboard-response","120","278103","0.0-7.0-0.0-1.1-0.1-1.54","2","2","3","3","2","2","2","2","2","2","3","2","1","3","2","2","2","2","2","2","2","2","2","2","2","1","1","4","1","1","0","1","1","0","0","1","1","1","1","1","0","0","0","1","5","3","4","5","5","4","3","5","4","2","770428348274053122","郭","681","","","","","","","","","","","","","","","","","","","","","","","","","","","","","","feedback_test","","","","","","","","","",""
"584","","f","psychophysics","121","279688","0.0-7.0-0.0-1.1-0.1-0.55","2","2","3","3","2","2","2","2","2","2","3","2","1","3","2","2","2","2","2","2","2","2","2","2","2","1","1","4","1","1","0","1","1","0","0","1","1","1","1","1","0","0","0","1","5","3","4","5","5","4","3","5","4","2","770428348274053122","郭","681","","","","nonmatch","","","","","","","","","","","","","","key","f","16.667723404255355","768","428","f","true","nonmatch","img/square.png","椭圆","方形","ALT1_1","prac_ALT1_1","","","","","","","","","",""
"null","<span style='color:GreenYellow; font-size: 70px;'>正确! </span>","null","html-keyboard-response","122","280191","0.0-7.0-0.0-1.1-0.1-1.55","2","2","3","3","2","2","2","2","2","2","3","2","1","3","2","2","2","2","2","2","2","2","2","2","2","1","1","4","1","1","0","1","1","0","0","1","1","1","1","1","0","0","0","1","5","3","4","5","5","4","3","5","4","2","770428348274053122","郭","681","","","","","","","","","","","","","","","","","","","","","","","","","","","","","","feedback_test","","","","","","","","","",""
"547","","f","psychophysics","123","281739","0.0-7.0-0.0-1.1-0.1-0.56","2","2","3","3","2","2","2","2","2","2","3","2","1","3","2","2","2","2","2","2","2","2","2","2","2","1","1","4","1","1","0","1","1","0","0","1","1","1","1","1","0","0","0","1","5","3","4","5","5","4","3","5","4","2","770428348274053122","郭","681","","","","nonmatch","","","","","","","","","","","","","","key","f","16.66927472527451","768","428","f","true","nonmatch","img/ellipse.png","五边","椭圆","ALT1_1","prac_ALT1_1","","","","","","","","","",""
"null","<span style='color:GreenYellow; font-size: 70px;'>正确! </span>","null","html-keyboard-response","124","282242","0.0-7.0-0.0-1.1-0.1-1.56","2","2","3","3","2","2","2","2","2","2","3","2","1","3","2","2","2","2","2","2","2","2","2","2","2","1","1","4","1","1","0","1","1","0","0","1","1","1","1","1","0","0","0","1","5","3","4","5","5","4","3","5","4","2","770428348274053122","郭","681","","","","","","","","","","","","","","","","","","","","","","","","","","","","","","feedback_test","","","","","","","","","",""
"414","","f","psychophysics","125","283659","0.0-7.0-0.0-1.1-0.1-0.57","2","2","3","3","2","2","2","2","2","2","3","2","1","3","2","2","2","2","2","2","2","2","2","2","2","1","1","4","1","1","0","1","1","0","0","1","1","1","1","1","0","0","0","1","5","3","4","5","5","4","3","5","4","2","770428348274053122","郭","681","","","","nonmatch","","","","","","","","","","","","","","key","f","16.66084523809522","768","428","j","false","match","img/pentagon.png","五边","五边","ALT1_1","prac_ALT1_1","","","","","","","","","",""
"null","<span style='color:red; font-size: 70px;'>错误! </span>","null","html-keyboard-response","126","284160","0.0-7.0-0.0-1.1-0.1-1.57","2","2","3","3","2","2","2","2","2","2","3","2","1","3","2","2","2","2","2","2","2","2","2","2","2","1","1","4","1","1","0","1","1","0","0","1","1","1","1","1","0","0","0","1","5","3","4","5","5","4","3","5","4","2","770428348274053122","郭","681","","","","","","","","","","","","","","","","","","","","","","","","","","","","","","feedback_test","","","","","","","","","",""
"601","","j","psychophysics","127","285763","0.0-7.0-0.0-1.1-0.1-0.58","2","2","3","3","2","2","2","2","2","2","3","2","1","3","2","2","2","2","2","2","2","2","2","2","2","1","1","4","1","1","0","1","1","0","0","1","1","1","1","1","0","0","0","1","5","3","4","5","5","4","3","5","4","2","770428348274053122","郭","681","","","","match","","","","","","","","","","","","","","key","j","16.665694736842507","768","428","j","true","match","img/diamond.png","菱形","菱形","ALT1_1","prac_ALT1_1","","","","","","","","","",""
"null","<span style='color:GreenYellow; font-size: 70px;'>正确! </span>","null","html-keyboard-response","128","286264","0.0-7.0-0.0-1.1-0.1-1.58","2","2","3","3","2","2","2","2","2","2","3","2","1","3","2","2","2","2","2","2","2","2","2","2","2","1","1","4","1","1","0","1","1","0","0","1","1","1","1","1","0","0","0","1","5","3","4","5","5","4","3","5","4","2","770428348274053122","郭","681","","","","","","","","","","","","","","","","","","","","","","","","","","","","","","feedback_test","","","","","","","","","",""
"916","","f","psychophysics","129","288180","0.0-7.0-0.0-1.1-0.1-0.59","2","2","3","3","2","2","2","2","2","2","3","2","1","3","2","2","2","2","2","2","2","2","2","2","2","1","1","4","1","1","0","1","1","0","0","1","1","1","1","1","0","0","0","1","5","3","4","5","5","4","3","5","4","2","770428348274053122","郭","681","","","","nonmatch","","","","","","","","","","","","","","key","f","16.66693859649138","768","428","f","true","nonmatch","img/square.png","五边","方形","ALT1_1","prac_ALT1_1","","","","","","","","","",""
"null","<span style='color:GreenYellow; font-size: 70px;'>正确! </span>","null","html-keyboard-response","130","288682","0.0-7.0-0.0-1.1-0.1-1.59","2","2","3","3","2","2","2","2","2","2","3","2","1","3","2","2","2","2","2","2","2","2","2","2","2","1","1","4","1","1","0","1","1","0","0","1","1","1","1","1","0","0","0","1","5","3","4","5","5","4","3","5","4","2","770428348274053122","郭","681","","","","","","","","","","","","","","","","","","","","","","","","","","","","","","feedback_test","","","","","","","","","",""
"769","","j","psychophysics","131","290451","0.0-7.0-0.0-1.1-0.1-0.60","2","2","3","3","2","2","2","2","2","2","3","2","1","3","2","2","2","2","2","2","2","2","2","2","2","1","1","4","1","1","0","1","1","0","0","1","1","1","1","1","0","0","0","1","5","3","4","5","5","4","3","5","4","2","770428348274053122","郭","681","","","","match","","","","","","","","","","","","","","key","j","16.663961904762047","768","428","j","true","match","img/pentagon.png","五边","五边","ALT1_1","prac_ALT1_1","","","","","","","","","",""
"null","<span style='color:GreenYellow; font-size: 70px;'>正确! </span>","null","html-keyboard-response","132","290953","0.0-7.0-0.0-1.1-0.1-1.60","2","2","3","3","2","2","2","2","2","2","3","2","1","3","2","2","2","2","2","2","2","2","2","2","2","1","1","4","1","1","0","1","1","0","0","1","1","1","1","1","0","0","0","1","5","3","4","5","5","4","3","5","4","2","770428348274053122","郭","681","","","","","","","","","","","","","","","","","","","","","","","","","","","","","","feedback_test","","","","","","","","","",""
"613","","f","psychophysics","133","292567","0.0-7.0-0.0-1.1-0.1-0.61","2","2","3","3","2","2","2","2","2","2","3","2","1","3","2","2","2","2","2","2","2","2","2","2","2","1","1","4","1","1","0","1","1","0","0","1","1","1","1","1","0","0","0","1","5","3","4","5","5","4","3","5","4","2","770428348274053122","郭","681","","","","nonmatch","","","","","","","","","","","","","","key","f","16.668499999999767","768","428","j","false","match","img/ellipse.png","椭圆","椭圆","ALT1_1","prac_ALT1_1","","","","","","","","","",""
"null","<span style='color:red; font-size: 70px;'>错误! </span>","null","html-keyboard-response","134","293068","0.0-7.0-0.0-1.1-0.1-1.61","2","2","3","3","2","2","2","2","2","2","3","2","1","3","2","2","2","2","2","2","2","2","2","2","2","1","1","4","1","1","0","1","1","0","0","1","1","1","1","1","0","0","0","1","5","3","4","5","5","4","3","5","4","2","770428348274053122","郭","681","","","","","","","","","","","","","","","","","","","","","","","","","","","","","","feedback_test","","","","","","","","","",""
"393","","j","psychophysics","135","294463","0.0-7.0-0.0-1.1-0.1-0.62","2","2","3","3","2","2","2","2","2","2","3","2","1","3","2","2","2","2","2","2","2","2","2","2","2","1","1","4","1","1","0","1","1","0","0","1","1","1","1","1","0","0","0","1","5","3","4","5","5","4","3","5","4","2","770428348274053122","郭","681","","","","match","","","","","","","","","","","","","","key","j","16.66745783132501","768","428","j","true","match","img/diamond.png","菱形","菱形","ALT1_1","prac_ALT1_1","","","","","","","","","",""
"null","<span style='color:GreenYellow; font-size: 70px;'>正确! </span>","null","html-keyboard-response","136","294963","0.0-7.0-0.0-1.1-0.1-1.62","2","2","3","3","2","2","2","2","2","2","3","2","1","3","2","2","2","2","2","2","2","2","2","2","2","1","1","4","1","1","0","1","1","0","0","1","1","1","1","1","0","0","0","1","5","3","4","5","5","4","3","5","4","2","770428348274053122","郭","681","","","","","","","","","","","","","","","","","","","","","","","","","","","","","","feedback_test","","","","","","","","","",""
"523","","j","psychophysics","137","296488","0.0-7.0-0.0-1.1-0.1-0.63","2","2","3","3","2","2","2","2","2","2","3","2","1","3","2","2","2","2","2","2","2","2","2","2","2","1","1","4","1","1","0","1","1","0","0","1","1","1","1","1","0","0","0","1","5","3","4","5","5","4","3","5","4","2","770428348274053122","郭","681","","","","match","","","","","","","","","","","","","","key","j","16.667388888888915","768","428","j","true","match","img/square.png","方形","方形","ALT1_1","prac_ALT1_1","","","","","","","","","",""
"null","<span style='color:GreenYellow; font-size: 70px;'>正确! </span>","null","html-keyboard-response","138","296992","0.0-7.0-0.0-1.1-0.1-1.63","2","2","3","3","2","2","2","2","2","2","3","2","1","3","2","2","2","2","2","2","2","2","2","2","2","1","1","4","1","1","0","1","1","0","0","1","1","1","1","1","0","0","0","1","5","3","4","5","5","4","3","5","4","2","770428348274053122","郭","681","","","","","","","","","","","","","","","","","","","","","","","","","","","","","","feedback_test","","","","","","","","","",""
"835","","f","psychophysics","139","298828","0.0-7.0-0.0-1.1-0.1-0.64","2","2","3","3","2","2","2","2","2","2","3","2","1","3","2","2","2","2","2","2","2","2","2","2","2","1","1","4","1","1","0","1","1","0","0","1","1","1","1","1","0","0","0","1","5","3","4","5","5","4","3","5","4","2","770428348274053122","郭","681","","","","nonmatch","","","","","","","","","","","","","","key","f","16.667293577982058","768","428","f","true","nonmatch","img/pentagon.png","方形","五边","ALT1_1","prac_ALT1_1","","","","","","","","","",""
"null","<span style='color:GreenYellow; font-size: 70px;'>正确! </span>","null","html-keyboard-response","140","299330","0.0-7.0-0.0-1.1-0.1-1.64","2","2","3","3","2","2","2","2","2","2","3","2","1","3","2","2","2","2","2","2","2","2","2","2","2","1","1","4","1","1","0","1","1","0","0","1","1","1","1","1","0","0","0","1","5","3","4","5","5","4","3","5","4","2","770428348274053122","郭","681","","","","","","","","","","","","","","","","","","","","","","","","","","","","","","feedback_test","","","","","","","","","",""
"800","","f","psychophysics","141","301131","0.0-7.0-0.0-1.1-0.1-0.65","2","2","3","3","2","2","2","2","2","2","3","2","1","3","2","2","2","2","2","2","2","2","2","2","2","1","1","4","1","1","0","1","1","0","0","1","1","1","1","1","0","0","0","1","5","3","4","5","5","4","3","5","4","2","770428348274053122","郭","681","","","","nonmatch","","","","","","","","","","","","","","key","f","16.665140186915735","768","428","f","true","nonmatch","img/square.png","菱形","方形","ALT1_1","prac_ALT1_1","","","","","","","","","",""
"null","<span style='color:GreenYellow; font-size: 70px;'>正确! </span>","null","html-keyboard-response","142","301633","0.0-7.0-0.0-1.1-0.1-1.65","2","2","3","3","2","2","2","2","2","2","3","2","1","3","2","2","2","2","2","2","2","2","2","2","2","1","1","4","1","1","0","1","1","0","0","1","1","1","1","1","0","0","0","1","5","3","4","5","5","4","3","5","4","2","770428348274053122","郭","681","","","","","","","","","","","","","","","","","","","","","","","","","","","","","","feedback_test","","","","","","","","","",""
"680","","f","psychophysics","143","303314","0.0-7.0-0.0-1.1-0.1-0.66","2","2","3","3","2","2","2","2","2","2","3","2","1","3","2","2","2","2","2","2","2","2","2","2","2","1","1","4","1","1","0","1","1","0","0","1","1","1","1","1","0","0","0","1","5","3","4","5","5","4","3","5","4","2","770428348274053122","郭","681","","","","nonmatch","","","","","","","","","","","","","","key","f","16.671379999999772","768","428","f","true","nonmatch","img/ellipse.png","方形","椭圆","ALT1_1","prac_ALT1_1","","","","","","","","","",""
"null","<span style='color:GreenYellow; font-size: 70px;'>正确! </span>","null","html-keyboard-response","144","303815","0.0-7.0-0.0-1.1-0.1-1.66","2","2","3","3","2","2","2","2","2","2","3","2","1","3","2","2","2","2","2","2","2","2","2","2","2","1","1","4","1","1","0","1","1","0","0","1","1","1","1","1","0","0","0","1","5","3","4","5","5","4","3","5","4","2","770428348274053122","郭","681","","","","","","","","","","","","","","","","","","","","","","","","","","","","","","feedback_test","","","","","","","","","",""
"745","","f","psychophysics","145","305561","0.0-7.0-0.0-1.1-0.1-0.67","2","2","3","3","2","2","2","2","2","2","3","2","1","3","2","2","2","2","2","2","2","2","2","2","2","1","1","4","1","1","0","1","1","0","0","1","1","1","1","1","0","0","0","1","5","3","4","5","5","4","3","5","4","2","770428348274053122","郭","681","","","","nonmatch","","","","","","","","","","","","","","key","f","16.66679807692316","768","428","f","true","nonmatch","img/diamond.png","五边","菱形","ALT1_1","prac_ALT1_1","","","","","","","","","",""
"null","<span style='color:GreenYellow; font-size: 70px;'>正确! </span>","null","html-keyboard-response","146","306062","0.0-7.0-0.0-1.1-0.1-1.67","2","2","3","3","2","2","2","2","2","2","3","2","1","3","2","2","2","2","2","2","2","2","2","2","2","1","1","4","1","1","0","1","1","0","0","1","1","1","1","1","0","0","0","1","5","3","4","5","5","4","3","5","4","2","770428348274053122","郭","681","","","","","","","","","","","","","","","","","","","","","","","","","","","","","","feedback_test","","","","","","","","","",""
"557","","j","psychophysics","147","307621","0.0-7.0-0.0-1.1-0.1-0.68","2","2","3","3","2","2","2","2","2","2","3","2","1","3","2","2","2","2","2","2","2","2","2","2","2","1","1","4","1","1","0","1","1","0","0","1","1","1","1","1","0","0","0","1","5","3","4","5","5","4","3","5","4","2","770428348274053122","郭","681","","","","match","","","","","","","","","","","","","","key","j","16.668032608695363","768","428","j","true","match","img/square.png","方形","方形","ALT1_1","prac_ALT1_1","","","","","","","","","",""
"null","<span style='color:GreenYellow; font-size: 70px;'>正确! </span>","null","html-keyboard-response","148","308122","0.0-7.0-0.0-1.1-0.1-1.68","2","2","3","3","2","2","2","2","2","2","3","2","1","3","2","2","2","2","2","2","2","2","2","2","2","1","1","4","1","1","0","1","1","0","0","1","1","1","1","1","0","0","0","1","5","3","4","5","5","4","3","5","4","2","770428348274053122","郭","681","","","","","","","","","","","","","","","","","","","","","","","","","","","","","","feedback_test","","","","","","","","","",""
"764","","f","psychophysics","149","309887","0.0-7.0-0.0-1.1-0.1-0.69","2","2","3","3","2","2","2","2","2","2","3","2","1","3","2","2","2","2","2","2","2","2","2","2","2","1","1","4","1","1","0","1","1","0","0","1","1","1","1","1","0","0","0","1","5","3","4","5","5","4","3","5","4","2","770428348274053122","郭","681","","","","nonmatch","","","","","","","","","","","","","","key","f","16.666514285714253","768","428","f","true","nonmatch","img/pentagon.png","菱形","五边","ALT1_1","prac_ALT1_1","","","","","","","","","",""
"null","<span style='color:GreenYellow; font-size: 70px;'>正确! </span>","null","html-keyboard-response","150","310387","0.0-7.0-0.0-1.1-0.1-1.69","2","2","3","3","2","2","2","2","2","2","3","2","1","3","2","2","2","2","2","2","2","2","2","2","2","1","1","4","1","1","0","1","1","0","0","1","1","1","1","1","0","0","0","1","5","3","4","5","5","4","3","5","4","2","770428348274053122","郭","681","","","","","","","","","","","","","","","","","","","","","","","","","","","","","","feedback_test","","","","","","","","","",""
"769","","f","psychophysics","151","312157","0.0-7.0-0.0-1.1-0.1-0.70","2","2","3","3","2","2","2","2","2","2","3","2","1","3","2","2","2","2","2","2","2","2","2","2","2","1","1","4","1","1","0","1","1","0","0","1","1","1","1","1","0","0","0","1","5","3","4","5","5","4","3","5","4","2","770428348274053122","郭","681","","","","nonmatch","","","","","","","","","","","","","","key","f","16.668295238095535","768","428","f","true","nonmatch","img/diamond.png","椭圆","菱形","ALT1_1","prac_ALT1_1","","","","","","","","","",""
"null","<span style='color:GreenYellow; font-size: 70px;'>正确! </span>","null","html-keyboard-response","152","312659","0.0-7.0-0.0-1.1-0.1-1.70","2","2","3","3","2","2","2","2","2","2","3","2","1","3","2","2","2","2","2","2","2","2","2","2","2","1","1","4","1","1","0","1","1","0","0","1","1","1","1","1","0","0","0","1","5","3","4","5","5","4","3","5","4","2","770428348274053122","郭","681","","","","","","","","","","","","","","","","","","","","","","","","","","","","","","feedback_test","","","","","","","","","",""
"667","","j","psychophysics","153","314328","0.0-7.0-0.0-1.1-0.1-0.71","2","2","3","3","2","2","2","2","2","2","3","2","1","3","2","2","2","2","2","2","2","2","2","2","2","1","1","4","1","1","0","1","1","0","0","1","1","1","1","1","0","0","0","1","5","3","4","5","5","4","3","5","4","2","770428348274053122","郭","681","","","","match","","","","","","","","","","","","","","key","j","16.663989898989758","768","428","j","true","match","img/diamond.png","菱形","菱形","ALT1_1","prac_ALT1_1","","","","","","","","","",""
"null","<span style='color:GreenYellow; font-size: 70px;'>正确! </span>","null","html-keyboard-response","154","314829","0.0-7.0-0.0-1.1-0.1-1.71","2","2","3","3","2","2","2","2","2","2","3","2","1","3","2","2","2","2","2","2","2","2","2","2","2","1","1","4","1","1","0","1","1","0","0","1","1","1","1","1","0","0","0","1","5","3","4","5","5","4","3","5","4","2","770428348274053122","郭","681","","","","","","","","","","","","","","","","","","","","","","","","","","","","","","feedback_test","","","","","","","","","",""
"560","","f","psychophysics","155","316390","0.0-7.0-0.0-1.1-0.1-0.72","2","2","3","3","2","2","2","2","2","2","3","2","1","3","2","2","2","2","2","2","2","2","2","2","2","1","1","4","1","1","0","1","1","0","0","1","1","1","1","1","0","0","0","1","5","3","4","5","5","4","3","5","4","2","770428348274053122","郭","681","","","","nonmatch","","","","","","","","","","","","","","key","f","16.666184782608585","768","428","f","true","nonmatch","img/square.png","椭圆","方形","ALT1_1","prac_ALT1_1","","","","","","","","","",""
"null","<span style='color:GreenYellow; font-size: 70px;'>正确! </span>","null","html-keyboard-response","156","316892","0.0-7.0-0.0-1.1-0.1-1.72","2","2","3","3","2","2","2","2","2","2","3","2","1","3","2","2","2","2","2","2","2","2","2","2","2","1","1","4","1","1","0","1","1","0","0","1","1","1","1","1","0","0","0","1","5","3","4","5","5","4","3","5","4","2","770428348274053122","郭","681","","","","","","","","","","","","","","","","","","","","","","","","","","","","","","feedback_test","","","","","","","","","",""
"547","","j","psychophysics","157","318440","0.0-7.0-0.0-1.1-0.1-0.73","2","2","3","3","2","2","2","2","2","2","3","2","1","3","2","2","2","2","2","2","2","2","2","2","2","1","1","4","1","1","0","1","1","0","0","1","1","1","1","1","0","0","0","1","5","3","4","5","5","4","3","5","4","2","770428348274053122","郭","681","","","","match","","","","","","","","","","","","","","key","j","16.66372527472501","768","428","j","true","match","img/square.png","方形","方形","ALT1_1","prac_ALT1_1","","","","","","","","","",""
"null","<span style='color:GreenYellow; font-size: 70px;'>正确! </span>","null","html-keyboard-response","158","318949","0.0-7.0-0.0-1.1-0.1-1.73","2","2","3","3","2","2","2","2","2","2","3","2","1","3","2","2","2","2","2","2","2","2","2","2","2","1","1","4","1","1","0","1","1","0","0","1","1","1","1","1","0","0","0","1","5","3","4","5","5","4","3","5","4","2","770428348274053122","郭","681","","","","","","","","","","","","","","","","","","","","","","","","","","","","","","feedback_test","","","","","","","","","",""
"606","","f","psychophysics","159","320556","0.0-7.0-0.0-1.1-0.1-0.74","2","2","3","3","2","2","2","2","2","2","3","2","1","3","2","2","2","2","2","2","2","2","2","2","2","1","1","4","1","1","0","1","1","0","0","1","1","1","1","1","0","0","0","1","5","3","4","5","5","4","3","5","4","2","770428348274053122","郭","681","","","","nonmatch","","","","","","","","","","","","","","key","f","16.666389473684525","768","428","f","true","nonmatch","img/diamond.png","五边","菱形","ALT1_1","prac_ALT1_1","","","","","","","","","",""
"null","<span style='color:GreenYellow; font-size: 70px;'>正确! </span>","null","html-keyboard-response","160","321064","0.0-7.0-0.0-1.1-0.1-1.74","2","2","3","3","2","2","2","2","2","2","3","2","1","3","2","2","2","2","2","2","2","2","2","2","2","1","1","4","1","1","0","1","1","0","0","1","1","1","1","1","0","0","0","1","5","3","4","5","5","4","3","5","4","2","770428348274053122","郭","681","","","","","","","","","","","","","","","","","","","","","","","","","","","","","","feedback_test","","","","","","","","","",""
"511","","j","psychophysics","161","322577","0.0-7.0-0.0-1.1-0.1-0.75","2","2","3","3","2","2","2","2","2","2","3","2","1","3","2","2","2","2","2","2","2","2","2","2","2","1","1","4","1","1","0","1","1","0","0","1","1","1","1","1","0","0","0","1","5","3","4","5","5","4","3","5","4","2","770428348274053122","郭","681","","","","match","","","","","","","","","","","","","","key","j","16.667099999999888","768","428","j","true","match","img/square.png","方形","方形","ALT1_1","prac_ALT1_1","","","","","","","","","",""
"null","<span style='color:GreenYellow; font-size: 70px;'>正确! </span>","null","html-keyboard-response","162","323078","0.0-7.0-0.0-1.1-0.1-1.75","2","2","3","3","2","2","2","2","2","2","3","2","1","3","2","2","2","2","2","2","2","2","2","2","2","1","1","4","1","1","0","1","1","0","0","1","1","1","1","1","0","0","0","1","5","3","4","5","5","4","3","5","4","2","770428348274053122","郭","681","","","","","","","","","","","","","","","","","","","","","","","","","","","","","","feedback_test","","","","","","","","","",""
"501","","f","psychophysics","163","324580","0.0-7.0-0.0-1.1-0.1-0.76","2","2","3","3","2","2","2","2","2","2","3","2","1","3","2","2","2","2","2","2","2","2","2","2","2","1","1","4","1","1","0","1","1","0","0","1","1","1","1","1","0","0","0","1","5","3","4","5","5","4","3","5","4","2","770428348274053122","郭","681","","","","nonmatch","","","","","","","","","","","","","","key","f","16.66731460674161","768","428","f","true","nonmatch","img/pentagon.png","椭圆","五边","ALT1_1","prac_ALT1_1","","","","","","","","","",""
"null","<span style='color:GreenYellow; font-size: 70px;'>正确! </span>","null","html-keyboard-response","164","325082","0.0-7.0-0.0-1.1-0.1-1.76","2","2","3","3","2","2","2","2","2","2","3","2","1","3","2","2","2","2","2","2","2","2","2","2","2","1","1","4","1","1","0","1","1","0","0","1","1","1","1","1","0","0","0","1","5","3","4","5","5","4","3","5","4","2","770428348274053122","郭","681","","","","","","","","","","","","","","","","","","","","","","","","","","","","","","feedback_test","","","","","","","","","",""
"531","","f","psychophysics","165","326616","0.0-7.0-0.0-1.1-0.1-0.77","2","2","3","3","2","2","2","2","2","2","3","2","1","3","2","2","2","2","2","2","2","2","2","2","2","1","1","4","1","1","0","1","1","0","0","1","1","1","1","1","0","0","0","1","5","3","4","5","5","4","3","5","4","2","770428348274053122","郭","681","","","","nonmatch","","","","","","","","","","","","","","key","f","16.66696703296723","768","428","f","true","nonmatch","img/diamond.png","方形","菱形","ALT1_1","prac_ALT1_1","","","","","","","","","",""
"null","<span style='color:GreenYellow; font-size: 70px;'>正确! </span>","null","html-keyboard-response","166","327117","0.0-7.0-0.0-1.1-0.1-1.77","2","2","3","3","2","2","2","2","2","2","3","2","1","3","2","2","2","2","2","2","2","2","2","2","2","1","1","4","1","1","0","1","1","0","0","1","1","1","1","1","0","0","0","1","5","3","4","5","5","4","3","5","4","2","770428348274053122","郭","681","","","","","","","","","","","","","","","","","","","","","","","","","","","","","","feedback_test","","","","","","","","","",""
"549","","j","psychophysics","167","328667","0.0-7.0-0.0-1.1-0.1-0.78","2","2","3","3","2","2","2","2","2","2","3","2","1","3","2","2","2","2","2","2","2","2","2","2","2","1","1","4","1","1","0","1","1","0","0","1","1","1","1","1","0","0","0","1","5","3","4","5","5","4","3","5","4","2","770428348274053122","郭","681","","","","match","","","","","","","","","","","","","","key","j","16.66983695652174","768","428","j","true","match","img/ellipse.png","椭圆","椭圆","ALT1_1","prac_ALT1_1","","","","","","","","","",""
"null","<span style='color:GreenYellow; font-size: 70px;'>正确! </span>","null","html-keyboard-response","168","329168","0.0-7.0-0.0-1.1-0.1-1.78","2","2","3","3","2","2","2","2","2","2","3","2","1","3","2","2","2","2","2","2","2","2","2","2","2","1","1","4","1","1","0","1","1","0","0","1","1","1","1","1","0","0","0","1","5","3","4","5","5","4","3","5","4","2","770428348274053122","郭","681","","","","","","","","","","","","","","","","","","","","","","","","","","","","","","feedback_test","","","","","","","","","",""
"503","","j","psychophysics","169","330673","0.0-7.0-0.0-1.1-0.1-0.79","2","2","3","3","2","2","2","2","2","2","3","2","1","3","2","2","2","2","2","2","2","2","2","2","2","1","1","4","1","1","0","1","1","0","0","1","1","1","1","1","0","0","0","1","5","3","4","5","5","4","3","5","4","2","770428348274053122","郭","681","","","","match","","","","","","","","","","","","","","key","j","16.667640449438018","768","428","j","true","match","img/ellipse.png","椭圆","椭圆","ALT1_1","prac_ALT1_1","","","","","","","","","",""
"null","<span style='color:GreenYellow; font-size: 70px;'>正确! </span>","null","html-keyboard-response","170","331175","0.0-7.0-0.0-1.1-0.1-1.79","2","2","3","3","2","2","2","2","2","2","3","2","1","3","2","2","2","2","2","2","2","2","2","2","2","1","1","4","1","1","0","1","1","0","0","1","1","1","1","1","0","0","0","1","5","3","4","5","5","4","3","5","4","2","770428348274053122","郭","681","","","","","","","","","","","","","","","","","","","","","","","","","","","","","","feedback_test","","","","","","","","","",""
"522","","f","psychophysics","171","332697","0.0-7.0-0.0-1.1-0.1-0.80","2","2","3","3","2","2","2","2","2","2","3","2","1","3","2","2","2","2","2","2","2","2","2","2","2","1","1","4","1","1","0","1","1","0","0","1","1","1","1","1","0","0","0","1","5","3","4","5","5","4","3","5","4","2","770428348274053122","郭","681","","","","nonmatch","","","","","","","","","","","","","","key","f","16.66572222222199","768","428","j","false","match","img/pentagon.png","五边","五边","ALT1_1","prac_ALT1_1","","","","","","","","","",""
"null","<span style='color:red; font-size: 70px;'>错误! </span>","null","html-keyboard-response","172","333198","0.0-7.0-0.0-1.1-0.1-1.80","2","2","3","3","2","2","2","2","2","2","3","2","1","3","2","2","2","2","2","2","2","2","2","2","2","1","1","4","1","1","0","1","1","0","0","1","1","1","1","1","0","0","0","1","5","3","4","5","5","4","3","5","4","2","770428348274053122","郭","681","","","","","","","","","","","","","","","","","","","","","","","","","","","","","","feedback_test","","","","","","","","","",""
"654","","f","psychophysics","173","334854","0.0-7.0-0.0-1.1-0.1-0.81","2","2","3","3","2","2","2","2","2","2","3","2","1","3","2","2","2","2","2","2","2","2","2","2","2","1","1","4","1","1","0","1","1","0","0","1","1","1","1","1","0","0","0","1","5","3","4","5","5","4","3","5","4","2","770428348274053122","郭","681","","","","nonmatch","","","","","","","","","","","","","","key","f","16.6653979591834","768","428","f","true","nonmatch","img/pentagon.png","菱形","五边","ALT1_1","prac_ALT1_1","","","","","","","","","",""
"null","<span style='color:GreenYellow; font-size: 70px;'>正确! </span>","null","html-keyboard-response","174","335355","0.0-7.0-0.0-1.1-0.1-1.81","2","2","3","3","2","2","2","2","2","2","3","2","1","3","2","2","2","2","2","2","2","2","2","2","2","1","1","4","1","1","0","1","1","0","0","1","1","1","1","1","0","0","0","1","5","3","4","5","5","4","3","5","4","2","770428348274053122","郭","681","","","","","","","","","","","","","","","","","","","","","","","","","","","","","","feedback_test","","","","","","","","","",""
"566","","j","psychophysics","175","336923","0.0-7.0-0.0-1.1-0.1-0.82","2","2","3","3","2","2","2","2","2","2","3","2","1","3","2","2","2","2","2","2","2","2","2","2","2","1","1","4","1","1","0","1","1","0","0","1","1","1","1","1","0","0","0","1","5","3","4","5","5","4","3","5","4","2","770428348274053122","郭","681","","","","match","","","","","","","","","","","","","","key","j","16.66729032258085","768","428","f","false","nonmatch","img/diamond.png","椭圆","菱形","ALT1_1","prac_ALT1_1","","","","","","","","","",""
"null","<span style='color:red; font-size: 70px;'>错误! </span>","null","html-keyboard-response","176","337426","0.0-7.0-0.0-1.1-0.1-1.82","2","2","3","3","2","2","2","2","2","2","3","2","1","3","2","2","2","2","2","2","2","2","2","2","2","1","1","4","1","1","0","1","1","0","0","1","1","1","1","1","0","0","0","1","5","3","4","5","5","4","3","5","4","2","770428348274053122","郭","681","","","","","","","","","","","","","","","","","","","","","","","","","","","","","","feedback_test","","","","","","","","","",""
"678","","j","psychophysics","177","339104","0.0-7.0-0.0-1.1-0.1-0.83","2","2","3","3","2","2","2","2","2","2","3","2","1","3","2","2","2","2","2","2","2","2","2","2","2","1","1","4","1","1","0","1","1","0","0","1","1","1","1","1","0","0","0","1","5","3","4","5","5","4","3","5","4","2","770428348274053122","郭","681","","","","match","","","","","","","","","","","","","","key","j","16.6661010101006","768","428","f","false","nonmatch","img/square.png","五边","方形","ALT1_1","prac_ALT1_1","","","","","","","","","",""
"null","<span style='color:red; font-size: 70px;'>错误! </span>","null","html-keyboard-response","178","339605","0.0-7.0-0.0-1.1-0.1-1.83","2","2","3","3","2","2","2","2","2","2","3","2","1","3","2","2","2","2","2","2","2","2","2","2","2","1","1","4","1","1","0","1","1","0","0","1","1","1","1","1","0","0","0","1","5","3","4","5","5","4","3","5","4","2","770428348274053122","郭","681","","","","","","","","","","","","","","","","","","","","","","","","","","","","","","feedback_test","","","","","","","","","",""
"556","","f","psychophysics","179","341163","0.0-7.0-0.0-1.1-0.1-0.84","2","2","3","3","2","2","2","2","2","2","3","2","1","3","2","2","2","2","2","2","2","2","2","2","2","1","1","4","1","1","0","1","1","0","0","1","1","1","1","1","0","0","0","1","5","3","4","5","5","4","3","5","4","2","770428348274053122","郭","681","","","","nonmatch","","","","","","","","","","","","","","key","f","16.667172043010346","768","428","f","true","nonmatch","img/ellipse.png","方形","椭圆","ALT1_1","prac_ALT1_1","","","","","","","","","",""
"null","<span style='color:GreenYellow; font-size: 70px;'>正确! </span>","null","html-keyboard-response","180","341666","0.0-7.0-0.0-1.1-0.1-1.84","2","2","3","3","2","2","2","2","2","2","3","2","1","3","2","2","2","2","2","2","2","2","2","2","2","1","1","4","1","1","0","1","1","0","0","1","1","1","1","1","0","0","0","1","5","3","4","5","5","4","3","5","4","2","770428348274053122","郭","681","","","","","","","","","","","","","","","","","","","","","","","","","","","","","","feedback_test","","","","","","","","","",""
"672","","j","psychophysics","181","343340","0.0-7.0-0.0-1.1-0.1-0.85","2","2","3","3","2","2","2","2","2","2","3","2","1","3","2","2","2","2","2","2","2","2","2","2","2","1","1","4","1","1","0","1","1","0","0","1","1","1","1","1","0","0","0","1","5","3","4","5","5","4","3","5","4","2","770428348274053122","郭","681","","","","match","","","","","","","","","","","","","","key","j","16.66709090909107","768","428","j","true","match","img/pentagon.png","五边","五边","ALT1_1","prac_ALT1_1","","","","","","","","","",""
"null","<span style='color:GreenYellow; font-size: 70px;'>正确! </span>","null","html-keyboard-response","182","343841","0.0-7.0-0.0-1.1-0.1-1.85","2","2","3","3","2","2","2","2","2","2","3","2","1","3","2","2","2","2","2","2","2","2","2","2","2","1","1","4","1","1","0","1","1","0","0","1","1","1","1","1","0","0","0","1","5","3","4","5","5","4","3","5","4","2","770428348274053122","郭","681","","","","","","","","","","","","","","","","","","","","","","","","","","","","","","feedback_test","","","","","","","","","",""
"561","","j","psychophysics","183","345405","0.0-7.0-0.0-1.1-0.1-0.86","2","2","3","3","2","2","2","2","2","2","3","2","1","3","2","2","2","2","2","2","2","2","2","2","2","1","1","4","1","1","0","1","1","0","0","1","1","1","1","1","0","0","0","1","5","3","4","5","5","4","3","5","4","2","770428348274053122","郭","681","","","","match","","","","","","","","","","","","","","key","j","16.670619565217233","768","428","j","true","match","img/diamond.png","菱形","菱形","ALT1_1","prac_ALT1_1","","","","","","","","","",""
"null","<span style='color:GreenYellow; font-size: 70px;'>正确! </span>","null","html-keyboard-response","184","345906","0.0-7.0-0.0-1.1-0.1-1.86","2","2","3","3","2","2","2","2","2","2","3","2","1","3","2","2","2","2","2","2","2","2","2","2","2","1","1","4","1","1","0","1","1","0","0","1","1","1","1","1","0","0","0","1","5","3","4","5","5","4","3","5","4","2","770428348274053122","郭","681","","","","","","","","","","","","","","","","","","","","","","","","","","","","","","feedback_test","","","","","","","","","",""
