"rt","stimulus","response","trial_type","trial_index","time_elapsed","internal_node_id","ses_1","ses_2","ses_3","ses_4","ses_5","ses_6","ses_7","ses_8","ses_9","ses_10","coreself_1","coreself_2","coreself_3","coreself_4","coreself_5","coreself_6","coreself_7","coreself_8","coreself_9","coreself_10","SGPS_1","SGPS_2","SGPS_3","SGPS_4","SGPS_5","SGPS_6","SGPS_7","SGPS_8","SGPS_9","NPI1","NPI2","NPI3","NPI4","NPI5","NPI6","NPI7","NPI8","NPI9","NPI10","NPI11","NPI12","NPI13","NPI14","NPI15","hsns_1","hsns_2","hsns_3","hsns_4","hsns_5","hsns_6","hsns_7","hsns_8","hsns_9","hsns_10","subj_idx","friend_name","ParticipantID","value","success","user_agent","responses","item_order","radio_event_ids","radio_event_times","key_event_times","mouse_event_times","straightlining","zigzagging","honeypot","timeout","failed_images","failed_audio","failed_video","version_attrib","version_target","correct","IAT","screen_id","task_id","RT","condition","word","varname","summary","version_attrib2","version_target2","time_stamp","view_history","response_type","key_press","avg_frame_time","center_x","center_y","correct_response","identity","Image","question_order"
"2908","
   <p><div style = ""color: white;font-size:25px;"">您好，欢迎参加本次实验。</div> </p>
   <p><div style = ""color: white;font-size:25px;"">为充分保障您的权利，请确保您已经知晓并同意《参与实验同意书》以及《数据公开知情同意书》。</div></p>
   <p><div style = ""color: white;font-size:25px;"">如果您未见过上述内容，请咨询实验员。</div></p>
   <p><div style = ""color: white;font-size:25px;"">如果您选择继续实验，则表示您已经清楚两份知情同意书的内容并同意。</div></p>
   <p><div style = ""color: red;font-size:30px;"">请确保您记得day0的实验编号，您将在本次实验输入该编号，若您忘记，请咨询实验员后作答。</div></p>
   <p> <div style = ""color: green;font-size:25px;""><按空格键至下页></div> </p>
   "," ","html-keyboard-response","0","2915","0.0-0.0","3","4","3","3","4","4","3","4","4","3","4","5","4","4","5","5","4","5","4","4","1","2","2","1","1","2","2","1","2","1","0","1","1","0","0","0","1","1","1","1","0","1","0","1","4","1","2","1","2","1","1","2","4","2","633773426204475392","韩","671","","","","","","","","","","","","","","","","","","","","","","","","","","","","","","","","","","","","","","","",""
"","","","call-function","1","2919","0.0-1.0-0.0","3","4","3","3","4","4","3","4","4","3","4","5","4","4","5","5","4","5","4","4","1","2","2","1","1","2","2","1","2","1","0","1","1","0","0","0","1","1","1","1","0","1","0","1","4","1","2","1","2","1","1","2","4","2","633773426204475392","韩","671","","","","","","","","","","","","","","","","","","","","","","","","","","","","","","","","","","","","","","","",""
"29919","","{""friend_name"":""韩"",""ParticipantID"":""671""}","survey-html-form","2","32839","0.0-1.0-1.0","3","4","3","3","4","4","3","4","4","3","4","5","4","4","5","5","4","5","4","4","1","2","2","1","1","2","2","1","2","1","0","1","1","0","0","0","1","1","1","1","0","1","0","1","4","1","2","1","2","1","1","2","4","2","633773426204475392","韩","671","","","","","","","","","","","","","","","","","","","","","","","","","","","","","","","","","","","","","","","",""
"","","","fullscreen","3","34260","0.0-2.0","3","4","3","3","4","4","3","4","4","3","4","5","4","4","5","5","4","5","4","4","1","2","2","1","1","2","2","1","2","1","0","1","1","0","0","0","1","1","1","1","0","1","0","1","4","1","2","1","2","1","1","2","4","2","633773426204475392","韩","671","","true","{}","","","","","","","","","","","","","","","","","","","","","","","","","","","","","","","","","","","","",""
"24524.299999952316","","{""Q01"":""3"",""Q02"":""4"",""Q03"":""3"",""Q04"":""3"",""Q05"":""4"",""Q06"":""4"",""Q07"":""3"",""Q08"":""4"",""Q09"":""4"",""Q10"":""3""}","survey-template","4","58790","0.0-3.0","3","4","3","3","4","4","3","4","4","3","4","5","4","4","5","5","4","5","4","4","1","2","2","1","1","2","2","1","2","1","0","1","1","0","0","0","1","1","1","1","0","1","0","1","4","1","2","1","2","1","1","2","4","2","633773426204475392","韩","671","","","","{""Q01"":""3"",""Q02"":""4"",""Q03"":""3"",""Q04"":""3"",""Q05"":""4"",""Q06"":""4"",""Q07"":""3"",""Q08"":""4"",""Q09"":""4"",""Q10"":""3""}","[0,1,2,3,4,5,6,7,8,9]","[""Q01"",""Q02"",""Q03"",""Q04"",""Q05"",""Q06"",""Q07"",""Q08"",""Q09"",""Q10""]","[3526.899999856949,5957.700000047684,6880.599999904633,8646.399999856949,10400.799999952316,11714.799999952316,13368.599999904633,15204.5,16344.5,17784.39999985695]","[]","[3526.899999856949,5306.899999856949,5957.700000047684,6880.599999904633,8646.399999856949,10400.799999952316,11714.799999952316,13368.599999904633,15204.5,16344.5,17204.5,17466.099999904633,17784.39999985695,24522.89999985695]","0.3","0.5555555555555556","0","","","","","","","","","","","","","","","","","","","","","","","","","","","",""
"28461.200000047684","","{""Q01"":""4"",""Q02"":""5"",""Q03"":""4"",""Q04"":""4"",""Q05"":""5"",""Q06"":""5"",""Q07"":""4"",""Q08"":""5"",""Q09"":""4"",""Q10"":""4""}","survey-template","5","87261","0.0-4.0","3","4","3","3","4","4","3","4","4","3","4","5","4","4","5","5","4","5","4","4","1","2","2","1","1","2","2","1","2","1","0","1","1","0","0","0","1","1","1","1","0","1","0","1","4","1","2","1","2","1","1","2","4","2","633773426204475392","韩","671","","","","{""Q01"":""4"",""Q02"":""5"",""Q03"":""4"",""Q04"":""4"",""Q05"":""5"",""Q06"":""5"",""Q07"":""4"",""Q08"":""5"",""Q09"":""4"",""Q10"":""4""}","[0,1,2,3,4,5,6,7,8,9]","[""Q01"",""Q01"",""Q02"",""Q02"",""Q03"",""Q04"",""Q05"",""Q06"",""Q07"",""Q07"",""Q08"",""Q08"",""Q09"",""Q10""]","[3536.7000000476837,3900.4000000953674,5652.299999952316,6160.5,7720.600000143051,9234.799999952316,11954.799999952316,13192.400000095367,14470.700000047684,14826.700000047684,15672.799999952316,16004.700000047684,16912.400000095367,18380.700000047684]","[]","[3064.5,3536.7000000476837,3900.4000000953674,5092.5,5652.299999952316,6160.5,6822.799999952316,7144.400000095367,7720.600000143051,8698.5,8904.400000095367,9234.799999952316,11258.299999952316,11954.799999952316,12860.200000047684,13192.400000095367,14470.700000047684,14826.700000047684,15672.799999952316,16004.700000047684,16912.400000095367,18096.400000095367,18380.700000047684,28459.799999952316]","0.3","0.3333333333333333","0","","","","","","","","","","","","","","","","","","","","","","","","","","","",""
"","","","preload","6","87442","0.0-5.0","3","4","3","3","4","4","3","4","4","3","4","5","4","4","5","5","4","5","4","4","1","2","2","1","1","2","2","1","2","1","0","1","1","0","0","0","1","1","1","1","0","1","0","1","4","1","2","1","2","1","1","2","4","2","633773426204475392","韩","671","","true","","","","","","","","","","","false","[]","[]","[]","","","","","","","","","","","","","","","","","","","","","","","",""
"15897","
    <h3>词语分类任务</h3>
    <p>在接下来的任务中，你需要对一系列词语进行分类。</p>
    <p>请先熟悉这些词语，这有利于你完成接下来的任务。</p>
    <table align=""center"" border=1 cellpadding=3 cellspacing=0>
    <tr> <th>类别</th> <th>词语</th> </tr>
    <tr> <td>&emsp;积极&emsp;</td> <td>&emsp;能干、全能、全才、高效、精干、天才&emsp;</td> </tr>
    <tr> <td>&emsp;消极&emsp;</td> <td>&emsp;无能、低能、废物、拙笨、愚钝、蠢笨&emsp;</td> </tr>
    <tr> <td>&emsp;自我&emsp;</td> <td>&emsp;我、我的、自己、自己的、本人、本人的&emsp;</td> </tr>
    <tr> <td>&emsp;他人&emsp;</td> <td>&emsp;他、他的、别人、别人的、他人、他人的&emsp;</td> </tr>
    </table><br/>","0","html-button-response","7","103342","0.0-6.0-0.0-0.0","3","4","3","3","4","4","3","4","4","3","4","5","4","4","5","5","4","5","4","4","1","2","2","1","1","2","2","1","2","1","0","1","1","0","0","0","1","1","1","1","0","1","0","1","4","1","2","1","2","1","1","2","4","2","633773426204475392","韩","671","","","","","","","","","","","","","","","","","2","2","","","","","","","","","","","","","","","","","","","","","",""
"2609","
    <div class=""tag-bottom"">
    <p> —— 任务1：对“他人”词和“自我”词分类 ——<p/>
    不同词语会出现在屏幕中央，类别标签将始终显示在屏幕上方<p/>   
    <span style=""color:#FFD866""><b>请根据上方标签的提示，尽可能正确并且快速地做出按键反应</b></span><p/>
    当按键错误时屏幕中会出现<span style=""color:red""> X </span>，需要按另一个键纠正才能继续<br/><p/>
    请把双手食指分别放在键盘的“E”键和“I”键上<p/>
    按<空格键>开始
    </p></div>"," ","html-keyboard-response","8","105954","0.0-6.0-0.0-1.0","3","4","3","3","4","4","3","4","4","3","4","5","4","4","5","5","4","5","4","4","1","2","2","1","1","2","2","1","2","1","0","1","1","0","0","0","1","1","1","1","0","1","0","1","4","1","2","1","2","1","1","2","4","2","633773426204475392","韩","671","","","","","","","","","","","","","","","","","","","","","","","","","","","","","","","","","","","","","","","",""
"null","","null","html-keyboard-response","9","106206","0.0-6.0-0.0-2.0-0.0","3","4","3","3","4","4","3","4","4","3","4","5","4","4","5","5","4","5","4","4","1","2","2","1","1","2","2","1","2","1","0","1","1","0","0","0","1","1","1","1","0","1","0","1","4","1","2","1","2","1","1","2","4","2","633773426204475392","韩","671","","","","","","","","","","","","","","","","","","","","","","","","","","","","","","","","","","","","","","","",""
"842","<p style=""color:rgb(150, 250, 100); font-size: 35px;"">本人</p>","i","categorize-html","10","107052","0.0-6.0-0.0-2.0-1.0","3","4","3","3","4","4","3","4","4","3","4","5","4","4","5","5","4","5","4","4","1","2","2","1","1","2","2","1","2","1","0","1","1","0","0","0","1","1","1","1","0","1","0","1","4","1","2","1","2","1","1","2","4","2","633773426204475392","韩","671","","","","","","","","","","","","","","","","","","","true","1","1","ability","842","self","本人","","","","","","","","","","","","","","",""
"null","","null","html-keyboard-response","11","107303","0.0-6.0-0.0-2.0-0.1","3","4","3","3","4","4","3","4","4","3","4","5","4","4","5","5","4","5","4","4","1","2","2","1","1","2","2","1","2","1","0","1","1","0","0","0","1","1","1","1","0","1","0","1","4","1","2","1","2","1","1","2","4","2","633773426204475392","韩","671","","","","","","","","","","","","","","","","","","","","","","","","","","","","","","","","","","","","","","","",""
"667","<p style=""color:rgb(150, 250, 100); font-size: 35px;"">别人的</p>","e","categorize-html","12","107972","0.0-6.0-0.0-2.0-1.1","3","4","3","3","4","4","3","4","4","3","4","5","4","4","5","5","4","5","4","4","1","2","2","1","1","2","2","1","2","1","0","1","1","0","0","0","1","1","1","1","0","1","0","1","4","1","2","1","2","1","1","2","4","2","633773426204475392","韩","671","","","","","","","","","","","","","","","","","","","true","1","1","ability","667","other","别人的","","","","","","","","","","","","","","",""
"null","","null","html-keyboard-response","13","108224","0.0-6.0-0.0-2.0-0.2","3","4","3","3","4","4","3","4","4","3","4","5","4","4","5","5","4","5","4","4","1","2","2","1","1","2","2","1","2","1","0","1","1","0","0","0","1","1","1","1","0","1","0","1","4","1","2","1","2","1","1","2","4","2","633773426204475392","韩","671","","","","","","","","","","","","","","","","","","","","","","","","","","","","","","","","","","","","","","","",""
"541","<p style=""color:rgb(150, 250, 100); font-size: 35px;"">自己</p>","i","categorize-html","14","108767","0.0-6.0-0.0-2.0-1.2","3","4","3","3","4","4","3","4","4","3","4","5","4","4","5","5","4","5","4","4","1","2","2","1","1","2","2","1","2","1","0","1","1","0","0","0","1","1","1","1","0","1","0","1","4","1","2","1","2","1","1","2","4","2","633773426204475392","韩","671","","","","","","","","","","","","","","","","","","","true","1","1","ability","541","self","自己","","","","","","","","","","","","","","",""
"null","","null","html-keyboard-response","15","109018","0.0-6.0-0.0-2.0-0.3","3","4","3","3","4","4","3","4","4","3","4","5","4","4","5","5","4","5","4","4","1","2","2","1","1","2","2","1","2","1","0","1","1","0","0","0","1","1","1","1","0","1","0","1","4","1","2","1","2","1","1","2","4","2","633773426204475392","韩","671","","","","","","","","","","","","","","","","","","","","","","","","","","","","","","","","","","","","","","","",""
"497","<p style=""color:rgb(150, 250, 100); font-size: 35px;"">他人</p>","e","categorize-html","16","109517","0.0-6.0-0.0-2.0-1.3","3","4","3","3","4","4","3","4","4","3","4","5","4","4","5","5","4","5","4","4","1","2","2","1","1","2","2","1","2","1","0","1","1","0","0","0","1","1","1","1","0","1","0","1","4","1","2","1","2","1","1","2","4","2","633773426204475392","韩","671","","","","","","","","","","","","","","","","","","","true","1","1","ability","497","other","他人","","","","","","","","","","","","","","",""
"null","","null","html-keyboard-response","17","109768","0.0-6.0-0.0-2.0-0.4","3","4","3","3","4","4","3","4","4","3","4","5","4","4","5","5","4","5","4","4","1","2","2","1","1","2","2","1","2","1","0","1","1","0","0","0","1","1","1","1","0","1","0","1","4","1","2","1","2","1","1","2","4","2","633773426204475392","韩","671","","","","","","","","","","","","","","","","","","","","","","","","","","","","","","","","","","","","","","","",""
"501","<p style=""color:rgb(150, 250, 100); font-size: 35px;"">自己的</p>","i","categorize-html","18","110272","0.0-6.0-0.0-2.0-1.4","3","4","3","3","4","4","3","4","4","3","4","5","4","4","5","5","4","5","4","4","1","2","2","1","1","2","2","1","2","1","0","1","1","0","0","0","1","1","1","1","0","1","0","1","4","1","2","1","2","1","1","2","4","2","633773426204475392","韩","671","","","","","","","","","","","","","","","","","","","true","1","1","ability","501","self","自己的","","","","","","","","","","","","","","",""
"null","","null","html-keyboard-response","19","110522","0.0-6.0-0.0-2.0-0.5","3","4","3","3","4","4","3","4","4","3","4","5","4","4","5","5","4","5","4","4","1","2","2","1","1","2","2","1","2","1","0","1","1","0","0","0","1","1","1","1","0","1","0","1","4","1","2","1","2","1","1","2","4","2","633773426204475392","韩","671","","","","","","","","","","","","","","","","","","","","","","","","","","","","","","","","","","","","","","","",""
"551","<p style=""color:rgb(150, 250, 100); font-size: 35px;"">他的</p>","e","categorize-html","20","111075","0.0-6.0-0.0-2.0-1.5","3","4","3","3","4","4","3","4","4","3","4","5","4","4","5","5","4","5","4","4","1","2","2","1","1","2","2","1","2","1","0","1","1","0","0","0","1","1","1","1","0","1","0","1","4","1","2","1","2","1","1","2","4","2","633773426204475392","韩","671","","","","","","","","","","","","","","","","","","","true","1","1","ability","551","other","他的","","","","","","","","","","","","","","",""
"null","","null","html-keyboard-response","21","111326","0.0-6.0-0.0-2.0-0.6","3","4","3","3","4","4","3","4","4","3","4","5","4","4","5","5","4","5","4","4","1","2","2","1","1","2","2","1","2","1","0","1","1","0","0","0","1","1","1","1","0","1","0","1","4","1","2","1","2","1","1","2","4","2","633773426204475392","韩","671","","","","","","","","","","","","","","","","","","","","","","","","","","","","","","","","","","","","","","","",""
"656","<p style=""color:rgb(150, 250, 100); font-size: 35px;"">他人的</p>","e","categorize-html","22","111984","0.0-6.0-0.0-2.0-1.6","3","4","3","3","4","4","3","4","4","3","4","5","4","4","5","5","4","5","4","4","1","2","2","1","1","2","2","1","2","1","0","1","1","0","0","0","1","1","1","1","0","1","0","1","4","1","2","1","2","1","1","2","4","2","633773426204475392","韩","671","","","","","","","","","","","","","","","","","","","true","1","1","ability","656","other","他人的","","","","","","","","","","","","","","",""
"null","","null","html-keyboard-response","23","112236","0.0-6.0-0.0-2.0-0.7","3","4","3","3","4","4","3","4","4","3","4","5","4","4","5","5","4","5","4","4","1","2","2","1","1","2","2","1","2","1","0","1","1","0","0","0","1","1","1","1","0","1","0","1","4","1","2","1","2","1","1","2","4","2","633773426204475392","韩","671","","","","","","","","","","","","","","","","","","","","","","","","","","","","","","","","","","","","","","","",""
"602","<p style=""color:rgb(150, 250, 100); font-size: 35px;"">我</p>","i","categorize-html","24","112839","0.0-6.0-0.0-2.0-1.7","3","4","3","3","4","4","3","4","4","3","4","5","4","4","5","5","4","5","4","4","1","2","2","1","1","2","2","1","2","1","0","1","1","0","0","0","1","1","1","1","0","1","0","1","4","1","2","1","2","1","1","2","4","2","633773426204475392","韩","671","","","","","","","","","","","","","","","","","","","true","1","1","ability","602","self","我","","","","","","","","","","","","","","",""
"null","","null","html-keyboard-response","25","113091","0.0-6.0-0.0-2.0-0.8","3","4","3","3","4","4","3","4","4","3","4","5","4","4","5","5","4","5","4","4","1","2","2","1","1","2","2","1","2","1","0","1","1","0","0","0","1","1","1","1","0","1","0","1","4","1","2","1","2","1","1","2","4","2","633773426204475392","韩","671","","","","","","","","","","","","","","","","","","","","","","","","","","","","","","","","","","","","","","","",""
"610","<p style=""color:rgb(150, 250, 100); font-size: 35px;"">他</p>","e","categorize-html","26","113703","0.0-6.0-0.0-2.0-1.8","3","4","3","3","4","4","3","4","4","3","4","5","4","4","5","5","4","5","4","4","1","2","2","1","1","2","2","1","2","1","0","1","1","0","0","0","1","1","1","1","0","1","0","1","4","1","2","1","2","1","1","2","4","2","633773426204475392","韩","671","","","","","","","","","","","","","","","","","","","true","1","1","ability","610","other","他","","","","","","","","","","","","","","",""
"null","","null","html-keyboard-response","27","113954","0.0-6.0-0.0-2.0-0.9","3","4","3","3","4","4","3","4","4","3","4","5","4","4","5","5","4","5","4","4","1","2","2","1","1","2","2","1","2","1","0","1","1","0","0","0","1","1","1","1","0","1","0","1","4","1","2","1","2","1","1","2","4","2","633773426204475392","韩","671","","","","","","","","","","","","","","","","","","","","","","","","","","","","","","","","","","","","","","","",""
"610","<p style=""color:rgb(150, 250, 100); font-size: 35px;"">别人</p>","i","categorize-html","28","115068","0.0-6.0-0.0-2.0-1.9","3","4","3","3","4","4","3","4","4","3","4","5","4","4","5","5","4","5","4","4","1","2","2","1","1","2","2","1","2","1","0","1","1","0","0","0","1","1","1","1","0","1","0","1","4","1","2","1","2","1","1","2","4","2","633773426204475392","韩","671","","","","","","","","","","","","","","","","","","","false","1","1","ability","610","other","别人","","","","","","","","","","","","","","",""
"null","","null","html-keyboard-response","29","115319","0.0-6.0-0.0-2.0-0.10","3","4","3","3","4","4","3","4","4","3","4","5","4","4","5","5","4","5","4","4","1","2","2","1","1","2","2","1","2","1","0","1","1","0","0","0","1","1","1","1","0","1","0","1","4","1","2","1","2","1","1","2","4","2","633773426204475392","韩","671","","","","","","","","","","","","","","","","","","","","","","","","","","","","","","","","","","","","","","","",""
"603","<p style=""color:rgb(150, 250, 100); font-size: 35px;"">我的</p>","i","categorize-html","30","115923","0.0-6.0-0.0-2.0-1.10","3","4","3","3","4","4","3","4","4","3","4","5","4","4","5","5","4","5","4","4","1","2","2","1","1","2","2","1","2","1","0","1","1","0","0","0","1","1","1","1","0","1","0","1","4","1","2","1","2","1","1","2","4","2","633773426204475392","韩","671","","","","","","","","","","","","","","","","","","","true","1","1","ability","603","self","我的","","","","","","","","","","","","","","",""
"null","","null","html-keyboard-response","31","116175","0.0-6.0-0.0-2.0-0.11","3","4","3","3","4","4","3","4","4","3","4","5","4","4","5","5","4","5","4","4","1","2","2","1","1","2","2","1","2","1","0","1","1","0","0","0","1","1","1","1","0","1","0","1","4","1","2","1","2","1","1","2","4","2","633773426204475392","韩","671","","","","","","","","","","","","","","","","","","","","","","","","","","","","","","","","","","","","","","","",""
"701","<p style=""color:rgb(150, 250, 100); font-size: 35px;"">本人的</p>","i","categorize-html","32","116878","0.0-6.0-0.0-2.0-1.11","3","4","3","3","4","4","3","4","4","3","4","5","4","4","5","5","4","5","4","4","1","2","2","1","1","2","2","1","2","1","0","1","1","0","0","0","1","1","1","1","0","1","0","1","4","1","2","1","2","1","1","2","4","2","633773426204475392","韩","671","","","","","","","","","","","","","","","","","","","true","1","1","ability","701","self","本人的","","","","","","","","","","","","","","",""
"2656","
    <div class=""tag-bottom""><p>
    —— 任务2：对“消极”词和“积极”词分类 ——<p/>   
    <span style=""color:#78DCE8""><b>注意上方，类别标签和需要分类的词语都已经改变</b></span><p/>
    <span style=""color:#FFD866""><b>请根据上方标签的提示，尽可能正确并且快速地做出按键反应</b></span><p/>
    当按键错误时屏幕中会出现<span style=""color:red""> X </span>，需要按另一个键纠正才能继续<br/><p/>
    请把双手食指分别放在键盘的“E”键和“I”键上<p/>
    按<空格键>开始
    </p></div>"," ","html-keyboard-response","33","119535","0.0-6.0-0.0-3.0","3","4","3","3","4","4","3","4","4","3","4","5","4","4","5","5","4","5","4","4","1","2","2","1","1","2","2","1","2","1","0","1","1","0","0","0","1","1","1","1","0","1","0","1","4","1","2","1","2","1","1","2","4","2","633773426204475392","韩","671","","","","","","","","","","","","","","","","","","","","","","","","","","","","","","","","","","","","","","","",""
"null","","null","html-keyboard-response","34","119787","0.0-6.0-0.0-4.0-0.0","3","4","3","3","4","4","3","4","4","3","4","5","4","4","5","5","4","5","4","4","1","2","2","1","1","2","2","1","2","1","0","1","1","0","0","0","1","1","1","1","0","1","0","1","4","1","2","1","2","1","1","2","4","2","633773426204475392","韩","671","","","","","","","","","","","","","","","","","","","","","","","","","","","","","","","","","","","","","","","",""
"1092","<p style=""color:white; font-size: 35px;"">精干</p>","i","categorize-html","35","120880","0.0-6.0-0.0-4.0-1.0","3","4","3","3","4","4","3","4","4","3","4","5","4","4","5","5","4","5","4","4","1","2","2","1","1","2","2","1","2","1","0","1","1","0","0","0","1","1","1","1","0","1","0","1","4","1","2","1","2","1","1","2","4","2","633773426204475392","韩","671","","","","","","","","","","","","","","","","","","","true","2","2","ability","1092","positive","精干","","","","","","","","","","","","","","",""
"null","","null","html-keyboard-response","36","121131","0.0-6.0-0.0-4.0-0.1","3","4","3","3","4","4","3","4","4","3","4","5","4","4","5","5","4","5","4","4","1","2","2","1","1","2","2","1","2","1","0","1","1","0","0","0","1","1","1","1","0","1","0","1","4","1","2","1","2","1","1","2","4","2","633773426204475392","韩","671","","","","","","","","","","","","","","","","","","","","","","","","","","","","","","","","","","","","","","","",""
"783","<p style=""color:white; font-size: 35px;"">拙笨</p>","e","categorize-html","37","121916","0.0-6.0-0.0-4.0-1.1","3","4","3","3","4","4","3","4","4","3","4","5","4","4","5","5","4","5","4","4","1","2","2","1","1","2","2","1","2","1","0","1","1","0","0","0","1","1","1","1","0","1","0","1","4","1","2","1","2","1","1","2","4","2","633773426204475392","韩","671","","","","","","","","","","","","","","","","","","","true","2","2","ability","783","negative","拙笨","","","","","","","","","","","","","","",""
"null","","null","html-keyboard-response","38","122168","0.0-6.0-0.0-4.0-0.2","3","4","3","3","4","4","3","4","4","3","4","5","4","4","5","5","4","5","4","4","1","2","2","1","1","2","2","1","2","1","0","1","1","0","0","0","1","1","1","1","0","1","0","1","4","1","2","1","2","1","1","2","4","2","633773426204475392","韩","671","","","","","","","","","","","","","","","","","","","","","","","","","","","","","","","","","","","","","","","",""
"535","<p style=""color:white; font-size: 35px;"">蠢笨</p>","e","categorize-html","39","122704","0.0-6.0-0.0-4.0-1.2","3","4","3","3","4","4","3","4","4","3","4","5","4","4","5","5","4","5","4","4","1","2","2","1","1","2","2","1","2","1","0","1","1","0","0","0","1","1","1","1","0","1","0","1","4","1","2","1","2","1","1","2","4","2","633773426204475392","韩","671","","","","","","","","","","","","","","","","","","","true","2","2","ability","535","negative","蠢笨","","","","","","","","","","","","","","",""
"null","","null","html-keyboard-response","40","122956","0.0-6.0-0.0-4.0-0.3","3","4","3","3","4","4","3","4","4","3","4","5","4","4","5","5","4","5","4","4","1","2","2","1","1","2","2","1","2","1","0","1","1","0","0","0","1","1","1","1","0","1","0","1","4","1","2","1","2","1","1","2","4","2","633773426204475392","韩","671","","","","","","","","","","","","","","","","","","","","","","","","","","","","","","","","","","","","","","","",""
"543","<p style=""color:white; font-size: 35px;"">天才</p>","i","categorize-html","41","123501","0.0-6.0-0.0-4.0-1.3","3","4","3","3","4","4","3","4","4","3","4","5","4","4","5","5","4","5","4","4","1","2","2","1","1","2","2","1","2","1","0","1","1","0","0","0","1","1","1","1","0","1","0","1","4","1","2","1","2","1","1","2","4","2","633773426204475392","韩","671","","","","","","","","","","","","","","","","","","","true","2","2","ability","543","positive","天才","","","","","","","","","","","","","","",""
"null","","null","html-keyboard-response","42","123752","0.0-6.0-0.0-4.0-0.4","3","4","3","3","4","4","3","4","4","3","4","5","4","4","5","5","4","5","4","4","1","2","2","1","1","2","2","1","2","1","0","1","1","0","0","0","1","1","1","1","0","1","0","1","4","1","2","1","2","1","1","2","4","2","633773426204475392","韩","671","","","","","","","","","","","","","","","","","","","","","","","","","","","","","","","","","","","","","","","",""
"590","<p style=""color:white; font-size: 35px;"">无能</p>","e","categorize-html","43","124345","0.0-6.0-0.0-4.0-1.4","3","4","3","3","4","4","3","4","4","3","4","5","4","4","5","5","4","5","4","4","1","2","2","1","1","2","2","1","2","1","0","1","1","0","0","0","1","1","1","1","0","1","0","1","4","1","2","1","2","1","1","2","4","2","633773426204475392","韩","671","","","","","","","","","","","","","","","","","","","true","2","2","ability","590","negative","无能","","","","","","","","","","","","","","",""
"null","","null","html-keyboard-response","44","124596","0.0-6.0-0.0-4.0-0.5","3","4","3","3","4","4","3","4","4","3","4","5","4","4","5","5","4","5","4","4","1","2","2","1","1","2","2","1","2","1","0","1","1","0","0","0","1","1","1","1","0","1","0","1","4","1","2","1","2","1","1","2","4","2","633773426204475392","韩","671","","","","","","","","","","","","","","","","","","","","","","","","","","","","","","","","","","","","","","","",""
"708","<p style=""color:white; font-size: 35px;"">低能</p>","e","categorize-html","45","125306","0.0-6.0-0.0-4.0-1.5","3","4","3","3","4","4","3","4","4","3","4","5","4","4","5","5","4","5","4","4","1","2","2","1","1","2","2","1","2","1","0","1","1","0","0","0","1","1","1","1","0","1","0","1","4","1","2","1","2","1","1","2","4","2","633773426204475392","韩","671","","","","","","","","","","","","","","","","","","","true","2","2","ability","708","negative","低能","","","","","","","","","","","","","","",""
"null","","null","html-keyboard-response","46","125557","0.0-6.0-0.0-4.0-0.6","3","4","3","3","4","4","3","4","4","3","4","5","4","4","5","5","4","5","4","4","1","2","2","1","1","2","2","1","2","1","0","1","1","0","0","0","1","1","1","1","0","1","0","1","4","1","2","1","2","1","1","2","4","2","633773426204475392","韩","671","","","","","","","","","","","","","","","","","","","","","","","","","","","","","","","","","","","","","","","",""
"914","<p style=""color:white; font-size: 35px;"">能干</p>","i","categorize-html","47","126473","0.0-6.0-0.0-4.0-1.6","3","4","3","3","4","4","3","4","4","3","4","5","4","4","5","5","4","5","4","4","1","2","2","1","1","2","2","1","2","1","0","1","1","0","0","0","1","1","1","1","0","1","0","1","4","1","2","1","2","1","1","2","4","2","633773426204475392","韩","671","","","","","","","","","","","","","","","","","","","true","2","2","ability","914","positive","能干","","","","","","","","","","","","","","",""
"null","","null","html-keyboard-response","48","126740","0.0-6.0-0.0-4.0-0.7","3","4","3","3","4","4","3","4","4","3","4","5","4","4","5","5","4","5","4","4","1","2","2","1","1","2","2","1","2","1","0","1","1","0","0","0","1","1","1","1","0","1","0","1","4","1","2","1","2","1","1","2","4","2","633773426204475392","韩","671","","","","","","","","","","","","","","","","","","","","","","","","","","","","","","","","","","","","","","","",""
"575","<p style=""color:white; font-size: 35px;"">全才</p>","i","categorize-html","49","127317","0.0-6.0-0.0-4.0-1.7","3","4","3","3","4","4","3","4","4","3","4","5","4","4","5","5","4","5","4","4","1","2","2","1","1","2","2","1","2","1","0","1","1","0","0","0","1","1","1","1","0","1","0","1","4","1","2","1","2","1","1","2","4","2","633773426204475392","韩","671","","","","","","","","","","","","","","","","","","","true","2","2","ability","575","positive","全才","","","","","","","","","","","","","","",""
"null","","null","html-keyboard-response","50","127575","0.0-6.0-0.0-4.0-0.8","3","4","3","3","4","4","3","4","4","3","4","5","4","4","5","5","4","5","4","4","1","2","2","1","1","2","2","1","2","1","0","1","1","0","0","0","1","1","1","1","0","1","0","1","4","1","2","1","2","1","1","2","4","2","633773426204475392","韩","671","","","","","","","","","","","","","","","","","","","","","","","","","","","","","","","","","","","","","","","",""
"585","<p style=""color:white; font-size: 35px;"">废物</p>","e","categorize-html","51","128162","0.0-6.0-0.0-4.0-1.8","3","4","3","3","4","4","3","4","4","3","4","5","4","4","5","5","4","5","4","4","1","2","2","1","1","2","2","1","2","1","0","1","1","0","0","0","1","1","1","1","0","1","0","1","4","1","2","1","2","1","1","2","4","2","633773426204475392","韩","671","","","","","","","","","","","","","","","","","","","true","2","2","ability","585","negative","废物","","","","","","","","","","","","","","",""
"null","","null","html-keyboard-response","52","128414","0.0-6.0-0.0-4.0-0.9","3","4","3","3","4","4","3","4","4","3","4","5","4","4","5","5","4","5","4","4","1","2","2","1","1","2","2","1","2","1","0","1","1","0","0","0","1","1","1","1","0","1","0","1","4","1","2","1","2","1","1","2","4","2","633773426204475392","韩","671","","","","","","","","","","","","","","","","","","","","","","","","","","","","","","","","","","","","","","","",""
"590","<p style=""color:white; font-size: 35px;"">愚钝</p>","e","categorize-html","53","129006","0.0-6.0-0.0-4.0-1.9","3","4","3","3","4","4","3","4","4","3","4","5","4","4","5","5","4","5","4","4","1","2","2","1","1","2","2","1","2","1","0","1","1","0","0","0","1","1","1","1","0","1","0","1","4","1","2","1","2","1","1","2","4","2","633773426204475392","韩","671","","","","","","","","","","","","","","","","","","","true","2","2","ability","590","negative","愚钝","","","","","","","","","","","","","","",""
"null","","null","html-keyboard-response","54","129257","0.0-6.0-0.0-4.0-0.10","3","4","3","3","4","4","3","4","4","3","4","5","4","4","5","5","4","5","4","4","1","2","2","1","1","2","2","1","2","1","0","1","1","0","0","0","1","1","1","1","0","1","0","1","4","1","2","1","2","1","1","2","4","2","633773426204475392","韩","671","","","","","","","","","","","","","","","","","","","","","","","","","","","","","","","","","","","","","","","",""
"651","<p style=""color:white; font-size: 35px;"">高效</p>","i","categorize-html","55","129909","0.0-6.0-0.0-4.0-1.10","3","4","3","3","4","4","3","4","4","3","4","5","4","4","5","5","4","5","4","4","1","2","2","1","1","2","2","1","2","1","0","1","1","0","0","0","1","1","1","1","0","1","0","1","4","1","2","1","2","1","1","2","4","2","633773426204475392","韩","671","","","","","","","","","","","","","","","","","","","true","2","2","ability","651","positive","高效","","","","","","","","","","","","","","",""
"null","","null","html-keyboard-response","56","130161","0.0-6.0-0.0-4.0-0.11","3","4","3","3","4","4","3","4","4","3","4","5","4","4","5","5","4","5","4","4","1","2","2","1","1","2","2","1","2","1","0","1","1","0","0","0","1","1","1","1","0","1","0","1","4","1","2","1","2","1","1","2","4","2","633773426204475392","韩","671","","","","","","","","","","","","","","","","","","","","","","","","","","","","","","","","","","","","","","","",""
"800","<p style=""color:white; font-size: 35px;"">全能</p>","i","categorize-html","57","130963","0.0-6.0-0.0-4.0-1.11","3","4","3","3","4","4","3","4","4","3","4","5","4","4","5","5","4","5","4","4","1","2","2","1","1","2","2","1","2","1","0","1","1","0","0","0","1","1","1","1","0","1","0","1","4","1","2","1","2","1","1","2","4","2","633773426204475392","韩","671","","","","","","","","","","","","","","","","","","","true","2","2","ability","800","positive","全能","","","","","","","","","","","","","","",""
"4204","
    <div class=""tag-bottom""><p>
    —— 任务3：对“他人/消极”词和“自我/积极”词分类 ——<p/>
    <span style=""color:#78DCE8""><b>注意上方，之前的四类词语将混合在一起交替呈现</b></span><p/>
    <span style=""color:#FFD866""><b>请根据上方标签的提示，尽可能正确并且快速地做出按键反应</b></span><p/>
    当按键错误时屏幕中会出现<span style=""color:red""> X </span>，需要按另一个键纠正才能继续<br/><p/>
    请把双手食指分别放在键盘的“E”键和“I”键上<p/>
    按<空格键>开始
    </p></div>"," ","html-keyboard-response","58","135168","0.0-6.0-0.0-5.0","3","4","3","3","4","4","3","4","4","3","4","5","4","4","5","5","4","5","4","4","1","2","2","1","1","2","2","1","2","1","0","1","1","0","0","0","1","1","1","1","0","1","0","1","4","1","2","1","2","1","1","2","4","2","633773426204475392","韩","671","","","","","","","","","","","","","","","","","","","","","","","","","","","","","","","","","","","","","","","",""
"null","","null","html-keyboard-response","59","135419","0.0-6.0-0.0-6.0-0.0","3","4","3","3","4","4","3","4","4","3","4","5","4","4","5","5","4","5","4","4","1","2","2","1","1","2","2","1","2","1","0","1","1","0","0","0","1","1","1","1","0","1","0","1","4","1","2","1","2","1","1","2","4","2","633773426204475392","韩","671","","","","","","","","","","","","","","","","","","","","","","","","","","","","","","","","","","","","","","","",""
"1029","<p style=""color:rgb(150, 250, 100); font-size: 35px;"">别人</p>","e","categorize-html","60","136450","0.0-6.0-0.0-6.0-1.0","3","4","3","3","4","4","3","4","4","3","4","5","4","4","5","5","4","5","4","4","1","2","2","1","1","2","2","1","2","1","0","1","1","0","0","0","1","1","1","1","0","1","0","1","4","1","2","1","2","1","1","2","4","2","633773426204475392","韩","671","","","","","","","","","","","","","","","","","","","true","3","3","ability","1029","other","别人","","","","","","","","","","","","","","",""
"null","","null","html-keyboard-response","61","136701","0.0-6.0-0.0-6.0-0.1","3","4","3","3","4","4","3","4","4","3","4","5","4","4","5","5","4","5","4","4","1","2","2","1","1","2","2","1","2","1","0","1","1","0","0","0","1","1","1","1","0","1","0","1","4","1","2","1","2","1","1","2","4","2","633773426204475392","韩","671","","","","","","","","","","","","","","","","","","","","","","","","","","","","","","","","","","","","","","","",""
"920","<p style=""color:white; font-size: 35px;"">废物</p>","e","categorize-html","62","137623","0.0-6.0-0.0-6.0-1.1","3","4","3","3","4","4","3","4","4","3","4","5","4","4","5","5","4","5","4","4","1","2","2","1","1","2","2","1","2","1","0","1","1","0","0","0","1","1","1","1","0","1","0","1","4","1","2","1","2","1","1","2","4","2","633773426204475392","韩","671","","","","","","","","","","","","","","","","","","","true","3","3","ability","920","negative","废物","","","","","","","","","","","","","","",""
"null","","null","html-keyboard-response","63","137873","0.0-6.0-0.0-6.0-0.2","3","4","3","3","4","4","3","4","4","3","4","5","4","4","5","5","4","5","4","4","1","2","2","1","1","2","2","1","2","1","0","1","1","0","0","0","1","1","1","1","0","1","0","1","4","1","2","1","2","1","1","2","4","2","633773426204475392","韩","671","","","","","","","","","","","","","","","","","","","","","","","","","","","","","","","","","","","","","","","",""
"547","<p style=""color:rgb(150, 250, 100); font-size: 35px;"">我</p>","i","categorize-html","64","138422","0.0-6.0-0.0-6.0-1.2","3","4","3","3","4","4","3","4","4","3","4","5","4","4","5","5","4","5","4","4","1","2","2","1","1","2","2","1","2","1","0","1","1","0","0","0","1","1","1","1","0","1","0","1","4","1","2","1","2","1","1","2","4","2","633773426204475392","韩","671","","","","","","","","","","","","","","","","","","","true","3","3","ability","547","self","我","","","","","","","","","","","","","","",""
"null","","null","html-keyboard-response","65","138674","0.0-6.0-0.0-6.0-0.3","3","4","3","3","4","4","3","4","4","3","4","5","4","4","5","5","4","5","4","4","1","2","2","1","1","2","2","1","2","1","0","1","1","0","0","0","1","1","1","1","0","1","0","1","4","1","2","1","2","1","1","2","4","2","633773426204475392","韩","671","","","","","","","","","","","","","","","","","","","","","","","","","","","","","","","","","","","","","","","",""
"718","<p style=""color:white; font-size: 35px;"">全才</p>","e","categorize-html","66","139859","0.0-6.0-0.0-6.0-1.3","3","4","3","3","4","4","3","4","4","3","4","5","4","4","5","5","4","5","4","4","1","2","2","1","1","2","2","1","2","1","0","1","1","0","0","0","1","1","1","1","0","1","0","1","4","1","2","1","2","1","1","2","4","2","633773426204475392","韩","671","","","","","","","","","","","","","","","","","","","false","3","3","ability","1302.857142857143","positive","全才","","","","","","","","","","","","","","",""
"null","","null","html-keyboard-response","67","140111","0.0-6.0-0.0-6.0-0.4","3","4","3","3","4","4","3","4","4","3","4","5","4","4","5","5","4","5","4","4","1","2","2","1","1","2","2","1","2","1","0","1","1","0","0","0","1","1","1","1","0","1","0","1","4","1","2","1","2","1","1","2","4","2","633773426204475392","韩","671","","","","","","","","","","","","","","","","","","","","","","","","","","","","","","","","","","","","","","","",""
"798","<p style=""color:rgb(150, 250, 100); font-size: 35px;"">他</p>","e","categorize-html","68","140911","0.0-6.0-0.0-6.0-1.4","3","4","3","3","4","4","3","4","4","3","4","5","4","4","5","5","4","5","4","4","1","2","2","1","1","2","2","1","2","1","0","1","1","0","0","0","1","1","1","1","0","1","0","1","4","1","2","1","2","1","1","2","4","2","633773426204475392","韩","671","","","","","","","","","","","","","","","","","","","true","3","3","ability","798","other","他","","","","","","","","","","","","","","",""
"null","","null","html-keyboard-response","69","141162","0.0-6.0-0.0-6.0-0.5","3","4","3","3","4","4","3","4","4","3","4","5","4","4","5","5","4","5","4","4","1","2","2","1","1","2","2","1","2","1","0","1","1","0","0","0","1","1","1","1","0","1","0","1","4","1","2","1","2","1","1","2","4","2","633773426204475392","韩","671","","","","","","","","","","","","","","","","","","","","","","","","","","","","","","","","","","","","","","","",""
"573","<p style=""color:white; font-size: 35px;"">愚钝</p>","e","categorize-html","70","141737","0.0-6.0-0.0-6.0-1.5","3","4","3","3","4","4","3","4","4","3","4","5","4","4","5","5","4","5","4","4","1","2","2","1","1","2","2","1","2","1","0","1","1","0","0","0","1","1","1","1","0","1","0","1","4","1","2","1","2","1","1","2","4","2","633773426204475392","韩","671","","","","","","","","","","","","","","","","","","","true","3","3","ability","573","negative","愚钝","","","","","","","","","","","","","","",""
"null","","null","html-keyboard-response","71","141988","0.0-6.0-0.0-6.0-0.6","3","4","3","3","4","4","3","4","4","3","4","5","4","4","5","5","4","5","4","4","1","2","2","1","1","2","2","1","2","1","0","1","1","0","0","0","1","1","1","1","0","1","0","1","4","1","2","1","2","1","1","2","4","2","633773426204475392","韩","671","","","","","","","","","","","","","","","","","","","","","","","","","","","","","","","","","","","","","","","",""
"511","<p style=""color:rgb(150, 250, 100); font-size: 35px;"">我的</p>","i","categorize-html","72","142501","0.0-6.0-0.0-6.0-1.6","3","4","3","3","4","4","3","4","4","3","4","5","4","4","5","5","4","5","4","4","1","2","2","1","1","2","2","1","2","1","0","1","1","0","0","0","1","1","1","1","0","1","0","1","4","1","2","1","2","1","1","2","4","2","633773426204475392","韩","671","","","","","","","","","","","","","","","","","","","true","3","3","ability","511","self","我的","","","","","","","","","","","","","","",""
"null","","null","html-keyboard-response","73","142753","0.0-6.0-0.0-6.0-0.7","3","4","3","3","4","4","3","4","4","3","4","5","4","4","5","5","4","5","4","4","1","2","2","1","1","2","2","1","2","1","0","1","1","0","0","0","1","1","1","1","0","1","0","1","4","1","2","1","2","1","1","2","4","2","633773426204475392","韩","671","","","","","","","","","","","","","","","","","","","","","","","","","","","","","","","","","","","","","","","",""
"642","<p style=""color:white; font-size: 35px;"">高效</p>","i","categorize-html","74","143397","0.0-6.0-0.0-6.0-1.7","3","4","3","3","4","4","3","4","4","3","4","5","4","4","5","5","4","5","4","4","1","2","2","1","1","2","2","1","2","1","0","1","1","0","0","0","1","1","1","1","0","1","0","1","4","1","2","1","2","1","1","2","4","2","633773426204475392","韩","671","","","","","","","","","","","","","","","","","","","true","3","3","ability","642","positive","高效","","","","","","","","","","","","","","",""
"null","","null","html-keyboard-response","75","143648","0.0-6.0-0.0-6.0-0.8","3","4","3","3","4","4","3","4","4","3","4","5","4","4","5","5","4","5","4","4","1","2","2","1","1","2","2","1","2","1","0","1","1","0","0","0","1","1","1","1","0","1","0","1","4","1","2","1","2","1","1","2","4","2","633773426204475392","韩","671","","","","","","","","","","","","","","","","","","","","","","","","","","","","","","","","","","","","","","","",""
"794","<p style=""color:rgb(150, 250, 100); font-size: 35px;"">本人的</p>","i","categorize-html","76","144444","0.0-6.0-0.0-6.0-1.8","3","4","3","3","4","4","3","4","4","3","4","5","4","4","5","5","4","5","4","4","1","2","2","1","1","2","2","1","2","1","0","1","1","0","0","0","1","1","1","1","0","1","0","1","4","1","2","1","2","1","1","2","4","2","633773426204475392","韩","671","","","","","","","","","","","","","","","","","","","true","3","3","ability","794","self","本人的","","","","","","","","","","","","","","",""
"null","","null","html-keyboard-response","77","144696","0.0-6.0-0.0-6.0-0.9","3","4","3","3","4","4","3","4","4","3","4","5","4","4","5","5","4","5","4","4","1","2","2","1","1","2","2","1","2","1","0","1","1","0","0","0","1","1","1","1","0","1","0","1","4","1","2","1","2","1","1","2","4","2","633773426204475392","韩","671","","","","","","","","","","","","","","","","","","","","","","","","","","","","","","","","","","","","","","","",""
"568","<p style=""color:white; font-size: 35px;"">蠢笨</p>","e","categorize-html","78","145266","0.0-6.0-0.0-6.0-1.9","3","4","3","3","4","4","3","4","4","3","4","5","4","4","5","5","4","5","4","4","1","2","2","1","1","2","2","1","2","1","0","1","1","0","0","0","1","1","1","1","0","1","0","1","4","1","2","1","2","1","1","2","4","2","633773426204475392","韩","671","","","","","","","","","","","","","","","","","","","true","3","3","ability","568","negative","蠢笨","","","","","","","","","","","","","","",""
"null","","null","html-keyboard-response","79","145518","0.0-6.0-0.0-6.0-0.10","3","4","3","3","4","4","3","4","4","3","4","5","4","4","5","5","4","5","4","4","1","2","2","1","1","2","2","1","2","1","0","1","1","0","0","0","1","1","1","1","0","1","0","1","4","1","2","1","2","1","1","2","4","2","633773426204475392","韩","671","","","","","","","","","","","","","","","","","","","","","","","","","","","","","","","","","","","","","","","",""
"631","<p style=""color:rgb(150, 250, 100); font-size: 35px;"">他的</p>","e","categorize-html","80","146151","0.0-6.0-0.0-6.0-1.10","3","4","3","3","4","4","3","4","4","3","4","5","4","4","5","5","4","5","4","4","1","2","2","1","1","2","2","1","2","1","0","1","1","0","0","0","1","1","1","1","0","1","0","1","4","1","2","1","2","1","1","2","4","2","633773426204475392","韩","671","","","","","","","","","","","","","","","","","","","true","3","3","ability","631","other","他的","","","","","","","","","","","","","","",""
"null","","null","html-keyboard-response","81","146404","0.0-6.0-0.0-6.0-0.11","3","4","3","3","4","4","3","4","4","3","4","5","4","4","5","5","4","5","4","4","1","2","2","1","1","2","2","1","2","1","0","1","1","0","0","0","1","1","1","1","0","1","0","1","4","1","2","1","2","1","1","2","4","2","633773426204475392","韩","671","","","","","","","","","","","","","","","","","","","","","","","","","","","","","","","","","","","","","","","",""
"632","<p style=""color:white; font-size: 35px;"">天才</p>","i","categorize-html","82","147038","0.0-6.0-0.0-6.0-1.11","3","4","3","3","4","4","3","4","4","3","4","5","4","4","5","5","4","5","4","4","1","2","2","1","1","2","2","1","2","1","0","1","1","0","0","0","1","1","1","1","0","1","0","1","4","1","2","1","2","1","1","2","4","2","633773426204475392","韩","671","","","","","","","","","","","","","","","","","","","true","3","3","ability","632","positive","天才","","","","","","","","","","","","","","",""
"null","","null","html-keyboard-response","83","147289","0.0-6.0-0.0-6.0-0.12","3","4","3","3","4","4","3","4","4","3","4","5","4","4","5","5","4","5","4","4","1","2","2","1","1","2","2","1","2","1","0","1","1","0","0","0","1","1","1","1","0","1","0","1","4","1","2","1","2","1","1","2","4","2","633773426204475392","韩","671","","","","","","","","","","","","","","","","","","","","","","","","","","","","","","","","","","","","","","","",""
"705","<p style=""color:rgb(150, 250, 100); font-size: 35px;"">别人的</p>","e","categorize-html","84","147996","0.0-6.0-0.0-6.0-1.12","3","4","3","3","4","4","3","4","4","3","4","5","4","4","5","5","4","5","4","4","1","2","2","1","1","2","2","1","2","1","0","1","1","0","0","0","1","1","1","1","0","1","0","1","4","1","2","1","2","1","1","2","4","2","633773426204475392","韩","671","","","","","","","","","","","","","","","","","","","true","3","3","ability","705","other","别人的","","","","","","","","","","","","","","",""
"null","","null","html-keyboard-response","85","148247","0.0-6.0-0.0-6.0-0.13","3","4","3","3","4","4","3","4","4","3","4","5","4","4","5","5","4","5","4","4","1","2","2","1","1","2","2","1","2","1","0","1","1","0","0","0","1","1","1","1","0","1","0","1","4","1","2","1","2","1","1","2","4","2","633773426204475392","韩","671","","","","","","","","","","","","","","","","","","","","","","","","","","","","","","","","","","","","","","","",""
"579","<p style=""color:white; font-size: 35px;"">拙笨</p>","i","categorize-html","86","151250","0.0-6.0-0.0-6.0-1.13","3","4","3","3","4","4","3","4","4","3","4","5","4","4","5","5","4","5","4","4","1","2","2","1","1","2","2","1","2","1","0","1","1","0","0","0","1","1","1","1","0","1","0","1","4","1","2","1","2","1","1","2","4","2","633773426204475392","韩","671","","","","","","","","","","","","","","","","","","","false","3","3","ability","1302.857142857143","negative","拙笨","","","","","","","","","","","","","","",""
"null","","null","html-keyboard-response","87","151501","0.0-6.0-0.0-6.0-0.14","3","4","3","3","4","4","3","4","4","3","4","5","4","4","5","5","4","5","4","4","1","2","2","1","1","2","2","1","2","1","0","1","1","0","0","0","1","1","1","1","0","1","0","1","4","1","2","1","2","1","1","2","4","2","633773426204475392","韩","671","","","","","","","","","","","","","","","","","","","","","","","","","","","","","","","","","","","","","","","",""
"745","<p style=""color:rgb(150, 250, 100); font-size: 35px;"">自己的</p>","i","categorize-html","88","152248","0.0-6.0-0.0-6.0-1.14","3","4","3","3","4","4","3","4","4","3","4","5","4","4","5","5","4","5","4","4","1","2","2","1","1","2","2","1","2","1","0","1","1","0","0","0","1","1","1","1","0","1","0","1","4","1","2","1","2","1","1","2","4","2","633773426204475392","韩","671","","","","","","","","","","","","","","","","","","","true","3","3","ability","745","self","自己的","","","","","","","","","","","","","","",""
"null","","null","html-keyboard-response","89","152500","0.0-6.0-0.0-6.0-0.15","3","4","3","3","4","4","3","4","4","3","4","5","4","4","5","5","4","5","4","4","1","2","2","1","1","2","2","1","2","1","0","1","1","0","0","0","1","1","1","1","0","1","0","1","4","1","2","1","2","1","1","2","4","2","633773426204475392","韩","671","","","","","","","","","","","","","","","","","","","","","","","","","","","","","","","","","","","","","","","",""
"798","<p style=""color:white; font-size: 35px;"">能干</p>","i","categorize-html","90","153300","0.0-6.0-0.0-6.0-1.15","3","4","3","3","4","4","3","4","4","3","4","5","4","4","5","5","4","5","4","4","1","2","2","1","1","2","2","1","2","1","0","1","1","0","0","0","1","1","1","1","0","1","0","1","4","1","2","1","2","1","1","2","4","2","633773426204475392","韩","671","","","","","","","","","","","","","","","","","","","true","3","3","ability","798","positive","能干","","","","","","","","","","","","","","",""
"null","","null","html-keyboard-response","91","153551","0.0-6.0-0.0-6.0-0.16","3","4","3","3","4","4","3","4","4","3","4","5","4","4","5","5","4","5","4","4","1","2","2","1","1","2","2","1","2","1","0","1","1","0","0","0","1","1","1","1","0","1","0","1","4","1","2","1","2","1","1","2","4","2","633773426204475392","韩","671","","","","","","","","","","","","","","","","","","","","","","","","","","","","","","","","","","","","","","","",""
"757","<p style=""color:rgb(150, 250, 100); font-size: 35px;"">他人的</p>","e","categorize-html","92","154310","0.0-6.0-0.0-6.0-1.16","3","4","3","3","4","4","3","4","4","3","4","5","4","4","5","5","4","5","4","4","1","2","2","1","1","2","2","1","2","1","0","1","1","0","0","0","1","1","1","1","0","1","0","1","4","1","2","1","2","1","1","2","4","2","633773426204475392","韩","671","","","","","","","","","","","","","","","","","","","true","3","3","ability","757","other","他人的","","","","","","","","","","","","","","",""
"null","","null","html-keyboard-response","93","154561","0.0-6.0-0.0-6.0-0.17","3","4","3","3","4","4","3","4","4","3","4","5","4","4","5","5","4","5","4","4","1","2","2","1","1","2","2","1","2","1","0","1","1","0","0","0","1","1","1","1","0","1","0","1","4","1","2","1","2","1","1","2","4","2","633773426204475392","韩","671","","","","","","","","","","","","","","","","","","","","","","","","","","","","","","","","","","","","","","","",""
"1040","<p style=""color:white; font-size: 35px;"">无能</p>","e","categorize-html","94","155603","0.0-6.0-0.0-6.0-1.17","3","4","3","3","4","4","3","4","4","3","4","5","4","4","5","5","4","5","4","4","1","2","2","1","1","2","2","1","2","1","0","1","1","0","0","0","1","1","1","1","0","1","0","1","4","1","2","1","2","1","1","2","4","2","633773426204475392","韩","671","","","","","","","","","","","","","","","","","","","true","3","3","ability","1040","negative","无能","","","","","","","","","","","","","","",""
"null","","null","html-keyboard-response","95","155854","0.0-6.0-0.0-6.0-0.18","3","4","3","3","4","4","3","4","4","3","4","5","4","4","5","5","4","5","4","4","1","2","2","1","1","2","2","1","2","1","0","1","1","0","0","0","1","1","1","1","0","1","0","1","4","1","2","1","2","1","1","2","4","2","633773426204475392","韩","671","","","","","","","","","","","","","","","","","","","","","","","","","","","","","","","","","","","","","","","",""
"558","<p style=""color:rgb(150, 250, 100); font-size: 35px;"">本人</p>","i","categorize-html","96","156415","0.0-6.0-0.0-6.0-1.18","3","4","3","3","4","4","3","4","4","3","4","5","4","4","5","5","4","5","4","4","1","2","2","1","1","2","2","1","2","1","0","1","1","0","0","0","1","1","1","1","0","1","0","1","4","1","2","1","2","1","1","2","4","2","633773426204475392","韩","671","","","","","","","","","","","","","","","","","","","true","3","3","ability","558","self","本人","","","","","","","","","","","","","","",""
"null","","null","html-keyboard-response","97","156666","0.0-6.0-0.0-6.0-0.19","3","4","3","3","4","4","3","4","4","3","4","5","4","4","5","5","4","5","4","4","1","2","2","1","1","2","2","1","2","1","0","1","1","0","0","0","1","1","1","1","0","1","0","1","4","1","2","1","2","1","1","2","4","2","633773426204475392","韩","671","","","","","","","","","","","","","","","","","","","","","","","","","","","","","","","","","","","","","","","",""
"614","<p style=""color:white; font-size: 35px;"">全能</p>","i","categorize-html","98","157283","0.0-6.0-0.0-6.0-1.19","3","4","3","3","4","4","3","4","4","3","4","5","4","4","5","5","4","5","4","4","1","2","2","1","1","2","2","1","2","1","0","1","1","0","0","0","1","1","1","1","0","1","0","1","4","1","2","1","2","1","1","2","4","2","633773426204475392","韩","671","","","","","","","","","","","","","","","","","","","true","3","3","ability","614","positive","全能","","","","","","","","","","","","","","",""
"null","","null","html-keyboard-response","99","157534","0.0-6.0-0.0-6.0-0.20","3","4","3","3","4","4","3","4","4","3","4","5","4","4","5","5","4","5","4","4","1","2","2","1","1","2","2","1","2","1","0","1","1","0","0","0","1","1","1","1","0","1","0","1","4","1","2","1","2","1","1","2","4","2","633773426204475392","韩","671","","","","","","","","","","","","","","","","","","","","","","","","","","","","","","","","","","","","","","","",""
"681","<p style=""color:rgb(150, 250, 100); font-size: 35px;"">自己</p>","i","categorize-html","100","158217","0.0-6.0-0.0-6.0-1.20","3","4","3","3","4","4","3","4","4","3","4","5","4","4","5","5","4","5","4","4","1","2","2","1","1","2","2","1","2","1","0","1","1","0","0","0","1","1","1","1","0","1","0","1","4","1","2","1","2","1","1","2","4","2","633773426204475392","韩","671","","","","","","","","","","","","","","","","","","","true","3","3","ability","681","self","自己","","","","","","","","","","","","","","",""
"null","","null","html-keyboard-response","101","158468","0.0-6.0-0.0-6.0-0.21","3","4","3","3","4","4","3","4","4","3","4","5","4","4","5","5","4","5","4","4","1","2","2","1","1","2","2","1","2","1","0","1","1","0","0","0","1","1","1","1","0","1","0","1","4","1","2","1","2","1","1","2","4","2","633773426204475392","韩","671","","","","","","","","","","","","","","","","","","","","","","","","","","","","","","","","","","","","","","","",""
"602","<p style=""color:white; font-size: 35px;"">低能</p>","e","categorize-html","102","159072","0.0-6.0-0.0-6.0-1.21","3","4","3","3","4","4","3","4","4","3","4","5","4","4","5","5","4","5","4","4","1","2","2","1","1","2","2","1","2","1","0","1","1","0","0","0","1","1","1","1","0","1","0","1","4","1","2","1","2","1","1","2","4","2","633773426204475392","韩","671","","","","","","","","","","","","","","","","","","","true","3","3","ability","602","negative","低能","","","","","","","","","","","","","","",""
"null","","null","html-keyboard-response","103","159324","0.0-6.0-0.0-6.0-0.22","3","4","3","3","4","4","3","4","4","3","4","5","4","4","5","5","4","5","4","4","1","2","2","1","1","2","2","1","2","1","0","1","1","0","0","0","1","1","1","1","0","1","0","1","4","1","2","1","2","1","1","2","4","2","633773426204475392","韩","671","","","","","","","","","","","","","","","","","","","","","","","","","","","","","","","","","","","","","","","",""
"629","<p style=""color:rgb(150, 250, 100); font-size: 35px;"">他人</p>","i","categorize-html","104","160770","0.0-6.0-0.0-6.0-1.22","3","4","3","3","4","4","3","4","4","3","4","5","4","4","5","5","4","5","4","4","1","2","2","1","1","2","2","1","2","1","0","1","1","0","0","0","1","1","1","1","0","1","0","1","4","1","2","1","2","1","1","2","4","2","633773426204475392","韩","671","","","","","","","","","","","","","","","","","","","false","3","3","ability","1302.857142857143","other","他人","","","","","","","","","","","","","","",""
"null","","null","html-keyboard-response","105","161022","0.0-6.0-0.0-6.0-0.23","3","4","3","3","4","4","3","4","4","3","4","5","4","4","5","5","4","5","4","4","1","2","2","1","1","2","2","1","2","1","0","1","1","0","0","0","1","1","1","1","0","1","0","1","4","1","2","1","2","1","1","2","4","2","633773426204475392","韩","671","","","","","","","","","","","","","","","","","","","","","","","","","","","","","","","","","","","","","","","",""
"615","<p style=""color:white; font-size: 35px;"">精干</p>","i","categorize-html","106","161639","0.0-6.0-0.0-6.0-1.23","3","4","3","3","4","4","3","4","4","3","4","5","4","4","5","5","4","5","4","4","1","2","2","1","1","2","2","1","2","1","0","1","1","0","0","0","1","1","1","1","0","1","0","1","4","1","2","1","2","1","1","2","4","2","633773426204475392","韩","671","","","","","","","","","","","","","","","","","","","true","3","3","ability","615","positive","精干","","","","","","","","","","","","","","",""
"2804","
    <div class=""tag-bottom""><p>
    —— 任务4：对“他人/消极”词和“自我/积极”词分类 ——<p/>
    <span style=""color:#78DCE8""><b>与刚才的任务完全相同，请再次对这四类词语分类</b></span><p/>
    <span style=""color:#FFD866""><b>请根据上方标签的提示，尽可能正确并且快速地做出按键反应</b></span><p/>
    当按键错误时屏幕中会出现<span style=""color:red""> X </span>，需要按另一个键纠正才能继续<br/><p/>
    请把双手食指分别放在键盘的“E”键和“I”键上<p/>
    按<空格键>开始
    </p></div>"," ","html-keyboard-response","107","164444","0.0-6.0-0.0-7.0","3","4","3","3","4","4","3","4","4","3","4","5","4","4","5","5","4","5","4","4","1","2","2","1","1","2","2","1","2","1","0","1","1","0","0","0","1","1","1","1","0","1","0","1","4","1","2","1","2","1","1","2","4","2","633773426204475392","韩","671","","","","","","","","","","","","","","","","","","","","","","","","","","","","","","","","","","","","","","","",""
"null","","null","html-keyboard-response","108","164695","0.0-6.0-0.0-8.0-0.0","3","4","3","3","4","4","3","4","4","3","4","5","4","4","5","5","4","5","4","4","1","2","2","1","1","2","2","1","2","1","0","1","1","0","0","0","1","1","1","1","0","1","0","1","4","1","2","1","2","1","1","2","4","2","633773426204475392","韩","671","","","","","","","","","","","","","","","","","","","","","","","","","","","","","","","","","","","","","","","",""
"744","<p style=""color:rgb(150, 250, 100); font-size: 35px;"">他的</p>","e","categorize-html","109","165442","0.0-6.0-0.0-8.0-1.0","3","4","3","3","4","4","3","4","4","3","4","5","4","4","5","5","4","5","4","4","1","2","2","1","1","2","2","1","2","1","0","1","1","0","0","0","1","1","1","1","0","1","0","1","4","1","2","1","2","1","1","2","4","2","633773426204475392","韩","671","","","","","","","","","","","","","","","","","","","true","4","4","ability","744","other","他的","","","","","","","","","","","","","","",""
"null","","null","html-keyboard-response","110","165694","0.0-6.0-0.0-8.0-0.1","3","4","3","3","4","4","3","4","4","3","4","5","4","4","5","5","4","5","4","4","1","2","2","1","1","2","2","1","2","1","0","1","1","0","0","0","1","1","1","1","0","1","0","1","4","1","2","1","2","1","1","2","4","2","633773426204475392","韩","671","","","","","","","","","","","","","","","","","","","","","","","","","","","","","","","","","","","","","","","",""
"941","<p style=""color:white; font-size: 35px;"">愚钝</p>","e","categorize-html","111","166637","0.0-6.0-0.0-8.0-1.1","3","4","3","3","4","4","3","4","4","3","4","5","4","4","5","5","4","5","4","4","1","2","2","1","1","2","2","1","2","1","0","1","1","0","0","0","1","1","1","1","0","1","0","1","4","1","2","1","2","1","1","2","4","2","633773426204475392","韩","671","","","","","","","","","","","","","","","","","","","true","4","4","ability","941","negative","愚钝","","","","","","","","","","","","","","",""
"null","","null","html-keyboard-response","112","166889","0.0-6.0-0.0-8.0-0.2","3","4","3","3","4","4","3","4","4","3","4","5","4","4","5","5","4","5","4","4","1","2","2","1","1","2","2","1","2","1","0","1","1","0","0","0","1","1","1","1","0","1","0","1","4","1","2","1","2","1","1","2","4","2","633773426204475392","韩","671","","","","","","","","","","","","","","","","","","","","","","","","","","","","","","","","","","","","","","","",""
"577","<p style=""color:rgb(150, 250, 100); font-size: 35px;"">本人的</p>","i","categorize-html","113","167469","0.0-6.0-0.0-8.0-1.2","3","4","3","3","4","4","3","4","4","3","4","5","4","4","5","5","4","5","4","4","1","2","2","1","1","2","2","1","2","1","0","1","1","0","0","0","1","1","1","1","0","1","0","1","4","1","2","1","2","1","1","2","4","2","633773426204475392","韩","671","","","","","","","","","","","","","","","","","","","true","4","4","ability","577","self","本人的","","","","","","","","","","","","","","",""
"null","","null","html-keyboard-response","114","167720","0.0-6.0-0.0-8.0-0.3","3","4","3","3","4","4","3","4","4","3","4","5","4","4","5","5","4","5","4","4","1","2","2","1","1","2","2","1","2","1","0","1","1","0","0","0","1","1","1","1","0","1","0","1","4","1","2","1","2","1","1","2","4","2","633773426204475392","韩","671","","","","","","","","","","","","","","","","","","","","","","","","","","","","","","","","","","","","","","","",""
"594","<p style=""color:white; font-size: 35px;"">精干</p>","i","categorize-html","115","168316","0.0-6.0-0.0-8.0-1.3","3","4","3","3","4","4","3","4","4","3","4","5","4","4","5","5","4","5","4","4","1","2","2","1","1","2","2","1","2","1","0","1","1","0","0","0","1","1","1","1","0","1","0","1","4","1","2","1","2","1","1","2","4","2","633773426204475392","韩","671","","","","","","","","","","","","","","","","","","","true","4","4","ability","594","positive","精干","","","","","","","","","","","","","","",""
"null","","null","html-keyboard-response","116","168567","0.0-6.0-0.0-8.0-0.4","3","4","3","3","4","4","3","4","4","3","4","5","4","4","5","5","4","5","4","4","1","2","2","1","1","2","2","1","2","1","0","1","1","0","0","0","1","1","1","1","0","1","0","1","4","1","2","1","2","1","1","2","4","2","633773426204475392","韩","671","","","","","","","","","","","","","","","","","","","","","","","","","","","","","","","","","","","","","","","",""
"504","<p style=""color:rgb(150, 250, 100); font-size: 35px;"">我</p>","i","categorize-html","117","169074","0.0-6.0-0.0-8.0-1.4","3","4","3","3","4","4","3","4","4","3","4","5","4","4","5","5","4","5","4","4","1","2","2","1","1","2","2","1","2","1","0","1","1","0","0","0","1","1","1","1","0","1","0","1","4","1","2","1","2","1","1","2","4","2","633773426204475392","韩","671","","","","","","","","","","","","","","","","","","","true","4","4","ability","504","self","我","","","","","","","","","","","","","","",""
"null","","null","html-keyboard-response","118","169324","0.0-6.0-0.0-8.0-0.5","3","4","3","3","4","4","3","4","4","3","4","5","4","4","5","5","4","5","4","4","1","2","2","1","1","2","2","1","2","1","0","1","1","0","0","0","1","1","1","1","0","1","0","1","4","1","2","1","2","1","1","2","4","2","633773426204475392","韩","671","","","","","","","","","","","","","","","","","","","","","","","","","","","","","","","","","","","","","","","",""
"546","<p style=""color:white; font-size: 35px;"">拙笨</p>","e","categorize-html","119","169873","0.0-6.0-0.0-8.0-1.5","3","4","3","3","4","4","3","4","4","3","4","5","4","4","5","5","4","5","4","4","1","2","2","1","1","2","2","1","2","1","0","1","1","0","0","0","1","1","1","1","0","1","0","1","4","1","2","1","2","1","1","2","4","2","633773426204475392","韩","671","","","","","","","","","","","","","","","","","","","true","4","4","ability","546","negative","拙笨","","","","","","","","","","","","","","",""
"null","","null","html-keyboard-response","120","170124","0.0-6.0-0.0-8.0-0.6","3","4","3","3","4","4","3","4","4","3","4","5","4","4","5","5","4","5","4","4","1","2","2","1","1","2","2","1","2","1","0","1","1","0","0","0","1","1","1","1","0","1","0","1","4","1","2","1","2","1","1","2","4","2","633773426204475392","韩","671","","","","","","","","","","","","","","","","","","","","","","","","","","","","","","","","","","","","","","","",""
"1045","<p style=""color:rgb(150, 250, 100); font-size: 35px;"">别人的</p>","e","categorize-html","121","171171","0.0-6.0-0.0-8.0-1.6","3","4","3","3","4","4","3","4","4","3","4","5","4","4","5","5","4","5","4","4","1","2","2","1","1","2","2","1","2","1","0","1","1","0","0","0","1","1","1","1","0","1","0","1","4","1","2","1","2","1","1","2","4","2","633773426204475392","韩","671","","","","","","","","","","","","","","","","","","","true","4","4","ability","1045","other","别人的","","","","","","","","","","","","","","",""
"null","","null","html-keyboard-response","122","171422","0.0-6.0-0.0-8.0-0.7","3","4","3","3","4","4","3","4","4","3","4","5","4","4","5","5","4","5","4","4","1","2","2","1","1","2","2","1","2","1","0","1","1","0","0","0","1","1","1","1","0","1","0","1","4","1","2","1","2","1","1","2","4","2","633773426204475392","韩","671","","","","","","","","","","","","","","","","","","","","","","","","","","","","","","","","","","","","","","","",""
"577","<p style=""color:white; font-size: 35px;"">天才</p>","i","categorize-html","123","172000","0.0-6.0-0.0-8.0-1.7","3","4","3","3","4","4","3","4","4","3","4","5","4","4","5","5","4","5","4","4","1","2","2","1","1","2","2","1","2","1","0","1","1","0","0","0","1","1","1","1","0","1","0","1","4","1","2","1","2","1","1","2","4","2","633773426204475392","韩","671","","","","","","","","","","","","","","","","","","","true","4","4","ability","577","positive","天才","","","","","","","","","","","","","","",""
"null","","null","html-keyboard-response","124","172252","0.0-6.0-0.0-8.0-0.8","3","4","3","3","4","4","3","4","4","3","4","5","4","4","5","5","4","5","4","4","1","2","2","1","1","2","2","1","2","1","0","1","1","0","0","0","1","1","1","1","0","1","0","1","4","1","2","1","2","1","1","2","4","2","633773426204475392","韩","671","","","","","","","","","","","","","","","","","","","","","","","","","","","","","","","","","","","","","","","",""
"525","<p style=""color:rgb(150, 250, 100); font-size: 35px;"">我的</p>","i","categorize-html","125","172779","0.0-6.0-0.0-8.0-1.8","3","4","3","3","4","4","3","4","4","3","4","5","4","4","5","5","4","5","4","4","1","2","2","1","1","2","2","1","2","1","0","1","1","0","0","0","1","1","1","1","0","1","0","1","4","1","2","1","2","1","1","2","4","2","633773426204475392","韩","671","","","","","","","","","","","","","","","","","","","true","4","4","ability","525","self","我的","","","","","","","","","","","","","","",""
"null","","null","html-keyboard-response","126","173031","0.0-6.0-0.0-8.0-0.9","3","4","3","3","4","4","3","4","4","3","4","5","4","4","5","5","4","5","4","4","1","2","2","1","1","2","2","1","2","1","0","1","1","0","0","0","1","1","1","1","0","1","0","1","4","1","2","1","2","1","1","2","4","2","633773426204475392","韩","671","","","","","","","","","","","","","","","","","","","","","","","","","","","","","","","","","","","","","","","",""
"698","<p style=""color:white; font-size: 35px;"">低能</p>","e","categorize-html","127","173730","0.0-6.0-0.0-8.0-1.9","3","4","3","3","4","4","3","4","4","3","4","5","4","4","5","5","4","5","4","4","1","2","2","1","1","2","2","1","2","1","0","1","1","0","0","0","1","1","1","1","0","1","0","1","4","1","2","1","2","1","1","2","4","2","633773426204475392","韩","671","","","","","","","","","","","","","","","","","","","true","4","4","ability","698","negative","低能","","","","","","","","","","","","","","",""
"null","","null","html-keyboard-response","128","173982","0.0-6.0-0.0-8.0-0.10","3","4","3","3","4","4","3","4","4","3","4","5","4","4","5","5","4","5","4","4","1","2","2","1","1","2","2","1","2","1","0","1","1","0","0","0","1","1","1","1","0","1","0","1","4","1","2","1","2","1","1","2","4","2","633773426204475392","韩","671","","","","","","","","","","","","","","","","","","","","","","","","","","","","","","","","","","","","","","","",""
"689","<p style=""color:rgb(150, 250, 100); font-size: 35px;"">别人</p>","e","categorize-html","129","174673","0.0-6.0-0.0-8.0-1.10","3","4","3","3","4","4","3","4","4","3","4","5","4","4","5","5","4","5","4","4","1","2","2","1","1","2","2","1","2","1","0","1","1","0","0","0","1","1","1","1","0","1","0","1","4","1","2","1","2","1","1","2","4","2","633773426204475392","韩","671","","","","","","","","","","","","","","","","","","","true","4","4","ability","689","other","别人","","","","","","","","","","","","","","",""
"null","","null","html-keyboard-response","130","174925","0.0-6.0-0.0-8.0-0.11","3","4","3","3","4","4","3","4","4","3","4","5","4","4","5","5","4","5","4","4","1","2","2","1","1","2","2","1","2","1","0","1","1","0","0","0","1","1","1","1","0","1","0","1","4","1","2","1","2","1","1","2","4","2","633773426204475392","韩","671","","","","","","","","","","","","","","","","","","","","","","","","","","","","","","","","","","","","","","","",""
"1179","<p style=""color:white; font-size: 35px;"">精干</p>","i","categorize-html","131","176105","0.0-6.0-0.0-8.0-1.11","3","4","3","3","4","4","3","4","4","3","4","5","4","4","5","5","4","5","4","4","1","2","2","1","1","2","2","1","2","1","0","1","1","0","0","0","1","1","1","1","0","1","0","1","4","1","2","1","2","1","1","2","4","2","633773426204475392","韩","671","","","","","","","","","","","","","","","","","","","true","4","4","ability","1179","positive","精干","","","","","","","","","","","","","","",""
"null","","null","html-keyboard-response","132","176356","0.0-6.0-0.0-8.0-0.12","3","4","3","3","4","4","3","4","4","3","4","5","4","4","5","5","4","5","4","4","1","2","2","1","1","2","2","1","2","1","0","1","1","0","0","0","1","1","1","1","0","1","0","1","4","1","2","1","2","1","1","2","4","2","633773426204475392","韩","671","","","","","","","","","","","","","","","","","","","","","","","","","","","","","","","","","","","","","","","",""
"534","<p style=""color:rgb(150, 250, 100); font-size: 35px;"">自己的</p>","i","categorize-html","133","176892","0.0-6.0-0.0-8.0-1.12","3","4","3","3","4","4","3","4","4","3","4","5","4","4","5","5","4","5","4","4","1","2","2","1","1","2","2","1","2","1","0","1","1","0","0","0","1","1","1","1","0","1","0","1","4","1","2","1","2","1","1","2","4","2","633773426204475392","韩","671","","","","","","","","","","","","","","","","","","","true","4","4","ability","534","self","自己的","","","","","","","","","","","","","","",""
"null","","null","html-keyboard-response","134","177143","0.0-6.0-0.0-8.0-0.13","3","4","3","3","4","4","3","4","4","3","4","5","4","4","5","5","4","5","4","4","1","2","2","1","1","2","2","1","2","1","0","1","1","0","0","0","1","1","1","1","0","1","0","1","4","1","2","1","2","1","1","2","4","2","633773426204475392","韩","671","","","","","","","","","","","","","","","","","","","","","","","","","","","","","","","","","","","","","","","",""
"502","<p style=""color:white; font-size: 35px;"">能干</p>","i","categorize-html","135","177647","0.0-6.0-0.0-8.0-1.13","3","4","3","3","4","4","3","4","4","3","4","5","4","4","5","5","4","5","4","4","1","2","2","1","1","2","2","1","2","1","0","1","1","0","0","0","1","1","1","1","0","1","0","1","4","1","2","1","2","1","1","2","4","2","633773426204475392","韩","671","","","","","","","","","","","","","","","","","","","true","4","4","ability","502","positive","能干","","","","","","","","","","","","","","",""
"null","","null","html-keyboard-response","136","177898","0.0-6.0-0.0-8.0-0.14","3","4","3","3","4","4","3","4","4","3","4","5","4","4","5","5","4","5","4","4","1","2","2","1","1","2","2","1","2","1","0","1","1","0","0","0","1","1","1","1","0","1","0","1","4","1","2","1","2","1","1","2","4","2","633773426204475392","韩","671","","","","","","","","","","","","","","","","","","","","","","","","","","","","","","","","","","","","","","","",""
"539","<p style=""color:rgb(150, 250, 100); font-size: 35px;"">他人的</p>","e","categorize-html","137","178438","0.0-6.0-0.0-8.0-1.14","3","4","3","3","4","4","3","4","4","3","4","5","4","4","5","5","4","5","4","4","1","2","2","1","1","2","2","1","2","1","0","1","1","0","0","0","1","1","1","1","0","1","0","1","4","1","2","1","2","1","1","2","4","2","633773426204475392","韩","671","","","","","","","","","","","","","","","","","","","true","4","4","ability","539","other","他人的","","","","","","","","","","","","","","",""
"null","","null","html-keyboard-response","138","178691","0.0-6.0-0.0-8.0-0.15","3","4","3","3","4","4","3","4","4","3","4","5","4","4","5","5","4","5","4","4","1","2","2","1","1","2","2","1","2","1","0","1","1","0","0","0","1","1","1","1","0","1","0","1","4","1","2","1","2","1","1","2","4","2","633773426204475392","韩","671","","","","","","","","","","","","","","","","","","","","","","","","","","","","","","","","","","","","","","","",""
"610","<p style=""color:white; font-size: 35px;"">无能</p>","e","categorize-html","139","179302","0.0-6.0-0.0-8.0-1.15","3","4","3","3","4","4","3","4","4","3","4","5","4","4","5","5","4","5","4","4","1","2","2","1","1","2","2","1","2","1","0","1","1","0","0","0","1","1","1","1","0","1","0","1","4","1","2","1","2","1","1","2","4","2","633773426204475392","韩","671","","","","","","","","","","","","","","","","","","","true","4","4","ability","610","negative","无能","","","","","","","","","","","","","","",""
"null","","null","html-keyboard-response","140","179554","0.0-6.0-0.0-8.0-0.16","3","4","3","3","4","4","3","4","4","3","4","5","4","4","5","5","4","5","4","4","1","2","2","1","1","2","2","1","2","1","0","1","1","0","0","0","1","1","1","1","0","1","0","1","4","1","2","1","2","1","1","2","4","2","633773426204475392","韩","671","","","","","","","","","","","","","","","","","","","","","","","","","","","","","","","","","","","","","","","",""
"781","<p style=""color:rgb(150, 250, 100); font-size: 35px;"">他</p>","e","categorize-html","141","180338","0.0-6.0-0.0-8.0-1.16","3","4","3","3","4","4","3","4","4","3","4","5","4","4","5","5","4","5","4","4","1","2","2","1","1","2","2","1","2","1","0","1","1","0","0","0","1","1","1","1","0","1","0","1","4","1","2","1","2","1","1","2","4","2","633773426204475392","韩","671","","","","","","","","","","","","","","","","","","","true","4","4","ability","781","other","他","","","","","","","","","","","","","","",""
"null","","null","html-keyboard-response","142","180589","0.0-6.0-0.0-8.0-0.17","3","4","3","3","4","4","3","4","4","3","4","5","4","4","5","5","4","5","4","4","1","2","2","1","1","2","2","1","2","1","0","1","1","0","0","0","1","1","1","1","0","1","0","1","4","1","2","1","2","1","1","2","4","2","633773426204475392","韩","671","","","","","","","","","","","","","","","","","","","","","","","","","","","","","","","","","","","","","","","",""
"720","<p style=""color:white; font-size: 35px;"">天才</p>","i","categorize-html","143","181310","0.0-6.0-0.0-8.0-1.17","3","4","3","3","4","4","3","4","4","3","4","5","4","4","5","5","4","5","4","4","1","2","2","1","1","2","2","1","2","1","0","1","1","0","0","0","1","1","1","1","0","1","0","1","4","1","2","1","2","1","1","2","4","2","633773426204475392","韩","671","","","","","","","","","","","","","","","","","","","true","4","4","ability","720","positive","天才","","","","","","","","","","","","","","",""
"null","","null","html-keyboard-response","144","181561","0.0-6.0-0.0-8.0-0.18","3","4","3","3","4","4","3","4","4","3","4","5","4","4","5","5","4","5","4","4","1","2","2","1","1","2","2","1","2","1","0","1","1","0","0","0","1","1","1","1","0","1","0","1","4","1","2","1","2","1","1","2","4","2","633773426204475392","韩","671","","","","","","","","","","","","","","","","","","","","","","","","","","","","","","","","","","","","","","","",""
"783","<p style=""color:rgb(150, 250, 100); font-size: 35px;"">本人的</p>","i","categorize-html","145","182347","0.0-6.0-0.0-8.0-1.18","3","4","3","3","4","4","3","4","4","3","4","5","4","4","5","5","4","5","4","4","1","2","2","1","1","2","2","1","2","1","0","1","1","0","0","0","1","1","1","1","0","1","0","1","4","1","2","1","2","1","1","2","4","2","633773426204475392","韩","671","","","","","","","","","","","","","","","","","","","true","4","4","ability","783","self","本人的","","","","","","","","","","","","","","",""
"null","","null","html-keyboard-response","146","182598","0.0-6.0-0.0-8.0-0.19","3","4","3","3","4","4","3","4","4","3","4","5","4","4","5","5","4","5","4","4","1","2","2","1","1","2","2","1","2","1","0","1","1","0","0","0","1","1","1","1","0","1","0","1","4","1","2","1","2","1","1","2","4","2","633773426204475392","韩","671","","","","","","","","","","","","","","","","","","","","","","","","","","","","","","","","","","","","","","","",""
"622","<p style=""color:white; font-size: 35px;"">低能</p>","e","categorize-html","147","183222","0.0-6.0-0.0-8.0-1.19","3","4","3","3","4","4","3","4","4","3","4","5","4","4","5","5","4","5","4","4","1","2","2","1","1","2","2","1","2","1","0","1","1","0","0","0","1","1","1","1","0","1","0","1","4","1","2","1","2","1","1","2","4","2","633773426204475392","韩","671","","","","","","","","","","","","","","","","","","","true","4","4","ability","622","negative","低能","","","","","","","","","","","","","","",""
"null","","null","html-keyboard-response","148","183474","0.0-6.0-0.0-8.0-0.20","3","4","3","3","4","4","3","4","4","3","4","5","4","4","5","5","4","5","4","4","1","2","2","1","1","2","2","1","2","1","0","1","1","0","0","0","1","1","1","1","0","1","0","1","4","1","2","1","2","1","1","2","4","2","633773426204475392","韩","671","","","","","","","","","","","","","","","","","","","","","","","","","","","","","","","","","","","","","","","",""
"500","<p style=""color:rgb(150, 250, 100); font-size: 35px;"">他的</p>","e","categorize-html","149","183975","0.0-6.0-0.0-8.0-1.20","3","4","3","3","4","4","3","4","4","3","4","5","4","4","5","5","4","5","4","4","1","2","2","1","1","2","2","1","2","1","0","1","1","0","0","0","1","1","1","1","0","1","0","1","4","1","2","1","2","1","1","2","4","2","633773426204475392","韩","671","","","","","","","","","","","","","","","","","","","true","4","4","ability","500","other","他的","","","","","","","","","","","","","","",""
"null","","null","html-keyboard-response","150","184227","0.0-6.0-0.0-8.0-0.21","3","4","3","3","4","4","3","4","4","3","4","5","4","4","5","5","4","5","4","4","1","2","2","1","1","2","2","1","2","1","0","1","1","0","0","0","1","1","1","1","0","1","0","1","4","1","2","1","2","1","1","2","4","2","633773426204475392","韩","671","","","","","","","","","","","","","","","","","","","","","","","","","","","","","","","","","","","","","","","",""
"557","<p style=""color:white; font-size: 35px;"">高效</p>","i","categorize-html","151","184786","0.0-6.0-0.0-8.0-1.21","3","4","3","3","4","4","3","4","4","3","4","5","4","4","5","5","4","5","4","4","1","2","2","1","1","2","2","1","2","1","0","1","1","0","0","0","1","1","1","1","0","1","0","1","4","1","2","1","2","1","1","2","4","2","633773426204475392","韩","671","","","","","","","","","","","","","","","","","","","true","4","4","ability","557","positive","高效","","","","","","","","","","","","","","",""
"null","","null","html-keyboard-response","152","185037","0.0-6.0-0.0-8.0-0.22","3","4","3","3","4","4","3","4","4","3","4","5","4","4","5","5","4","5","4","4","1","2","2","1","1","2","2","1","2","1","0","1","1","0","0","0","1","1","1","1","0","1","0","1","4","1","2","1","2","1","1","2","4","2","633773426204475392","韩","671","","","","","","","","","","","","","","","","","","","","","","","","","","","","","","","","","","","","","","","",""
"607","<p style=""color:rgb(150, 250, 100); font-size: 35px;"">本人</p>","i","categorize-html","153","185646","0.0-6.0-0.0-8.0-1.22","3","4","3","3","4","4","3","4","4","3","4","5","4","4","5","5","4","5","4","4","1","2","2","1","1","2","2","1","2","1","0","1","1","0","0","0","1","1","1","1","0","1","0","1","4","1","2","1","2","1","1","2","4","2","633773426204475392","韩","671","","","","","","","","","","","","","","","","","","","true","4","4","ability","607","self","本人","","","","","","","","","","","","","","",""
"null","","null","html-keyboard-response","154","185898","0.0-6.0-0.0-8.0-0.23","3","4","3","3","4","4","3","4","4","3","4","5","4","4","5","5","4","5","4","4","1","2","2","1","1","2","2","1","2","1","0","1","1","0","0","0","1","1","1","1","0","1","0","1","4","1","2","1","2","1","1","2","4","2","633773426204475392","韩","671","","","","","","","","","","","","","","","","","","","","","","","","","","","","","","","","","","","","","","","",""
"611","<p style=""color:white; font-size: 35px;"">拙笨</p>","e","categorize-html","155","186511","0.0-6.0-0.0-8.0-1.23","3","4","3","3","4","4","3","4","4","3","4","5","4","4","5","5","4","5","4","4","1","2","2","1","1","2","2","1","2","1","0","1","1","0","0","0","1","1","1","1","0","1","0","1","4","1","2","1","2","1","1","2","4","2","633773426204475392","韩","671","","","","","","","","","","","","","","","","","","","true","4","4","ability","611","negative","拙笨","","","","","","","","","","","","","","",""
"null","","null","html-keyboard-response","156","186762","0.0-6.0-0.0-8.0-0.24","3","4","3","3","4","4","3","4","4","3","4","5","4","4","5","5","4","5","4","4","1","2","2","1","1","2","2","1","2","1","0","1","1","0","0","0","1","1","1","1","0","1","0","1","4","1","2","1","2","1","1","2","4","2","633773426204475392","韩","671","","","","","","","","","","","","","","","","","","","","","","","","","","","","","","","","","","","","","","","",""
"900","<p style=""color:rgb(150, 250, 100); font-size: 35px;"">自己的</p>","i","categorize-html","157","187665","0.0-6.0-0.0-8.0-1.24","3","4","3","3","4","4","3","4","4","3","4","5","4","4","5","5","4","5","4","4","1","2","2","1","1","2","2","1","2","1","0","1","1","0","0","0","1","1","1","1","0","1","0","1","4","1","2","1","2","1","1","2","4","2","633773426204475392","韩","671","","","","","","","","","","","","","","","","","","","true","4","4","ability","900","self","自己的","","","","","","","","","","","","","","",""
"null","","null","html-keyboard-response","158","187916","0.0-6.0-0.0-8.0-0.25","3","4","3","3","4","4","3","4","4","3","4","5","4","4","5","5","4","5","4","4","1","2","2","1","1","2","2","1","2","1","0","1","1","0","0","0","1","1","1","1","0","1","0","1","4","1","2","1","2","1","1","2","4","2","633773426204475392","韩","671","","","","","","","","","","","","","","","","","","","","","","","","","","","","","","","","","","","","","","","",""
"605","<p style=""color:white; font-size: 35px;"">废物</p>","e","categorize-html","159","188523","0.0-6.0-0.0-8.0-1.25","3","4","3","3","4","4","3","4","4","3","4","5","4","4","5","5","4","5","4","4","1","2","2","1","1","2","2","1","2","1","0","1","1","0","0","0","1","1","1","1","0","1","0","1","4","1","2","1","2","1","1","2","4","2","633773426204475392","韩","671","","","","","","","","","","","","","","","","","","","true","4","4","ability","605","negative","废物","","","","","","","","","","","","","","",""
"null","","null","html-keyboard-response","160","188774","0.0-6.0-0.0-8.0-0.26","3","4","3","3","4","4","3","4","4","3","4","5","4","4","5","5","4","5","4","4","1","2","2","1","1","2","2","1","2","1","0","1","1","0","0","0","1","1","1","1","0","1","0","1","4","1","2","1","2","1","1","2","4","2","633773426204475392","韩","671","","","","","","","","","","","","","","","","","","","","","","","","","","","","","","","","","","","","","","","",""
"492","<p style=""color:rgb(150, 250, 100); font-size: 35px;"">他</p>","e","categorize-html","161","189269","0.0-6.0-0.0-8.0-1.26","3","4","3","3","4","4","3","4","4","3","4","5","4","4","5","5","4","5","4","4","1","2","2","1","1","2","2","1","2","1","0","1","1","0","0","0","1","1","1","1","0","1","0","1","4","1","2","1","2","1","1","2","4","2","633773426204475392","韩","671","","","","","","","","","","","","","","","","","","","true","4","4","ability","492","other","他","","","","","","","","","","","","","","",""
"null","","null","html-keyboard-response","162","189520","0.0-6.0-0.0-8.0-0.27","3","4","3","3","4","4","3","4","4","3","4","5","4","4","5","5","4","5","4","4","1","2","2","1","1","2","2","1","2","1","0","1","1","0","0","0","1","1","1","1","0","1","0","1","4","1","2","1","2","1","1","2","4","2","633773426204475392","韩","671","","","","","","","","","","","","","","","","","","","","","","","","","","","","","","","","","","","","","","","",""
"695","<p style=""color:white; font-size: 35px;"">全能</p>","i","categorize-html","163","190216","0.0-6.0-0.0-8.0-1.27","3","4","3","3","4","4","3","4","4","3","4","5","4","4","5","5","4","5","4","4","1","2","2","1","1","2","2","1","2","1","0","1","1","0","0","0","1","1","1","1","0","1","0","1","4","1","2","1","2","1","1","2","4","2","633773426204475392","韩","671","","","","","","","","","","","","","","","","","","","true","4","4","ability","695","positive","全能","","","","","","","","","","","","","","",""
"null","","null","html-keyboard-response","164","190468","0.0-6.0-0.0-8.0-0.28","3","4","3","3","4","4","3","4","4","3","4","5","4","4","5","5","4","5","4","4","1","2","2","1","1","2","2","1","2","1","0","1","1","0","0","0","1","1","1","1","0","1","0","1","4","1","2","1","2","1","1","2","4","2","633773426204475392","韩","671","","","","","","","","","","","","","","","","","","","","","","","","","","","","","","","","","","","","","","","",""
"582","<p style=""color:rgb(150, 250, 100); font-size: 35px;"">他人的</p>","e","categorize-html","165","191052","0.0-6.0-0.0-8.0-1.28","3","4","3","3","4","4","3","4","4","3","4","5","4","4","5","5","4","5","4","4","1","2","2","1","1","2","2","1","2","1","0","1","1","0","0","0","1","1","1","1","0","1","0","1","4","1","2","1","2","1","1","2","4","2","633773426204475392","韩","671","","","","","","","","","","","","","","","","","","","true","4","4","ability","582","other","他人的","","","","","","","","","","","","","","",""
"null","","null","html-keyboard-response","166","191304","0.0-6.0-0.0-8.0-0.29","3","4","3","3","4","4","3","4","4","3","4","5","4","4","5","5","4","5","4","4","1","2","2","1","1","2","2","1","2","1","0","1","1","0","0","0","1","1","1","1","0","1","0","1","4","1","2","1","2","1","1","2","4","2","633773426204475392","韩","671","","","","","","","","","","","","","","","","","","","","","","","","","","","","","","","","","","","","","","","",""
"792","<p style=""color:white; font-size: 35px;"">无能</p>","e","categorize-html","167","192098","0.0-6.0-0.0-8.0-1.29","3","4","3","3","4","4","3","4","4","3","4","5","4","4","5","5","4","5","4","4","1","2","2","1","1","2","2","1","2","1","0","1","1","0","0","0","1","1","1","1","0","1","0","1","4","1","2","1","2","1","1","2","4","2","633773426204475392","韩","671","","","","","","","","","","","","","","","","","","","true","4","4","ability","792","negative","无能","","","","","","","","","","","","","","",""
"null","","null","html-keyboard-response","168","192349","0.0-6.0-0.0-8.0-0.30","3","4","3","3","4","4","3","4","4","3","4","5","4","4","5","5","4","5","4","4","1","2","2","1","1","2","2","1","2","1","0","1","1","0","0","0","1","1","1","1","0","1","0","1","4","1","2","1","2","1","1","2","4","2","633773426204475392","韩","671","","","","","","","","","","","","","","","","","","","","","","","","","","","","","","","","","","","","","","","",""
"555","<p style=""color:rgb(150, 250, 100); font-size: 35px;"">自己</p>","i","categorize-html","169","192907","0.0-6.0-0.0-8.0-1.30","3","4","3","3","4","4","3","4","4","3","4","5","4","4","5","5","4","5","4","4","1","2","2","1","1","2","2","1","2","1","0","1","1","0","0","0","1","1","1","1","0","1","0","1","4","1","2","1","2","1","1","2","4","2","633773426204475392","韩","671","","","","","","","","","","","","","","","","","","","true","4","4","ability","555","self","自己","","","","","","","","","","","","","","",""
"null","","null","html-keyboard-response","170","193159","0.0-6.0-0.0-8.0-0.31","3","4","3","3","4","4","3","4","4","3","4","5","4","4","5","5","4","5","4","4","1","2","2","1","1","2","2","1","2","1","0","1","1","0","0","0","1","1","1","1","0","1","0","1","4","1","2","1","2","1","1","2","4","2","633773426204475392","韩","671","","","","","","","","","","","","","","","","","","","","","","","","","","","","","","","","","","","","","","","",""
"488","<p style=""color:white; font-size: 35px;"">高效</p>","i","categorize-html","171","193648","0.0-6.0-0.0-8.0-1.31","3","4","3","3","4","4","3","4","4","3","4","5","4","4","5","5","4","5","4","4","1","2","2","1","1","2","2","1","2","1","0","1","1","0","0","0","1","1","1","1","0","1","0","1","4","1","2","1","2","1","1","2","4","2","633773426204475392","韩","671","","","","","","","","","","","","","","","","","","","true","4","4","ability","488","positive","高效","","","","","","","","","","","","","","",""
"null","","null","html-keyboard-response","172","193899","0.0-6.0-0.0-8.0-0.32","3","4","3","3","4","4","3","4","4","3","4","5","4","4","5","5","4","5","4","4","1","2","2","1","1","2","2","1","2","1","0","1","1","0","0","0","1","1","1","1","0","1","0","1","4","1","2","1","2","1","1","2","4","2","633773426204475392","韩","671","","","","","","","","","","","","","","","","","","","","","","","","","","","","","","","","","","","","","","","",""
"520","<p style=""color:rgb(150, 250, 100); font-size: 35px;"">自己</p>","i","categorize-html","173","194421","0.0-6.0-0.0-8.0-1.32","3","4","3","3","4","4","3","4","4","3","4","5","4","4","5","5","4","5","4","4","1","2","2","1","1","2","2","1","2","1","0","1","1","0","0","0","1","1","1","1","0","1","0","1","4","1","2","1","2","1","1","2","4","2","633773426204475392","韩","671","","","","","","","","","","","","","","","","","","","true","4","4","ability","520","self","自己","","","","","","","","","","","","","","",""
"null","","null","html-keyboard-response","174","194672","0.0-6.0-0.0-8.0-0.33","3","4","3","3","4","4","3","4","4","3","4","5","4","4","5","5","4","5","4","4","1","2","2","1","1","2","2","1","2","1","0","1","1","0","0","0","1","1","1","1","0","1","0","1","4","1","2","1","2","1","1","2","4","2","633773426204475392","韩","671","","","","","","","","","","","","","","","","","","","","","","","","","","","","","","","","","","","","","","","",""
"580","<p style=""color:white; font-size: 35px;"">废物</p>","e","categorize-html","175","195254","0.0-6.0-0.0-8.0-1.33","3","4","3","3","4","4","3","4","4","3","4","5","4","4","5","5","4","5","4","4","1","2","2","1","1","2","2","1","2","1","0","1","1","0","0","0","1","1","1","1","0","1","0","1","4","1","2","1","2","1","1","2","4","2","633773426204475392","韩","671","","","","","","","","","","","","","","","","","","","true","4","4","ability","580","negative","废物","","","","","","","","","","","","","","",""
"null","","null","html-keyboard-response","176","195505","0.0-6.0-0.0-8.0-0.34","3","4","3","3","4","4","3","4","4","3","4","5","4","4","5","5","4","5","4","4","1","2","2","1","1","2","2","1","2","1","0","1","1","0","0","0","1","1","1","1","0","1","0","1","4","1","2","1","2","1","1","2","4","2","633773426204475392","韩","671","","","","","","","","","","","","","","","","","","","","","","","","","","","","","","","","","","","","","","","",""
"722","<p style=""color:rgb(150, 250, 100); font-size: 35px;"">别人的</p>","e","categorize-html","177","196229","0.0-6.0-0.0-8.0-1.34","3","4","3","3","4","4","3","4","4","3","4","5","4","4","5","5","4","5","4","4","1","2","2","1","1","2","2","1","2","1","0","1","1","0","0","0","1","1","1","1","0","1","0","1","4","1","2","1","2","1","1","2","4","2","633773426204475392","韩","671","","","","","","","","","","","","","","","","","","","true","4","4","ability","722","other","别人的","","","","","","","","","","","","","","",""
"null","","null","html-keyboard-response","178","196480","0.0-6.0-0.0-8.0-0.35","3","4","3","3","4","4","3","4","4","3","4","5","4","4","5","5","4","5","4","4","1","2","2","1","1","2","2","1","2","1","0","1","1","0","0","0","1","1","1","1","0","1","0","1","4","1","2","1","2","1","1","2","4","2","633773426204475392","韩","671","","","","","","","","","","","","","","","","","","","","","","","","","","","","","","","","","","","","","","","",""
"454","<p style=""color:white; font-size: 35px;"">能干</p>","i","categorize-html","179","196936","0.0-6.0-0.0-8.0-1.35","3","4","3","3","4","4","3","4","4","3","4","5","4","4","5","5","4","5","4","4","1","2","2","1","1","2","2","1","2","1","0","1","1","0","0","0","1","1","1","1","0","1","0","1","4","1","2","1","2","1","1","2","4","2","633773426204475392","韩","671","","","","","","","","","","","","","","","","","","","true","4","4","ability","454","positive","能干","","","","","","","","","","","","","","",""
"null","","null","html-keyboard-response","180","197188","0.0-6.0-0.0-8.0-0.36","3","4","3","3","4","4","3","4","4","3","4","5","4","4","5","5","4","5","4","4","1","2","2","1","1","2","2","1","2","1","0","1","1","0","0","0","1","1","1","1","0","1","0","1","4","1","2","1","2","1","1","2","4","2","633773426204475392","韩","671","","","","","","","","","","","","","","","","","","","","","","","","","","","","","","","","","","","","","","","",""
"602","<p style=""color:rgb(150, 250, 100); font-size: 35px;"">他人</p>","e","categorize-html","181","197791","0.0-6.0-0.0-8.0-1.36","3","4","3","3","4","4","3","4","4","3","4","5","4","4","5","5","4","5","4","4","1","2","2","1","1","2","2","1","2","1","0","1","1","0","0","0","1","1","1","1","0","1","0","1","4","1","2","1","2","1","1","2","4","2","633773426204475392","韩","671","","","","","","","","","","","","","","","","","","","true","4","4","ability","602","other","他人","","","","","","","","","","","","","","",""
"null","","null","html-keyboard-response","182","198042","0.0-6.0-0.0-8.0-0.37","3","4","3","3","4","4","3","4","4","3","4","5","4","4","5","5","4","5","4","4","1","2","2","1","1","2","2","1","2","1","0","1","1","0","0","0","1","1","1","1","0","1","0","1","4","1","2","1","2","1","1","2","4","2","633773426204475392","韩","671","","","","","","","","","","","","","","","","","","","","","","","","","","","","","","","","","","","","","","","",""
"605","<p style=""color:white; font-size: 35px;"">蠢笨</p>","e","categorize-html","183","198649","0.0-6.0-0.0-8.0-1.37","3","4","3","3","4","4","3","4","4","3","4","5","4","4","5","5","4","5","4","4","1","2","2","1","1","2","2","1","2","1","0","1","1","0","0","0","1","1","1","1","0","1","0","1","4","1","2","1","2","1","1","2","4","2","633773426204475392","韩","671","","","","","","","","","","","","","","","","","","","true","4","4","ability","605","negative","蠢笨","","","","","","","","","","","","","","",""
"null","","null","html-keyboard-response","184","198900","0.0-6.0-0.0-8.0-0.38","3","4","3","3","4","4","3","4","4","3","4","5","4","4","5","5","4","5","4","4","1","2","2","1","1","2","2","1","2","1","0","1","1","0","0","0","1","1","1","1","0","1","0","1","4","1","2","1","2","1","1","2","4","2","633773426204475392","韩","671","","","","","","","","","","","","","","","","","","","","","","","","","","","","","","","","","","","","","","","",""
"482","<p style=""color:rgb(150, 250, 100); font-size: 35px;"">我的</p>","i","categorize-html","185","199384","0.0-6.0-0.0-8.0-1.38","3","4","3","3","4","4","3","4","4","3","4","5","4","4","5","5","4","5","4","4","1","2","2","1","1","2","2","1","2","1","0","1","1","0","0","0","1","1","1","1","0","1","0","1","4","1","2","1","2","1","1","2","4","2","633773426204475392","韩","671","","","","","","","","","","","","","","","","","","","true","4","4","ability","482","self","我的","","","","","","","","","","","","","","",""
"null","","null","html-keyboard-response","186","199636","0.0-6.0-0.0-8.0-0.39","3","4","3","3","4","4","3","4","4","3","4","5","4","4","5","5","4","5","4","4","1","2","2","1","1","2","2","1","2","1","0","1","1","0","0","0","1","1","1","1","0","1","0","1","4","1","2","1","2","1","1","2","4","2","633773426204475392","韩","671","","","","","","","","","","","","","","","","","","","","","","","","","","","","","","","","","","","","","","","",""
"988","<p style=""color:white; font-size: 35px;"">全能</p>","i","categorize-html","187","200625","0.0-6.0-0.0-8.0-1.39","3","4","3","3","4","4","3","4","4","3","4","5","4","4","5","5","4","5","4","4","1","2","2","1","1","2","2","1","2","1","0","1","1","0","0","0","1","1","1","1","0","1","0","1","4","1","2","1","2","1","1","2","4","2","633773426204475392","韩","671","","","","","","","","","","","","","","","","","","","true","4","4","ability","988","positive","全能","","","","","","","","","","","","","","",""
"null","","null","html-keyboard-response","188","200876","0.0-6.0-0.0-8.0-0.40","3","4","3","3","4","4","3","4","4","3","4","5","4","4","5","5","4","5","4","4","1","2","2","1","1","2","2","1","2","1","0","1","1","0","0","0","1","1","1","1","0","1","0","1","4","1","2","1","2","1","1","2","4","2","633773426204475392","韩","671","","","","","","","","","","","","","","","","","","","","","","","","","","","","","","","","","","","","","","","",""
"499","<p style=""color:rgb(150, 250, 100); font-size: 35px;"">我</p>","i","categorize-html","189","201377","0.0-6.0-0.0-8.0-1.40","3","4","3","3","4","4","3","4","4","3","4","5","4","4","5","5","4","5","4","4","1","2","2","1","1","2","2","1","2","1","0","1","1","0","0","0","1","1","1","1","0","1","0","1","4","1","2","1","2","1","1","2","4","2","633773426204475392","韩","671","","","","","","","","","","","","","","","","","","","true","4","4","ability","499","self","我","","","","","","","","","","","","","","",""
"null","","null","html-keyboard-response","190","201628","0.0-6.0-0.0-8.0-0.41","3","4","3","3","4","4","3","4","4","3","4","5","4","4","5","5","4","5","4","4","1","2","2","1","1","2","2","1","2","1","0","1","1","0","0","0","1","1","1","1","0","1","0","1","4","1","2","1","2","1","1","2","4","2","633773426204475392","韩","671","","","","","","","","","","","","","","","","","","","","","","","","","","","","","","","","","","","","","","","",""
"571","<p style=""color:white; font-size: 35px;"">全才</p>","i","categorize-html","191","202201","0.0-6.0-0.0-8.0-1.41","3","4","3","3","4","4","3","4","4","3","4","5","4","4","5","5","4","5","4","4","1","2","2","1","1","2","2","1","2","1","0","1","1","0","0","0","1","1","1","1","0","1","0","1","4","1","2","1","2","1","1","2","4","2","633773426204475392","韩","671","","","","","","","","","","","","","","","","","","","true","4","4","ability","571","positive","全才","","","","","","","","","","","","","","",""
"null","","null","html-keyboard-response","192","202452","0.0-6.0-0.0-8.0-0.42","3","4","3","3","4","4","3","4","4","3","4","5","4","4","5","5","4","5","4","4","1","2","2","1","1","2","2","1","2","1","0","1","1","0","0","0","1","1","1","1","0","1","0","1","4","1","2","1","2","1","1","2","4","2","633773426204475392","韩","671","","","","","","","","","","","","","","","","","","","","","","","","","","","","","","","","","","","","","","","",""
"693","<p style=""color:rgb(150, 250, 100); font-size: 35px;"">他人</p>","e","categorize-html","193","203146","0.0-6.0-0.0-8.0-1.42","3","4","3","3","4","4","3","4","4","3","4","5","4","4","5","5","4","5","4","4","1","2","2","1","1","2","2","1","2","1","0","1","1","0","0","0","1","1","1","1","0","1","0","1","4","1","2","1","2","1","1","2","4","2","633773426204475392","韩","671","","","","","","","","","","","","","","","","","","","true","4","4","ability","693","other","他人","","","","","","","","","","","","","","",""
"null","","null","html-keyboard-response","194","203398","0.0-6.0-0.0-8.0-0.43","3","4","3","3","4","4","3","4","4","3","4","5","4","4","5","5","4","5","4","4","1","2","2","1","1","2","2","1","2","1","0","1","1","0","0","0","1","1","1","1","0","1","0","1","4","1","2","1","2","1","1","2","4","2","633773426204475392","韩","671","","","","","","","","","","","","","","","","","","","","","","","","","","","","","","","","","","","","","","","",""
"592","<p style=""color:white; font-size: 35px;"">愚钝</p>","e","categorize-html","195","203992","0.0-6.0-0.0-8.0-1.43","3","4","3","3","4","4","3","4","4","3","4","5","4","4","5","5","4","5","4","4","1","2","2","1","1","2","2","1","2","1","0","1","1","0","0","0","1","1","1","1","0","1","0","1","4","1","2","1","2","1","1","2","4","2","633773426204475392","韩","671","","","","","","","","","","","","","","","","","","","true","4","4","ability","592","negative","愚钝","","","","","","","","","","","","","","",""
"null","","null","html-keyboard-response","196","204243","0.0-6.0-0.0-8.0-0.44","3","4","3","3","4","4","3","4","4","3","4","5","4","4","5","5","4","5","4","4","1","2","2","1","1","2","2","1","2","1","0","1","1","0","0","0","1","1","1","1","0","1","0","1","4","1","2","1","2","1","1","2","4","2","633773426204475392","韩","671","","","","","","","","","","","","","","","","","","","","","","","","","","","","","","","","","","","","","","","",""
