"rt","stimulus","response","trial_type","trial_index","time_elapsed","internal_node_id","ses_1","ses_2","ses_3","ses_4","ses_5","ses_6","ses_7","ses_8","ses_9","ses_10","coreself_1","coreself_2","coreself_3","coreself_4","coreself_5","coreself_6","coreself_7","coreself_8","coreself_9","coreself_10","SGPS_1","SGPS_2","SGPS_3","SGPS_4","SGPS_5","SGPS_6","SGPS_7","SGPS_8","SGPS_9","NPI1","NPI2","NPI3","NPI4","NPI5","NPI6","NPI7","NPI8","NPI9","NPI10","NPI11","NPI12","NPI13","NPI14","NPI15","hsns_1","hsns_2","hsns_3","hsns_4","hsns_5","hsns_6","hsns_7","hsns_8","hsns_9","hsns_10","subj_idx","friend_name","ParticipantID","value","success","user_agent","responses","item_order","radio_event_ids","radio_event_times","key_event_times","mouse_event_times","straightlining","zigzagging","honeypot","timeout","failed_images","failed_audio","failed_video","view_history","response_type","key_press","avg_frame_time","center_x","center_y","correct_response","correct","identity","Image","word","condition","task_id","screen_id","time_stamp","version_attrib2","version_target2","IAT","RT","varname","summary","version_attrib","version_target","question_order"
"32021","
   <p><div style = ""color: white;font-size:25px;"">您好，欢迎参加本次实验。</div> </p>
   <p><div style = ""color: white;font-size:25px;"">为充分保障您的权利，请确保您已经知晓并同意《参与实验同意书》以及《数据公开知情同意书》。</div></p>
   <p><div style = ""color: white;font-size:25px;"">如果您未见过上述内容，请咨询实验员。</div></p>
   <p><div style = ""color: white;font-size:25px;"">如果您选择继续实验，则表示您已经清楚两份知情同意书的内容并同意。</div></p>
   <p><div style = ""color: red;font-size:30px;"">请确保您记得day0的实验编号，您将在本次实验输入该编号，若您忘记，请咨询实验员后作答。</div></p>
   <p> <div style = ""color: green;font-size:25px;""><按空格键至下页></div> </p>
   "," ","html-keyboard-response","0","32026","0.0-0.0","3","3","3","3","3","3","3","3","3","4","3","2","2","4","1","4","2","3","3","2","2","3","2","3","2","2","2","2","3","1","0","1","1","0","0","1","1","0","1","1","0","1","0","1","4","3","4","2","3","3","4","4","3","1","749636547061747713","叶","396","","","","","","","","","","","","","","","","","","","","","","","","","","","","","","","","","","","","","","","",""
"","","","call-function","1","32029","0.0-1.0-0.0","3","3","3","3","3","3","3","3","3","4","3","2","2","4","1","4","2","3","3","2","2","3","2","3","2","2","2","2","3","1","0","1","1","0","0","1","1","0","1","1","0","1","0","1","4","3","4","2","3","3","4","4","3","1","749636547061747713","叶","396","","","","","","","","","","","","","","","","","","","","","","","","","","","","","","","","","","","","","","","",""
"25041","","{""friend_name"":""叶"",""ParticipantID"":""396""}","survey-html-form","2","57072","0.0-1.0-1.0","3","3","3","3","3","3","3","3","3","4","3","2","2","4","1","4","2","3","3","2","2","3","2","3","2","2","2","2","3","1","0","1","1","0","0","1","1","0","1","1","0","1","0","1","4","3","4","2","3","3","4","4","3","1","749636547061747713","叶","396","","","","","","","","","","","","","","","","","","","","","","","","","","","","","","","","","","","","","","","",""
"","","","fullscreen","3","63826","0.0-2.0","3","3","3","3","3","3","3","3","3","4","3","2","2","4","1","4","2","3","3","2","2","3","2","3","2","2","2","2","3","1","0","1","1","0","0","1","1","0","1","1","0","1","0","1","4","3","4","2","3","3","4","4","3","1","749636547061747713","叶","396","","true","{}","","","","","","","","","","","","","","","","","","","","","","","","","","","","","","","","","","","","",""
"29556.10000000149","","{""Q01"":""3"",""Q02"":""3"",""Q03"":""3"",""Q04"":""3"",""Q05"":""3"",""Q06"":""3"",""Q07"":""3"",""Q08"":""3"",""Q09"":""3"",""Q10"":""4""}","survey-template","4","93389","0.0-3.0","3","3","3","3","3","3","3","3","3","4","3","2","2","4","1","4","2","3","3","2","2","3","2","3","2","2","2","2","3","1","0","1","1","0","0","1","1","0","1","1","0","1","0","1","4","3","4","2","3","3","4","4","3","1","749636547061747713","叶","396","","","","{""Q01"":""3"",""Q02"":""3"",""Q03"":""3"",""Q04"":""3"",""Q05"":""3"",""Q06"":""3"",""Q07"":""3"",""Q08"":""3"",""Q09"":""3"",""Q10"":""4""}","[0,1,2,3,4,5,6,7,8,9]","[""Q01"",""Q02"",""Q03"",""Q04"",""Q05"",""Q06"",""Q07"",""Q08"",""Q09"",""Q10"",""Q10""]","[11553.699999999255,13281.300000000745,14329.199999999255,15585.10000000149,18120.699999999255,19048.800000000745,20648.900000002235,22528.800000000745,24688.60000000149,25264.60000000149,27848.900000002235]","[]","[11553.699999999255,12065.10000000149,12689,13281.300000000745,14329.199999999255,15585.10000000149,18120.699999999255,19048.800000000745,20648.900000002235,22528.800000000745,24688.60000000149,25264.60000000149,27848.900000002235,29552.900000002235]","0.5","0.6666666666666666","0","","","","","","","","","","","","","","","","","","","","","","","","","","","",""
"44378.900000002235","","{""Q01"":""3"",""Q02"":""2"",""Q03"":""2"",""Q04"":""4"",""Q05"":""1"",""Q06"":""4"",""Q07"":""2"",""Q08"":""3"",""Q09"":""3"",""Q10"":""2""}","survey-template","5","137788","0.0-4.0","3","3","3","3","3","3","3","3","3","4","3","2","2","4","1","4","2","3","3","2","2","3","2","3","2","2","2","2","3","1","0","1","1","0","0","1","1","0","1","1","0","1","0","1","4","3","4","2","3","3","4","4","3","1","749636547061747713","叶","396","","","","{""Q01"":""3"",""Q02"":""2"",""Q03"":""2"",""Q04"":""4"",""Q05"":""1"",""Q06"":""4"",""Q07"":""2"",""Q08"":""3"",""Q09"":""3"",""Q10"":""2""}","[0,1,2,3,4,5,6,7,8,9]","[""Q01"",""Q02"",""Q03"",""Q03"",""Q04"",""Q02"",""Q02"",""Q03"",""Q05"",""Q06"",""Q07"",""Q08"",""Q09"",""Q10""]","[11064.20000000298,14632.10000000149,15472.300000000745,19656.300000000745,20880.10000000149,23320.20000000298,24640.20000000298,25048.10000000149,28879.800000000745,30439.800000000745,34015.800000000745,36223.70000000298,40023.60000000149,43287.5]","[]","[11064.20000000298,14632.10000000149,15472.300000000745,19656.300000000745,20880.10000000149,23320.20000000298,24640.20000000298,25048.10000000149,28879.800000000745,30439.800000000745,34015.800000000745,36223.70000000298,40023.60000000149,43287.5,44375.5]","0.6","0.5555555555555556","0","","","","","","","","","","","","","","","","","","","","","","","","","","","",""
"","","","preload","6","146492","0.0-5.0","3","3","3","3","3","3","3","3","3","4","3","2","2","4","1","4","2","3","3","2","2","3","2","3","2","2","2","2","3","1","0","1","1","0","0","1","1","0","1","1","0","1","0","1","4","3","4","2","3","3","4","4","3","1","749636547061747713","叶","396","","true","","","","","","","","","","","false","[]","[]","[]","","","","","","","","","","","","","","","","","","","","","","","",""
"15474","","","instructions","7","161967","0.0-6.0","3","3","3","3","3","3","3","3","3","4","3","2","2","4","1","4","2","3","3","2","2","3","2","3","2","2","2","2","3","1","0","1","1","0","0","1","1","0","1","1","0","1","0","1","4","3","4","2","3","3","4","4","3","1","749636547061747713","叶","396","","","","","","","","","","","","","","","","","[{""page_index"":0,""viewing_time"":15473}]","","","","","","","","","","","","","","","","","","","","","","",""
"41969","","","instructions","8","203943","0.0-7.0-0.0-0.0","3","3","3","3","3","3","3","3","3","4","3","2","2","4","1","4","2","3","3","2","2","3","2","3","2","2","2","2","3","1","0","1","1","0","0","1","1","0","1","1","0","1","0","1","4","3","4","2","3","3","4","4","3","1","749636547061747713","叶","396","","","","","","","","","","","","","","","","","[{""page_index"":0,""viewing_time"":35097},{""page_index"":1,""viewing_time"":5352},{""page_index"":2,""viewing_time"":1520}]","","","","","","","","","","","","","","","","","","","","","","",""
"1040","","f","psychophysics","9","205998","0.0-7.0-0.0-1.0-0.0-0.0","3","3","3","3","3","3","3","3","3","4","3","2","2","4","1","4","2","3","3","2","2","3","2","3","2","2","2","2","3","1","0","1","1","0","0","1","1","0","1","1","0","1","0","1","4","3","4","2","3","3","4","4","3","1","749636547061747713","叶","396","","","","match","","","","","","","","","","","","","","key","f","16.665677685950342","683","380","f","true","match","img/triangle.png","三角","三角","ALT1_1","prac_ALT1_1","","","","","","","","","",""
"null","<span style='color:GreenYellow; font-size: 70px;'>正确! </span>","null","html-keyboard-response","10","206501","0.0-7.0-0.0-1.0-0.0-1.0","3","3","3","3","3","3","3","3","3","4","3","2","2","4","1","4","2","3","3","2","2","3","2","3","2","2","2","2","3","1","0","1","1","0","0","1","1","0","1","1","0","1","0","1","4","3","4","2","3","3","4","4","3","1","749636547061747713","叶","396","","","","","","","","","","","","","","","","","","","","","","","","","","","","","","feedback_test","","","","","","","","","",""
"1023","","j","psychophysics","11","208534","0.0-7.0-0.0-1.0-0.0-0.1","3","3","3","3","3","3","3","3","3","4","3","2","2","4","1","4","2","3","3","2","2","3","2","3","2","2","2","2","3","1","0","1","1","0","0","1","1","0","1","1","0","1","0","1","4","3","4","2","3","3","4","4","3","1","749636547061747713","叶","396","","","","nonmatch","","","","","","","","","","","","","","key","j","16.667206611570396","683","380","j","true","nonmatch","img/circle.png","六边","圆形","ALT1_1","prac_ALT1_1","","","","","","","","","",""
"null","<span style='color:GreenYellow; font-size: 70px;'>正确! </span>","null","html-keyboard-response","12","209037","0.0-7.0-0.0-1.0-0.0-1.1","3","3","3","3","3","3","3","3","3","4","3","2","2","4","1","4","2","3","3","2","2","3","2","3","2","2","2","2","3","1","0","1","1","0","0","1","1","0","1","1","0","1","0","1","4","3","4","2","3","3","4","4","3","1","749636547061747713","叶","396","","","","","","","","","","","","","","","","","","","","","","","","","","","","","","feedback_test","","","","","","","","","",""
"1101","","j","psychophysics","13","211142","0.0-7.0-0.0-1.0-0.0-0.2","3","3","3","3","3","3","3","3","3","4","3","2","2","4","1","4","2","3","3","2","2","3","2","3","2","2","2","2","3","1","0","1","1","0","0","1","1","0","1","1","0","1","0","1","4","3","4","2","3","3","4","4","3","1","749636547061747713","叶","396","","","","nonmatch","","","","","","","","","","","","","","key","j","16.665560000000056","683","380","j","true","nonmatch","img/trapezoid.png","六边","梯形","ALT1_1","prac_ALT1_1","","","","","","","","","",""
"null","<span style='color:GreenYellow; font-size: 70px;'>正确! </span>","null","html-keyboard-response","14","211644","0.0-7.0-0.0-1.0-0.0-1.2","3","3","3","3","3","3","3","3","3","4","3","2","2","4","1","4","2","3","3","2","2","3","2","3","2","2","2","2","3","1","0","1","1","0","0","1","1","0","1","1","0","1","0","1","4","3","4","2","3","3","4","4","3","1","749636547061747713","叶","396","","","","","","","","","","","","","","","","","","","","","","","","","","","","","","feedback_test","","","","","","","","","",""
"907","","j","psychophysics","15","213559","0.0-7.0-0.0-1.0-0.0-0.3","3","3","3","3","3","3","3","3","3","4","3","2","2","4","1","4","2","3","3","2","2","3","2","3","2","2","2","2","3","1","0","1","1","0","0","1","1","0","1","1","0","1","0","1","4","3","4","2","3","3","4","4","3","1","749636547061747713","叶","396","","","","nonmatch","","","","","","","","","","","","","","key","j","16.81975000000005","683","380","j","true","nonmatch","img/hexagon.png","三角","六边","ALT1_1","prac_ALT1_1","","","","","","","","","",""
"null","<span style='color:GreenYellow; font-size: 70px;'>正确! </span>","null","html-keyboard-response","16","214068","0.0-7.0-0.0-1.0-0.0-1.3","3","3","3","3","3","3","3","3","3","4","3","2","2","4","1","4","2","3","3","2","2","3","2","3","2","2","2","2","3","1","0","1","1","0","0","1","1","0","1","1","0","1","0","1","4","3","4","2","3","3","4","4","3","1","749636547061747713","叶","396","","","","","","","","","","","","","","","","","","","","","","","","","","","","","","feedback_test","","","","","","","","","",""
"878","","j","psychophysics","17","215950","0.0-7.0-0.0-1.0-0.0-0.4","3","3","3","3","3","3","3","3","3","4","3","2","2","4","1","4","2","3","3","2","2","3","2","3","2","2","2","2","3","1","0","1","1","0","0","1","1","0","1","1","0","1","0","1","4","3","4","2","3","3","4","4","3","1","749636547061747713","叶","396","","","","nonmatch","","","","","","","","","","","","","","key","j","16.819828828828996","683","380","j","true","nonmatch","img/circle.png","三角","圆形","ALT1_1","prac_ALT1_1","","","","","","","","","",""
"null","<span style='color:GreenYellow; font-size: 70px;'>正确! </span>","null","html-keyboard-response","18","216452","0.0-7.0-0.0-1.0-0.0-1.4","3","3","3","3","3","3","3","3","3","4","3","2","2","4","1","4","2","3","3","2","2","3","2","3","2","2","2","2","3","1","0","1","1","0","0","1","1","0","1","1","0","1","0","1","4","3","4","2","3","3","4","4","3","1","749636547061747713","叶","396","","","","","","","","","","","","","","","","","","","","","","","","","","","","","","feedback_test","","","","","","","","","",""
"956","","f","psychophysics","19","218414","0.0-7.0-0.0-1.0-0.0-0.5","3","3","3","3","3","3","3","3","3","4","3","2","2","4","1","4","2","3","3","2","2","3","2","3","2","2","2","2","3","1","0","1","1","0","0","1","1","0","1","1","0","1","0","1","4","3","4","2","3","3","4","4","3","1","749636547061747713","叶","396","","","","match","","","","","","","","","","","","","","key","f","16.658382608695714","683","380","f","true","match","img/hexagon.png","六边","六边","ALT1_1","prac_ALT1_1","","","","","","","","","",""
"null","<span style='color:GreenYellow; font-size: 70px;'>正确! </span>","null","html-keyboard-response","20","218916","0.0-7.0-0.0-1.0-0.0-1.5","3","3","3","3","3","3","3","3","3","4","3","2","2","4","1","4","2","3","3","2","2","3","2","3","2","2","2","2","3","1","0","1","1","0","0","1","1","0","1","1","0","1","0","1","4","3","4","2","3","3","4","4","3","1","749636547061747713","叶","396","","","","","","","","","","","","","","","","","","","","","","","","","","","","","","feedback_test","","","","","","","","","",""
"null","","null","psychophysics","21","221124","0.0-7.0-0.0-1.0-0.0-0.6","3","3","3","3","3","3","3","3","3","4","3","2","2","4","1","4","2","3","3","2","2","3","2","3","2","2","2","2","3","1","0","1","1","0","0","1","1","0","1","1","0","1","0","1","4","3","4","2","3","3","4","4","3","1","749636547061747713","叶","396","","","","null","","","","","","","","","","","","","","key","null","16.668416666666666","683","380","f","false","match","img/hexagon.png","六边","六边","ALT1_1","prac_ALT1_1","","","","","","","","","",""
"null","<span class='add_' style='color:yellow; font-size: 70px;'> 太慢! </span>","null","html-keyboard-response","22","221628","0.0-7.0-0.0-1.0-0.0-1.6","3","3","3","3","3","3","3","3","3","4","3","2","2","4","1","4","2","3","3","2","2","3","2","3","2","2","2","2","3","1","0","1","1","0","0","1","1","0","1","1","0","1","0","1","4","3","4","2","3","3","4","4","3","1","749636547061747713","叶","396","","","","","","","","","","","","","","","","","","","","","","","","","","","","","","feedback_test","","","","","","","","","",""
"945","","j","psychophysics","23","223582","0.0-7.0-0.0-1.0-0.0-0.7","3","3","3","3","3","3","3","3","3","4","3","2","2","4","1","4","2","3","3","2","2","3","2","3","2","2","2","2","3","1","0","1","1","0","0","1","1","0","1","1","0","1","0","1","4","3","4","2","3","3","4","4","3","1","749636547061747713","叶","396","","","","nonmatch","","","","","","","","","","","","","","key","j","16.812719298245565","683","380","j","true","nonmatch","img/triangle.png","圆形","三角","ALT1_1","prac_ALT1_1","","","","","","","","","",""
"null","<span style='color:GreenYellow; font-size: 70px;'>正确! </span>","null","html-keyboard-response","24","224084","0.0-7.0-0.0-1.0-0.0-1.7","3","3","3","3","3","3","3","3","3","4","3","2","2","4","1","4","2","3","3","2","2","3","2","3","2","2","2","2","3","1","0","1","1","0","0","1","1","0","1","1","0","1","0","1","4","3","4","2","3","3","4","4","3","1","749636547061747713","叶","396","","","","","","","","","","","","","","","","","","","","","","","","","","","","","","feedback_test","","","","","","","","","",""
"989","","j","psychophysics","25","226078","0.0-7.0-0.0-1.0-0.0-0.8","3","3","3","3","3","3","3","3","3","4","3","2","2","4","1","4","2","3","3","2","2","3","2","3","2","2","2","2","3","1","0","1","1","0","0","1","1","0","1","1","0","1","0","1","4","3","4","2","3","3","4","4","3","1","749636547061747713","叶","396","","","","nonmatch","","","","","","","","","","","","","","key","j","16.670777777777776","683","380","j","true","nonmatch","img/trapezoid.png","圆形","梯形","ALT1_1","prac_ALT1_1","","","","","","","","","",""
"null","<span style='color:GreenYellow; font-size: 70px;'>正确! </span>","null","html-keyboard-response","26","226581","0.0-7.0-0.0-1.0-0.0-1.8","3","3","3","3","3","3","3","3","3","4","3","2","2","4","1","4","2","3","3","2","2","3","2","3","2","2","2","2","3","1","0","1","1","0","0","1","1","0","1","1","0","1","0","1","4","3","4","2","3","3","4","4","3","1","749636547061747713","叶","396","","","","","","","","","","","","","","","","","","","","","","","","","","","","","","feedback_test","","","","","","","","","",""
"791","","j","psychophysics","27","228382","0.0-7.0-0.0-1.0-0.0-0.9","3","3","3","3","3","3","3","3","3","4","3","2","2","4","1","4","2","3","3","2","2","3","2","3","2","2","2","2","3","1","0","1","1","0","0","1","1","0","1","1","0","1","0","1","4","3","4","2","3","3","4","4","3","1","749636547061747713","叶","396","","","","nonmatch","","","","","","","","","","","","","","key","j","16.659289719626116","683","380","j","true","nonmatch","img/hexagon.png","圆形","六边","ALT1_1","prac_ALT1_1","","","","","","","","","",""
"null","<span style='color:GreenYellow; font-size: 70px;'>正确! </span>","null","html-keyboard-response","28","228885","0.0-7.0-0.0-1.0-0.0-1.9","3","3","3","3","3","3","3","3","3","4","3","2","2","4","1","4","2","3","3","2","2","3","2","3","2","2","2","2","3","1","0","1","1","0","0","1","1","0","1","1","0","1","0","1","4","3","4","2","3","3","4","4","3","1","749636547061747713","叶","396","","","","","","","","","","","","","","","","","","","","","","","","","","","","","","feedback_test","","","","","","","","","",""
"854","","j","psychophysics","29","230742","0.0-7.0-0.0-1.0-0.0-0.10","3","3","3","3","3","3","3","3","3","4","3","2","2","4","1","4","2","3","3","2","2","3","2","3","2","2","2","2","3","1","0","1","1","0","0","1","1","0","1","1","0","1","0","1","4","3","4","2","3","3","4","4","3","1","749636547061747713","叶","396","","","","nonmatch","","","","","","","","","","","","","","key","j","16.8191376146791","683","380","j","true","nonmatch","img/circle.png","梯形","圆形","ALT1_1","prac_ALT1_1","","","","","","","","","",""
"null","<span style='color:GreenYellow; font-size: 70px;'>正确! </span>","null","html-keyboard-response","30","231245","0.0-7.0-0.0-1.0-0.0-1.10","3","3","3","3","3","3","3","3","3","4","3","2","2","4","1","4","2","3","3","2","2","3","2","3","2","2","2","2","3","1","0","1","1","0","0","1","1","0","1","1","0","1","0","1","4","3","4","2","3","3","4","4","3","1","749636547061747713","叶","396","","","","","","","","","","","","","","","","","","","","","","","","","","","","","","feedback_test","","","","","","","","","",""
"800","","f","psychophysics","31","233058","0.0-7.0-0.0-1.0-0.0-0.11","3","3","3","3","3","3","3","3","3","4","3","2","2","4","1","4","2","3","3","2","2","3","2","3","2","2","2","2","3","1","0","1","1","0","0","1","1","0","1","1","0","1","0","1","4","3","4","2","3","3","4","4","3","1","749636547061747713","叶","396","","","","match","","","","","","","","","","","","","","key","f","16.834822429906552","683","380","f","true","match","img/triangle.png","三角","三角","ALT1_1","prac_ALT1_1","","","","","","","","","",""
"null","<span style='color:GreenYellow; font-size: 70px;'>正确! </span>","null","html-keyboard-response","32","233565","0.0-7.0-0.0-1.0-0.0-1.11","3","3","3","3","3","3","3","3","3","4","3","2","2","4","1","4","2","3","3","2","2","3","2","3","2","2","2","2","3","1","0","1","1","0","0","1","1","0","1","1","0","1","0","1","4","3","4","2","3","3","4","4","3","1","749636547061747713","叶","396","","","","","","","","","","","","","","","","","","","","","","","","","","","","","","feedback_test","","","","","","","","","",""
"753","","f","psychophysics","33","235326","0.0-7.0-0.0-1.0-0.0-0.12","3","3","3","3","3","3","3","3","3","4","3","2","2","4","1","4","2","3","3","2","2","3","2","3","2","2","2","2","3","1","0","1","1","0","0","1","1","0","1","1","0","1","0","1","4","3","4","2","3","3","4","4","3","1","749636547061747713","叶","396","","","","match","","","","","","","","","","","","","","key","f","16.665742857142774","683","380","f","true","match","img/circle.png","圆形","圆形","ALT1_1","prac_ALT1_1","","","","","","","","","",""
"null","<span style='color:GreenYellow; font-size: 70px;'>正确! </span>","null","html-keyboard-response","34","235829","0.0-7.0-0.0-1.0-0.0-1.12","3","3","3","3","3","3","3","3","3","4","3","2","2","4","1","4","2","3","3","2","2","3","2","3","2","2","2","2","3","1","0","1","1","0","0","1","1","0","1","1","0","1","0","1","4","3","4","2","3","3","4","4","3","1","749636547061747713","叶","396","","","","","","","","","","","","","","","","","","","","","","","","","","","","","","feedback_test","","","","","","","","","",""
"855","","f","psychophysics","35","237694","0.0-7.0-0.0-1.0-0.0-0.13","3","3","3","3","3","3","3","3","3","4","3","2","2","4","1","4","2","3","3","2","2","3","2","3","2","2","2","2","3","1","0","1","1","0","0","1","1","0","1","1","0","1","0","1","4","3","4","2","3","3","4","4","3","1","749636547061747713","叶","396","","","","match","","","","","","","","","","","","","","key","f","16.67160550458704","683","380","f","true","match","img/circle.png","圆形","圆形","ALT1_1","prac_ALT1_1","","","","","","","","","",""
"null","<span style='color:GreenYellow; font-size: 70px;'>正确! </span>","null","html-keyboard-response","36","238196","0.0-7.0-0.0-1.0-0.0-1.13","3","3","3","3","3","3","3","3","3","4","3","2","2","4","1","4","2","3","3","2","2","3","2","3","2","2","2","2","3","1","0","1","1","0","0","1","1","0","1","1","0","1","0","1","4","3","4","2","3","3","4","4","3","1","749636547061747713","叶","396","","","","","","","","","","","","","","","","","","","","","","","","","","","","","","feedback_test","","","","","","","","","",""
"1177","","j","psychophysics","37","240381","0.0-7.0-0.0-1.0-0.0-0.14","3","3","3","3","3","3","3","3","3","4","3","2","2","4","1","4","2","3","3","2","2","3","2","3","2","2","2","2","3","1","0","1","1","0","0","1","1","0","1","1","0","1","0","1","4","3","4","2","3","3","4","4","3","1","749636547061747713","叶","396","","","","nonmatch","","","","","","","","","","","","","","key","j","16.788679687500007","683","380","j","true","nonmatch","img/hexagon.png","梯形","六边","ALT1_1","prac_ALT1_1","","","","","","","","","",""
"null","<span style='color:GreenYellow; font-size: 70px;'>正确! </span>","null","html-keyboard-response","38","240884","0.0-7.0-0.0-1.0-0.0-1.14","3","3","3","3","3","3","3","3","3","4","3","2","2","4","1","4","2","3","3","2","2","3","2","3","2","2","2","2","3","1","0","1","1","0","0","1","1","0","1","1","0","1","0","1","4","3","4","2","3","3","4","4","3","1","749636547061747713","叶","396","","","","","","","","","","","","","","","","","","","","","","","","","","","","","","feedback_test","","","","","","","","","",""
"735","","j","psychophysics","39","242622","0.0-7.0-0.0-1.0-0.0-0.15","3","3","3","3","3","3","3","3","3","4","3","2","2","4","1","4","2","3","3","2","2","3","2","3","2","2","2","2","3","1","0","1","1","0","0","1","1","0","1","1","0","1","0","1","4","3","4","2","3","3","4","4","3","1","749636547061747713","叶","396","","","","nonmatch","","","","","","","","","","","","","","key","j","16.66869902912611","683","380","j","true","nonmatch","img/triangle.png","梯形","三角","ALT1_1","prac_ALT1_1","","","","","","","","","",""
"null","<span style='color:GreenYellow; font-size: 70px;'>正确! </span>","null","html-keyboard-response","40","243132","0.0-7.0-0.0-1.0-0.0-1.15","3","3","3","3","3","3","3","3","3","4","3","2","2","4","1","4","2","3","3","2","2","3","2","3","2","2","2","2","3","1","0","1","1","0","0","1","1","0","1","1","0","1","0","1","4","3","4","2","3","3","4","4","3","1","749636547061747713","叶","396","","","","","","","","","","","","","","","","","","","","","","","","","","","","","","feedback_test","","","","","","","","","",""
"635","","f","psychophysics","41","244774","0.0-7.0-0.0-1.0-0.0-0.16","3","3","3","3","3","3","3","3","3","4","3","2","2","4","1","4","2","3","3","2","2","3","2","3","2","2","2","2","3","1","0","1","1","0","0","1","1","0","1","1","0","1","0","1","4","3","4","2","3","3","4","4","3","1","749636547061747713","叶","396","","","","match","","","","","","","","","","","","","","key","f","16.670908163265416","683","380","f","true","match","img/circle.png","圆形","圆形","ALT1_1","prac_ALT1_1","","","","","","","","","",""
"null","<span style='color:GreenYellow; font-size: 70px;'>正确! </span>","null","html-keyboard-response","42","245276","0.0-7.0-0.0-1.0-0.0-1.16","3","3","3","3","3","3","3","3","3","4","3","2","2","4","1","4","2","3","3","2","2","3","2","3","2","2","2","2","3","1","0","1","1","0","0","1","1","0","1","1","0","1","0","1","4","3","4","2","3","3","4","4","3","1","749636547061747713","叶","396","","","","","","","","","","","","","","","","","","","","","","","","","","","","","","feedback_test","","","","","","","","","",""
"756","","f","psychophysics","43","247041","0.0-7.0-0.0-1.0-0.0-0.17","3","3","3","3","3","3","3","3","3","4","3","2","2","4","1","4","2","3","3","2","2","3","2","3","2","2","2","2","3","1","0","1","1","0","0","1","1","0","1","1","0","1","0","1","4","3","4","2","3","3","4","4","3","1","749636547061747713","叶","396","","","","match","","","","","","","","","","","","","","key","f","16.836766990291032","683","380","f","true","match","img/trapezoid.png","梯形","梯形","ALT1_1","prac_ALT1_1","","","","","","","","","",""
"null","<span style='color:GreenYellow; font-size: 70px;'>正确! </span>","null","html-keyboard-response","44","247548","0.0-7.0-0.0-1.0-0.0-1.17","3","3","3","3","3","3","3","3","3","4","3","2","2","4","1","4","2","3","3","2","2","3","2","3","2","2","2","2","3","1","0","1","1","0","0","1","1","0","1","1","0","1","0","1","4","3","4","2","3","3","4","4","3","1","749636547061747713","叶","396","","","","","","","","","","","","","","","","","","","","","","","","","","","","","","feedback_test","","","","","","","","","",""
"684","","f","psychophysics","45","249239","0.0-7.0-0.0-1.0-0.0-0.18","3","3","3","3","3","3","3","3","3","4","3","2","2","4","1","4","2","3","3","2","2","3","2","3","2","2","2","2","3","1","0","1","1","0","0","1","1","0","1","1","0","1","0","1","4","3","4","2","3","3","4","4","3","1","749636547061747713","叶","396","","","","match","","","","","","","","","","","","","","key","f","16.66468316831685","683","380","f","true","match","img/triangle.png","三角","三角","ALT1_1","prac_ALT1_1","","","","","","","","","",""
"null","<span style='color:GreenYellow; font-size: 70px;'>正确! </span>","null","html-keyboard-response","46","249748","0.0-7.0-0.0-1.0-0.0-1.18","3","3","3","3","3","3","3","3","3","4","3","2","2","4","1","4","2","3","3","2","2","3","2","3","2","2","2","2","3","1","0","1","1","0","0","1","1","0","1","1","0","1","0","1","4","3","4","2","3","3","4","4","3","1","749636547061747713","叶","396","","","","","","","","","","","","","","","","","","","","","","","","","","","","","","feedback_test","","","","","","","","","",""
"933","","f","psychophysics","47","251688","0.0-7.0-0.0-1.0-0.0-0.19","3","3","3","3","3","3","3","3","3","4","3","2","2","4","1","4","2","3","3","2","2","3","2","3","2","2","2","2","3","1","0","1","1","0","0","1","1","0","1","1","0","1","0","1","4","3","4","2","3","3","4","4","3","1","749636547061747713","叶","396","","","","match","","","","","","","","","","","","","","key","f","16.665893805309597","683","380","f","true","match","img/trapezoid.png","梯形","梯形","ALT1_1","prac_ALT1_1","","","","","","","","","",""
"null","<span style='color:GreenYellow; font-size: 70px;'>正确! </span>","null","html-keyboard-response","48","252196","0.0-7.0-0.0-1.0-0.0-1.19","3","3","3","3","3","3","3","3","3","4","3","2","2","4","1","4","2","3","3","2","2","3","2","3","2","2","2","2","3","1","0","1","1","0","0","1","1","0","1","1","0","1","0","1","4","3","4","2","3","3","4","4","3","1","749636547061747713","叶","396","","","","","","","","","","","","","","","","","","","","","","","","","","","","","","feedback_test","","","","","","","","","",""
"828","","f","psychophysics","49","254029","0.0-7.0-0.0-1.0-0.0-0.20","3","3","3","3","3","3","3","3","3","4","3","2","2","4","1","4","2","3","3","2","2","3","2","3","2","2","2","2","3","1","0","1","1","0","0","1","1","0","1","1","0","1","0","1","4","3","4","2","3","3","4","4","3","1","749636547061747713","叶","396","","","","match","","","","","","","","","","","","","","key","f","16.661398148148255","683","380","f","true","match","img/trapezoid.png","梯形","梯形","ALT1_1","prac_ALT1_1","","","","","","","","","",""
"null","<span style='color:GreenYellow; font-size: 70px;'>正确! </span>","null","html-keyboard-response","50","254533","0.0-7.0-0.0-1.0-0.0-1.20","3","3","3","3","3","3","3","3","3","4","3","2","2","4","1","4","2","3","3","2","2","3","2","3","2","2","2","2","3","1","0","1","1","0","0","1","1","0","1","1","0","1","0","1","4","3","4","2","3","3","4","4","3","1","749636547061747713","叶","396","","","","","","","","","","","","","","","","","","","","","","","","","","","","","","feedback_test","","","","","","","","","",""
"1123","","f","psychophysics","51","256663","0.0-7.0-0.0-1.0-0.0-0.21","3","3","3","3","3","3","3","3","3","4","3","2","2","4","1","4","2","3","3","2","2","3","2","3","2","2","2","2","3","1","0","1","1","0","0","1","1","0","1","1","0","1","0","1","4","3","4","2","3","3","4","4","3","1","749636547061747713","叶","396","","","","match","","","","","","","","","","","","","","key","f","16.802727999999885","683","380","f","true","match","img/hexagon.png","六边","六边","ALT1_1","prac_ALT1_1","","","","","","","","","",""
"null","<span style='color:GreenYellow; font-size: 70px;'>正确! </span>","null","html-keyboard-response","52","257166","0.0-7.0-0.0-1.0-0.0-1.21","3","3","3","3","3","3","3","3","3","4","3","2","2","4","1","4","2","3","3","2","2","3","2","3","2","2","2","2","3","1","0","1","1","0","0","1","1","0","1","1","0","1","0","1","4","3","4","2","3","3","4","4","3","1","749636547061747713","叶","396","","","","","","","","","","","","","","","","","","","","","","","","","","","","","","feedback_test","","","","","","","","","",""
"858","","j","psychophysics","53","259030","0.0-7.0-0.0-1.0-0.0-0.22","3","3","3","3","3","3","3","3","3","4","3","2","2","4","1","4","2","3","3","2","2","3","2","3","2","2","2","2","3","1","0","1","1","0","0","1","1","0","1","1","0","1","0","1","4","3","4","2","3","3","4","4","3","1","749636547061747713","叶","396","","","","nonmatch","","","","","","","","","","","","","","key","j","16.817636363636385","683","380","j","true","nonmatch","img/trapezoid.png","三角","梯形","ALT1_1","prac_ALT1_1","","","","","","","","","",""
"null","<span style='color:GreenYellow; font-size: 70px;'>正确! </span>","null","html-keyboard-response","54","259534","0.0-7.0-0.0-1.0-0.0-1.22","3","3","3","3","3","3","3","3","3","4","3","2","2","4","1","4","2","3","3","2","2","3","2","3","2","2","2","2","3","1","0","1","1","0","0","1","1","0","1","1","0","1","0","1","4","3","4","2","3","3","4","4","3","1","749636547061747713","叶","396","","","","","","","","","","","","","","","","","","","","","","","","","","","","","","feedback_test","","","","","","","","","",""
"1068","","j","psychophysics","55","261608","0.0-7.0-0.0-1.0-0.0-0.23","3","3","3","3","3","3","3","3","3","4","3","2","2","4","1","4","2","3","3","2","2","3","2","3","2","2","2","2","3","1","0","1","1","0","0","1","1","0","1","1","0","1","0","1","4","3","4","2","3","3","4","4","3","1","749636547061747713","叶","396","","","","nonmatch","","","","","","","","","","","","","","key","j","16.664704918032886","683","380","j","true","nonmatch","img/triangle.png","六边","三角","ALT1_1","prac_ALT1_1","","","","","","","","","",""
"null","<span style='color:GreenYellow; font-size: 70px;'>正确! </span>","null","html-keyboard-response","56","262110","0.0-7.0-0.0-1.0-0.0-1.23","3","3","3","3","3","3","3","3","3","4","3","2","2","4","1","4","2","3","3","2","2","3","2","3","2","2","2","2","3","1","0","1","1","0","0","1","1","0","1","1","0","1","0","1","4","3","4","2","3","3","4","4","3","1","749636547061747713","叶","396","","","","","","","","","","","","","","","","","","","","","","","","","","","","","","feedback_test","","","","","","","","","",""
"1018","","j","psychophysics","57","264138","0.0-7.0-0.0-1.0-0.0-0.24","3","3","3","3","3","3","3","3","3","4","3","2","2","4","1","4","2","3","3","2","2","3","2","3","2","2","2","2","3","1","0","1","1","0","0","1","1","0","1","1","0","1","0","1","4","3","4","2","3","3","4","4","3","1","749636547061747713","叶","396","","","","nonmatch","","","","","","","","","","","","","","key","j","16.66010833333324","683","380","j","true","nonmatch","img/circle.png","六边","圆形","ALT1_1","prac_ALT1_1","","","","","","","","","",""
"null","<span style='color:GreenYellow; font-size: 70px;'>正确! </span>","null","html-keyboard-response","58","264646","0.0-7.0-0.0-1.0-0.0-1.24","3","3","3","3","3","3","3","3","3","4","3","2","2","4","1","4","2","3","3","2","2","3","2","3","2","2","2","2","3","1","0","1","1","0","0","1","1","0","1","1","0","1","0","1","4","3","4","2","3","3","4","4","3","1","749636547061747713","叶","396","","","","","","","","","","","","","","","","","","","","","","","","","","","","","","feedback_test","","","","","","","","","",""
"960","","j","psychophysics","59","266614","0.0-7.0-0.0-1.0-0.0-0.25","3","3","3","3","3","3","3","3","3","4","3","2","2","4","1","4","2","3","3","2","2","3","2","3","2","2","2","2","3","1","0","1","1","0","0","1","1","0","1","1","0","1","0","1","4","3","4","2","3","3","4","4","3","1","749636547061747713","叶","396","","","","nonmatch","","","","","","","","","","","","","","key","j","16.66311965811934","683","380","f","false","match","img/hexagon.png","六边","六边","ALT1_1","prac_ALT1_1","","","","","","","","","",""
"null","<span style='color:red; font-size: 70px;'>错误! </span>","null","html-keyboard-response","60","267117","0.0-7.0-0.0-1.0-0.0-1.25","3","3","3","3","3","3","3","3","3","4","3","2","2","4","1","4","2","3","3","2","2","3","2","3","2","2","2","2","3","1","0","1","1","0","0","1","1","0","1","1","0","1","0","1","4","3","4","2","3","3","4","4","3","1","749636547061747713","叶","396","","","","","","","","","","","","","","","","","","","","","","","","","","","","","","feedback_test","","","","","","","","","",""
"709","","f","psychophysics","61","268831","0.0-7.0-0.0-1.0-0.0-0.26","3","3","3","3","3","3","3","3","3","4","3","2","2","4","1","4","2","3","3","2","2","3","2","3","2","2","2","2","3","1","0","1","1","0","0","1","1","0","1","1","0","1","0","1","4","3","4","2","3","3","4","4","3","1","749636547061747713","叶","396","","","","match","","","","","","","","","","","","","","key","f","16.662510000000474","683","380","f","true","match","img/triangle.png","三角","三角","ALT1_1","prac_ALT1_1","","","","","","","","","",""
"null","<span style='color:GreenYellow; font-size: 70px;'>正确! </span>","null","html-keyboard-response","62","269333","0.0-7.0-0.0-1.0-0.0-1.26","3","3","3","3","3","3","3","3","3","4","3","2","2","4","1","4","2","3","3","2","2","3","2","3","2","2","2","2","3","1","0","1","1","0","0","1","1","0","1","1","0","1","0","1","4","3","4","2","3","3","4","4","3","1","749636547061747713","叶","396","","","","","","","","","","","","","","","","","","","","","","","","","","","","","","feedback_test","","","","","","","","","",""
"887","","j","psychophysics","63","271224","0.0-7.0-0.0-1.0-0.0-0.27","3","3","3","3","3","3","3","3","3","4","3","2","2","4","1","4","2","3","3","2","2","3","2","3","2","2","2","2","3","1","0","1","1","0","0","1","1","0","1","1","0","1","0","1","4","3","4","2","3","3","4","4","3","1","749636547061747713","叶","396","","","","nonmatch","","","","","","","","","","","","","","key","j","16.664232142856886","683","380","j","true","nonmatch","img/triangle.png","圆形","三角","ALT1_1","prac_ALT1_1","","","","","","","","","",""
"null","<span style='color:GreenYellow; font-size: 70px;'>正确! </span>","null","html-keyboard-response","64","271725","0.0-7.0-0.0-1.0-0.0-1.27","3","3","3","3","3","3","3","3","3","4","3","2","2","4","1","4","2","3","3","2","2","3","2","3","2","2","2","2","3","1","0","1","1","0","0","1","1","0","1","1","0","1","0","1","4","3","4","2","3","3","4","4","3","1","749636547061747713","叶","396","","","","","","","","","","","","","","","","","","","","","","","","","","","","","","feedback_test","","","","","","","","","",""
"809","","j","psychophysics","65","273542","0.0-7.0-0.0-1.0-0.0-0.28","3","3","3","3","3","3","3","3","3","4","3","2","2","4","1","4","2","3","3","2","2","3","2","3","2","2","2","2","3","1","0","1","1","0","0","1","1","0","1","1","0","1","0","1","4","3","4","2","3","3","4","4","3","1","749636547061747713","叶","396","","","","nonmatch","","","","","","","","","","","","","","key","j","16.827214953270914","683","380","j","true","nonmatch","img/hexagon.png","圆形","六边","ALT1_1","prac_ALT1_1","","","","","","","","","",""
"null","<span style='color:GreenYellow; font-size: 70px;'>正确! </span>","null","html-keyboard-response","66","274045","0.0-7.0-0.0-1.0-0.0-1.28","3","3","3","3","3","3","3","3","3","4","3","2","2","4","1","4","2","3","3","2","2","3","2","3","2","2","2","2","3","1","0","1","1","0","0","1","1","0","1","1","0","1","0","1","4","3","4","2","3","3","4","4","3","1","749636547061747713","叶","396","","","","","","","","","","","","","","","","","","","","","","","","","","","","","","feedback_test","","","","","","","","","",""
"795","","f","psychophysics","67","275846","0.0-7.0-0.0-1.0-0.0-0.29","3","3","3","3","3","3","3","3","3","4","3","2","2","4","1","4","2","3","3","2","2","3","2","3","2","2","2","2","3","1","0","1","1","0","0","1","1","0","1","1","0","1","0","1","4","3","4","2","3","3","4","4","3","1","749636547061747713","叶","396","","","","match","","","","","","","","","","","","","","key","f","16.665999999999933","683","380","f","true","match","img/circle.png","圆形","圆形","ALT1_1","prac_ALT1_1","","","","","","","","","",""
"null","<span style='color:GreenYellow; font-size: 70px;'>正确! </span>","null","html-keyboard-response","68","276349","0.0-7.0-0.0-1.0-0.0-1.29","3","3","3","3","3","3","3","3","3","4","3","2","2","4","1","4","2","3","3","2","2","3","2","3","2","2","2","2","3","1","0","1","1","0","0","1","1","0","1","1","0","1","0","1","4","3","4","2","3","3","4","4","3","1","749636547061747713","叶","396","","","","","","","","","","","","","","","","","","","","","","","","","","","","","","feedback_test","","","","","","","","","",""
"755","","j","psychophysics","69","278110","0.0-7.0-0.0-1.0-0.0-0.30","3","3","3","3","3","3","3","3","3","4","3","2","2","4","1","4","2","3","3","2","2","3","2","3","2","2","2","2","3","1","0","1","1","0","0","1","1","0","1","1","0","1","0","1","4","3","4","2","3","3","4","4","3","1","749636547061747713","叶","396","","","","nonmatch","","","","","","","","","","","","","","key","j","16.665596153846238","683","380","j","true","nonmatch","img/circle.png","三角","圆形","ALT1_1","prac_ALT1_1","","","","","","","","","",""
"null","<span style='color:GreenYellow; font-size: 70px;'>正确! </span>","null","html-keyboard-response","70","278614","0.0-7.0-0.0-1.0-0.0-1.30","3","3","3","3","3","3","3","3","3","4","3","2","2","4","1","4","2","3","3","2","2","3","2","3","2","2","2","2","3","1","0","1","1","0","0","1","1","0","1","1","0","1","0","1","4","3","4","2","3","3","4","4","3","1","749636547061747713","叶","396","","","","","","","","","","","","","","","","","","","","","","","","","","","","","","feedback_test","","","","","","","","","",""
"720","","j","psychophysics","71","280338","0.0-7.0-0.0-1.0-0.0-0.31","3","3","3","3","3","3","3","3","3","4","3","2","2","4","1","4","2","3","3","2","2","3","2","3","2","2","2","2","3","1","0","1","1","0","0","1","1","0","1","1","0","1","0","1","4","3","4","2","3","3","4","4","3","1","749636547061747713","叶","396","","","","nonmatch","","","","","","","","","","","","","","key","j","17.00070297029699","683","380","j","true","nonmatch","img/trapezoid.png","三角","梯形","ALT1_1","prac_ALT1_1","","","","","","","","","",""
"null","<span style='color:GreenYellow; font-size: 70px;'>正确! </span>","null","html-keyboard-response","72","280846","0.0-7.0-0.0-1.0-0.0-1.31","3","3","3","3","3","3","3","3","3","4","3","2","2","4","1","4","2","3","3","2","2","3","2","3","2","2","2","2","3","1","0","1","1","0","0","1","1","0","1","1","0","1","0","1","4","3","4","2","3","3","4","4","3","1","749636547061747713","叶","396","","","","","","","","","","","","","","","","","","","","","","","","","","","","","","feedback_test","","","","","","","","","",""
"821","","j","psychophysics","73","282672","0.0-7.0-0.0-1.0-0.0-0.32","3","3","3","3","3","3","3","3","3","4","3","2","2","4","1","4","2","3","3","2","2","3","2","3","2","2","2","2","3","1","0","1","1","0","0","1","1","0","1","1","0","1","0","1","4","3","4","2","3","3","4","4","3","1","749636547061747713","叶","396","","","","nonmatch","","","","","","","","","","","","","","key","j","16.829592592592775","683","380","j","true","nonmatch","img/hexagon.png","三角","六边","ALT1_1","prac_ALT1_1","","","","","","","","","",""
"null","<span style='color:GreenYellow; font-size: 70px;'>正确! </span>","null","html-keyboard-response","74","283174","0.0-7.0-0.0-1.0-0.0-1.32","3","3","3","3","3","3","3","3","3","4","3","2","2","4","1","4","2","3","3","2","2","3","2","3","2","2","2","2","3","1","0","1","1","0","0","1","1","0","1","1","0","1","0","1","4","3","4","2","3","3","4","4","3","1","749636547061747713","叶","396","","","","","","","","","","","","","","","","","","","","","","","","","","","","","","feedback_test","","","","","","","","","",""
"800","","j","psychophysics","75","284982","0.0-7.0-0.0-1.0-0.0-0.33","3","3","3","3","3","3","3","3","3","4","3","2","2","4","1","4","2","3","3","2","2","3","2","3","2","2","2","2","3","1","0","1","1","0","0","1","1","0","1","1","0","1","0","1","4","3","4","2","3","3","4","4","3","1","749636547061747713","叶","396","","","","nonmatch","","","","","","","","","","","","","","key","j","16.82273584905625","683","380","j","true","nonmatch","img/triangle.png","六边","三角","ALT1_1","prac_ALT1_1","","","","","","","","","",""
"null","<span style='color:GreenYellow; font-size: 70px;'>正确! </span>","null","html-keyboard-response","76","285486","0.0-7.0-0.0-1.0-0.0-1.33","3","3","3","3","3","3","3","3","3","4","3","2","2","4","1","4","2","3","3","2","2","3","2","3","2","2","2","2","3","1","0","1","1","0","0","1","1","0","1","1","0","1","0","1","4","3","4","2","3","3","4","4","3","1","749636547061747713","叶","396","","","","","","","","","","","","","","","","","","","","","","","","","","","","","","feedback_test","","","","","","","","","",""
"920","","f","psychophysics","77","287413","0.0-7.0-0.0-1.0-0.0-0.34","3","3","3","3","3","3","3","3","3","4","3","2","2","4","1","4","2","3","3","2","2","3","2","3","2","2","2","2","3","1","0","1","1","0","0","1","1","0","1","1","0","1","0","1","4","3","4","2","3","3","4","4","3","1","749636547061747713","叶","396","","","","match","","","","","","","","","","","","","","key","f","16.813769911504473","683","380","f","true","match","img/hexagon.png","六边","六边","ALT1_1","prac_ALT1_1","","","","","","","","","",""
"null","<span style='color:GreenYellow; font-size: 70px;'>正确! </span>","null","html-keyboard-response","78","287918","0.0-7.0-0.0-1.0-0.0-1.34","3","3","3","3","3","3","3","3","3","4","3","2","2","4","1","4","2","3","3","2","2","3","2","3","2","2","2","2","3","1","0","1","1","0","0","1","1","0","1","1","0","1","0","1","4","3","4","2","3","3","4","4","3","1","749636547061747713","叶","396","","","","","","","","","","","","","","","","","","","","","","","","","","","","","","feedback_test","","","","","","","","","",""
"768","","f","psychophysics","79","289694","0.0-7.0-0.0-1.0-0.0-0.35","3","3","3","3","3","3","3","3","3","4","3","2","2","4","1","4","2","3","3","2","2","3","2","3","2","2","2","2","3","1","0","1","1","0","0","1","1","0","1","1","0","1","0","1","4","3","4","2","3","3","4","4","3","1","749636547061747713","叶","396","","","","match","","","","","","","","","","","","","","key","f","16.822884615384773","683","380","f","true","match","img/triangle.png","三角","三角","ALT1_1","prac_ALT1_1","","","","","","","","","",""
"null","<span style='color:GreenYellow; font-size: 70px;'>正确! </span>","null","html-keyboard-response","80","290198","0.0-7.0-0.0-1.0-0.0-1.35","3","3","3","3","3","3","3","3","3","4","3","2","2","4","1","4","2","3","3","2","2","3","2","3","2","2","2","2","3","1","0","1","1","0","0","1","1","0","1","1","0","1","0","1","4","3","4","2","3","3","4","4","3","1","749636547061747713","叶","396","","","","","","","","","","","","","","","","","","","","","","","","","","","","","","feedback_test","","","","","","","","","",""
"1134","","j","psychophysics","81","292337","0.0-7.0-0.0-1.0-0.0-0.36","3","3","3","3","3","3","3","3","3","4","3","2","2","4","1","4","2","3","3","2","2","3","2","3","2","2","2","2","3","1","0","1","1","0","0","1","1","0","1","1","0","1","0","1","4","3","4","2","3","3","4","4","3","1","749636547061747713","叶","396","","","","nonmatch","","","","","","","","","","","","","","key","j","16.6713571428568","683","380","j","true","nonmatch","img/trapezoid.png","六边","梯形","ALT1_1","prac_ALT1_1","","","","","","","","","",""
"null","<span style='color:GreenYellow; font-size: 70px;'>正确! </span>","null","html-keyboard-response","82","292845","0.0-7.0-0.0-1.0-0.0-1.36","3","3","3","3","3","3","3","3","3","4","3","2","2","4","1","4","2","3","3","2","2","3","2","3","2","2","2","2","3","1","0","1","1","0","0","1","1","0","1","1","0","1","0","1","4","3","4","2","3","3","4","4","3","1","749636547061747713","叶","396","","","","","","","","","","","","","","","","","","","","","","","","","","","","","","feedback_test","","","","","","","","","",""
"1087","","f","psychophysics","83","294937","0.0-7.0-0.0-1.0-0.0-0.37","3","3","3","3","3","3","3","3","3","4","3","2","2","4","1","4","2","3","3","2","2","3","2","3","2","2","2","2","3","1","0","1","1","0","0","1","1","0","1","1","0","1","0","1","4","3","4","2","3","3","4","4","3","1","749636547061747713","叶","396","","","","match","","","","","","","","","","","","","","key","f","16.801780487804926","683","380","f","true","match","img/trapezoid.png","梯形","梯形","ALT1_1","prac_ALT1_1","","","","","","","","","",""
"null","<span style='color:GreenYellow; font-size: 70px;'>正确! </span>","null","html-keyboard-response","84","295445","0.0-7.0-0.0-1.0-0.0-1.37","3","3","3","3","3","3","3","3","3","4","3","2","2","4","1","4","2","3","3","2","2","3","2","3","2","2","2","2","3","1","0","1","1","0","0","1","1","0","1","1","0","1","0","1","4","3","4","2","3","3","4","4","3","1","749636547061747713","叶","396","","","","","","","","","","","","","","","","","","","","","","","","","","","","","","feedback_test","","","","","","","","","",""
"686","","j","psychophysics","85","297137","0.0-7.0-0.0-1.0-0.0-0.38","3","3","3","3","3","3","3","3","3","4","3","2","2","4","1","4","2","3","3","2","2","3","2","3","2","2","2","2","3","1","0","1","1","0","0","1","1","0","1","1","0","1","0","1","4","3","4","2","3","3","4","4","3","1","749636547061747713","叶","396","","","","nonmatch","","","","","","","","","","","","","","key","j","16.839280000000144","683","380","j","true","nonmatch","img/trapezoid.png","圆形","梯形","ALT1_1","prac_ALT1_1","","","","","","","","","",""
"null","<span style='color:GreenYellow; font-size: 70px;'>正确! </span>","null","html-keyboard-response","86","297645","0.0-7.0-0.0-1.0-0.0-1.38","3","3","3","3","3","3","3","3","3","4","3","2","2","4","1","4","2","3","3","2","2","3","2","3","2","2","2","2","3","1","0","1","1","0","0","1","1","0","1","1","0","1","0","1","4","3","4","2","3","3","4","4","3","1","749636547061747713","叶","396","","","","","","","","","","","","","","","","","","","","","","","","","","","","","","feedback_test","","","","","","","","","",""
"684","","f","psychophysics","87","299337","0.0-7.0-0.0-1.0-0.0-0.39","3","3","3","3","3","3","3","3","3","4","3","2","2","4","1","4","2","3","3","2","2","3","2","3","2","2","2","2","3","1","0","1","1","0","0","1","1","0","1","1","0","1","0","1","4","3","4","2","3","3","4","4","3","1","749636547061747713","叶","396","","","","match","","","","","","","","","","","","","","key","f","16.655514851485098","683","380","f","true","match","img/triangle.png","三角","三角","ALT1_1","prac_ALT1_1","","","","","","","","","",""
"null","<span style='color:GreenYellow; font-size: 70px;'>正确! </span>","null","html-keyboard-response","88","299845","0.0-7.0-0.0-1.0-0.0-1.39","3","3","3","3","3","3","3","3","3","4","3","2","2","4","1","4","2","3","3","2","2","3","2","3","2","2","2","2","3","1","0","1","1","0","0","1","1","0","1","1","0","1","0","1","4","3","4","2","3","3","4","4","3","1","749636547061747713","叶","396","","","","","","","","","","","","","","","","","","","","","","","","","","","","","","feedback_test","","","","","","","","","",""
"787","","f","psychophysics","89","301671","0.0-7.0-0.0-1.0-0.0-0.40","3","3","3","3","3","3","3","3","3","4","3","2","2","4","1","4","2","3","3","2","2","3","2","3","2","2","2","2","3","1","0","1","1","0","0","1","1","0","1","1","0","1","0","1","4","3","4","2","3","3","4","4","3","1","749636547061747713","叶","396","","","","match","","","","","","","","","","","","","","key","f","16.668271028037427","683","380","f","true","match","img/circle.png","圆形","圆形","ALT1_1","prac_ALT1_1","","","","","","","","","",""
"null","<span style='color:GreenYellow; font-size: 70px;'>正确! </span>","null","html-keyboard-response","90","302173","0.0-7.0-0.0-1.0-0.0-1.40","3","3","3","3","3","3","3","3","3","4","3","2","2","4","1","4","2","3","3","2","2","3","2","3","2","2","2","2","3","1","0","1","1","0","0","1","1","0","1","1","0","1","0","1","4","3","4","2","3","3","4","4","3","1","749636547061747713","叶","396","","","","","","","","","","","","","","","","","","","","","","","","","","","","","","feedback_test","","","","","","","","","",""
"null","","null","psychophysics","91","304385","0.0-7.0-0.0-1.0-0.0-0.41","3","3","3","3","3","3","3","3","3","4","3","2","2","4","1","4","2","3","3","2","2","3","2","3","2","2","2","2","3","1","0","1","1","0","0","1","1","0","1","1","0","1","0","1","4","3","4","2","3","3","4","4","3","1","749636547061747713","叶","396","","","","null","","","","","","","","","","","","","","key","null","16.66585496183172","683","380","j","false","nonmatch","img/hexagon.png","梯形","六边","ALT1_1","prac_ALT1_1","","","","","","","","","",""
"null","<span class='add_' style='color:yellow; font-size: 70px;'> 太慢! </span>","null","html-keyboard-response","92","304894","0.0-7.0-0.0-1.0-0.0-1.41","3","3","3","3","3","3","3","3","3","4","3","2","2","4","1","4","2","3","3","2","2","3","2","3","2","2","2","2","3","1","0","1","1","0","0","1","1","0","1","1","0","1","0","1","4","3","4","2","3","3","4","4","3","1","749636547061747713","叶","396","","","","","","","","","","","","","","","","","","","","","","","","","","","","","","feedback_test","","","","","","","","","",""
"911","","j","psychophysics","93","306813","0.0-7.0-0.0-1.0-0.0-0.42","3","3","3","3","3","3","3","3","3","4","3","2","2","4","1","4","2","3","3","2","2","3","2","3","2","2","2","2","3","1","0","1","1","0","0","1","1","0","1","1","0","1","0","1","4","3","4","2","3","3","4","4","3","1","749636547061747713","叶","396","","","","nonmatch","","","","","","","","","","","","","","key","j","16.663991228070238","683","380","j","true","nonmatch","img/circle.png","梯形","圆形","ALT1_1","prac_ALT1_1","","","","","","","","","",""
"null","<span style='color:GreenYellow; font-size: 70px;'>正确! </span>","null","html-keyboard-response","94","307318","0.0-7.0-0.0-1.0-0.0-1.42","3","3","3","3","3","3","3","3","3","4","3","2","2","4","1","4","2","3","3","2","2","3","2","3","2","2","2","2","3","1","0","1","1","0","0","1","1","0","1","1","0","1","0","1","4","3","4","2","3","3","4","4","3","1","749636547061747713","叶","396","","","","","","","","","","","","","","","","","","","","","","","","","","","","","","feedback_test","","","","","","","","","",""
"843","","j","psychophysics","95","309169","0.0-7.0-0.0-1.0-0.0-0.43","3","3","3","3","3","3","3","3","3","4","3","2","2","4","1","4","2","3","3","2","2","3","2","3","2","2","2","2","3","1","0","1","1","0","0","1","1","0","1","1","0","1","0","1","4","3","4","2","3","3","4","4","3","1","749636547061747713","叶","396","","","","nonmatch","","","","","","","","","","","","","","key","j","16.660165137614534","683","380","j","true","nonmatch","img/triangle.png","梯形","三角","ALT1_1","prac_ALT1_1","","","","","","","","","",""
"null","<span style='color:GreenYellow; font-size: 70px;'>正确! </span>","null","html-keyboard-response","96","309678","0.0-7.0-0.0-1.0-0.0-1.43","3","3","3","3","3","3","3","3","3","4","3","2","2","4","1","4","2","3","3","2","2","3","2","3","2","2","2","2","3","1","0","1","1","0","0","1","1","0","1","1","0","1","0","1","4","3","4","2","3","3","4","4","3","1","749636547061747713","叶","396","","","","","","","","","","","","","","","","","","","","","","","","","","","","","","feedback_test","","","","","","","","","",""
"857","","f","psychophysics","97","311541","0.0-7.0-0.0-1.0-0.0-0.44","3","3","3","3","3","3","3","3","3","4","3","2","2","4","1","4","2","3","3","2","2","3","2","3","2","2","2","2","3","1","0","1","1","0","0","1","1","0","1","1","0","1","0","1","4","3","4","2","3","3","4","4","3","1","749636547061747713","叶","396","","","","match","","","","","","","","","","","","","","key","f","16.66370909090937","683","380","f","true","match","img/hexagon.png","六边","六边","ALT1_1","prac_ALT1_1","","","","","","","","","",""
"null","<span style='color:GreenYellow; font-size: 70px;'>正确! </span>","null","html-keyboard-response","98","312046","0.0-7.0-0.0-1.0-0.0-1.44","3","3","3","3","3","3","3","3","3","4","3","2","2","4","1","4","2","3","3","2","2","3","2","3","2","2","2","2","3","1","0","1","1","0","0","1","1","0","1","1","0","1","0","1","4","3","4","2","3","3","4","4","3","1","749636547061747713","叶","396","","","","","","","","","","","","","","","","","","","","","","","","","","","","","","feedback_test","","","","","","","","","",""
"997","","f","psychophysics","99","314045","0.0-7.0-0.0-1.0-0.0-0.45","3","3","3","3","3","3","3","3","3","4","3","2","2","4","1","4","2","3","3","2","2","3","2","3","2","2","2","2","3","1","0","1","1","0","0","1","1","0","1","1","0","1","0","1","4","3","4","2","3","3","4","4","3","1","749636547061747713","叶","396","","","","match","","","","","","","","","","","","","","key","f","16.660731092436794","683","380","f","true","match","img/trapezoid.png","梯形","梯形","ALT1_1","prac_ALT1_1","","","","","","","","","",""
"null","<span style='color:GreenYellow; font-size: 70px;'>正确! </span>","null","html-keyboard-response","100","314550","0.0-7.0-0.0-1.0-0.0-1.45","3","3","3","3","3","3","3","3","3","4","3","2","2","4","1","4","2","3","3","2","2","3","2","3","2","2","2","2","3","1","0","1","1","0","0","1","1","0","1","1","0","1","0","1","4","3","4","2","3","3","4","4","3","1","749636547061747713","叶","396","","","","","","","","","","","","","","","","","","","","","","","","","","","","","","feedback_test","","","","","","","","","",""
"821","","f","psychophysics","101","316375","0.0-7.0-0.0-1.0-0.0-0.46","3","3","3","3","3","3","3","3","3","4","3","2","2","4","1","4","2","3","3","2","2","3","2","3","2","2","2","2","3","1","0","1","1","0","0","1","1","0","1","1","0","1","0","1","4","3","4","2","3","3","4","4","3","1","749636547061747713","叶","396","","","","match","","","","","","","","","","","","","","key","f","16.671148148148117","683","380","f","true","match","img/trapezoid.png","梯形","梯形","ALT1_1","prac_ALT1_1","","","","","","","","","",""
"null","<span style='color:GreenYellow; font-size: 70px;'>正确! </span>","null","html-keyboard-response","102","316880","0.0-7.0-0.0-1.0-0.0-1.46","3","3","3","3","3","3","3","3","3","4","3","2","2","4","1","4","2","3","3","2","2","3","2","3","2","2","2","2","3","1","0","1","1","0","0","1","1","0","1","1","0","1","0","1","4","3","4","2","3","3","4","4","3","1","749636547061747713","叶","396","","","","","","","","","","","","","","","","","","","","","","","","","","","","","","feedback_test","","","","","","","","","",""
"720","","f","psychophysics","103","318607","0.0-7.0-0.0-1.0-0.0-0.47","3","3","3","3","3","3","3","3","3","4","3","2","2","4","1","4","2","3","3","2","2","3","2","3","2","2","2","2","3","1","0","1","1","0","0","1","1","0","1","1","0","1","0","1","4","3","4","2","3","3","4","4","3","1","749636547061747713","叶","396","","","","match","","","","","","","","","","","","","","key","f","16.669911764705937","683","380","f","true","match","img/circle.png","圆形","圆形","ALT1_1","prac_ALT1_1","","","","","","","","","",""
"null","<span style='color:GreenYellow; font-size: 70px;'>正确! </span>","null","html-keyboard-response","104","319111","0.0-7.0-0.0-1.0-0.0-1.47","3","3","3","3","3","3","3","3","3","4","3","2","2","4","1","4","2","3","3","2","2","3","2","3","2","2","2","2","3","1","0","1","1","0","0","1","1","0","1","1","0","1","0","1","4","3","4","2","3","3","4","4","3","1","749636547061747713","叶","396","","","","","","","","","","","","","","","","","","","","","","","","","","","","","","feedback_test","","","","","","","","","",""
"9233","<style>.context{color:white; font-size: 35px; line-height:40px}</style>                            <div><p class='context'>您正确回答了94% 的试次。</p><p class='context'>您的平均反应时为872毫秒。</p><p class='context'>恭喜您完成练习。按空格键进入正式实验。</p><p class='footer' style='font-size: 35px; line-height:40px;'>请在进入正式实验之前将您的<span style='color: lightgreen;'>食指</span>放在电脑键盘的相应键位上进行按键。</p>"," ","html-keyboard-response","105","328352","0.0-7.0-0.0-2.0","3","3","3","3","3","3","3","3","3","4","3","2","2","4","1","4","2","3","3","2","2","3","2","3","2","2","2","2","3","1","0","1","1","0","0","1","1","0","1","1","0","1","0","1","4","3","4","2","3","3","4","4","3","1","749636547061747713","叶","396","","","","","","","","","","","","","","","","","","","","","","","","","","","","","","","","","","","","","","","",""
"1807","
    <p style='color: white; font-size: 22px'>请您将手指放在按键上，准备进入正式的匹配任务。</p>
    <p> <div style = ""color: green""><按空格键进入下一阶段的匹配任务></div></p>
    "," ","html-keyboard-response","106","330167","0.0-7.0-0.0-3.0","3","3","3","3","3","3","3","3","3","4","3","2","2","4","1","4","2","3","3","2","2","3","2","3","2","2","2","2","3","1","0","1","1","0","0","1","1","0","1","1","0","1","0","1","4","3","4","2","3","3","4","4","3","1","749636547061747713","叶","396","","","","","","","","","","","","","","","","","","","","","","","","","","","","","","","","","","","","","","","",""
"764","","f","psychophysics","107","331955","0.0-7.0-0.0-4.0-0.0-0.0","3","3","3","3","3","3","3","3","3","4","3","2","2","4","1","4","2","3","3","2","2","3","2","3","2","2","2","2","3","1","0","1","1","0","0","1","1","0","1","1","0","1","0","1","4","3","4","2","3","3","4","4","3","1","749636547061747713","叶","396","","","","match","","","","","","","","","","","","","","key","f","16.6686320754717","683","380","f","true","match","img/circle.png","圆形","圆形","ALT1","formal_ALT1_1","","","","","","","","","",""
"null","<span style='color:GreenYellow; font-size: 70px;'>正确! </span>","null","html-keyboard-response","108","332463","0.0-7.0-0.0-4.0-0.0-1.0","3","3","3","3","3","3","3","3","3","4","3","2","2","4","1","4","2","3","3","2","2","3","2","3","2","2","2","2","3","1","0","1","1","0","0","1","1","0","1","1","0","1","0","1","4","3","4","2","3","3","4","4","3","1","749636547061747713","叶","396","","","","","","","","","","","","","","","","","","","","","","","","","","","","","","feedback_test","","","","","","","","","",""
"593","","f","psychophysics","109","334062","0.0-7.0-0.0-4.0-0.0-0.1","3","3","3","3","3","3","3","3","3","4","3","2","2","4","1","4","2","3","3","2","2","3","2","3","2","2","2","2","3","1","0","1","1","0","0","1","1","0","1","1","0","1","0","1","4","3","4","2","3","3","4","4","3","1","749636547061747713","叶","396","","","","match","","","","","","","","","","","","","","key","f","16.84771276595742","683","380","f","true","match","img/triangle.png","三角","三角","ALT1","formal_ALT1_1","","","","","","","","","",""
"null","<span style='color:GreenYellow; font-size: 70px;'>正确! </span>","null","html-keyboard-response","110","334567","0.0-7.0-0.0-4.0-0.0-1.1","3","3","3","3","3","3","3","3","3","4","3","2","2","4","1","4","2","3","3","2","2","3","2","3","2","2","2","2","3","1","0","1","1","0","0","1","1","0","1","1","0","1","0","1","4","3","4","2","3","3","4","4","3","1","749636547061747713","叶","396","","","","","","","","","","","","","","","","","","","","","","","","","","","","","","feedback_test","","","","","","","","","",""
"712","","j","psychophysics","111","336287","0.0-7.0-0.0-4.0-0.0-0.2","3","3","3","3","3","3","3","3","3","4","3","2","2","4","1","4","2","3","3","2","2","3","2","3","2","2","2","2","3","1","0","1","1","0","0","1","1","0","1","1","0","1","0","1","4","3","4","2","3","3","4","4","3","1","749636547061747713","叶","396","","","","nonmatch","","","","","","","","","","","","","","key","j","16.666623762375927","683","380","j","true","nonmatch","img/trapezoid.png","三角","梯形","ALT1","formal_ALT1_1","","","","","","","","","",""
"null","<span style='color:GreenYellow; font-size: 70px;'>正确! </span>","null","html-keyboard-response","112","336792","0.0-7.0-0.0-4.0-0.0-1.2","3","3","3","3","3","3","3","3","3","4","3","2","2","4","1","4","2","3","3","2","2","3","2","3","2","2","2","2","3","1","0","1","1","0","0","1","1","0","1","1","0","1","0","1","4","3","4","2","3","3","4","4","3","1","749636547061747713","叶","396","","","","","","","","","","","","","","","","","","","","","","","","","","","","","","feedback_test","","","","","","","","","",""
"945","","j","psychophysics","113","338743","0.0-7.0-0.0-4.0-0.0-0.3","3","3","3","3","3","3","3","3","3","4","3","2","2","4","1","4","2","3","3","2","2","3","2","3","2","2","2","2","3","1","0","1","1","0","0","1","1","0","1","1","0","1","0","1","4","3","4","2","3","3","4","4","3","1","749636547061747713","叶","396","","","","nonmatch","","","","","","","","","","","","","","key","j","16.80798260869519","683","380","j","true","nonmatch","img/hexagon.png","梯形","六边","ALT1","formal_ALT1_1","","","","","","","","","",""
"null","<span style='color:GreenYellow; font-size: 70px;'>正确! </span>","null","html-keyboard-response","114","339248","0.0-7.0-0.0-4.0-0.0-1.3","3","3","3","3","3","3","3","3","3","4","3","2","2","4","1","4","2","3","3","2","2","3","2","3","2","2","2","2","3","1","0","1","1","0","0","1","1","0","1","1","0","1","0","1","4","3","4","2","3","3","4","4","3","1","749636547061747713","叶","396","","","","","","","","","","","","","","","","","","","","","","","","","","","","","","feedback_test","","","","","","","","","",""
"907","","j","psychophysics","115","341159","0.0-7.0-0.0-4.0-0.0-0.4","3","3","3","3","3","3","3","3","3","4","3","2","2","4","1","4","2","3","3","2","2","3","2","3","2","2","2","2","3","1","0","1","1","0","0","1","1","0","1","1","0","1","0","1","4","3","4","2","3","3","4","4","3","1","749636547061747713","叶","396","","","","nonmatch","","","","","","","","","","","","","","key","j","16.814116071428412","683","380","j","true","nonmatch","img/circle.png","六边","圆形","ALT1","formal_ALT1_1","","","","","","","","","",""
"null","<span style='color:GreenYellow; font-size: 70px;'>正确! </span>","null","html-keyboard-response","116","341664","0.0-7.0-0.0-4.0-0.0-1.4","3","3","3","3","3","3","3","3","3","4","3","2","2","4","1","4","2","3","3","2","2","3","2","3","2","2","2","2","3","1","0","1","1","0","0","1","1","0","1","1","0","1","0","1","4","3","4","2","3","3","4","4","3","1","749636547061747713","叶","396","","","","","","","","","","","","","","","","","","","","","","","","","","","","","","feedback_test","","","","","","","","","",""
"771","","f","psychophysics","117","343439","0.0-7.0-0.0-4.0-0.0-0.5","3","3","3","3","3","3","3","3","3","4","3","2","2","4","1","4","2","3","3","2","2","3","2","3","2","2","2","2","3","1","0","1","1","0","0","1","1","0","1","1","0","1","0","1","4","3","4","2","3","3","4","4","3","1","749636547061747713","叶","396","","","","match","","","","","","","","","","","","","","key","f","16.822182692307532","683","380","f","true","match","img/trapezoid.png","梯形","梯形","ALT1","formal_ALT1_1","","","","","","","","","",""
"null","<span style='color:GreenYellow; font-size: 70px;'>正确! </span>","null","html-keyboard-response","118","343944","0.0-7.0-0.0-4.0-0.0-1.5","3","3","3","3","3","3","3","3","3","4","3","2","2","4","1","4","2","3","3","2","2","3","2","3","2","2","2","2","3","1","0","1","1","0","0","1","1","0","1","1","0","1","0","1","4","3","4","2","3","3","4","4","3","1","749636547061747713","叶","396","","","","","","","","","","","","","","","","","","","","","","","","","","","","","","feedback_test","","","","","","","","","",""
"761","","j","psychophysics","119","345710","0.0-7.0-0.0-4.0-0.0-0.6","3","3","3","3","3","3","3","3","3","4","3","2","2","4","1","4","2","3","3","2","2","3","2","3","2","2","2","2","3","1","0","1","1","0","0","1","1","0","1","1","0","1","0","1","4","3","4","2","3","3","4","4","3","1","749636547061747713","叶","396","","","","nonmatch","","","","","","","","","","","","","","key","j","16.666923809523826","683","380","j","true","nonmatch","img/circle.png","梯形","圆形","ALT1","formal_ALT1_1","","","","","","","","","",""
"null","<span style='color:GreenYellow; font-size: 70px;'>正确! </span>","null","html-keyboard-response","120","346215","0.0-7.0-0.0-4.0-0.0-1.6","3","3","3","3","3","3","3","3","3","4","3","2","2","4","1","4","2","3","3","2","2","3","2","3","2","2","2","2","3","1","0","1","1","0","0","1","1","0","1","1","0","1","0","1","4","3","4","2","3","3","4","4","3","1","749636547061747713","叶","396","","","","","","","","","","","","","","","","","","","","","","","","","","","","","","feedback_test","","","","","","","","","",""
"941","","f","psychophysics","121","348159","0.0-7.0-0.0-4.0-0.0-0.7","3","3","3","3","3","3","3","3","3","4","3","2","2","4","1","4","2","3","3","2","2","3","2","3","2","2","2","2","3","1","0","1","1","0","0","1","1","0","1","1","0","1","0","1","4","3","4","2","3","3","4","4","3","1","749636547061747713","叶","396","","","","match","","","","","","","","","","","","","","key","f","16.814754385964765","683","380","f","true","match","img/circle.png","圆形","圆形","ALT1","formal_ALT1_1","","","","","","","","","",""
"null","<span style='color:GreenYellow; font-size: 70px;'>正确! </span>","null","html-keyboard-response","122","348663","0.0-7.0-0.0-4.0-0.0-1.7","3","3","3","3","3","3","3","3","3","4","3","2","2","4","1","4","2","3","3","2","2","3","2","3","2","2","2","2","3","1","0","1","1","0","0","1","1","0","1","1","0","1","0","1","4","3","4","2","3","3","4","4","3","1","749636547061747713","叶","396","","","","","","","","","","","","","","","","","","","","","","","","","","","","","","feedback_test","","","","","","","","","",""
"867","","j","psychophysics","123","350535","0.0-7.0-0.0-4.0-0.0-0.8","3","3","3","3","3","3","3","3","3","4","3","2","2","4","1","4","2","3","3","2","2","3","2","3","2","2","2","2","3","1","0","1","1","0","0","1","1","0","1","1","0","1","0","1","4","3","4","2","3","3","4","4","3","1","749636547061747713","叶","396","","","","nonmatch","","","","","","","","","","","","","","key","j","16.958290909091012","683","380","j","true","nonmatch","img/triangle.png","六边","三角","ALT1","formal_ALT1_1","","","","","","","","","",""
"null","<span style='color:GreenYellow; font-size: 70px;'>正确! </span>","null","html-keyboard-response","124","351039","0.0-7.0-0.0-4.0-0.0-1.8","3","3","3","3","3","3","3","3","3","4","3","2","2","4","1","4","2","3","3","2","2","3","2","3","2","2","2","2","3","1","0","1","1","0","0","1","1","0","1","1","0","1","0","1","4","3","4","2","3","3","4","4","3","1","749636547061747713","叶","396","","","","","","","","","","","","","","","","","","","","","","","","","","","","","","feedback_test","","","","","","","","","",""
"937","","f","psychophysics","125","352986","0.0-7.0-0.0-4.0-0.0-0.9","3","3","3","3","3","3","3","3","3","4","3","2","2","4","1","4","2","3","3","2","2","3","2","3","2","2","2","2","3","1","0","1","1","0","0","1","1","0","1","1","0","1","0","1","4","3","4","2","3","3","4","4","3","1","749636547061747713","叶","396","","","","match","","","","","","","","","","","","","","key","f","16.66643965517267","683","380","f","true","match","img/hexagon.png","六边","六边","ALT1","formal_ALT1_1","","","","","","","","","",""
"null","<span style='color:GreenYellow; font-size: 70px;'>正确! </span>","null","html-keyboard-response","126","353487","0.0-7.0-0.0-4.0-0.0-1.9","3","3","3","3","3","3","3","3","3","4","3","2","2","4","1","4","2","3","3","2","2","3","2","3","2","2","2","2","3","1","0","1","1","0","0","1","1","0","1","1","0","1","0","1","4","3","4","2","3","3","4","4","3","1","749636547061747713","叶","396","","","","","","","","","","","","","","","","","","","","","","","","","","","","","","feedback_test","","","","","","","","","",""
"747","","j","psychophysics","127","355270","0.0-7.0-0.0-4.0-0.0-0.10","3","3","3","3","3","3","3","3","3","4","3","2","2","4","1","4","2","3","3","2","2","3","2","3","2","2","2","2","3","1","0","1","1","0","0","1","1","0","1","1","0","1","0","1","4","3","4","2","3","3","4","4","3","1","749636547061747713","叶","396","","","","nonmatch","","","","","","","","","","","","","","key","j","16.829799999999594","683","380","j","true","nonmatch","img/hexagon.png","圆形","六边","ALT1","formal_ALT1_1","","","","","","","","","",""
"null","<span style='color:GreenYellow; font-size: 70px;'>正确! </span>","null","html-keyboard-response","128","355775","0.0-7.0-0.0-4.0-0.0-1.10","3","3","3","3","3","3","3","3","3","4","3","2","2","4","1","4","2","3","3","2","2","3","2","3","2","2","2","2","3","1","0","1","1","0","0","1","1","0","1","1","0","1","0","1","4","3","4","2","3","3","4","4","3","1","749636547061747713","叶","396","","","","","","","","","","","","","","","","","","","","","","","","","","","","","","feedback_test","","","","","","","","","",""
"825","","j","psychophysics","129","357606","0.0-7.0-0.0-4.0-0.0-0.11","3","3","3","3","3","3","3","3","3","4","3","2","2","4","1","4","2","3","3","2","2","3","2","3","2","2","2","2","3","1","0","1","1","0","0","1","1","0","1","1","0","1","0","1","4","3","4","2","3","3","4","4","3","1","749636547061747713","叶","396","","","","nonmatch","","","","","","","","","","","","","","key","j","16.67384112149501","683","380","j","true","nonmatch","img/hexagon.png","三角","六边","ALT1","formal_ALT1_1","","","","","","","","","",""
"null","<span style='color:GreenYellow; font-size: 70px;'>正确! </span>","null","html-keyboard-response","130","358111","0.0-7.0-0.0-4.0-0.0-1.11","3","3","3","3","3","3","3","3","3","4","3","2","2","4","1","4","2","3","3","2","2","3","2","3","2","2","2","2","3","1","0","1","1","0","0","1","1","0","1","1","0","1","0","1","4","3","4","2","3","3","4","4","3","1","749636547061747713","叶","396","","","","","","","","","","","","","","","","","","","","","","","","","","","","","","feedback_test","","","","","","","","","",""
"1041","","j","psychophysics","131","360158","0.0-7.0-0.0-4.0-0.0-0.12","3","3","3","3","3","3","3","3","3","4","3","2","2","4","1","4","2","3","3","2","2","3","2","3","2","2","2","2","3","1","0","1","1","0","0","1","1","0","1","1","0","1","0","1","4","3","4","2","3","3","4","4","3","1","749636547061747713","叶","396","","","","nonmatch","","","","","","","","","","","","","","key","j","16.801107438016597","683","380","j","true","nonmatch","img/trapezoid.png","六边","梯形","ALT1","formal_ALT1_1","","","","","","","","","",""
"null","<span style='color:GreenYellow; font-size: 70px;'>正确! </span>","null","html-keyboard-response","132","360663","0.0-7.0-0.0-4.0-0.0-1.12","3","3","3","3","3","3","3","3","3","4","3","2","2","4","1","4","2","3","3","2","2","3","2","3","2","2","2","2","3","1","0","1","1","0","0","1","1","0","1","1","0","1","0","1","4","3","4","2","3","3","4","4","3","1","749636547061747713","叶","396","","","","","","","","","","","","","","","","","","","","","","","","","","","","","","feedback_test","","","","","","","","","",""
"724","","j","psychophysics","133","362390","0.0-7.0-0.0-4.0-0.0-0.13","3","3","3","3","3","3","3","3","3","4","3","2","2","4","1","4","2","3","3","2","2","3","2","3","2","2","2","2","3","1","0","1","1","0","0","1","1","0","1","1","0","1","0","1","4","3","4","2","3","3","4","4","3","1","749636547061747713","叶","396","","","","nonmatch","","","","","","","","","","","","","","key","j","16.83441584158428","683","380","j","true","nonmatch","img/circle.png","三角","圆形","ALT1","formal_ALT1_1","","","","","","","","","",""
"null","<span style='color:GreenYellow; font-size: 70px;'>正确! </span>","null","html-keyboard-response","134","362895","0.0-7.0-0.0-4.0-0.0-1.13","3","3","3","3","3","3","3","3","3","4","3","2","2","4","1","4","2","3","3","2","2","3","2","3","2","2","2","2","3","1","0","1","1","0","0","1","1","0","1","1","0","1","0","1","4","3","4","2","3","3","4","4","3","1","749636547061747713","叶","396","","","","","","","","","","","","","","","","","","","","","","","","","","","","","","feedback_test","","","","","","","","","",""
"701","","f","psychophysics","135","364601","0.0-7.0-0.0-4.0-0.0-0.14","3","3","3","3","3","3","3","3","3","4","3","2","2","4","1","4","2","3","3","2","2","3","2","3","2","2","2","2","3","1","0","1","1","0","0","1","1","0","1","1","0","1","0","1","4","3","4","2","3","3","4","4","3","1","749636547061747713","叶","396","","","","match","","","","","","","","","","","","","","key","f","16.666840000000082","683","380","f","true","match","img/trapezoid.png","梯形","梯形","ALT1","formal_ALT1_1","","","","","","","","","",""
"null","<span style='color:GreenYellow; font-size: 70px;'>正确! </span>","null","html-keyboard-response","136","365112","0.0-7.0-0.0-4.0-0.0-1.14","3","3","3","3","3","3","3","3","3","4","3","2","2","4","1","4","2","3","3","2","2","3","2","3","2","2","2","2","3","1","0","1","1","0","0","1","1","0","1","1","0","1","0","1","4","3","4","2","3","3","4","4","3","1","749636547061747713","叶","396","","","","","","","","","","","","","","","","","","","","","","","","","","","","","","feedback_test","","","","","","","","","",""
"657","","f","psychophysics","137","366774","0.0-7.0-0.0-4.0-0.0-0.15","3","3","3","3","3","3","3","3","3","4","3","2","2","4","1","4","2","3","3","2","2","3","2","3","2","2","2","2","3","1","0","1","1","0","0","1","1","0","1","1","0","1","0","1","4","3","4","2","3","3","4","4","3","1","749636547061747713","叶","396","","","","match","","","","","","","","","","","","","","key","f","16.674275510203763","683","380","f","true","match","img/circle.png","圆形","圆形","ALT1","formal_ALT1_1","","","","","","","","","",""
"null","<span style='color:GreenYellow; font-size: 70px;'>正确! </span>","null","html-keyboard-response","138","367280","0.0-7.0-0.0-4.0-0.0-1.15","3","3","3","3","3","3","3","3","3","4","3","2","2","4","1","4","2","3","3","2","2","3","2","3","2","2","2","2","3","1","0","1","1","0","0","1","1","0","1","1","0","1","0","1","4","3","4","2","3","3","4","4","3","1","749636547061747713","叶","396","","","","","","","","","","","","","","","","","","","","","","","","","","","","","","feedback_test","","","","","","","","","",""
"772","","j","psychophysics","139","369054","0.0-7.0-0.0-4.0-0.0-0.16","3","3","3","3","3","3","3","3","3","4","3","2","2","4","1","4","2","3","3","2","2","3","2","3","2","2","2","2","3","1","0","1","1","0","0","1","1","0","1","1","0","1","0","1","4","3","4","2","3","3","4","4","3","1","749636547061747713","叶","396","","","","nonmatch","","","","","","","","","","","","","","key","j","16.67104761904782","683","380","j","true","nonmatch","img/triangle.png","梯形","三角","ALT1","formal_ALT1_1","","","","","","","","","",""
"null","<span style='color:GreenYellow; font-size: 70px;'>正确! </span>","null","html-keyboard-response","140","369560","0.0-7.0-0.0-4.0-0.0-1.16","3","3","3","3","3","3","3","3","3","4","3","2","2","4","1","4","2","3","3","2","2","3","2","3","2","2","2","2","3","1","0","1","1","0","0","1","1","0","1","1","0","1","0","1","4","3","4","2","3","3","4","4","3","1","749636547061747713","叶","396","","","","","","","","","","","","","","","","","","","","","","","","","","","","","","feedback_test","","","","","","","","","",""
"778","","f","psychophysics","141","371342","0.0-7.0-0.0-4.0-0.0-0.17","3","3","3","3","3","3","3","3","3","4","3","2","2","4","1","4","2","3","3","2","2","3","2","3","2","2","2","2","3","1","0","1","1","0","0","1","1","0","1","1","0","1","0","1","4","3","4","2","3","3","4","4","3","1","749636547061747713","叶","396","","","","match","","","","","","","","","","","","","","key","f","16.6706923076921","683","380","f","true","match","img/trapezoid.png","梯形","梯形","ALT1","formal_ALT1_1","","","","","","","","","",""
"null","<span style='color:GreenYellow; font-size: 70px;'>正确! </span>","null","html-keyboard-response","142","371848","0.0-7.0-0.0-4.0-0.0-1.17","3","3","3","3","3","3","3","3","3","4","3","2","2","4","1","4","2","3","3","2","2","3","2","3","2","2","2","2","3","1","0","1","1","0","0","1","1","0","1","1","0","1","0","1","4","3","4","2","3","3","4","4","3","1","749636547061747713","叶","396","","","","","","","","","","","","","","","","","","","","","","","","","","","","","","feedback_test","","","","","","","","","",""
"836","","f","psychophysics","143","373686","0.0-7.0-0.0-4.0-0.0-0.18","3","3","3","3","3","3","3","3","3","4","3","2","2","4","1","4","2","3","3","2","2","3","2","3","2","2","2","2","3","1","0","1","1","0","0","1","1","0","1","1","0","1","0","1","4","3","4","2","3","3","4","4","3","1","749636547061747713","叶","396","","","","match","","","","","","","","","","","","","","key","f","16.66622935779822","683","380","f","true","match","img/hexagon.png","六边","六边","ALT1","formal_ALT1_1","","","","","","","","","",""
"null","<span style='color:GreenYellow; font-size: 70px;'>正确! </span>","null","html-keyboard-response","144","374191","0.0-7.0-0.0-4.0-0.0-1.18","3","3","3","3","3","3","3","3","3","4","3","2","2","4","1","4","2","3","3","2","2","3","2","3","2","2","2","2","3","1","0","1","1","0","0","1","1","0","1","1","0","1","0","1","4","3","4","2","3","3","4","4","3","1","749636547061747713","叶","396","","","","","","","","","","","","","","","","","","","","","","","","","","","","","","feedback_test","","","","","","","","","",""
"665","","f","psychophysics","145","375864","0.0-7.0-0.0-4.0-0.0-0.19","3","3","3","3","3","3","3","3","3","4","3","2","2","4","1","4","2","3","3","2","2","3","2","3","2","2","2","2","3","1","0","1","1","0","0","1","1","0","1","1","0","1","0","1","4","3","4","2","3","3","4","4","3","1","749636547061747713","叶","396","","","","match","","","","","","","","","","","","","","key","f","16.83732989690742","683","380","f","true","match","img/triangle.png","三角","三角","ALT1","formal_ALT1_1","","","","","","","","","",""
"null","<span style='color:GreenYellow; font-size: 70px;'>正确! </span>","null","html-keyboard-response","146","376367","0.0-7.0-0.0-4.0-0.0-1.19","3","3","3","3","3","3","3","3","3","4","3","2","2","4","1","4","2","3","3","2","2","3","2","3","2","2","2","2","3","1","0","1","1","0","0","1","1","0","1","1","0","1","0","1","4","3","4","2","3","3","4","4","3","1","749636547061747713","叶","396","","","","","","","","","","","","","","","","","","","","","","","","","","","","","","feedback_test","","","","","","","","","",""
"983","","j","psychophysics","147","378358","0.0-7.0-0.0-4.0-0.0-0.20","3","3","3","3","3","3","3","3","3","4","3","2","2","4","1","4","2","3","3","2","2","3","2","3","2","2","2","2","3","1","0","1","1","0","0","1","1","0","1","1","0","1","0","1","4","3","4","2","3","3","4","4","3","1","749636547061747713","叶","396","","","","nonmatch","","","","","","","","","","","","","","key","j","16.658675213675235","683","380","j","true","nonmatch","img/trapezoid.png","圆形","梯形","ALT1","formal_ALT1_1","","","","","","","","","",""
"null","<span style='color:GreenYellow; font-size: 70px;'>正确! </span>","null","html-keyboard-response","148","378864","0.0-7.0-0.0-4.0-0.0-1.20","3","3","3","3","3","3","3","3","3","4","3","2","2","4","1","4","2","3","3","2","2","3","2","3","2","2","2","2","3","1","0","1","1","0","0","1","1","0","1","1","0","1","0","1","4","3","4","2","3","3","4","4","3","1","749636547061747713","叶","396","","","","","","","","","","","","","","","","","","","","","","","","","","","","","","feedback_test","","","","","","","","","",""
"767","","f","psychophysics","149","380638","0.0-7.0-0.0-4.0-0.0-0.21","3","3","3","3","3","3","3","3","3","4","3","2","2","4","1","4","2","3","3","2","2","3","2","3","2","2","2","2","3","1","0","1","1","0","0","1","1","0","1","1","0","1","0","1","4","3","4","2","3","3","4","4","3","1","749636547061747713","叶","396","","","","match","","","","","","","","","","","","","","key","f","16.66790384615384","683","380","f","true","match","img/hexagon.png","六边","六边","ALT1","formal_ALT1_1","","","","","","","","","",""
"null","<span style='color:GreenYellow; font-size: 70px;'>正确! </span>","null","html-keyboard-response","150","381144","0.0-7.0-0.0-4.0-0.0-1.21","3","3","3","3","3","3","3","3","3","4","3","2","2","4","1","4","2","3","3","2","2","3","2","3","2","2","2","2","3","1","0","1","1","0","0","1","1","0","1","1","0","1","0","1","4","3","4","2","3","3","4","4","3","1","749636547061747713","叶","396","","","","","","","","","","","","","","","","","","","","","","","","","","","","","","feedback_test","","","","","","","","","",""
"928","","j","psychophysics","151","383079","0.0-7.0-0.0-4.0-0.0-0.22","3","3","3","3","3","3","3","3","3","4","3","2","2","4","1","4","2","3","3","2","2","3","2","3","2","2","2","2","3","1","0","1","1","0","0","1","1","0","1","1","0","1","0","1","4","3","4","2","3","3","4","4","3","1","749636547061747713","叶","396","","","","nonmatch","","","","","","","","","","","","","","key","j","16.957353982300727","683","380","j","true","nonmatch","img/triangle.png","圆形","三角","ALT1","formal_ALT1_1","","","","","","","","","",""
"null","<span style='color:GreenYellow; font-size: 70px;'>正确! </span>","null","html-keyboard-response","152","383584","0.0-7.0-0.0-4.0-0.0-1.22","3","3","3","3","3","3","3","3","3","4","3","2","2","4","1","4","2","3","3","2","2","3","2","3","2","2","2","2","3","1","0","1","1","0","0","1","1","0","1","1","0","1","0","1","4","3","4","2","3","3","4","4","3","1","749636547061747713","叶","396","","","","","","","","","","","","","","","","","","","","","","","","","","","","","","feedback_test","","","","","","","","","",""
"688","","f","psychophysics","153","385281","0.0-7.0-0.0-4.0-0.0-0.23","3","3","3","3","3","3","3","3","3","4","3","2","2","4","1","4","2","3","3","2","2","3","2","3","2","2","2","2","3","1","0","1","1","0","0","1","1","0","1","1","0","1","0","1","4","3","4","2","3","3","4","4","3","1","749636547061747713","叶","396","","","","match","","","","","","","","","","","","","","key","f","16.665828282827857","683","380","f","true","match","img/triangle.png","三角","三角","ALT1","formal_ALT1_1","","","","","","","","","",""
"null","<span style='color:GreenYellow; font-size: 70px;'>正确! </span>","null","html-keyboard-response","154","385784","0.0-7.0-0.0-4.0-0.0-1.23","3","3","3","3","3","3","3","3","3","4","3","2","2","4","1","4","2","3","3","2","2","3","2","3","2","2","2","2","3","1","0","1","1","0","0","1","1","0","1","1","0","1","0","1","4","3","4","2","3","3","4","4","3","1","749636547061747713","叶","396","","","","","","","","","","","","","","","","","","","","","","","","","","","","","","feedback_test","","","","","","","","","",""
"808","","f","psychophysics","155","387600","0.0-7.0-0.0-4.0-0.0-0.24","3","3","3","3","3","3","3","3","3","4","3","2","2","4","1","4","2","3","3","2","2","3","2","3","2","2","2","2","3","1","0","1","1","0","0","1","1","0","1","1","0","1","0","1","4","3","4","2","3","3","4","4","3","1","749636547061747713","叶","396","","","","match","","","","","","","","","","","","","","key","f","16.66913888888936","683","380","f","true","match","img/trapezoid.png","梯形","梯形","ALT1","formal_ALT1_1","","","","","","","","","",""
"null","<span style='color:GreenYellow; font-size: 70px;'>正确! </span>","null","html-keyboard-response","156","388104","0.0-7.0-0.0-4.0-0.0-1.24","3","3","3","3","3","3","3","3","3","4","3","2","2","4","1","4","2","3","3","2","2","3","2","3","2","2","2","2","3","1","0","1","1","0","0","1","1","0","1","1","0","1","0","1","4","3","4","2","3","3","4","4","3","1","749636547061747713","叶","396","","","","","","","","","","","","","","","","","","","","","","","","","","","","","","feedback_test","","","","","","","","","",""
"894","","f","psychophysics","157","390006","0.0-7.0-0.0-4.0-0.0-0.25","3","3","3","3","3","3","3","3","3","4","3","2","2","4","1","4","2","3","3","2","2","3","2","3","2","2","2","2","3","1","0","1","1","0","0","1","1","0","1","1","0","1","0","1","4","3","4","2","3","3","4","4","3","1","749636547061747713","叶","396","","","","match","","","","","","","","","","","","","","key","f","16.814946428571734","683","380","f","true","match","img/circle.png","圆形","圆形","ALT1","formal_ALT1_1","","","","","","","","","",""
"null","<span style='color:GreenYellow; font-size: 70px;'>正确! </span>","null","html-keyboard-response","158","390512","0.0-7.0-0.0-4.0-0.0-1.25","3","3","3","3","3","3","3","3","3","4","3","2","2","4","1","4","2","3","3","2","2","3","2","3","2","2","2","2","3","1","0","1","1","0","0","1","1","0","1","1","0","1","0","1","4","3","4","2","3","3","4","4","3","1","749636547061747713","叶","396","","","","","","","","","","","","","","","","","","","","","","","","","","","","","","feedback_test","","","","","","","","","",""
"907","","j","psychophysics","159","392422","0.0-7.0-0.0-4.0-0.0-0.26","3","3","3","3","3","3","3","3","3","4","3","2","2","4","1","4","2","3","3","2","2","3","2","3","2","2","2","2","3","1","0","1","1","0","0","1","1","0","1","1","0","1","0","1","4","3","4","2","3","3","4","4","3","1","749636547061747713","叶","396","","","","nonmatch","","","","","","","","","","","","","","key","j","16.66504464285702","683","380","j","true","nonmatch","img/trapezoid.png","三角","梯形","ALT1","formal_ALT1_1","","","","","","","","","",""
"null","<span style='color:GreenYellow; font-size: 70px;'>正确! </span>","null","html-keyboard-response","160","392928","0.0-7.0-0.0-4.0-0.0-1.26","3","3","3","3","3","3","3","3","3","4","3","2","2","4","1","4","2","3","3","2","2","3","2","3","2","2","2","2","3","1","0","1","1","0","0","1","1","0","1","1","0","1","0","1","4","3","4","2","3","3","4","4","3","1","749636547061747713","叶","396","","","","","","","","","","","","","","","","","","","","","","","","","","","","","","feedback_test","","","","","","","","","",""
"635","","f","psychophysics","161","394567","0.0-7.0-0.0-4.0-0.0-0.27","3","3","3","3","3","3","3","3","3","4","3","2","2","4","1","4","2","3","3","2","2","3","2","3","2","2","2","2","3","1","0","1","1","0","0","1","1","0","1","1","0","1","0","1","4","3","4","2","3","3","4","4","3","1","749636547061747713","叶","396","","","","match","","","","","","","","","","","","","","key","f","16.837906250000135","683","380","f","true","match","img/circle.png","圆形","圆形","ALT1","formal_ALT1_1","","","","","","","","","",""
"null","<span style='color:GreenYellow; font-size: 70px;'>正确! </span>","null","html-keyboard-response","162","395072","0.0-7.0-0.0-4.0-0.0-1.27","3","3","3","3","3","3","3","3","3","4","3","2","2","4","1","4","2","3","3","2","2","3","2","3","2","2","2","2","3","1","0","1","1","0","0","1","1","0","1","1","0","1","0","1","4","3","4","2","3","3","4","4","3","1","749636547061747713","叶","396","","","","","","","","","","","","","","","","","","","","","","","","","","","","","","feedback_test","","","","","","","","","",""
"908","","j","psychophysics","163","396990","0.0-7.0-0.0-4.0-0.0-0.28","3","3","3","3","3","3","3","3","3","4","3","2","2","4","1","4","2","3","3","2","2","3","2","3","2","2","2","2","3","1","0","1","1","0","0","1","1","0","1","1","0","1","0","1","4","3","4","2","3","3","4","4","3","1","749636547061747713","叶","396","","","","nonmatch","","","","","","","","","","","","","","key","j","16.655132743362564","683","380","j","true","nonmatch","img/triangle.png","梯形","三角","ALT1","formal_ALT1_1","","","","","","","","","",""
"null","<span style='color:GreenYellow; font-size: 70px;'>正确! </span>","null","html-keyboard-response","164","397495","0.0-7.0-0.0-4.0-0.0-1.28","3","3","3","3","3","3","3","3","3","4","3","2","2","4","1","4","2","3","3","2","2","3","2","3","2","2","2","2","3","1","0","1","1","0","0","1","1","0","1","1","0","1","0","1","4","3","4","2","3","3","4","4","3","1","749636547061747713","叶","396","","","","","","","","","","","","","","","","","","","","","","","","","","","","","","feedback_test","","","","","","","","","",""
"868","","j","psychophysics","165","399367","0.0-7.0-0.0-4.0-0.0-0.29","3","3","3","3","3","3","3","3","3","4","3","2","2","4","1","4","2","3","3","2","2","3","2","3","2","2","2","2","3","1","0","1","1","0","0","1","1","0","1","1","0","1","0","1","4","3","4","2","3","3","4","4","3","1","749636547061747713","叶","396","","","","nonmatch","","","","","","","","","","","","","","key","j","16.819518181818157","683","380","j","true","nonmatch","img/hexagon.png","三角","六边","ALT1","formal_ALT1_1","","","","","","","","","",""
"null","<span style='color:GreenYellow; font-size: 70px;'>正确! </span>","null","html-keyboard-response","166","399871","0.0-7.0-0.0-4.0-0.0-1.29","3","3","3","3","3","3","3","3","3","4","3","2","2","4","1","4","2","3","3","2","2","3","2","3","2","2","2","2","3","1","0","1","1","0","0","1","1","0","1","1","0","1","0","1","4","3","4","2","3","3","4","4","3","1","749636547061747713","叶","396","","","","","","","","","","","","","","","","","","","","","","","","","","","","","","feedback_test","","","","","","","","","",""
"970","","j","psychophysics","167","401849","0.0-7.0-0.0-4.0-0.0-0.30","3","3","3","3","3","3","3","3","3","4","3","2","2","4","1","4","2","3","3","2","2","3","2","3","2","2","2","2","3","1","0","1","1","0","0","1","1","0","1","1","0","1","0","1","4","3","4","2","3","3","4","4","3","1","749636547061747713","叶","396","","","","nonmatch","","","","","","","","","","","","","","key","j","16.810495726495553","683","380","j","true","nonmatch","img/trapezoid.png","圆形","梯形","ALT1","formal_ALT1_1","","","","","","","","","",""
"null","<span style='color:GreenYellow; font-size: 70px;'>正确! </span>","null","html-keyboard-response","168","402352","0.0-7.0-0.0-4.0-0.0-1.30","3","3","3","3","3","3","3","3","3","4","3","2","2","4","1","4","2","3","3","2","2","3","2","3","2","2","2","2","3","1","0","1","1","0","0","1","1","0","1","1","0","1","0","1","4","3","4","2","3","3","4","4","3","1","749636547061747713","叶","396","","","","","","","","","","","","","","","","","","","","","","","","","","","","","","feedback_test","","","","","","","","","",""
"906","","j","psychophysics","169","404266","0.0-7.0-0.0-4.0-0.0-0.31","3","3","3","3","3","3","3","3","3","4","3","2","2","4","1","4","2","3","3","2","2","3","2","3","2","2","2","2","3","1","0","1","1","0","0","1","1","0","1","1","0","1","0","1","4","3","4","2","3","3","4","4","3","1","749636547061747713","叶","396","","","","nonmatch","","","","","","","","","","","","","","key","j","16.81017699115034","683","380","j","true","nonmatch","img/triangle.png","六边","三角","ALT1","formal_ALT1_1","","","","","","","","","",""
"null","<span style='color:GreenYellow; font-size: 70px;'>正确! </span>","null","html-keyboard-response","170","404768","0.0-7.0-0.0-4.0-0.0-1.31","3","3","3","3","3","3","3","3","3","4","3","2","2","4","1","4","2","3","3","2","2","3","2","3","2","2","2","2","3","1","0","1","1","0","0","1","1","0","1","1","0","1","0","1","4","3","4","2","3","3","4","4","3","1","749636547061747713","叶","396","","","","","","","","","","","","","","","","","","","","","","","","","","","","","","feedback_test","","","","","","","","","",""
"958","","j","psychophysics","171","406734","0.0-7.0-0.0-4.0-0.0-0.32","3","3","3","3","3","3","3","3","3","4","3","2","2","4","1","4","2","3","3","2","2","3","2","3","2","2","2","2","3","1","0","1","1","0","0","1","1","0","1","1","0","1","0","1","4","3","4","2","3","3","4","4","3","1","749636547061747713","叶","396","","","","nonmatch","","","","","","","","","","","","","","key","j","16.80757758620693","683","380","j","true","nonmatch","img/trapezoid.png","六边","梯形","ALT1","formal_ALT1_1","","","","","","","","","",""
"null","<span style='color:GreenYellow; font-size: 70px;'>正确! </span>","null","html-keyboard-response","172","407240","0.0-7.0-0.0-4.0-0.0-1.32","3","3","3","3","3","3","3","3","3","4","3","2","2","4","1","4","2","3","3","2","2","3","2","3","2","2","2","2","3","1","0","1","1","0","0","1","1","0","1","1","0","1","0","1","4","3","4","2","3","3","4","4","3","1","749636547061747713","叶","396","","","","","","","","","","","","","","","","","","","","","","","","","","","","","","feedback_test","","","","","","","","","",""
"1145","","f","psychophysics","173","409390","0.0-7.0-0.0-4.0-0.0-0.33","3","3","3","3","3","3","3","3","3","4","3","2","2","4","1","4","2","3","3","2","2","3","2","3","2","2","2","2","3","1","0","1","1","0","0","1","1","0","1","1","0","1","0","1","4","3","4","2","3","3","4","4","3","1","749636547061747713","叶","396","","","","match","","","","","","","","","","","","","","key","f","16.66585937500031","683","380","f","true","match","img/hexagon.png","六边","六边","ALT1","formal_ALT1_1","","","","","","","","","",""
"null","<span style='color:GreenYellow; font-size: 70px;'>正确! </span>","null","html-keyboard-response","174","409896","0.0-7.0-0.0-4.0-0.0-1.33","3","3","3","3","3","3","3","3","3","4","3","2","2","4","1","4","2","3","3","2","2","3","2","3","2","2","2","2","3","1","0","1","1","0","0","1","1","0","1","1","0","1","0","1","4","3","4","2","3","3","4","4","3","1","749636547061747713","叶","396","","","","","","","","","","","","","","","","","","","","","","","","","","","","","","feedback_test","","","","","","","","","",""
"810","","j","psychophysics","175","411710","0.0-7.0-0.0-4.0-0.0-0.34","3","3","3","3","3","3","3","3","3","4","3","2","2","4","1","4","2","3","3","2","2","3","2","3","2","2","2","2","3","1","0","1","1","0","0","1","1","0","1","1","0","1","0","1","4","3","4","2","3","3","4","4","3","1","749636547061747713","叶","396","","","","nonmatch","","","","","","","","","","","","","","key","j","16.65904716981184","683","380","j","true","nonmatch","img/hexagon.png","圆形","六边","ALT1","formal_ALT1_1","","","","","","","","","",""
"null","<span style='color:GreenYellow; font-size: 70px;'>正确! </span>","null","html-keyboard-response","176","412216","0.0-7.0-0.0-4.0-0.0-1.34","3","3","3","3","3","3","3","3","3","4","3","2","2","4","1","4","2","3","3","2","2","3","2","3","2","2","2","2","3","1","0","1","1","0","0","1","1","0","1","1","0","1","0","1","4","3","4","2","3","3","4","4","3","1","749636547061747713","叶","396","","","","","","","","","","","","","","","","","","","","","","","","","","","","","","feedback_test","","","","","","","","","",""
"926","","j","psychophysics","177","414150","0.0-7.0-0.0-4.0-0.0-0.35","3","3","3","3","3","3","3","3","3","4","3","2","2","4","1","4","2","3","3","2","2","3","2","3","2","2","2","2","3","1","0","1","1","0","0","1","1","0","1","1","0","1","0","1","4","3","4","2","3","3","4","4","3","1","749636547061747713","叶","396","","","","nonmatch","","","","","","","","","","","","","","key","j","16.814719298245844","683","380","j","true","nonmatch","img/hexagon.png","梯形","六边","ALT1","formal_ALT1_1","","","","","","","","","",""
"null","<span style='color:GreenYellow; font-size: 70px;'>正确! </span>","null","html-keyboard-response","178","414656","0.0-7.0-0.0-4.0-0.0-1.35","3","3","3","3","3","3","3","3","3","4","3","2","2","4","1","4","2","3","3","2","2","3","2","3","2","2","2","2","3","1","0","1","1","0","0","1","1","0","1","1","0","1","0","1","4","3","4","2","3","3","4","4","3","1","749636547061747713","叶","396","","","","","","","","","","","","","","","","","","","","","","","","","","","","","","feedback_test","","","","","","","","","",""
"737","","f","psychophysics","179","416398","0.0-7.0-0.0-4.0-0.0-0.36","3","3","3","3","3","3","3","3","3","4","3","2","2","4","1","4","2","3","3","2","2","3","2","3","2","2","2","2","3","1","0","1","1","0","0","1","1","0","1","1","0","1","0","1","4","3","4","2","3","3","4","4","3","1","749636547061747713","叶","396","","","","match","","","","","","","","","","","","","","key","f","16.992627450980603","683","380","f","true","match","img/trapezoid.png","梯形","梯形","ALT1","formal_ALT1_1","","","","","","","","","",""
"null","<span style='color:GreenYellow; font-size: 70px;'>正确! </span>","null","html-keyboard-response","180","416904","0.0-7.0-0.0-4.0-0.0-1.36","3","3","3","3","3","3","3","3","3","4","3","2","2","4","1","4","2","3","3","2","2","3","2","3","2","2","2","2","3","1","0","1","1","0","0","1","1","0","1","1","0","1","0","1","4","3","4","2","3","3","4","4","3","1","749636547061747713","叶","396","","","","","","","","","","","","","","","","","","","","","","","","","","","","","","feedback_test","","","","","","","","","",""
"751","","f","psychophysics","181","418663","0.0-7.0-0.0-4.0-0.0-0.37","3","3","3","3","3","3","3","3","3","4","3","2","2","4","1","4","2","3","3","2","2","3","2","3","2","2","2","2","3","1","0","1","1","0","0","1","1","0","1","1","0","1","0","1","4","3","4","2","3","3","4","4","3","1","749636547061747713","叶","396","","","","match","","","","","","","","","","","","","","key","f","16.832686274509886","683","380","f","true","match","img/hexagon.png","六边","六边","ALT1","formal_ALT1_1","","","","","","","","","",""
"null","<span style='color:GreenYellow; font-size: 70px;'>正确! </span>","null","html-keyboard-response","182","419168","0.0-7.0-0.0-4.0-0.0-1.37","3","3","3","3","3","3","3","3","3","4","3","2","2","4","1","4","2","3","3","2","2","3","2","3","2","2","2","2","3","1","0","1","1","0","0","1","1","0","1","1","0","1","0","1","4","3","4","2","3","3","4","4","3","1","749636547061747713","叶","396","","","","","","","","","","","","","","","","","","","","","","","","","","","","","","feedback_test","","","","","","","","","",""
"797","","j","psychophysics","183","420974","0.0-7.0-0.0-4.0-0.0-0.38","3","3","3","3","3","3","3","3","3","4","3","2","2","4","1","4","2","3","3","2","2","3","2","3","2","2","2","2","3","1","0","1","1","0","0","1","1","0","1","1","0","1","0","1","4","3","4","2","3","3","4","4","3","1","749636547061747713","叶","396","","","","nonmatch","","","","","","","","","","","","","","key","j","16.665933962263946","683","380","j","true","nonmatch","img/triangle.png","圆形","三角","ALT1","formal_ALT1_1","","","","","","","","","",""
"null","<span style='color:GreenYellow; font-size: 70px;'>正确! </span>","null","html-keyboard-response","184","421480","0.0-7.0-0.0-4.0-0.0-1.38","3","3","3","3","3","3","3","3","3","4","3","2","2","4","1","4","2","3","3","2","2","3","2","3","2","2","2","2","3","1","0","1","1","0","0","1","1","0","1","1","0","1","0","1","4","3","4","2","3","3","4","4","3","1","749636547061747713","叶","396","","","","","","","","","","","","","","","","","","","","","","","","","","","","","","feedback_test","","","","","","","","","",""
