"rt","stimulus","response","trial_type","trial_index","time_elapsed","internal_node_id","ses_1","ses_2","ses_3","ses_4","ses_5","ses_6","ses_7","ses_8","ses_9","ses_10","coreself_1","coreself_2","coreself_3","coreself_4","coreself_5","coreself_6","coreself_7","coreself_8","coreself_9","coreself_10","SGPS_1","SGPS_2","SGPS_3","SGPS_4","SGPS_5","SGPS_6","SGPS_7","SGPS_8","SGPS_9","NPI1","NPI2","NPI3","NPI4","NPI5","NPI6","NPI7","NPI8","NPI9","NPI10","NPI11","NPI12","NPI13","NPI14","NPI15","hsns_1","hsns_2","hsns_3","hsns_4","hsns_5","hsns_6","hsns_7","hsns_8","hsns_9","hsns_10","subj_idx","friend_name","ParticipantID","value","success","user_agent","responses","item_order","radio_event_ids","radio_event_times","key_event_times","mouse_event_times","straightlining","zigzagging","honeypot","timeout","failed_images","failed_audio","failed_video","version_attrib2","version_target2","correct","IAT","screen_id","task_id","RT","condition","word","varname","summary","version_attrib","version_target","time_stamp","view_history","response_type","key_press","avg_frame_time","center_x","center_y","correct_response","identity","Image","question_order"
"110902","
   <p><div style = ""color: white;font-size:25px;"">您好，欢迎参加本次实验。</div> </p>
   <p><div style = ""color: white;font-size:25px;"">为充分保障您的权利，请确保您已经知晓并同意《参与实验同意书》以及《数据公开知情同意书》。</div></p>
   <p><div style = ""color: white;font-size:25px;"">如果您未见过上述内容，请咨询实验员。</div></p>
   <p><div style = ""color: white;font-size:25px;"">如果您选择继续实验，则表示您已经清楚两份知情同意书的内容并同意。</div></p>
   <p><div style = ""color: red;font-size:30px;"">请确保您记得day0的实验编号，您将在本次实验输入该编号，若您忘记，请咨询实验员后作答。</div></p>
   <p> <div style = ""color: green;font-size:25px;""><按空格键至下页></div> </p>
   "," ","html-keyboard-response","0","110907","0.0-0.0","3","3","1","3","1","3","2","1","4","4","3","1","2","3","3","3","3","2","3","2","2","1","2","2","3","2","2","3","2","1","0","1","1","0","0","0","1","1","1","1","0","1","1","1","5","4","3","3","3","2","3","4","4","2","735065258095546369","李","178","","","","","","","","","","","","","","","","","","","","","","","","","","","","","","","","","","","","","","","",""
"","","","call-function","1","110910","0.0-1.0-0.0","3","3","1","3","1","3","2","1","4","4","3","1","2","3","3","3","3","2","3","2","2","1","2","2","3","2","2","3","2","1","0","1","1","0","0","0","1","1","1","1","0","1","1","1","5","4","3","3","3","2","3","4","4","2","735065258095546369","李","178","","","","","","","","","","","","","","","","","","","","","","","","","","","","","","","","","","","","","","","",""
"185261","","{""friend_name"":""李"",""ParticipantID"":""178""}","survey-html-form","2","296170","0.0-1.0-1.0","3","3","1","3","1","3","2","1","4","4","3","1","2","3","3","3","3","2","3","2","2","1","2","2","3","2","2","3","2","1","0","1","1","0","0","0","1","1","1","1","0","1","1","1","5","4","3","3","3","2","3","4","4","2","735065258095546369","李","178","","","","","","","","","","","","","","","","","","","","","","","","","","","","","","","","","","","","","","","",""
"","","","fullscreen","3","301670","0.0-2.0","3","3","1","3","1","3","2","1","4","4","3","1","2","3","3","3","3","2","3","2","2","1","2","2","3","2","2","3","2","1","0","1","1","0","0","0","1","1","1","1","0","1","1","1","5","4","3","3","3","2","3","4","4","2","735065258095546369","李","178","","true","{}","","","","","","","","","","","","","","","","","","","","","","","","","","","","","","","","","","","","",""
"37308.59999996424","","{""Q01"":""3"",""Q02"":""3"",""Q03"":""1"",""Q04"":""3"",""Q05"":""1"",""Q06"":""3"",""Q07"":""2"",""Q08"":""1"",""Q09"":""4"",""Q10"":""4""}","survey-template","4","338981","0.0-3.0","3","3","1","3","1","3","2","1","4","4","3","1","2","3","3","3","3","2","3","2","2","1","2","2","3","2","2","3","2","1","0","1","1","0","0","0","1","1","1","1","0","1","1","1","5","4","3","3","3","2","3","4","4","2","735065258095546369","李","178","","","","{""Q01"":""3"",""Q02"":""3"",""Q03"":""1"",""Q04"":""3"",""Q05"":""1"",""Q06"":""3"",""Q07"":""2"",""Q08"":""1"",""Q09"":""4"",""Q10"":""4""}","[0,1,2,3,4,5,6,7,8,9]","[""Q01"",""Q02"",""Q03"",""Q04"",""Q03"",""Q05"",""Q06"",""Q07"",""Q08"",""Q09"",""Q09"",""Q10""]","[9576.899999976158,11479.599999964237,13943.299999952316,15962.299999952316,17896.69999998808,19645.19999998808,25356.399999976158,27318.099999964237,29306.399999976158,32517.899999976158,35662.09999996424,36498]","[]","[9576.899999976158,11479.599999964237,13943.299999952316,15962.299999952316,17896.69999998808,19645.19999998808,25356.399999976158,27318.099999964237,29306.399999976158,32517.899999976158,33902.5,35662.09999996424,36498,37306.299999952316]","0.4","0.6666666666666666","0","","","","","","","","","","","","","","","","","","","","","","","","","","","",""
"64738.5","","{""Q01"":""3"",""Q02"":""1"",""Q03"":""2"",""Q04"":""3"",""Q05"":""3"",""Q06"":""3"",""Q07"":""3"",""Q08"":""2"",""Q09"":""3"",""Q10"":""2""}","survey-template","5","403731","0.0-4.0","3","3","1","3","1","3","2","1","4","4","3","1","2","3","3","3","3","2","3","2","2","1","2","2","3","2","2","3","2","1","0","1","1","0","0","0","1","1","1","1","0","1","1","1","5","4","3","3","3","2","3","4","4","2","735065258095546369","李","178","","","","{""Q01"":""3"",""Q02"":""1"",""Q03"":""2"",""Q04"":""3"",""Q05"":""3"",""Q06"":""3"",""Q07"":""3"",""Q08"":""2"",""Q09"":""3"",""Q10"":""2""}","[0,1,2,3,4,5,6,7,8,9]","[""Q01"",""Q02"",""Q03"",""Q04"",""Q05"",""Q06"",""Q07"",""Q08"",""Q09"",""Q09"",""Q10""]","[47520.30000001192,49876.69999998808,51401.39999997616,53136.5,54546.89999997616,55891.69999998808,58039.10000002384,59840.19999998808,60910.80000001192,61747.39999997616,63963.89999997616]","[]","[47520.30000001192,49876.69999998808,51401.39999997616,53136.5,54546.89999997616,55891.69999998808,58039.10000002384,59840.19999998808,60910.80000001192,61747.39999997616,63294,63963.89999997616,64736.30000001192]","0.6","0.5555555555555556","0","","","","","","","","","","","","","","","","","","","","","","","","","","","",""
"","","","preload","6","403958","0.0-5.0","3","3","1","3","1","3","2","1","4","4","3","1","2","3","3","3","3","2","3","2","2","1","2","2","3","2","2","3","2","1","0","1","1","0","0","0","1","1","1","1","0","1","1","1","5","4","3","3","3","2","3","4","4","2","735065258095546369","李","178","","true","","","","","","","","","","","false","[]","[]","[]","","","","","","","","","","","","","","","","","","","","","","","",""
"57724","
    <h3>词语分类任务</h3>
    <p>在接下来的任务中，你需要对一系列词语进行分类。<p/>
    请先熟悉这些词语，这有利于你完成接下来的任务。</p>
    <table align=""center"" border=1 cellpadding=3 cellspacing=0>
    <tr> <th>类别</th> <th>词语</th> </tr>
    <tr> <td>&emsp;积极&emsp;</td> <td>&emsp;高尚、诚信、善良、君子、廉正、正直&emsp;</td> </tr>
    <tr> <td>&emsp;消极&emsp;</td> <td>&emsp;缺德、卑鄙、不孝、不仁、小人、黑心&emsp;</td> </tr>
    <tr> <td>&emsp;自我&emsp;</td> <td>&emsp;我、我的、自己、自己的、本人、本人的&emsp;</td> </tr>
    <tr> <td>&emsp;他人&emsp;</td> <td>&emsp;他、他的、别人、别人的、他人、他人的&emsp;</td> </tr>
    </table><br/>","0","html-button-response","7","461687","0.0-6.0-1.0-0.0","3","3","1","3","1","3","2","1","4","4","3","1","2","3","3","3","3","2","3","2","2","1","2","2","3","2","2","3","2","1","0","1","1","0","0","0","1","1","1","1","0","1","1","1","5","4","3","3","3","2","3","4","4","2","735065258095546369","李","178","","","","","","","","","","","","","","","","","1","1","","","","","","","","","","","","","","","","","","","","","",""
"9744","
    <div class=""tag-bottom""><p>
    —— 任务1：对“自我”词和“他人”词分类 ——<p/>
    不同词语会出现在屏幕中央，类别标签将始终显示在屏幕上方<p/>   
    <span style=""color:#FFD866""><b>请根据上方标签的提示，尽可能正确并且快速地做出按键反应</b></span><p/>
    当按键错误时屏幕中会出现<span style=""color:red""> X </span>，需要按另一个键纠正才能继续<br/><p/>
    请把双手食指分别放在键盘的“E”键和“I”键上<p/>
    按<空格键>开始
    </p></div>"," ","html-keyboard-response","8","471436","0.0-6.0-1.0-1.0","3","3","1","3","1","3","2","1","4","4","3","1","2","3","3","3","3","2","3","2","2","1","2","2","3","2","2","3","2","1","0","1","1","0","0","0","1","1","1","1","0","1","1","1","5","4","3","3","3","2","3","4","4","2","735065258095546369","李","178","","","","","","","","","","","","","","","","","","","","","","","","","","","","","","","","","","","","","","","",""
"null","","null","html-keyboard-response","9","471689","0.0-6.0-1.0-2.0-0.0","3","3","1","3","1","3","2","1","4","4","3","1","2","3","3","3","3","2","3","2","2","1","2","2","3","2","2","3","2","1","0","1","1","0","0","0","1","1","1","1","0","1","1","1","5","4","3","3","3","2","3","4","4","2","735065258095546369","李","178","","","","","","","","","","","","","","","","","","","","","","","","","","","","","","","","","","","","","","","",""
"783","<p style=""color:rgb(150, 250, 100); font-size: 35px;"">他的</p>","i","categorize-html","10","472477","0.0-6.0-1.0-2.0-1.0","3","3","1","3","1","3","2","1","4","4","3","1","2","3","3","3","3","2","3","2","2","1","2","2","3","2","2","3","2","1","0","1","1","0","0","0","1","1","1","1","0","1","1","1","5","4","3","3","3","2","3","4","4","2","735065258095546369","李","178","","","","","","","","","","","","","","","","","","","true","11","1","moral","783","other","他的","","","","","","","","","","","","","","",""
"null","","null","html-keyboard-response","11","472729","0.0-6.0-1.0-2.0-0.1","3","3","1","3","1","3","2","1","4","4","3","1","2","3","3","3","3","2","3","2","2","1","2","2","3","2","2","3","2","1","0","1","1","0","0","0","1","1","1","1","0","1","1","1","5","4","3","3","3","2","3","4","4","2","735065258095546369","李","178","","","","","","","","","","","","","","","","","","","","","","","","","","","","","","","","","","","","","","","",""
"553","<p style=""color:rgb(150, 250, 100); font-size: 35px;"">本人的</p>","e","categorize-html","12","473285","0.0-6.0-1.0-2.0-1.1","3","3","1","3","1","3","2","1","4","4","3","1","2","3","3","3","3","2","3","2","2","1","2","2","3","2","2","3","2","1","0","1","1","0","0","0","1","1","1","1","0","1","1","1","5","4","3","3","3","2","3","4","4","2","735065258095546369","李","178","","","","","","","","","","","","","","","","","","","true","11","1","moral","553","self","本人的","","","","","","","","","","","","","","",""
"null","","null","html-keyboard-response","13","473537","0.0-6.0-1.0-2.0-0.2","3","3","1","3","1","3","2","1","4","4","3","1","2","3","3","3","3","2","3","2","2","1","2","2","3","2","2","3","2","1","0","1","1","0","0","0","1","1","1","1","0","1","1","1","5","4","3","3","3","2","3","4","4","2","735065258095546369","李","178","","","","","","","","","","","","","","","","","","","","","","","","","","","","","","","","","","","","","","","",""
"472","<p style=""color:rgb(150, 250, 100); font-size: 35px;"">我的</p>","e","categorize-html","14","474013","0.0-6.0-1.0-2.0-1.2","3","3","1","3","1","3","2","1","4","4","3","1","2","3","3","3","3","2","3","2","2","1","2","2","3","2","2","3","2","1","0","1","1","0","0","0","1","1","1","1","0","1","1","1","5","4","3","3","3","2","3","4","4","2","735065258095546369","李","178","","","","","","","","","","","","","","","","","","","true","11","1","moral","472","self","我的","","","","","","","","","","","","","","",""
"null","","null","html-keyboard-response","15","474266","0.0-6.0-1.0-2.0-0.3","3","3","1","3","1","3","2","1","4","4","3","1","2","3","3","3","3","2","3","2","2","1","2","2","3","2","2","3","2","1","0","1","1","0","0","0","1","1","1","1","0","1","1","1","5","4","3","3","3","2","3","4","4","2","735065258095546369","李","178","","","","","","","","","","","","","","","","","","","","","","","","","","","","","","","","","","","","","","","",""
"582","<p style=""color:rgb(150, 250, 100); font-size: 35px;"">自己</p>","i","categorize-html","16","475240","0.0-6.0-1.0-2.0-1.3","3","3","1","3","1","3","2","1","4","4","3","1","2","3","3","3","3","2","3","2","2","1","2","2","3","2","2","3","2","1","0","1","1","0","0","0","1","1","1","1","0","1","1","1","5","4","3","3","3","2","3","4","4","2","735065258095546369","李","178","","","","","","","","","","","","","","","","","","","false","11","1","moral","582","self","自己","","","","","","","","","","","","","","",""
"null","","null","html-keyboard-response","17","475492","0.0-6.0-1.0-2.0-0.4","3","3","1","3","1","3","2","1","4","4","3","1","2","3","3","3","3","2","3","2","2","1","2","2","3","2","2","3","2","1","0","1","1","0","0","0","1","1","1","1","0","1","1","1","5","4","3","3","3","2","3","4","4","2","735065258095546369","李","178","","","","","","","","","","","","","","","","","","","","","","","","","","","","","","","","","","","","","","","",""
"649","<p style=""color:rgb(150, 250, 100); font-size: 35px;"">自己的</p>","e","categorize-html","18","476144","0.0-6.0-1.0-2.0-1.4","3","3","1","3","1","3","2","1","4","4","3","1","2","3","3","3","3","2","3","2","2","1","2","2","3","2","2","3","2","1","0","1","1","0","0","0","1","1","1","1","0","1","1","1","5","4","3","3","3","2","3","4","4","2","735065258095546369","李","178","","","","","","","","","","","","","","","","","","","true","11","1","moral","649","self","自己的","","","","","","","","","","","","","","",""
"null","","null","html-keyboard-response","19","476397","0.0-6.0-1.0-2.0-0.5","3","3","1","3","1","3","2","1","4","4","3","1","2","3","3","3","3","2","3","2","2","1","2","2","3","2","2","3","2","1","0","1","1","0","0","0","1","1","1","1","0","1","1","1","5","4","3","3","3","2","3","4","4","2","735065258095546369","李","178","","","","","","","","","","","","","","","","","","","","","","","","","","","","","","","","","","","","","","","",""
"585","<p style=""color:rgb(150, 250, 100); font-size: 35px;"">他人</p>","i","categorize-html","20","476985","0.0-6.0-1.0-2.0-1.5","3","3","1","3","1","3","2","1","4","4","3","1","2","3","3","3","3","2","3","2","2","1","2","2","3","2","2","3","2","1","0","1","1","0","0","0","1","1","1","1","0","1","1","1","5","4","3","3","3","2","3","4","4","2","735065258095546369","李","178","","","","","","","","","","","","","","","","","","","true","11","1","moral","585","other","他人","","","","","","","","","","","","","","",""
"null","","null","html-keyboard-response","21","477236","0.0-6.0-1.0-2.0-0.6","3","3","1","3","1","3","2","1","4","4","3","1","2","3","3","3","3","2","3","2","2","1","2","2","3","2","2","3","2","1","0","1","1","0","0","0","1","1","1","1","0","1","1","1","5","4","3","3","3","2","3","4","4","2","735065258095546369","李","178","","","","","","","","","","","","","","","","","","","","","","","","","","","","","","","","","","","","","","","",""
"490","<p style=""color:rgb(150, 250, 100); font-size: 35px;"">本人</p>","e","categorize-html","22","477728","0.0-6.0-1.0-2.0-1.6","3","3","1","3","1","3","2","1","4","4","3","1","2","3","3","3","3","2","3","2","2","1","2","2","3","2","2","3","2","1","0","1","1","0","0","0","1","1","1","1","0","1","1","1","5","4","3","3","3","2","3","4","4","2","735065258095546369","李","178","","","","","","","","","","","","","","","","","","","true","11","1","moral","490","self","本人","","","","","","","","","","","","","","",""
"null","","null","html-keyboard-response","23","477981","0.0-6.0-1.0-2.0-0.7","3","3","1","3","1","3","2","1","4","4","3","1","2","3","3","3","3","2","3","2","2","1","2","2","3","2","2","3","2","1","0","1","1","0","0","0","1","1","1","1","0","1","1","1","5","4","3","3","3","2","3","4","4","2","735065258095546369","李","178","","","","","","","","","","","","","","","","","","","","","","","","","","","","","","","","","","","","","","","",""
"538","<p style=""color:rgb(150, 250, 100); font-size: 35px;"">他人的</p>","i","categorize-html","24","478522","0.0-6.0-1.0-2.0-1.7","3","3","1","3","1","3","2","1","4","4","3","1","2","3","3","3","3","2","3","2","2","1","2","2","3","2","2","3","2","1","0","1","1","0","0","0","1","1","1","1","0","1","1","1","5","4","3","3","3","2","3","4","4","2","735065258095546369","李","178","","","","","","","","","","","","","","","","","","","true","11","1","moral","538","other","他人的","","","","","","","","","","","","","","",""
"null","","null","html-keyboard-response","25","478774","0.0-6.0-1.0-2.0-0.8","3","3","1","3","1","3","2","1","4","4","3","1","2","3","3","3","3","2","3","2","2","1","2","2","3","2","2","3","2","1","0","1","1","0","0","0","1","1","1","1","0","1","1","1","5","4","3","3","3","2","3","4","4","2","735065258095546369","李","178","","","","","","","","","","","","","","","","","","","","","","","","","","","","","","","","","","","","","","","",""
"655","<p style=""color:rgb(150, 250, 100); font-size: 35px;"">他</p>","i","categorize-html","26","479432","0.0-6.0-1.0-2.0-1.8","3","3","1","3","1","3","2","1","4","4","3","1","2","3","3","3","3","2","3","2","2","1","2","2","3","2","2","3","2","1","0","1","1","0","0","0","1","1","1","1","0","1","1","1","5","4","3","3","3","2","3","4","4","2","735065258095546369","李","178","","","","","","","","","","","","","","","","","","","true","11","1","moral","655","other","他","","","","","","","","","","","","","","",""
"null","","null","html-keyboard-response","27","479683","0.0-6.0-1.0-2.0-0.9","3","3","1","3","1","3","2","1","4","4","3","1","2","3","3","3","3","2","3","2","2","1","2","2","3","2","2","3","2","1","0","1","1","0","0","0","1","1","1","1","0","1","1","1","5","4","3","3","3","2","3","4","4","2","735065258095546369","李","178","","","","","","","","","","","","","","","","","","","","","","","","","","","","","","","","","","","","","","","",""
"822","<p style=""color:rgb(150, 250, 100); font-size: 35px;"">别人</p>","i","categorize-html","28","480506","0.0-6.0-1.0-2.0-1.9","3","3","1","3","1","3","2","1","4","4","3","1","2","3","3","3","3","2","3","2","2","1","2","2","3","2","2","3","2","1","0","1","1","0","0","0","1","1","1","1","0","1","1","1","5","4","3","3","3","2","3","4","4","2","735065258095546369","李","178","","","","","","","","","","","","","","","","","","","true","11","1","moral","822","other","别人","","","","","","","","","","","","","","",""
"null","","null","html-keyboard-response","29","480758","0.0-6.0-1.0-2.0-0.10","3","3","1","3","1","3","2","1","4","4","3","1","2","3","3","3","3","2","3","2","2","1","2","2","3","2","2","3","2","1","0","1","1","0","0","0","1","1","1","1","0","1","1","1","5","4","3","3","3","2","3","4","4","2","735065258095546369","李","178","","","","","","","","","","","","","","","","","","","","","","","","","","","","","","","","","","","","","","","",""
"1310","<p style=""color:rgb(150, 250, 100); font-size: 35px;"">别人的</p>","i","categorize-html","30","482069","0.0-6.0-1.0-2.0-1.10","3","3","1","3","1","3","2","1","4","4","3","1","2","3","3","3","3","2","3","2","2","1","2","2","3","2","2","3","2","1","0","1","1","0","0","0","1","1","1","1","0","1","1","1","5","4","3","3","3","2","3","4","4","2","735065258095546369","李","178","","","","","","","","","","","","","","","","","","","true","11","1","moral","1310","other","别人的","","","","","","","","","","","","","","",""
"null","","null","html-keyboard-response","31","482324","0.0-6.0-1.0-2.0-0.11","3","3","1","3","1","3","2","1","4","4","3","1","2","3","3","3","3","2","3","2","2","1","2","2","3","2","2","3","2","1","0","1","1","0","0","0","1","1","1","1","0","1","1","1","5","4","3","3","3","2","3","4","4","2","735065258095546369","李","178","","","","","","","","","","","","","","","","","","","","","","","","","","","","","","","","","","","","","","","",""
"609","<p style=""color:rgb(150, 250, 100); font-size: 35px;"">我</p>","e","categorize-html","32","482934","0.0-6.0-1.0-2.0-1.11","3","3","1","3","1","3","2","1","4","4","3","1","2","3","3","3","3","2","3","2","2","1","2","2","3","2","2","3","2","1","0","1","1","0","0","0","1","1","1","1","0","1","1","1","5","4","3","3","3","2","3","4","4","2","735065258095546369","李","178","","","","","","","","","","","","","","","","","","","true","11","1","moral","609","self","我","","","","","","","","","","","","","","",""
"3688","
    <div class=""tag-bottom""><p>
    —— 任务2：对“积极”词和“消极”词分类 ——<p/>   
    <span style=""color:#78DCE8""><b>注意上方，类别标签和需要分类的词语都已经改变</b></span><p/>
    <span style=""color:#FFD866""><b>请根据上方标签的提示，尽可能正确并且快速地做出按键反应</b></span><p/>
    当按键错误时屏幕中会出现<span style=""color:red""> X </span>，需要按另一个键纠正才能继续<br/><p/>
    请把双手食指分别放在键盘的“E”键和“I”键上<p/>
    按<空格键>开始
    </p></div>"," ","html-keyboard-response","33","486623","0.0-6.0-1.0-3.0","3","3","1","3","1","3","2","1","4","4","3","1","2","3","3","3","3","2","3","2","2","1","2","2","3","2","2","3","2","1","0","1","1","0","0","0","1","1","1","1","0","1","1","1","5","4","3","3","3","2","3","4","4","2","735065258095546369","李","178","","","","","","","","","","","","","","","","","","","","","","","","","","","","","","","","","","","","","","","",""
"null","","null","html-keyboard-response","34","486876","0.0-6.0-1.0-4.0-0.0","3","3","1","3","1","3","2","1","4","4","3","1","2","3","3","3","3","2","3","2","2","1","2","2","3","2","2","3","2","1","0","1","1","0","0","0","1","1","1","1","0","1","1","1","5","4","3","3","3","2","3","4","4","2","735065258095546369","李","178","","","","","","","","","","","","","","","","","","","","","","","","","","","","","","","","","","","","","","","",""
"497","<p style=""color:white; font-size: 35px;"">高尚</p>","e","categorize-html","35","487376","0.0-6.0-1.0-4.0-1.0","3","3","1","3","1","3","2","1","4","4","3","1","2","3","3","3","3","2","3","2","2","1","2","2","3","2","2","3","2","1","0","1","1","0","0","0","1","1","1","1","0","1","1","1","5","4","3","3","3","2","3","4","4","2","735065258095546369","李","178","","","","","","","","","","","","","","","","","","","true","12","2","moral","497","positive","高尚","","","","","","","","","","","","","","",""
"null","","null","html-keyboard-response","36","487629","0.0-6.0-1.0-4.0-0.1","3","3","1","3","1","3","2","1","4","4","3","1","2","3","3","3","3","2","3","2","2","1","2","2","3","2","2","3","2","1","0","1","1","0","0","0","1","1","1","1","0","1","1","1","5","4","3","3","3","2","3","4","4","2","735065258095546369","李","178","","","","","","","","","","","","","","","","","","","","","","","","","","","","","","","","","","","","","","","",""
"469","<p style=""color:white; font-size: 35px;"">不仁</p>","i","categorize-html","37","488100","0.0-6.0-1.0-4.0-1.1","3","3","1","3","1","3","2","1","4","4","3","1","2","3","3","3","3","2","3","2","2","1","2","2","3","2","2","3","2","1","0","1","1","0","0","0","1","1","1","1","0","1","1","1","5","4","3","3","3","2","3","4","4","2","735065258095546369","李","178","","","","","","","","","","","","","","","","","","","true","12","2","moral","469","negative","不仁","","","","","","","","","","","","","","",""
"null","","null","html-keyboard-response","38","488352","0.0-6.0-1.0-4.0-0.2","3","3","1","3","1","3","2","1","4","4","3","1","2","3","3","3","3","2","3","2","2","1","2","2","3","2","2","3","2","1","0","1","1","0","0","0","1","1","1","1","0","1","1","1","5","4","3","3","3","2","3","4","4","2","735065258095546369","李","178","","","","","","","","","","","","","","","","","","","","","","","","","","","","","","","","","","","","","","","",""
"590","<p style=""color:white; font-size: 35px;"">正直</p>","e","categorize-html","39","488945","0.0-6.0-1.0-4.0-1.2","3","3","1","3","1","3","2","1","4","4","3","1","2","3","3","3","3","2","3","2","2","1","2","2","3","2","2","3","2","1","0","1","1","0","0","0","1","1","1","1","0","1","1","1","5","4","3","3","3","2","3","4","4","2","735065258095546369","李","178","","","","","","","","","","","","","","","","","","","true","12","2","moral","590","positive","正直","","","","","","","","","","","","","","",""
"null","","null","html-keyboard-response","40","489197","0.0-6.0-1.0-4.0-0.3","3","3","1","3","1","3","2","1","4","4","3","1","2","3","3","3","3","2","3","2","2","1","2","2","3","2","2","3","2","1","0","1","1","0","0","0","1","1","1","1","0","1","1","1","5","4","3","3","3","2","3","4","4","2","735065258095546369","李","178","","","","","","","","","","","","","","","","","","","","","","","","","","","","","","","","","","","","","","","",""
"535","<p style=""color:white; font-size: 35px;"">善良</p>","e","categorize-html","41","489736","0.0-6.0-1.0-4.0-1.3","3","3","1","3","1","3","2","1","4","4","3","1","2","3","3","3","3","2","3","2","2","1","2","2","3","2","2","3","2","1","0","1","1","0","0","0","1","1","1","1","0","1","1","1","5","4","3","3","3","2","3","4","4","2","735065258095546369","李","178","","","","","","","","","","","","","","","","","","","true","12","2","moral","535","positive","善良","","","","","","","","","","","","","","",""
"null","","null","html-keyboard-response","42","489988","0.0-6.0-1.0-4.0-0.4","3","3","1","3","1","3","2","1","4","4","3","1","2","3","3","3","3","2","3","2","2","1","2","2","3","2","2","3","2","1","0","1","1","0","0","0","1","1","1","1","0","1","1","1","5","4","3","3","3","2","3","4","4","2","735065258095546369","李","178","","","","","","","","","","","","","","","","","","","","","","","","","","","","","","","","","","","","","","","",""
"469","<p style=""color:white; font-size: 35px;"">缺德</p>","i","categorize-html","43","490458","0.0-6.0-1.0-4.0-1.4","3","3","1","3","1","3","2","1","4","4","3","1","2","3","3","3","3","2","3","2","2","1","2","2","3","2","2","3","2","1","0","1","1","0","0","0","1","1","1","1","0","1","1","1","5","4","3","3","3","2","3","4","4","2","735065258095546369","李","178","","","","","","","","","","","","","","","","","","","true","12","2","moral","469","negative","缺德","","","","","","","","","","","","","","",""
"null","","null","html-keyboard-response","44","490713","0.0-6.0-1.0-4.0-0.5","3","3","1","3","1","3","2","1","4","4","3","1","2","3","3","3","3","2","3","2","2","1","2","2","3","2","2","3","2","1","0","1","1","0","0","0","1","1","1","1","0","1","1","1","5","4","3","3","3","2","3","4","4","2","735065258095546369","李","178","","","","","","","","","","","","","","","","","","","","","","","","","","","","","","","","","","","","","","","",""
"573","<p style=""color:white; font-size: 35px;"">小人</p>","i","categorize-html","45","491288","0.0-6.0-1.0-4.0-1.5","3","3","1","3","1","3","2","1","4","4","3","1","2","3","3","3","3","2","3","2","2","1","2","2","3","2","2","3","2","1","0","1","1","0","0","0","1","1","1","1","0","1","1","1","5","4","3","3","3","2","3","4","4","2","735065258095546369","李","178","","","","","","","","","","","","","","","","","","","true","12","2","moral","573","negative","小人","","","","","","","","","","","","","","",""
"null","","null","html-keyboard-response","46","491542","0.0-6.0-1.0-4.0-0.6","3","3","1","3","1","3","2","1","4","4","3","1","2","3","3","3","3","2","3","2","2","1","2","2","3","2","2","3","2","1","0","1","1","0","0","0","1","1","1","1","0","1","1","1","5","4","3","3","3","2","3","4","4","2","735065258095546369","李","178","","","","","","","","","","","","","","","","","","","","","","","","","","","","","","","","","","","","","","","",""
"727","<p style=""color:white; font-size: 35px;"">不孝</p>","i","categorize-html","47","492271","0.0-6.0-1.0-4.0-1.6","3","3","1","3","1","3","2","1","4","4","3","1","2","3","3","3","3","2","3","2","2","1","2","2","3","2","2","3","2","1","0","1","1","0","0","0","1","1","1","1","0","1","1","1","5","4","3","3","3","2","3","4","4","2","735065258095546369","李","178","","","","","","","","","","","","","","","","","","","true","12","2","moral","727","negative","不孝","","","","","","","","","","","","","","",""
"null","","null","html-keyboard-response","48","492536","0.0-6.0-1.0-4.0-0.7","3","3","1","3","1","3","2","1","4","4","3","1","2","3","3","3","3","2","3","2","2","1","2","2","3","2","2","3","2","1","0","1","1","0","0","0","1","1","1","1","0","1","1","1","5","4","3","3","3","2","3","4","4","2","735065258095546369","李","178","","","","","","","","","","","","","","","","","","","","","","","","","","","","","","","","","","","","","","","",""
"466","<p style=""color:white; font-size: 35px;"">卑鄙</p>","e","categorize-html","49","493405","0.0-6.0-1.0-4.0-1.7","3","3","1","3","1","3","2","1","4","4","3","1","2","3","3","3","3","2","3","2","2","1","2","2","3","2","2","3","2","1","0","1","1","0","0","0","1","1","1","1","0","1","1","1","5","4","3","3","3","2","3","4","4","2","735065258095546369","李","178","","","","","","","","","","","","","","","","","","","false","12","2","moral","466","negative","卑鄙","","","","","","","","","","","","","","",""
"null","","null","html-keyboard-response","50","493660","0.0-6.0-1.0-4.0-0.8","3","3","1","3","1","3","2","1","4","4","3","1","2","3","3","3","3","2","3","2","2","1","2","2","3","2","2","3","2","1","0","1","1","0","0","0","1","1","1","1","0","1","1","1","5","4","3","3","3","2","3","4","4","2","735065258095546369","李","178","","","","","","","","","","","","","","","","","","","","","","","","","","","","","","","","","","","","","","","",""
"581","<p style=""color:white; font-size: 35px;"">君子</p>","i","categorize-html","51","494258","0.0-6.0-1.0-4.0-1.8","3","3","1","3","1","3","2","1","4","4","3","1","2","3","3","3","3","2","3","2","2","1","2","2","3","2","2","3","2","1","0","1","1","0","0","0","1","1","1","1","0","1","1","1","5","4","3","3","3","2","3","4","4","2","735065258095546369","李","178","","","","","","","","","","","","","","","","","","","false","12","2","moral","581","positive","君子","","","","","","","","","","","","","","",""
"null","","null","html-keyboard-response","52","494510","0.0-6.0-1.0-4.0-0.9","3","3","1","3","1","3","2","1","4","4","3","1","2","3","3","3","3","2","3","2","2","1","2","2","3","2","2","3","2","1","0","1","1","0","0","0","1","1","1","1","0","1","1","1","5","4","3","3","3","2","3","4","4","2","735065258095546369","李","178","","","","","","","","","","","","","","","","","","","","","","","","","","","","","","","","","","","","","","","",""
"616","<p style=""color:white; font-size: 35px;"">诚信</p>","e","categorize-html","53","495128","0.0-6.0-1.0-4.0-1.9","3","3","1","3","1","3","2","1","4","4","3","1","2","3","3","3","3","2","3","2","2","1","2","2","3","2","2","3","2","1","0","1","1","0","0","0","1","1","1","1","0","1","1","1","5","4","3","3","3","2","3","4","4","2","735065258095546369","李","178","","","","","","","","","","","","","","","","","","","true","12","2","moral","616","positive","诚信","","","","","","","","","","","","","","",""
"null","","null","html-keyboard-response","54","495380","0.0-6.0-1.0-4.0-0.10","3","3","1","3","1","3","2","1","4","4","3","1","2","3","3","3","3","2","3","2","2","1","2","2","3","2","2","3","2","1","0","1","1","0","0","0","1","1","1","1","0","1","1","1","5","4","3","3","3","2","3","4","4","2","735065258095546369","李","178","","","","","","","","","","","","","","","","","","","","","","","","","","","","","","","","","","","","","","","",""
"465","<p style=""color:white; font-size: 35px;"">廉正</p>","e","categorize-html","55","495846","0.0-6.0-1.0-4.0-1.10","3","3","1","3","1","3","2","1","4","4","3","1","2","3","3","3","3","2","3","2","2","1","2","2","3","2","2","3","2","1","0","1","1","0","0","0","1","1","1","1","0","1","1","1","5","4","3","3","3","2","3","4","4","2","735065258095546369","李","178","","","","","","","","","","","","","","","","","","","true","12","2","moral","465","positive","廉正","","","","","","","","","","","","","","",""
"null","","null","html-keyboard-response","56","496099","0.0-6.0-1.0-4.0-0.11","3","3","1","3","1","3","2","1","4","4","3","1","2","3","3","3","3","2","3","2","2","1","2","2","3","2","2","3","2","1","0","1","1","0","0","0","1","1","1","1","0","1","1","1","5","4","3","3","3","2","3","4","4","2","735065258095546369","李","178","","","","","","","","","","","","","","","","","","","","","","","","","","","","","","","","","","","","","","","",""
"603","<p style=""color:white; font-size: 35px;"">黑心</p>","i","categorize-html","57","496704","0.0-6.0-1.0-4.0-1.11","3","3","1","3","1","3","2","1","4","4","3","1","2","3","3","3","3","2","3","2","2","1","2","2","3","2","2","3","2","1","0","1","1","0","0","0","1","1","1","1","0","1","1","1","5","4","3","3","3","2","3","4","4","2","735065258095546369","李","178","","","","","","","","","","","","","","","","","","","true","12","2","moral","603","negative","黑心","","","","","","","","","","","","","","",""
"2461","
    <div class=""tag-bottom""><p>
    —— 任务3：对“自我/积极”词和“他人/消极”词分类 ——<p/>
    <span style=""color:#78DCE8""><b>注意上方，之前的四类词语将混合在一起交替呈现</b></span><p/>
    <span style=""color:#FFD866""><b>请根据上方标签的提示，尽可能正确并且快速地做出按键反应</b></span><p/>
    当按键错误时屏幕中会出现<span style=""color:red""> X </span>，需要按另一个键纠正才能继续<br/><p/>
    请把双手食指分别放在键盘的“E”键和“I”键上<p/>
    按<空格键>开始
    </p></div>"," ","html-keyboard-response","58","499166","0.0-6.0-1.0-5.0","3","3","1","3","1","3","2","1","4","4","3","1","2","3","3","3","3","2","3","2","2","1","2","2","3","2","2","3","2","1","0","1","1","0","0","0","1","1","1","1","0","1","1","1","5","4","3","3","3","2","3","4","4","2","735065258095546369","李","178","","","","","","","","","","","","","","","","","","","","","","","","","","","","","","","","","","","","","","","",""
"null","","null","html-keyboard-response","59","499419","0.0-6.0-1.0-6.0-0.0","3","3","1","3","1","3","2","1","4","4","3","1","2","3","3","3","3","2","3","2","2","1","2","2","3","2","2","3","2","1","0","1","1","0","0","0","1","1","1","1","0","1","1","1","5","4","3","3","3","2","3","4","4","2","735065258095546369","李","178","","","","","","","","","","","","","","","","","","","","","","","","","","","","","","","","","","","","","","","",""
"693","<p style=""color:rgb(150, 250, 100); font-size: 35px;"">他人</p>","i","categorize-html","60","500117","0.0-6.0-1.0-6.0-1.0","3","3","1","3","1","3","2","1","4","4","3","1","2","3","3","3","3","2","3","2","2","1","2","2","3","2","2","3","2","1","0","1","1","0","0","0","1","1","1","1","0","1","1","1","5","4","3","3","3","2","3","4","4","2","735065258095546369","李","178","","","","","","","","","","","","","","","","","","","true","13","3","moral","693","other","他人","","","","","","","","","","","","","","",""
"null","","null","html-keyboard-response","61","500368","0.0-6.0-1.0-6.0-0.1","3","3","1","3","1","3","2","1","4","4","3","1","2","3","3","3","3","2","3","2","2","1","2","2","3","2","2","3","2","1","0","1","1","0","0","0","1","1","1","1","0","1","1","1","5","4","3","3","3","2","3","4","4","2","735065258095546369","李","178","","","","","","","","","","","","","","","","","","","","","","","","","","","","","","","","","","","","","","","",""
"982","<p style=""color:white; font-size: 35px;"">不孝</p>","i","categorize-html","62","501351","0.0-6.0-1.0-6.0-1.1","3","3","1","3","1","3","2","1","4","4","3","1","2","3","3","3","3","2","3","2","2","1","2","2","3","2","2","3","2","1","0","1","1","0","0","0","1","1","1","1","0","1","1","1","5","4","3","3","3","2","3","4","4","2","735065258095546369","李","178","","","","","","","","","","","","","","","","","","","true","13","3","moral","982","negative","不孝","","","","","","","","","","","","","","",""
"null","","null","html-keyboard-response","63","501603","0.0-6.0-1.0-6.0-0.2","3","3","1","3","1","3","2","1","4","4","3","1","2","3","3","3","3","2","3","2","2","1","2","2","3","2","2","3","2","1","0","1","1","0","0","0","1","1","1","1","0","1","1","1","5","4","3","3","3","2","3","4","4","2","735065258095546369","李","178","","","","","","","","","","","","","","","","","","","","","","","","","","","","","","","","","","","","","","","",""
"660","<p style=""color:rgb(150, 250, 100); font-size: 35px;"">自己的</p>","e","categorize-html","64","502265","0.0-6.0-1.0-6.0-1.2","3","3","1","3","1","3","2","1","4","4","3","1","2","3","3","3","3","2","3","2","2","1","2","2","3","2","2","3","2","1","0","1","1","0","0","0","1","1","1","1","0","1","1","1","5","4","3","3","3","2","3","4","4","2","735065258095546369","李","178","","","","","","","","","","","","","","","","","","","true","13","3","moral","660","self","自己的","","","","","","","","","","","","","","",""
"null","","null","html-keyboard-response","65","502518","0.0-6.0-1.0-6.0-0.3","3","3","1","3","1","3","2","1","4","4","3","1","2","3","3","3","3","2","3","2","2","1","2","2","3","2","2","3","2","1","0","1","1","0","0","0","1","1","1","1","0","1","1","1","5","4","3","3","3","2","3","4","4","2","735065258095546369","李","178","","","","","","","","","","","","","","","","","","","","","","","","","","","","","","","","","","","","","","","",""
"720","<p style=""color:white; font-size: 35px;"">君子</p>","e","categorize-html","66","503239","0.0-6.0-1.0-6.0-1.3","3","3","1","3","1","3","2","1","4","4","3","1","2","3","3","3","3","2","3","2","2","1","2","2","3","2","2","3","2","1","0","1","1","0","0","0","1","1","1","1","0","1","1","1","5","4","3","3","3","2","3","4","4","2","735065258095546369","李","178","","","","","","","","","","","","","","","","","","","true","13","3","moral","720","positive","君子","","","","","","","","","","","","","","",""
"null","","null","html-keyboard-response","67","503491","0.0-6.0-1.0-6.0-0.4","3","3","1","3","1","3","2","1","4","4","3","1","2","3","3","3","3","2","3","2","2","1","2","2","3","2","2","3","2","1","0","1","1","0","0","0","1","1","1","1","0","1","1","1","5","4","3","3","3","2","3","4","4","2","735065258095546369","李","178","","","","","","","","","","","","","","","","","","","","","","","","","","","","","","","","","","","","","","","",""
"513","<p style=""color:rgb(150, 250, 100); font-size: 35px;"">本人</p>","e","categorize-html","68","504008","0.0-6.0-1.0-6.0-1.4","3","3","1","3","1","3","2","1","4","4","3","1","2","3","3","3","3","2","3","2","2","1","2","2","3","2","2","3","2","1","0","1","1","0","0","0","1","1","1","1","0","1","1","1","5","4","3","3","3","2","3","4","4","2","735065258095546369","李","178","","","","","","","","","","","","","","","","","","","true","13","3","moral","513","self","本人","","","","","","","","","","","","","","",""
"null","","null","html-keyboard-response","69","504264","0.0-6.0-1.0-6.0-0.5","3","3","1","3","1","3","2","1","4","4","3","1","2","3","3","3","3","2","3","2","2","1","2","2","3","2","2","3","2","1","0","1","1","0","0","0","1","1","1","1","0","1","1","1","5","4","3","3","3","2","3","4","4","2","735065258095546369","李","178","","","","","","","","","","","","","","","","","","","","","","","","","","","","","","","","","","","","","","","",""
"536","<p style=""color:white; font-size: 35px;"">卑鄙</p>","i","categorize-html","70","504803","0.0-6.0-1.0-6.0-1.5","3","3","1","3","1","3","2","1","4","4","3","1","2","3","3","3","3","2","3","2","2","1","2","2","3","2","2","3","2","1","0","1","1","0","0","0","1","1","1","1","0","1","1","1","5","4","3","3","3","2","3","4","4","2","735065258095546369","李","178","","","","","","","","","","","","","","","","","","","true","13","3","moral","536","negative","卑鄙","","","","","","","","","","","","","","",""
"null","","null","html-keyboard-response","71","505056","0.0-6.0-1.0-6.0-0.6","3","3","1","3","1","3","2","1","4","4","3","1","2","3","3","3","3","2","3","2","2","1","2","2","3","2","2","3","2","1","0","1","1","0","0","0","1","1","1","1","0","1","1","1","5","4","3","3","3","2","3","4","4","2","735065258095546369","李","178","","","","","","","","","","","","","","","","","","","","","","","","","","","","","","","","","","","","","","","",""
"702","<p style=""color:rgb(150, 250, 100); font-size: 35px;"">他</p>","i","categorize-html","72","505759","0.0-6.0-1.0-6.0-1.6","3","3","1","3","1","3","2","1","4","4","3","1","2","3","3","3","3","2","3","2","2","1","2","2","3","2","2","3","2","1","0","1","1","0","0","0","1","1","1","1","0","1","1","1","5","4","3","3","3","2","3","4","4","2","735065258095546369","李","178","","","","","","","","","","","","","","","","","","","true","13","3","moral","702","other","他","","","","","","","","","","","","","","",""
"null","","null","html-keyboard-response","73","506011","0.0-6.0-1.0-6.0-0.7","3","3","1","3","1","3","2","1","4","4","3","1","2","3","3","3","3","2","3","2","2","1","2","2","3","2","2","3","2","1","0","1","1","0","0","0","1","1","1","1","0","1","1","1","5","4","3","3","3","2","3","4","4","2","735065258095546369","李","178","","","","","","","","","","","","","","","","","","","","","","","","","","","","","","","","","","","","","","","",""
"627","<p style=""color:white; font-size: 35px;"">正直</p>","e","categorize-html","74","506639","0.0-6.0-1.0-6.0-1.7","3","3","1","3","1","3","2","1","4","4","3","1","2","3","3","3","3","2","3","2","2","1","2","2","3","2","2","3","2","1","0","1","1","0","0","0","1","1","1","1","0","1","1","1","5","4","3","3","3","2","3","4","4","2","735065258095546369","李","178","","","","","","","","","","","","","","","","","","","true","13","3","moral","627","positive","正直","","","","","","","","","","","","","","",""
"null","","null","html-keyboard-response","75","506890","0.0-6.0-1.0-6.0-0.8","3","3","1","3","1","3","2","1","4","4","3","1","2","3","3","3","3","2","3","2","2","1","2","2","3","2","2","3","2","1","0","1","1","0","0","0","1","1","1","1","0","1","1","1","5","4","3","3","3","2","3","4","4","2","735065258095546369","李","178","","","","","","","","","","","","","","","","","","","","","","","","","","","","","","","","","","","","","","","",""
"558","<p style=""color:rgb(150, 250, 100); font-size: 35px;"">本人的</p>","e","categorize-html","76","507451","0.0-6.0-1.0-6.0-1.8","3","3","1","3","1","3","2","1","4","4","3","1","2","3","3","3","3","2","3","2","2","1","2","2","3","2","2","3","2","1","0","1","1","0","0","0","1","1","1","1","0","1","1","1","5","4","3","3","3","2","3","4","4","2","735065258095546369","李","178","","","","","","","","","","","","","","","","","","","true","13","3","moral","558","self","本人的","","","","","","","","","","","","","","",""
"null","","null","html-keyboard-response","77","507703","0.0-6.0-1.0-6.0-0.9","3","3","1","3","1","3","2","1","4","4","3","1","2","3","3","3","3","2","3","2","2","1","2","2","3","2","2","3","2","1","0","1","1","0","0","0","1","1","1","1","0","1","1","1","5","4","3","3","3","2","3","4","4","2","735065258095546369","李","178","","","","","","","","","","","","","","","","","","","","","","","","","","","","","","","","","","","","","","","",""
"579","<p style=""color:white; font-size: 35px;"">高尚</p>","e","categorize-html","78","508284","0.0-6.0-1.0-6.0-1.9","3","3","1","3","1","3","2","1","4","4","3","1","2","3","3","3","3","2","3","2","2","1","2","2","3","2","2","3","2","1","0","1","1","0","0","0","1","1","1","1","0","1","1","1","5","4","3","3","3","2","3","4","4","2","735065258095546369","李","178","","","","","","","","","","","","","","","","","","","true","13","3","moral","579","positive","高尚","","","","","","","","","","","","","","",""
"null","","null","html-keyboard-response","79","508536","0.0-6.0-1.0-6.0-0.10","3","3","1","3","1","3","2","1","4","4","3","1","2","3","3","3","3","2","3","2","2","1","2","2","3","2","2","3","2","1","0","1","1","0","0","0","1","1","1","1","0","1","1","1","5","4","3","3","3","2","3","4","4","2","735065258095546369","李","178","","","","","","","","","","","","","","","","","","","","","","","","","","","","","","","","","","","","","","","",""
"580","<p style=""color:rgb(150, 250, 100); font-size: 35px;"">别人</p>","i","categorize-html","80","509119","0.0-6.0-1.0-6.0-1.10","3","3","1","3","1","3","2","1","4","4","3","1","2","3","3","3","3","2","3","2","2","1","2","2","3","2","2","3","2","1","0","1","1","0","0","0","1","1","1","1","0","1","1","1","5","4","3","3","3","2","3","4","4","2","735065258095546369","李","178","","","","","","","","","","","","","","","","","","","true","13","3","moral","580","other","别人","","","","","","","","","","","","","","",""
"null","","null","html-keyboard-response","81","509370","0.0-6.0-1.0-6.0-0.11","3","3","1","3","1","3","2","1","4","4","3","1","2","3","3","3","3","2","3","2","2","1","2","2","3","2","2","3","2","1","0","1","1","0","0","0","1","1","1","1","0","1","1","1","5","4","3","3","3","2","3","4","4","2","735065258095546369","李","178","","","","","","","","","","","","","","","","","","","","","","","","","","","","","","","","","","","","","","","",""
"648","<p style=""color:white; font-size: 35px;"">不仁</p>","e","categorize-html","82","510421","0.0-6.0-1.0-6.0-1.11","3","3","1","3","1","3","2","1","4","4","3","1","2","3","3","3","3","2","3","2","2","1","2","2","3","2","2","3","2","1","0","1","1","0","0","0","1","1","1","1","0","1","1","1","5","4","3","3","3","2","3","4","4","2","735065258095546369","李","178","","","","","","","","","","","","","","","","","","","false","13","3","moral","1205.4347826086955","negative","不仁","","","","","","","","","","","","","","",""
"null","","null","html-keyboard-response","83","510675","0.0-6.0-1.0-6.0-0.12","3","3","1","3","1","3","2","1","4","4","3","1","2","3","3","3","3","2","3","2","2","1","2","2","3","2","2","3","2","1","0","1","1","0","0","0","1","1","1","1","0","1","1","1","5","4","3","3","3","2","3","4","4","2","735065258095546369","李","178","","","","","","","","","","","","","","","","","","","","","","","","","","","","","","","","","","","","","","","",""
"545","<p style=""color:rgb(150, 250, 100); font-size: 35px;"">我</p>","e","categorize-html","84","511223","0.0-6.0-1.0-6.0-1.12","3","3","1","3","1","3","2","1","4","4","3","1","2","3","3","3","3","2","3","2","2","1","2","2","3","2","2","3","2","1","0","1","1","0","0","0","1","1","1","1","0","1","1","1","5","4","3","3","3","2","3","4","4","2","735065258095546369","李","178","","","","","","","","","","","","","","","","","","","true","13","3","moral","545","self","我","","","","","","","","","","","","","","",""
"null","","null","html-keyboard-response","85","511478","0.0-6.0-1.0-6.0-0.13","3","3","1","3","1","3","2","1","4","4","3","1","2","3","3","3","3","2","3","2","2","1","2","2","3","2","2","3","2","1","0","1","1","0","0","0","1","1","1","1","0","1","1","1","5","4","3","3","3","2","3","4","4","2","735065258095546369","李","178","","","","","","","","","","","","","","","","","","","","","","","","","","","","","","","","","","","","","","","",""
"479","<p style=""color:white; font-size: 35px;"">廉正</p>","e","categorize-html","86","511960","0.0-6.0-1.0-6.0-1.13","3","3","1","3","1","3","2","1","4","4","3","1","2","3","3","3","3","2","3","2","2","1","2","2","3","2","2","3","2","1","0","1","1","0","0","0","1","1","1","1","0","1","1","1","5","4","3","3","3","2","3","4","4","2","735065258095546369","李","178","","","","","","","","","","","","","","","","","","","true","13","3","moral","479","positive","廉正","","","","","","","","","","","","","","",""
"null","","null","html-keyboard-response","87","512212","0.0-6.0-1.0-6.0-0.14","3","3","1","3","1","3","2","1","4","4","3","1","2","3","3","3","3","2","3","2","2","1","2","2","3","2","2","3","2","1","0","1","1","0","0","0","1","1","1","1","0","1","1","1","5","4","3","3","3","2","3","4","4","2","735065258095546369","李","178","","","","","","","","","","","","","","","","","","","","","","","","","","","","","","","","","","","","","","","",""
"547","<p style=""color:rgb(150, 250, 100); font-size: 35px;"">他的</p>","i","categorize-html","88","512761","0.0-6.0-1.0-6.0-1.14","3","3","1","3","1","3","2","1","4","4","3","1","2","3","3","3","3","2","3","2","2","1","2","2","3","2","2","3","2","1","0","1","1","0","0","0","1","1","1","1","0","1","1","1","5","4","3","3","3","2","3","4","4","2","735065258095546369","李","178","","","","","","","","","","","","","","","","","","","true","13","3","moral","547","other","他的","","","","","","","","","","","","","","",""
"null","","null","html-keyboard-response","89","513012","0.0-6.0-1.0-6.0-0.15","3","3","1","3","1","3","2","1","4","4","3","1","2","3","3","3","3","2","3","2","2","1","2","2","3","2","2","3","2","1","0","1","1","0","0","0","1","1","1","1","0","1","1","1","5","4","3","3","3","2","3","4","4","2","735065258095546369","李","178","","","","","","","","","","","","","","","","","","","","","","","","","","","","","","","","","","","","","","","",""
"557","<p style=""color:white; font-size: 35px;"">小人</p>","i","categorize-html","90","513573","0.0-6.0-1.0-6.0-1.15","3","3","1","3","1","3","2","1","4","4","3","1","2","3","3","3","3","2","3","2","2","1","2","2","3","2","2","3","2","1","0","1","1","0","0","0","1","1","1","1","0","1","1","1","5","4","3","3","3","2","3","4","4","2","735065258095546369","李","178","","","","","","","","","","","","","","","","","","","true","13","3","moral","557","negative","小人","","","","","","","","","","","","","","",""
"null","","null","html-keyboard-response","91","513828","0.0-6.0-1.0-6.0-0.16","3","3","1","3","1","3","2","1","4","4","3","1","2","3","3","3","3","2","3","2","2","1","2","2","3","2","2","3","2","1","0","1","1","0","0","0","1","1","1","1","0","1","1","1","5","4","3","3","3","2","3","4","4","2","735065258095546369","李","178","","","","","","","","","","","","","","","","","","","","","","","","","","","","","","","","","","","","","","","",""
"530","<p style=""color:rgb(150, 250, 100); font-size: 35px;"">自己</p>","e","categorize-html","92","514361","0.0-6.0-1.0-6.0-1.16","3","3","1","3","1","3","2","1","4","4","3","1","2","3","3","3","3","2","3","2","2","1","2","2","3","2","2","3","2","1","0","1","1","0","0","0","1","1","1","1","0","1","1","1","5","4","3","3","3","2","3","4","4","2","735065258095546369","李","178","","","","","","","","","","","","","","","","","","","true","13","3","moral","530","self","自己","","","","","","","","","","","","","","",""
"null","","null","html-keyboard-response","93","514613","0.0-6.0-1.0-6.0-0.17","3","3","1","3","1","3","2","1","4","4","3","1","2","3","3","3","3","2","3","2","2","1","2","2","3","2","2","3","2","1","0","1","1","0","0","0","1","1","1","1","0","1","1","1","5","4","3","3","3","2","3","4","4","2","735065258095546369","李","178","","","","","","","","","","","","","","","","","","","","","","","","","","","","","","","","","","","","","","","",""
"541","<p style=""color:white; font-size: 35px;"">诚信</p>","e","categorize-html","94","515157","0.0-6.0-1.0-6.0-1.17","3","3","1","3","1","3","2","1","4","4","3","1","2","3","3","3","3","2","3","2","2","1","2","2","3","2","2","3","2","1","0","1","1","0","0","0","1","1","1","1","0","1","1","1","5","4","3","3","3","2","3","4","4","2","735065258095546369","李","178","","","","","","","","","","","","","","","","","","","true","13","3","moral","541","positive","诚信","","","","","","","","","","","","","","",""
"null","","null","html-keyboard-response","95","515408","0.0-6.0-1.0-6.0-0.18","3","3","1","3","1","3","2","1","4","4","3","1","2","3","3","3","3","2","3","2","2","1","2","2","3","2","2","3","2","1","0","1","1","0","0","0","1","1","1","1","0","1","1","1","5","4","3","3","3","2","3","4","4","2","735065258095546369","李","178","","","","","","","","","","","","","","","","","","","","","","","","","","","","","","","","","","","","","","","",""
"505","<p style=""color:rgb(150, 250, 100); font-size: 35px;"">他人的</p>","i","categorize-html","96","515914","0.0-6.0-1.0-6.0-1.18","3","3","1","3","1","3","2","1","4","4","3","1","2","3","3","3","3","2","3","2","2","1","2","2","3","2","2","3","2","1","0","1","1","0","0","0","1","1","1","1","0","1","1","1","5","4","3","3","3","2","3","4","4","2","735065258095546369","李","178","","","","","","","","","","","","","","","","","","","true","13","3","moral","505","other","他人的","","","","","","","","","","","","","","",""
"null","","null","html-keyboard-response","97","516166","0.0-6.0-1.0-6.0-0.19","3","3","1","3","1","3","2","1","4","4","3","1","2","3","3","3","3","2","3","2","2","1","2","2","3","2","2","3","2","1","0","1","1","0","0","0","1","1","1","1","0","1","1","1","5","4","3","3","3","2","3","4","4","2","735065258095546369","李","178","","","","","","","","","","","","","","","","","","","","","","","","","","","","","","","","","","","","","","","",""
"631","<p style=""color:white; font-size: 35px;"">黑心</p>","i","categorize-html","98","516798","0.0-6.0-1.0-6.0-1.19","3","3","1","3","1","3","2","1","4","4","3","1","2","3","3","3","3","2","3","2","2","1","2","2","3","2","2","3","2","1","0","1","1","0","0","0","1","1","1","1","0","1","1","1","5","4","3","3","3","2","3","4","4","2","735065258095546369","李","178","","","","","","","","","","","","","","","","","","","true","13","3","moral","631","negative","黑心","","","","","","","","","","","","","","",""
"null","","null","html-keyboard-response","99","517050","0.0-6.0-1.0-6.0-0.20","3","3","1","3","1","3","2","1","4","4","3","1","2","3","3","3","3","2","3","2","2","1","2","2","3","2","2","3","2","1","0","1","1","0","0","0","1","1","1","1","0","1","1","1","5","4","3","3","3","2","3","4","4","2","735065258095546369","李","178","","","","","","","","","","","","","","","","","","","","","","","","","","","","","","","","","","","","","","","",""
"521","<p style=""color:rgb(150, 250, 100); font-size: 35px;"">我的</p>","e","categorize-html","100","517573","0.0-6.0-1.0-6.0-1.20","3","3","1","3","1","3","2","1","4","4","3","1","2","3","3","3","3","2","3","2","2","1","2","2","3","2","2","3","2","1","0","1","1","0","0","0","1","1","1","1","0","1","1","1","5","4","3","3","3","2","3","4","4","2","735065258095546369","李","178","","","","","","","","","","","","","","","","","","","true","13","3","moral","521","self","我的","","","","","","","","","","","","","","",""
"null","","null","html-keyboard-response","101","517826","0.0-6.0-1.0-6.0-0.21","3","3","1","3","1","3","2","1","4","4","3","1","2","3","3","3","3","2","3","2","2","1","2","2","3","2","2","3","2","1","0","1","1","0","0","0","1","1","1","1","0","1","1","1","5","4","3","3","3","2","3","4","4","2","735065258095546369","李","178","","","","","","","","","","","","","","","","","","","","","","","","","","","","","","","","","","","","","","","",""
"694","<p style=""color:white; font-size: 35px;"">善良</p>","e","categorize-html","102","518523","0.0-6.0-1.0-6.0-1.21","3","3","1","3","1","3","2","1","4","4","3","1","2","3","3","3","3","2","3","2","2","1","2","2","3","2","2","3","2","1","0","1","1","0","0","0","1","1","1","1","0","1","1","1","5","4","3","3","3","2","3","4","4","2","735065258095546369","李","178","","","","","","","","","","","","","","","","","","","true","13","3","moral","694","positive","善良","","","","","","","","","","","","","","",""
"null","","null","html-keyboard-response","103","518775","0.0-6.0-1.0-6.0-0.22","3","3","1","3","1","3","2","1","4","4","3","1","2","3","3","3","3","2","3","2","2","1","2","2","3","2","2","3","2","1","0","1","1","0","0","0","1","1","1","1","0","1","1","1","5","4","3","3","3","2","3","4","4","2","735065258095546369","李","178","","","","","","","","","","","","","","","","","","","","","","","","","","","","","","","","","","","","","","","",""
"593","<p style=""color:rgb(150, 250, 100); font-size: 35px;"">别人的</p>","i","categorize-html","104","519369","0.0-6.0-1.0-6.0-1.22","3","3","1","3","1","3","2","1","4","4","3","1","2","3","3","3","3","2","3","2","2","1","2","2","3","2","2","3","2","1","0","1","1","0","0","0","1","1","1","1","0","1","1","1","5","4","3","3","3","2","3","4","4","2","735065258095546369","李","178","","","","","","","","","","","","","","","","","","","true","13","3","moral","593","other","别人的","","","","","","","","","","","","","","",""
"null","","null","html-keyboard-response","105","519621","0.0-6.0-1.0-6.0-0.23","3","3","1","3","1","3","2","1","4","4","3","1","2","3","3","3","3","2","3","2","2","1","2","2","3","2","2","3","2","1","0","1","1","0","0","0","1","1","1","1","0","1","1","1","5","4","3","3","3","2","3","4","4","2","735065258095546369","李","178","","","","","","","","","","","","","","","","","","","","","","","","","","","","","","","","","","","","","","","",""
"632","<p style=""color:white; font-size: 35px;"">缺德</p>","i","categorize-html","106","520257","0.0-6.0-1.0-6.0-1.23","3","3","1","3","1","3","2","1","4","4","3","1","2","3","3","3","3","2","3","2","2","1","2","2","3","2","2","3","2","1","0","1","1","0","0","0","1","1","1","1","0","1","1","1","5","4","3","3","3","2","3","4","4","2","735065258095546369","李","178","","","","","","","","","","","","","","","","","","","true","13","3","moral","632","negative","缺德","","","","","","","","","","","","","","",""
"3038","
    <div class=""tag-bottom""><p>
    —— 任务4：对“自我/积极”词和“他人/消极”词分类 ——<p/>
    <span style=""color:#78DCE8""><b>与刚才的任务完全相同，请再次对这四类词语分类</b></span><p/>
    <span style=""color:#FFD866""><b>请根据上方标签的提示，尽可能正确并且快速地做出按键反应</b></span><p/>
    当按键错误时屏幕中会出现<span style=""color:red""> X </span>，需要按另一个键纠正才能继续<br/><p/>
    请把双手食指分别放在键盘的“E”键和“I”键上<p/>
    按<空格键>开始
    </p></div>"," ","html-keyboard-response","107","523296","0.0-6.0-1.0-7.0","3","3","1","3","1","3","2","1","4","4","3","1","2","3","3","3","3","2","3","2","2","1","2","2","3","2","2","3","2","1","0","1","1","0","0","0","1","1","1","1","0","1","1","1","5","4","3","3","3","2","3","4","4","2","735065258095546369","李","178","","","","","","","","","","","","","","","","","","","","","","","","","","","","","","","","","","","","","","","",""
"null","","null","html-keyboard-response","108","523548","0.0-6.0-1.0-8.0-0.0","3","3","1","3","1","3","2","1","4","4","3","1","2","3","3","3","3","2","3","2","2","1","2","2","3","2","2","3","2","1","0","1","1","0","0","0","1","1","1","1","0","1","1","1","5","4","3","3","3","2","3","4","4","2","735065258095546369","李","178","","","","","","","","","","","","","","","","","","","","","","","","","","","","","","","","","","","","","","","",""
"661","<p style=""color:rgb(150, 250, 100); font-size: 35px;"">自己的</p>","e","categorize-html","109","524211","0.0-6.0-1.0-8.0-1.0","3","3","1","3","1","3","2","1","4","4","3","1","2","3","3","3","3","2","3","2","2","1","2","2","3","2","2","3","2","1","0","1","1","0","0","0","1","1","1","1","0","1","1","1","5","4","3","3","3","2","3","4","4","2","735065258095546369","李","178","","","","","","","","","","","","","","","","","","","true","14","4","moral","661","self","自己的","","","","","","","","","","","","","","",""
"null","","null","html-keyboard-response","110","524462","0.0-6.0-1.0-8.0-0.1","3","3","1","3","1","3","2","1","4","4","3","1","2","3","3","3","3","2","3","2","2","1","2","2","3","2","2","3","2","1","0","1","1","0","0","0","1","1","1","1","0","1","1","1","5","4","3","3","3","2","3","4","4","2","735065258095546369","李","178","","","","","","","","","","","","","","","","","","","","","","","","","","","","","","","","","","","","","","","",""
"549","<p style=""color:white; font-size: 35px;"">卑鄙</p>","i","categorize-html","111","525014","0.0-6.0-1.0-8.0-1.1","3","3","1","3","1","3","2","1","4","4","3","1","2","3","3","3","3","2","3","2","2","1","2","2","3","2","2","3","2","1","0","1","1","0","0","0","1","1","1","1","0","1","1","1","5","4","3","3","3","2","3","4","4","2","735065258095546369","李","178","","","","","","","","","","","","","","","","","","","true","14","4","moral","549","negative","卑鄙","","","","","","","","","","","","","","",""
"null","","null","html-keyboard-response","112","525295","0.0-6.0-1.0-8.0-0.2","3","3","1","3","1","3","2","1","4","4","3","1","2","3","3","3","3","2","3","2","2","1","2","2","3","2","2","3","2","1","0","1","1","0","0","0","1","1","1","1","0","1","1","1","5","4","3","3","3","2","3","4","4","2","735065258095546369","李","178","","","","","","","","","","","","","","","","","","","","","","","","","","","","","","","","","","","","","","","",""
"415","<p style=""color:rgb(150, 250, 100); font-size: 35px;"">他人的</p>","e","categorize-html","113","526103","0.0-6.0-1.0-8.0-1.2","3","3","1","3","1","3","2","1","4","4","3","1","2","3","3","3","3","2","3","2","2","1","2","2","3","2","2","3","2","1","0","1","1","0","0","0","1","1","1","1","0","1","1","1","5","4","3","3","3","2","3","4","4","2","735065258095546369","李","178","","","","","","","","","","","","","","","","","","","false","14","4","moral","1215.0487804878048","other","他人的","","","","","","","","","","","","","","",""
"null","","null","html-keyboard-response","114","526356","0.0-6.0-1.0-8.0-0.3","3","3","1","3","1","3","2","1","4","4","3","1","2","3","3","3","3","2","3","2","2","1","2","2","3","2","2","3","2","1","0","1","1","0","0","0","1","1","1","1","0","1","1","1","5","4","3","3","3","2","3","4","4","2","735065258095546369","李","178","","","","","","","","","","","","","","","","","","","","","","","","","","","","","","","","","","","","","","","",""
"739","<p style=""color:white; font-size: 35px;"">善良</p>","e","categorize-html","115","527099","0.0-6.0-1.0-8.0-1.3","3","3","1","3","1","3","2","1","4","4","3","1","2","3","3","3","3","2","3","2","2","1","2","2","3","2","2","3","2","1","0","1","1","0","0","0","1","1","1","1","0","1","1","1","5","4","3","3","3","2","3","4","4","2","735065258095546369","李","178","","","","","","","","","","","","","","","","","","","true","14","4","moral","739","positive","善良","","","","","","","","","","","","","","",""
"null","","null","html-keyboard-response","116","527350","0.0-6.0-1.0-8.0-0.4","3","3","1","3","1","3","2","1","4","4","3","1","2","3","3","3","3","2","3","2","2","1","2","2","3","2","2","3","2","1","0","1","1","0","0","0","1","1","1","1","0","1","1","1","5","4","3","3","3","2","3","4","4","2","735065258095546369","李","178","","","","","","","","","","","","","","","","","","","","","","","","","","","","","","","","","","","","","","","",""
"605","<p style=""color:rgb(150, 250, 100); font-size: 35px;"">他人的</p>","i","categorize-html","117","527959","0.0-6.0-1.0-8.0-1.4","3","3","1","3","1","3","2","1","4","4","3","1","2","3","3","3","3","2","3","2","2","1","2","2","3","2","2","3","2","1","0","1","1","0","0","0","1","1","1","1","0","1","1","1","5","4","3","3","3","2","3","4","4","2","735065258095546369","李","178","","","","","","","","","","","","","","","","","","","true","14","4","moral","605","other","他人的","","","","","","","","","","","","","","",""
"null","","null","html-keyboard-response","118","528210","0.0-6.0-1.0-8.0-0.5","3","3","1","3","1","3","2","1","4","4","3","1","2","3","3","3","3","2","3","2","2","1","2","2","3","2","2","3","2","1","0","1","1","0","0","0","1","1","1","1","0","1","1","1","5","4","3","3","3","2","3","4","4","2","735065258095546369","李","178","","","","","","","","","","","","","","","","","","","","","","","","","","","","","","","","","","","","","","","",""
"625","<p style=""color:white; font-size: 35px;"">不孝</p>","i","categorize-html","119","528836","0.0-6.0-1.0-8.0-1.5","3","3","1","3","1","3","2","1","4","4","3","1","2","3","3","3","3","2","3","2","2","1","2","2","3","2","2","3","2","1","0","1","1","0","0","0","1","1","1","1","0","1","1","1","5","4","3","3","3","2","3","4","4","2","735065258095546369","李","178","","","","","","","","","","","","","","","","","","","true","14","4","moral","625","negative","不孝","","","","","","","","","","","","","","",""
"null","","null","html-keyboard-response","120","529088","0.0-6.0-1.0-8.0-0.6","3","3","1","3","1","3","2","1","4","4","3","1","2","3","3","3","3","2","3","2","2","1","2","2","3","2","2","3","2","1","0","1","1","0","0","0","1","1","1","1","0","1","1","1","5","4","3","3","3","2","3","4","4","2","735065258095546369","李","178","","","","","","","","","","","","","","","","","","","","","","","","","","","","","","","","","","","","","","","",""
"574","<p style=""color:rgb(150, 250, 100); font-size: 35px;"">本人</p>","e","categorize-html","121","529663","0.0-6.0-1.0-8.0-1.6","3","3","1","3","1","3","2","1","4","4","3","1","2","3","3","3","3","2","3","2","2","1","2","2","3","2","2","3","2","1","0","1","1","0","0","0","1","1","1","1","0","1","1","1","5","4","3","3","3","2","3","4","4","2","735065258095546369","李","178","","","","","","","","","","","","","","","","","","","true","14","4","moral","574","self","本人","","","","","","","","","","","","","","",""
"null","","null","html-keyboard-response","122","529915","0.0-6.0-1.0-8.0-0.7","3","3","1","3","1","3","2","1","4","4","3","1","2","3","3","3","3","2","3","2","2","1","2","2","3","2","2","3","2","1","0","1","1","0","0","0","1","1","1","1","0","1","1","1","5","4","3","3","3","2","3","4","4","2","735065258095546369","李","178","","","","","","","","","","","","","","","","","","","","","","","","","","","","","","","","","","","","","","","",""
"577","<p style=""color:white; font-size: 35px;"">高尚</p>","e","categorize-html","123","530496","0.0-6.0-1.0-8.0-1.7","3","3","1","3","1","3","2","1","4","4","3","1","2","3","3","3","3","2","3","2","2","1","2","2","3","2","2","3","2","1","0","1","1","0","0","0","1","1","1","1","0","1","1","1","5","4","3","3","3","2","3","4","4","2","735065258095546369","李","178","","","","","","","","","","","","","","","","","","","true","14","4","moral","577","positive","高尚","","","","","","","","","","","","","","",""
"null","","null","html-keyboard-response","124","530755","0.0-6.0-1.0-8.0-0.8","3","3","1","3","1","3","2","1","4","4","3","1","2","3","3","3","3","2","3","2","2","1","2","2","3","2","2","3","2","1","0","1","1","0","0","0","1","1","1","1","0","1","1","1","5","4","3","3","3","2","3","4","4","2","735065258095546369","李","178","","","","","","","","","","","","","","","","","","","","","","","","","","","","","","","","","","","","","","","",""
"614","<p style=""color:rgb(150, 250, 100); font-size: 35px;"">别人的</p>","e","categorize-html","125","531780","0.0-6.0-1.0-8.0-1.8","3","3","1","3","1","3","2","1","4","4","3","1","2","3","3","3","3","2","3","2","2","1","2","2","3","2","2","3","2","1","0","1","1","0","0","0","1","1","1","1","0","1","1","1","5","4","3","3","3","2","3","4","4","2","735065258095546369","李","178","","","","","","","","","","","","","","","","","","","false","14","4","moral","1215.0487804878048","other","别人的","","","","","","","","","","","","","","",""
"null","","null","html-keyboard-response","126","532033","0.0-6.0-1.0-8.0-0.9","3","3","1","3","1","3","2","1","4","4","3","1","2","3","3","3","3","2","3","2","2","1","2","2","3","2","2","3","2","1","0","1","1","0","0","0","1","1","1","1","0","1","1","1","5","4","3","3","3","2","3","4","4","2","735065258095546369","李","178","","","","","","","","","","","","","","","","","","","","","","","","","","","","","","","","","","","","","","","",""
"599","<p style=""color:white; font-size: 35px;"">正直</p>","e","categorize-html","127","532635","0.0-6.0-1.0-8.0-1.9","3","3","1","3","1","3","2","1","4","4","3","1","2","3","3","3","3","2","3","2","2","1","2","2","3","2","2","3","2","1","0","1","1","0","0","0","1","1","1","1","0","1","1","1","5","4","3","3","3","2","3","4","4","2","735065258095546369","李","178","","","","","","","","","","","","","","","","","","","true","14","4","moral","599","positive","正直","","","","","","","","","","","","","","",""
"null","","null","html-keyboard-response","128","532887","0.0-6.0-1.0-8.0-0.10","3","3","1","3","1","3","2","1","4","4","3","1","2","3","3","3","3","2","3","2","2","1","2","2","3","2","2","3","2","1","0","1","1","0","0","0","1","1","1","1","0","1","1","1","5","4","3","3","3","2","3","4","4","2","735065258095546369","李","178","","","","","","","","","","","","","","","","","","","","","","","","","","","","","","","","","","","","","","","",""
"522","<p style=""color:rgb(150, 250, 100); font-size: 35px;"">本人的</p>","e","categorize-html","129","533412","0.0-6.0-1.0-8.0-1.10","3","3","1","3","1","3","2","1","4","4","3","1","2","3","3","3","3","2","3","2","2","1","2","2","3","2","2","3","2","1","0","1","1","0","0","0","1","1","1","1","0","1","1","1","5","4","3","3","3","2","3","4","4","2","735065258095546369","李","178","","","","","","","","","","","","","","","","","","","true","14","4","moral","522","self","本人的","","","","","","","","","","","","","","",""
"null","","null","html-keyboard-response","130","533664","0.0-6.0-1.0-8.0-0.11","3","3","1","3","1","3","2","1","4","4","3","1","2","3","3","3","3","2","3","2","2","1","2","2","3","2","2","3","2","1","0","1","1","0","0","0","1","1","1","1","0","1","1","1","5","4","3","3","3","2","3","4","4","2","735065258095546369","李","178","","","","","","","","","","","","","","","","","","","","","","","","","","","","","","","","","","","","","","","",""
"643","<p style=""color:white; font-size: 35px;"">小人</p>","i","categorize-html","131","534310","0.0-6.0-1.0-8.0-1.11","3","3","1","3","1","3","2","1","4","4","3","1","2","3","3","3","3","2","3","2","2","1","2","2","3","2","2","3","2","1","0","1","1","0","0","0","1","1","1","1","0","1","1","1","5","4","3","3","3","2","3","4","4","2","735065258095546369","李","178","","","","","","","","","","","","","","","","","","","true","14","4","moral","643","negative","小人","","","","","","","","","","","","","","",""
"null","","null","html-keyboard-response","132","534562","0.0-6.0-1.0-8.0-0.12","3","3","1","3","1","3","2","1","4","4","3","1","2","3","3","3","3","2","3","2","2","1","2","2","3","2","2","3","2","1","0","1","1","0","0","0","1","1","1","1","0","1","1","1","5","4","3","3","3","2","3","4","4","2","735065258095546369","李","178","","","","","","","","","","","","","","","","","","","","","","","","","","","","","","","","","","","","","","","",""
"580","<p style=""color:rgb(150, 250, 100); font-size: 35px;"">他人</p>","i","categorize-html","133","535145","0.0-6.0-1.0-8.0-1.12","3","3","1","3","1","3","2","1","4","4","3","1","2","3","3","3","3","2","3","2","2","1","2","2","3","2","2","3","2","1","0","1","1","0","0","0","1","1","1","1","0","1","1","1","5","4","3","3","3","2","3","4","4","2","735065258095546369","李","178","","","","","","","","","","","","","","","","","","","true","14","4","moral","580","other","他人","","","","","","","","","","","","","","",""
"null","","null","html-keyboard-response","134","535396","0.0-6.0-1.0-8.0-0.13","3","3","1","3","1","3","2","1","4","4","3","1","2","3","3","3","3","2","3","2","2","1","2","2","3","2","2","3","2","1","0","1","1","0","0","0","1","1","1","1","0","1","1","1","5","4","3","3","3","2","3","4","4","2","735065258095546369","李","178","","","","","","","","","","","","","","","","","","","","","","","","","","","","","","","","","","","","","","","",""
"529","<p style=""color:white; font-size: 35px;"">善良</p>","e","categorize-html","135","535928","0.0-6.0-1.0-8.0-1.13","3","3","1","3","1","3","2","1","4","4","3","1","2","3","3","3","3","2","3","2","2","1","2","2","3","2","2","3","2","1","0","1","1","0","0","0","1","1","1","1","0","1","1","1","5","4","3","3","3","2","3","4","4","2","735065258095546369","李","178","","","","","","","","","","","","","","","","","","","true","14","4","moral","529","positive","善良","","","","","","","","","","","","","","",""
"null","","null","html-keyboard-response","136","536180","0.0-6.0-1.0-8.0-0.14","3","3","1","3","1","3","2","1","4","4","3","1","2","3","3","3","3","2","3","2","2","1","2","2","3","2","2","3","2","1","0","1","1","0","0","0","1","1","1","1","0","1","1","1","5","4","3","3","3","2","3","4","4","2","735065258095546369","李","178","","","","","","","","","","","","","","","","","","","","","","","","","","","","","","","","","","","","","","","",""
"647","<p style=""color:rgb(150, 250, 100); font-size: 35px;"">我的</p>","e","categorize-html","137","536829","0.0-6.0-1.0-8.0-1.14","3","3","1","3","1","3","2","1","4","4","3","1","2","3","3","3","3","2","3","2","2","1","2","2","3","2","2","3","2","1","0","1","1","0","0","0","1","1","1","1","0","1","1","1","5","4","3","3","3","2","3","4","4","2","735065258095546369","李","178","","","","","","","","","","","","","","","","","","","true","14","4","moral","647","self","我的","","","","","","","","","","","","","","",""
"null","","null","html-keyboard-response","138","537080","0.0-6.0-1.0-8.0-0.15","3","3","1","3","1","3","2","1","4","4","3","1","2","3","3","3","3","2","3","2","2","1","2","2","3","2","2","3","2","1","0","1","1","0","0","0","1","1","1","1","0","1","1","1","5","4","3","3","3","2","3","4","4","2","735065258095546369","李","178","","","","","","","","","","","","","","","","","","","","","","","","","","","","","","","","","","","","","","","",""
"564","<p style=""color:white; font-size: 35px;"">缺德</p>","i","categorize-html","139","537647","0.0-6.0-1.0-8.0-1.15","3","3","1","3","1","3","2","1","4","4","3","1","2","3","3","3","3","2","3","2","2","1","2","2","3","2","2","3","2","1","0","1","1","0","0","0","1","1","1","1","0","1","1","1","5","4","3","3","3","2","3","4","4","2","735065258095546369","李","178","","","","","","","","","","","","","","","","","","","true","14","4","moral","564","negative","缺德","","","","","","","","","","","","","","",""
"null","","null","html-keyboard-response","140","537899","0.0-6.0-1.0-8.0-0.16","3","3","1","3","1","3","2","1","4","4","3","1","2","3","3","3","3","2","3","2","2","1","2","2","3","2","2","3","2","1","0","1","1","0","0","0","1","1","1","1","0","1","1","1","5","4","3","3","3","2","3","4","4","2","735065258095546369","李","178","","","","","","","","","","","","","","","","","","","","","","","","","","","","","","","","","","","","","","","",""
"493","<p style=""color:rgb(150, 250, 100); font-size: 35px;"">别人</p>","e","categorize-html","141","538756","0.0-6.0-1.0-8.0-1.16","3","3","1","3","1","3","2","1","4","4","3","1","2","3","3","3","3","2","3","2","2","1","2","2","3","2","2","3","2","1","0","1","1","0","0","0","1","1","1","1","0","1","1","1","5","4","3","3","3","2","3","4","4","2","735065258095546369","李","178","","","","","","","","","","","","","","","","","","","false","14","4","moral","1215.0487804878048","other","别人","","","","","","","","","","","","","","",""
"null","","null","html-keyboard-response","142","539012","0.0-6.0-1.0-8.0-0.17","3","3","1","3","1","3","2","1","4","4","3","1","2","3","3","3","3","2","3","2","2","1","2","2","3","2","2","3","2","1","0","1","1","0","0","0","1","1","1","1","0","1","1","1","5","4","3","3","3","2","3","4","4","2","735065258095546369","李","178","","","","","","","","","","","","","","","","","","","","","","","","","","","","","","","","","","","","","","","",""
"586","<p style=""color:white; font-size: 35px;"">君子</p>","i","categorize-html","143","539990","0.0-6.0-1.0-8.0-1.17","3","3","1","3","1","3","2","1","4","4","3","1","2","3","3","3","3","2","3","2","2","1","2","2","3","2","2","3","2","1","0","1","1","0","0","0","1","1","1","1","0","1","1","1","5","4","3","3","3","2","3","4","4","2","735065258095546369","李","178","","","","","","","","","","","","","","","","","","","false","14","4","moral","1215.0487804878048","positive","君子","","","","","","","","","","","","","","",""
"null","","null","html-keyboard-response","144","540242","0.0-6.0-1.0-8.0-0.18","3","3","1","3","1","3","2","1","4","4","3","1","2","3","3","3","3","2","3","2","2","1","2","2","3","2","2","3","2","1","0","1","1","0","0","0","1","1","1","1","0","1","1","1","5","4","3","3","3","2","3","4","4","2","735065258095546369","李","178","","","","","","","","","","","","","","","","","","","","","","","","","","","","","","","","","","","","","","","",""
"782","<p style=""color:rgb(150, 250, 100); font-size: 35px;"">自己</p>","e","categorize-html","145","541027","0.0-6.0-1.0-8.0-1.18","3","3","1","3","1","3","2","1","4","4","3","1","2","3","3","3","3","2","3","2","2","1","2","2","3","2","2","3","2","1","0","1","1","0","0","0","1","1","1","1","0","1","1","1","5","4","3","3","3","2","3","4","4","2","735065258095546369","李","178","","","","","","","","","","","","","","","","","","","true","14","4","moral","782","self","自己","","","","","","","","","","","","","","",""
"null","","null","html-keyboard-response","146","541280","0.0-6.0-1.0-8.0-0.19","3","3","1","3","1","3","2","1","4","4","3","1","2","3","3","3","3","2","3","2","2","1","2","2","3","2","2","3","2","1","0","1","1","0","0","0","1","1","1","1","0","1","1","1","5","4","3","3","3","2","3","4","4","2","735065258095546369","李","178","","","","","","","","","","","","","","","","","","","","","","","","","","","","","","","","","","","","","","","",""
"590","<p style=""color:white; font-size: 35px;"">缺德</p>","i","categorize-html","147","541874","0.0-6.0-1.0-8.0-1.19","3","3","1","3","1","3","2","1","4","4","3","1","2","3","3","3","3","2","3","2","2","1","2","2","3","2","2","3","2","1","0","1","1","0","0","0","1","1","1","1","0","1","1","1","5","4","3","3","3","2","3","4","4","2","735065258095546369","李","178","","","","","","","","","","","","","","","","","","","true","14","4","moral","590","negative","缺德","","","","","","","","","","","","","","",""
"null","","null","html-keyboard-response","148","542128","0.0-6.0-1.0-8.0-0.20","3","3","1","3","1","3","2","1","4","4","3","1","2","3","3","3","3","2","3","2","2","1","2","2","3","2","2","3","2","1","0","1","1","0","0","0","1","1","1","1","0","1","1","1","5","4","3","3","3","2","3","4","4","2","735065258095546369","李","178","","","","","","","","","","","","","","","","","","","","","","","","","","","","","","","","","","","","","","","",""
"536","<p style=""color:rgb(150, 250, 100); font-size: 35px;"">本人的</p>","e","categorize-html","149","542668","0.0-6.0-1.0-8.0-1.20","3","3","1","3","1","3","2","1","4","4","3","1","2","3","3","3","3","2","3","2","2","1","2","2","3","2","2","3","2","1","0","1","1","0","0","0","1","1","1","1","0","1","1","1","5","4","3","3","3","2","3","4","4","2","735065258095546369","李","178","","","","","","","","","","","","","","","","","","","true","14","4","moral","536","self","本人的","","","","","","","","","","","","","","",""
"null","","null","html-keyboard-response","150","542921","0.0-6.0-1.0-8.0-0.21","3","3","1","3","1","3","2","1","4","4","3","1","2","3","3","3","3","2","3","2","2","1","2","2","3","2","2","3","2","1","0","1","1","0","0","0","1","1","1","1","0","1","1","1","5","4","3","3","3","2","3","4","4","2","735065258095546369","李","178","","","","","","","","","","","","","","","","","","","","","","","","","","","","","","","","","","","","","","","",""
"725","<p style=""color:white; font-size: 35px;"">卑鄙</p>","i","categorize-html","151","543649","0.0-6.0-1.0-8.0-1.21","3","3","1","3","1","3","2","1","4","4","3","1","2","3","3","3","3","2","3","2","2","1","2","2","3","2","2","3","2","1","0","1","1","0","0","0","1","1","1","1","0","1","1","1","5","4","3","3","3","2","3","4","4","2","735065258095546369","李","178","","","","","","","","","","","","","","","","","","","true","14","4","moral","725","negative","卑鄙","","","","","","","","","","","","","","",""
"null","","null","html-keyboard-response","152","543900","0.0-6.0-1.0-8.0-0.22","3","3","1","3","1","3","2","1","4","4","3","1","2","3","3","3","3","2","3","2","2","1","2","2","3","2","2","3","2","1","0","1","1","0","0","0","1","1","1","1","0","1","1","1","5","4","3","3","3","2","3","4","4","2","735065258095546369","李","178","","","","","","","","","","","","","","","","","","","","","","","","","","","","","","","","","","","","","","","",""
"519","<p style=""color:rgb(150, 250, 100); font-size: 35px;"">别人的</p>","e","categorize-html","153","544781","0.0-6.0-1.0-8.0-1.22","3","3","1","3","1","3","2","1","4","4","3","1","2","3","3","3","3","2","3","2","2","1","2","2","3","2","2","3","2","1","0","1","1","0","0","0","1","1","1","1","0","1","1","1","5","4","3","3","3","2","3","4","4","2","735065258095546369","李","178","","","","","","","","","","","","","","","","","","","false","14","4","moral","1215.0487804878048","other","别人的","","","","","","","","","","","","","","",""
"null","","null","html-keyboard-response","154","545033","0.0-6.0-1.0-8.0-0.23","3","3","1","3","1","3","2","1","4","4","3","1","2","3","3","3","3","2","3","2","2","1","2","2","3","2","2","3","2","1","0","1","1","0","0","0","1","1","1","1","0","1","1","1","5","4","3","3","3","2","3","4","4","2","735065258095546369","李","178","","","","","","","","","","","","","","","","","","","","","","","","","","","","","","","","","","","","","","","",""
"549","<p style=""color:white; font-size: 35px;"">廉正</p>","e","categorize-html","155","545583","0.0-6.0-1.0-8.0-1.23","3","3","1","3","1","3","2","1","4","4","3","1","2","3","3","3","3","2","3","2","2","1","2","2","3","2","2","3","2","1","0","1","1","0","0","0","1","1","1","1","0","1","1","1","5","4","3","3","3","2","3","4","4","2","735065258095546369","李","178","","","","","","","","","","","","","","","","","","","true","14","4","moral","549","positive","廉正","","","","","","","","","","","","","","",""
"null","","null","html-keyboard-response","156","545837","0.0-6.0-1.0-8.0-0.24","3","3","1","3","1","3","2","1","4","4","3","1","2","3","3","3","3","2","3","2","2","1","2","2","3","2","2","3","2","1","0","1","1","0","0","0","1","1","1","1","0","1","1","1","5","4","3","3","3","2","3","4","4","2","735065258095546369","李","178","","","","","","","","","","","","","","","","","","","","","","","","","","","","","","","","","","","","","","","",""
"548","<p style=""color:rgb(150, 250, 100); font-size: 35px;"">他</p>","i","categorize-html","157","546388","0.0-6.0-1.0-8.0-1.24","3","3","1","3","1","3","2","1","4","4","3","1","2","3","3","3","3","2","3","2","2","1","2","2","3","2","2","3","2","1","0","1","1","0","0","0","1","1","1","1","0","1","1","1","5","4","3","3","3","2","3","4","4","2","735065258095546369","李","178","","","","","","","","","","","","","","","","","","","true","14","4","moral","548","other","他","","","","","","","","","","","","","","",""
"null","","null","html-keyboard-response","158","546639","0.0-6.0-1.0-8.0-0.25","3","3","1","3","1","3","2","1","4","4","3","1","2","3","3","3","3","2","3","2","2","1","2","2","3","2","2","3","2","1","0","1","1","0","0","0","1","1","1","1","0","1","1","1","5","4","3","3","3","2","3","4","4","2","735065258095546369","李","178","","","","","","","","","","","","","","","","","","","","","","","","","","","","","","","","","","","","","","","",""
"498","<p style=""color:white; font-size: 35px;"">君子</p>","i","categorize-html","159","547522","0.0-6.0-1.0-8.0-1.25","3","3","1","3","1","3","2","1","4","4","3","1","2","3","3","3","3","2","3","2","2","1","2","2","3","2","2","3","2","1","0","1","1","0","0","0","1","1","1","1","0","1","1","1","5","4","3","3","3","2","3","4","4","2","735065258095546369","李","178","","","","","","","","","","","","","","","","","","","false","14","4","moral","1215.0487804878048","positive","君子","","","","","","","","","","","","","","",""
"null","","null","html-keyboard-response","160","547776","0.0-6.0-1.0-8.0-0.26","3","3","1","3","1","3","2","1","4","4","3","1","2","3","3","3","3","2","3","2","2","1","2","2","3","2","2","3","2","1","0","1","1","0","0","0","1","1","1","1","0","1","1","1","5","4","3","3","3","2","3","4","4","2","735065258095546369","李","178","","","","","","","","","","","","","","","","","","","","","","","","","","","","","","","","","","","","","","","",""
"570","<p style=""color:rgb(150, 250, 100); font-size: 35px;"">本人</p>","i","categorize-html","161","548706","0.0-6.0-1.0-8.0-1.26","3","3","1","3","1","3","2","1","4","4","3","1","2","3","3","3","3","2","3","2","2","1","2","2","3","2","2","3","2","1","0","1","1","0","0","0","1","1","1","1","0","1","1","1","5","4","3","3","3","2","3","4","4","2","735065258095546369","李","178","","","","","","","","","","","","","","","","","","","false","14","4","moral","1215.0487804878048","self","本人","","","","","","","","","","","","","","",""
"null","","null","html-keyboard-response","162","548961","0.0-6.0-1.0-8.0-0.27","3","3","1","3","1","3","2","1","4","4","3","1","2","3","3","3","3","2","3","2","2","1","2","2","3","2","2","3","2","1","0","1","1","0","0","0","1","1","1","1","0","1","1","1","5","4","3","3","3","2","3","4","4","2","735065258095546369","李","178","","","","","","","","","","","","","","","","","","","","","","","","","","","","","","","","","","","","","","","",""
"874","<p style=""color:white; font-size: 35px;"">不孝</p>","i","categorize-html","163","549835","0.0-6.0-1.0-8.0-1.27","3","3","1","3","1","3","2","1","4","4","3","1","2","3","3","3","3","2","3","2","2","1","2","2","3","2","2","3","2","1","0","1","1","0","0","0","1","1","1","1","0","1","1","1","5","4","3","3","3","2","3","4","4","2","735065258095546369","李","178","","","","","","","","","","","","","","","","","","","true","14","4","moral","874","negative","不孝","","","","","","","","","","","","","","",""
"null","","null","html-keyboard-response","164","550088","0.0-6.0-1.0-8.0-0.28","3","3","1","3","1","3","2","1","4","4","3","1","2","3","3","3","3","2","3","2","2","1","2","2","3","2","2","3","2","1","0","1","1","0","0","0","1","1","1","1","0","1","1","1","5","4","3","3","3","2","3","4","4","2","735065258095546369","李","178","","","","","","","","","","","","","","","","","","","","","","","","","","","","","","","","","","","","","","","",""
"510","<p style=""color:rgb(150, 250, 100); font-size: 35px;"">我</p>","e","categorize-html","165","550601","0.0-6.0-1.0-8.0-1.28","3","3","1","3","1","3","2","1","4","4","3","1","2","3","3","3","3","2","3","2","2","1","2","2","3","2","2","3","2","1","0","1","1","0","0","0","1","1","1","1","0","1","1","1","5","4","3","3","3","2","3","4","4","2","735065258095546369","李","178","","","","","","","","","","","","","","","","","","","true","14","4","moral","510","self","我","","","","","","","","","","","","","","",""
"null","","null","html-keyboard-response","166","550852","0.0-6.0-1.0-8.0-0.29","3","3","1","3","1","3","2","1","4","4","3","1","2","3","3","3","3","2","3","2","2","1","2","2","3","2","2","3","2","1","0","1","1","0","0","0","1","1","1","1","0","1","1","1","5","4","3","3","3","2","3","4","4","2","735065258095546369","李","178","","","","","","","","","","","","","","","","","","","","","","","","","","","","","","","","","","","","","","","",""
"606","<p style=""color:white; font-size: 35px;"">廉正</p>","e","categorize-html","167","551460","0.0-6.0-1.0-8.0-1.29","3","3","1","3","1","3","2","1","4","4","3","1","2","3","3","3","3","2","3","2","2","1","2","2","3","2","2","3","2","1","0","1","1","0","0","0","1","1","1","1","0","1","1","1","5","4","3","3","3","2","3","4","4","2","735065258095546369","李","178","","","","","","","","","","","","","","","","","","","true","14","4","moral","606","positive","廉正","","","","","","","","","","","","","","",""
"null","","null","html-keyboard-response","168","551713","0.0-6.0-1.0-8.0-0.30","3","3","1","3","1","3","2","1","4","4","3","1","2","3","3","3","3","2","3","2","2","1","2","2","3","2","2","3","2","1","0","1","1","0","0","0","1","1","1","1","0","1","1","1","5","4","3","3","3","2","3","4","4","2","735065258095546369","李","178","","","","","","","","","","","","","","","","","","","","","","","","","","","","","","","","","","","","","","","",""
"686","<p style=""color:rgb(150, 250, 100); font-size: 35px;"">他的</p>","i","categorize-html","169","552401","0.0-6.0-1.0-8.0-1.30","3","3","1","3","1","3","2","1","4","4","3","1","2","3","3","3","3","2","3","2","2","1","2","2","3","2","2","3","2","1","0","1","1","0","0","0","1","1","1","1","0","1","1","1","5","4","3","3","3","2","3","4","4","2","735065258095546369","李","178","","","","","","","","","","","","","","","","","","","true","14","4","moral","686","other","他的","","","","","","","","","","","","","","",""
"null","","null","html-keyboard-response","170","552654","0.0-6.0-1.0-8.0-0.31","3","3","1","3","1","3","2","1","4","4","3","1","2","3","3","3","3","2","3","2","2","1","2","2","3","2","2","3","2","1","0","1","1","0","0","0","1","1","1","1","0","1","1","1","5","4","3","3","3","2","3","4","4","2","735065258095546369","李","178","","","","","","","","","","","","","","","","","","","","","","","","","","","","","","","","","","","","","","","",""
"627","<p style=""color:white; font-size: 35px;"">黑心</p>","i","categorize-html","171","553284","0.0-6.0-1.0-8.0-1.31","3","3","1","3","1","3","2","1","4","4","3","1","2","3","3","3","3","2","3","2","2","1","2","2","3","2","2","3","2","1","0","1","1","0","0","0","1","1","1","1","0","1","1","1","5","4","3","3","3","2","3","4","4","2","735065258095546369","李","178","","","","","","","","","","","","","","","","","","","true","14","4","moral","627","negative","黑心","","","","","","","","","","","","","","",""
"null","","null","html-keyboard-response","172","553537","0.0-6.0-1.0-8.0-0.32","3","3","1","3","1","3","2","1","4","4","3","1","2","3","3","3","3","2","3","2","2","1","2","2","3","2","2","3","2","1","0","1","1","0","0","0","1","1","1","1","0","1","1","1","5","4","3","3","3","2","3","4","4","2","735065258095546369","李","178","","","","","","","","","","","","","","","","","","","","","","","","","","","","","","","","","","","","","","","",""
"657","<p style=""color:rgb(150, 250, 100); font-size: 35px;"">他人</p>","i","categorize-html","173","554196","0.0-6.0-1.0-8.0-1.32","3","3","1","3","1","3","2","1","4","4","3","1","2","3","3","3","3","2","3","2","2","1","2","2","3","2","2","3","2","1","0","1","1","0","0","0","1","1","1","1","0","1","1","1","5","4","3","3","3","2","3","4","4","2","735065258095546369","李","178","","","","","","","","","","","","","","","","","","","true","14","4","moral","657","other","他人","","","","","","","","","","","","","","",""
"null","","null","html-keyboard-response","174","554449","0.0-6.0-1.0-8.0-0.33","3","3","1","3","1","3","2","1","4","4","3","1","2","3","3","3","3","2","3","2","2","1","2","2","3","2","2","3","2","1","0","1","1","0","0","0","1","1","1","1","0","1","1","1","5","4","3","3","3","2","3","4","4","2","735065258095546369","李","178","","","","","","","","","","","","","","","","","","","","","","","","","","","","","","","","","","","","","","","",""
"570","<p style=""color:white; font-size: 35px;"">诚信</p>","e","categorize-html","175","555021","0.0-6.0-1.0-8.0-1.33","3","3","1","3","1","3","2","1","4","4","3","1","2","3","3","3","3","2","3","2","2","1","2","2","3","2","2","3","2","1","0","1","1","0","0","0","1","1","1","1","0","1","1","1","5","4","3","3","3","2","3","4","4","2","735065258095546369","李","178","","","","","","","","","","","","","","","","","","","true","14","4","moral","570","positive","诚信","","","","","","","","","","","","","","",""
"null","","null","html-keyboard-response","176","555273","0.0-6.0-1.0-8.0-0.34","3","3","1","3","1","3","2","1","4","4","3","1","2","3","3","3","3","2","3","2","2","1","2","2","3","2","2","3","2","1","0","1","1","0","0","0","1","1","1","1","0","1","1","1","5","4","3","3","3","2","3","4","4","2","735065258095546369","李","178","","","","","","","","","","","","","","","","","","","","","","","","","","","","","","","","","","","","","","","",""
"546","<p style=""color:rgb(150, 250, 100); font-size: 35px;"">自己的</p>","e","categorize-html","177","555821","0.0-6.0-1.0-8.0-1.34","3","3","1","3","1","3","2","1","4","4","3","1","2","3","3","3","3","2","3","2","2","1","2","2","3","2","2","3","2","1","0","1","1","0","0","0","1","1","1","1","0","1","1","1","5","4","3","3","3","2","3","4","4","2","735065258095546369","李","178","","","","","","","","","","","","","","","","","","","true","14","4","moral","546","self","自己的","","","","","","","","","","","","","","",""
"null","","null","html-keyboard-response","178","556075","0.0-6.0-1.0-8.0-0.35","3","3","1","3","1","3","2","1","4","4","3","1","2","3","3","3","3","2","3","2","2","1","2","2","3","2","2","3","2","1","0","1","1","0","0","0","1","1","1","1","0","1","1","1","5","4","3","3","3","2","3","4","4","2","735065258095546369","李","178","","","","","","","","","","","","","","","","","","","","","","","","","","","","","","","","","","","","","","","",""
"839","<p style=""color:white; font-size: 35px;"">不仁</p>","i","categorize-html","179","556915","0.0-6.0-1.0-8.0-1.35","3","3","1","3","1","3","2","1","4","4","3","1","2","3","3","3","3","2","3","2","2","1","2","2","3","2","2","3","2","1","0","1","1","0","0","0","1","1","1","1","0","1","1","1","5","4","3","3","3","2","3","4","4","2","735065258095546369","李","178","","","","","","","","","","","","","","","","","","","true","14","4","moral","839","negative","不仁","","","","","","","","","","","","","","",""
"null","","null","html-keyboard-response","180","557166","0.0-6.0-1.0-8.0-0.36","3","3","1","3","1","3","2","1","4","4","3","1","2","3","3","3","3","2","3","2","2","1","2","2","3","2","2","3","2","1","0","1","1","0","0","0","1","1","1","1","0","1","1","1","5","4","3","3","3","2","3","4","4","2","735065258095546369","李","178","","","","","","","","","","","","","","","","","","","","","","","","","","","","","","","","","","","","","","","",""
"473","<p style=""color:rgb(150, 250, 100); font-size: 35px;"">我</p>","e","categorize-html","181","557642","0.0-6.0-1.0-8.0-1.36","3","3","1","3","1","3","2","1","4","4","3","1","2","3","3","3","3","2","3","2","2","1","2","2","3","2","2","3","2","1","0","1","1","0","0","0","1","1","1","1","0","1","1","1","5","4","3","3","3","2","3","4","4","2","735065258095546369","李","178","","","","","","","","","","","","","","","","","","","true","14","4","moral","473","self","我","","","","","","","","","","","","","","",""
"null","","null","html-keyboard-response","182","557895","0.0-6.0-1.0-8.0-0.37","3","3","1","3","1","3","2","1","4","4","3","1","2","3","3","3","3","2","3","2","2","1","2","2","3","2","2","3","2","1","0","1","1","0","0","0","1","1","1","1","0","1","1","1","5","4","3","3","3","2","3","4","4","2","735065258095546369","李","178","","","","","","","","","","","","","","","","","","","","","","","","","","","","","","","","","","","","","","","",""
"579","<p style=""color:white; font-size: 35px;"">黑心</p>","i","categorize-html","183","558475","0.0-6.0-1.0-8.0-1.37","3","3","1","3","1","3","2","1","4","4","3","1","2","3","3","3","3","2","3","2","2","1","2","2","3","2","2","3","2","1","0","1","1","0","0","0","1","1","1","1","0","1","1","1","5","4","3","3","3","2","3","4","4","2","735065258095546369","李","178","","","","","","","","","","","","","","","","","","","true","14","4","moral","579","negative","黑心","","","","","","","","","","","","","","",""
"null","","null","html-keyboard-response","184","558727","0.0-6.0-1.0-8.0-0.38","3","3","1","3","1","3","2","1","4","4","3","1","2","3","3","3","3","2","3","2","2","1","2","2","3","2","2","3","2","1","0","1","1","0","0","0","1","1","1","1","0","1","1","1","5","4","3","3","3","2","3","4","4","2","735065258095546369","李","178","","","","","","","","","","","","","","","","","","","","","","","","","","","","","","","","","","","","","","","",""
"659","<p style=""color:rgb(150, 250, 100); font-size: 35px;"">他</p>","i","categorize-html","185","559388","0.0-6.0-1.0-8.0-1.38","3","3","1","3","1","3","2","1","4","4","3","1","2","3","3","3","3","2","3","2","2","1","2","2","3","2","2","3","2","1","0","1","1","0","0","0","1","1","1","1","0","1","1","1","5","4","3","3","3","2","3","4","4","2","735065258095546369","李","178","","","","","","","","","","","","","","","","","","","true","14","4","moral","659","other","他","","","","","","","","","","","","","","",""
"null","","null","html-keyboard-response","186","559639","0.0-6.0-1.0-8.0-0.39","3","3","1","3","1","3","2","1","4","4","3","1","2","3","3","3","3","2","3","2","2","1","2","2","3","2","2","3","2","1","0","1","1","0","0","0","1","1","1","1","0","1","1","1","5","4","3","3","3","2","3","4","4","2","735065258095546369","李","178","","","","","","","","","","","","","","","","","","","","","","","","","","","","","","","","","","","","","","","",""
"593","<p style=""color:white; font-size: 35px;"">高尚</p>","e","categorize-html","187","560233","0.0-6.0-1.0-8.0-1.39","3","3","1","3","1","3","2","1","4","4","3","1","2","3","3","3","3","2","3","2","2","1","2","2","3","2","2","3","2","1","0","1","1","0","0","0","1","1","1","1","0","1","1","1","5","4","3","3","3","2","3","4","4","2","735065258095546369","李","178","","","","","","","","","","","","","","","","","","","true","14","4","moral","593","positive","高尚","","","","","","","","","","","","","","",""
"null","","null","html-keyboard-response","188","560486","0.0-6.0-1.0-8.0-0.40","3","3","1","3","1","3","2","1","4","4","3","1","2","3","3","3","3","2","3","2","2","1","2","2","3","2","2","3","2","1","0","1","1","0","0","0","1","1","1","1","0","1","1","1","5","4","3","3","3","2","3","4","4","2","735065258095546369","李","178","","","","","","","","","","","","","","","","","","","","","","","","","","","","","","","","","","","","","","","",""
"575","<p style=""color:rgb(150, 250, 100); font-size: 35px;"">自己</p>","e","categorize-html","189","561062","0.0-6.0-1.0-8.0-1.40","3","3","1","3","1","3","2","1","4","4","3","1","2","3","3","3","3","2","3","2","2","1","2","2","3","2","2","3","2","1","0","1","1","0","0","0","1","1","1","1","0","1","1","1","5","4","3","3","3","2","3","4","4","2","735065258095546369","李","178","","","","","","","","","","","","","","","","","","","true","14","4","moral","575","self","自己","","","","","","","","","","","","","","",""
"null","","null","html-keyboard-response","190","561316","0.0-6.0-1.0-8.0-0.41","3","3","1","3","1","3","2","1","4","4","3","1","2","3","3","3","3","2","3","2","2","1","2","2","3","2","2","3","2","1","0","1","1","0","0","0","1","1","1","1","0","1","1","1","5","4","3","3","3","2","3","4","4","2","735065258095546369","李","178","","","","","","","","","","","","","","","","","","","","","","","","","","","","","","","","","","","","","","","",""
"495","<p style=""color:white; font-size: 35px;"">正直</p>","e","categorize-html","191","561813","0.0-6.0-1.0-8.0-1.41","3","3","1","3","1","3","2","1","4","4","3","1","2","3","3","3","3","2","3","2","2","1","2","2","3","2","2","3","2","1","0","1","1","0","0","0","1","1","1","1","0","1","1","1","5","4","3","3","3","2","3","4","4","2","735065258095546369","李","178","","","","","","","","","","","","","","","","","","","true","14","4","moral","495","positive","正直","","","","","","","","","","","","","","",""
"null","","null","html-keyboard-response","192","562064","0.0-6.0-1.0-8.0-0.42","3","3","1","3","1","3","2","1","4","4","3","1","2","3","3","3","3","2","3","2","2","1","2","2","3","2","2","3","2","1","0","1","1","0","0","0","1","1","1","1","0","1","1","1","5","4","3","3","3","2","3","4","4","2","735065258095546369","李","178","","","","","","","","","","","","","","","","","","","","","","","","","","","","","","","","","","","","","","","",""
"651","<p style=""color:rgb(150, 250, 100); font-size: 35px;"">别人</p>","i","categorize-html","193","562717","0.0-6.0-1.0-8.0-1.42","3","3","1","3","1","3","2","1","4","4","3","1","2","3","3","3","3","2","3","2","2","1","2","2","3","2","2","3","2","1","0","1","1","0","0","0","1","1","1","1","0","1","1","1","5","4","3","3","3","2","3","4","4","2","735065258095546369","李","178","","","","","","","","","","","","","","","","","","","true","14","4","moral","651","other","别人","","","","","","","","","","","","","","",""
"null","","null","html-keyboard-response","194","562969","0.0-6.0-1.0-8.0-0.43","3","3","1","3","1","3","2","1","4","4","3","1","2","3","3","3","3","2","3","2","2","1","2","2","3","2","2","3","2","1","0","1","1","0","0","0","1","1","1","1","0","1","1","1","5","4","3","3","3","2","3","4","4","2","735065258095546369","李","178","","","","","","","","","","","","","","","","","","","","","","","","","","","","","","","","","","","","","","","",""
"625","<p style=""color:white; font-size: 35px;"">不仁</p>","i","categorize-html","195","563596","0.0-6.0-1.0-8.0-1.43","3","3","1","3","1","3","2","1","4","4","3","1","2","3","3","3","3","2","3","2","2","1","2","2","3","2","2","3","2","1","0","1","1","0","0","0","1","1","1","1","0","1","1","1","5","4","3","3","3","2","3","4","4","2","735065258095546369","李","178","","","","","","","","","","","","","","","","","","","true","14","4","moral","625","negative","不仁","","","","","","","","","","","","","","",""
"null","","null","html-keyboard-response","196","563848","0.0-6.0-1.0-8.0-0.44","3","3","1","3","1","3","2","1","4","4","3","1","2","3","3","3","3","2","3","2","2","1","2","2","3","2","2","3","2","1","0","1","1","0","0","0","1","1","1","1","0","1","1","1","5","4","3","3","3","2","3","4","4","2","735065258095546369","李","178","","","","","","","","","","","","","","","","","","","","","","","","","","","","","","","","","","","","","","","",""
"604","<p style=""color:rgb(150, 250, 100); font-size: 35px;"">他的</p>","i","categorize-html","197","564453","0.0-6.0-1.0-8.0-1.44","3","3","1","3","1","3","2","1","4","4","3","1","2","3","3","3","3","2","3","2","2","1","2","2","3","2","2","3","2","1","0","1","1","0","0","0","1","1","1","1","0","1","1","1","5","4","3","3","3","2","3","4","4","2","735065258095546369","李","178","","","","","","","","","","","","","","","","","","","true","14","4","moral","604","other","他的","","","","","","","","","","","","","","",""
