"rt","stimulus","response","trial_type","trial_index","time_elapsed","internal_node_id","swb_1","swb_2","swb_3","swb_4","swb_5","LOT_1","LOT_2","LOT_3","LOT_4","LOT_5","LOT_6","IPC_1","IPC_2","IPC_3","IPC_4","IPC_5","IPC_6","IPC_7","IPC_8","MorIden_1","MorIden_2","MorIden_3","MorIden_4","MorIden_5","MorIden_6","MorIden_7","MorIden_8","MorIden_9","MorIden_10","moralSeImag_1","moralSeImag_2","moralSeImag_3","moralSeImag_4","moralSeImag_5","moralSeImag_6","moralSeImag_7","moralSeImag_8","moralSeImag_9","sde_1","sde_2","sde_3","sde_4","sde_5","sde_6","sde_7","sde_8","sde_9","sde_10","trap2","sde_11","sde_12","sde_13","sde_14","sde_15","sde_16","sde_17","sde_18","sde_19","sde_20","IM_1","IM_2","IM_3","IM_4","IM_5","IM_6","IM_7","IM_8","IM_9","IM_10","IM_11","IM_12","IM_13","IM_14","IM_15","IM_16","IM_17","IM_18","IM_19","IM_20","subj_idx","friend_name","ParticipantID","Sex","Word","Word2","value","success","timeout","failed_images","failed_audio","failed_video","user_agent","responses","item_order","radio_event_ids","radio_event_times","key_event_times","mouse_event_times","straightlining","zigzagging","honeypot","task_id","screen_id","time_stamp","response_type","key_press","avg_frame_time","center_x","center_y","person","word","valence","domain","math","correct_response","correct","status","identity","view_history","duration","Image","condition","question_order","trap2_item"
"5292","
   <p><div style='color:white; font-size: 25px'>您好，欢迎参加本次实验。</div></p>
   <p><div style='color:white; font-size: 25px'>为充分保障您的权利，请确保您已经知晓并同意《参与实验同意书》以及《数据公开知情同意书》。</div></p>
   <p><div style='color:white; font-size: 25px'>如果您未见过上述内容，请咨询实验员。</div></p>
   <p style='color:white; font-size: 25px'>如果您选择继续实验，则表示您已经清楚两份知情同意书的内容并同意。</p>
   <p><div style = ""color: pink;font-size:30px;"">请确保您记得day0的实验编号，您将在本次实验输入该编号，若您忘记，请咨询实验员后作答。</div></p>
   <p><div style = ""color:lightblue;font-size:25px;"">请您尽可能认真地作答，我们将依据您在各问卷和按键任务中的作答质量发放报酬。</div></p>
   <p> <div style = ""color: green""><按空格键至下页></div> </p>
   "," ","html-keyboard-response","0","5295","0.0-0.0","3","2","2","3","3","4","4","4","4","4","4","-2","1","-1","2","-2","-2","-1","-1","4","5","5","5","5","4","4","5","4","4","4","4","3","4","2","2","3","2","4","6","3","2","2","5","1","2","7","3","2","1","2","1","5","3","2","5","2","3","5","2","2","2","2","3","3","2","2","6","3","3","2","3","7","2","1","3","2","2","6","3","789416392486293505","王","104","Female","[""坏我"",""好她"",""好我"",""坏她""]","[""弱我"",""强她"",""强我"",""弱她""]","","","","","","","","","","","","","","","","","","","","","","","","","","","","","","","","","","","","","","",""
"","","","call-function","1","5297","0.0-1.0-0.0","3","2","2","3","3","4","4","4","4","4","4","-2","1","-1","2","-2","-2","-1","-1","4","5","5","5","5","4","4","5","4","4","4","4","3","4","2","2","3","2","4","6","3","2","2","5","1","2","7","3","2","1","2","1","5","3","2","5","2","3","5","2","2","2","2","3","3","2","2","6","3","3","2","3","7","2","1","3","2","2","6","3","789416392486293505","王","104","Female","[""坏我"",""好她"",""好我"",""坏她""]","[""弱我"",""强她"",""强我"",""弱她""]","","","","","","","","","","","","","","","","","","","","","","","","","","","","","","","","","","","","","","",""
"59542","","[{""name"":""Sex"",""value"":""1""},{""name"":""friend_name"",""value"":""王""},{""name"":""ParticipantID"",""value"":""104""}]","survey-html-form","2","64840","0.0-1.0-1.0","3","2","2","3","3","4","4","4","4","4","4","-2","1","-1","2","-2","-2","-1","-1","4","5","5","5","5","4","4","5","4","4","4","4","3","4","2","2","3","2","4","6","3","2","2","5","1","2","7","3","2","1","2","1","5","3","2","5","2","3","5","2","2","2","2","3","3","2","2","6","3","3","2","3","7","2","1","3","2","2","6","3","789416392486293505","王","104","Female","[""坏我"",""好她"",""好我"",""坏她""]","[""弱我"",""强她"",""强我"",""弱她""]","","","","","","","","","","","","","","","","","","","","","","","","","","","","","","","","","","","","","","",""
"","","","preload","3","65224","0.0-2.0","3","2","2","3","3","4","4","4","4","4","4","-2","1","-1","2","-2","-2","-1","-1","4","5","5","5","5","4","4","5","4","4","4","4","3","4","2","2","3","2","4","6","3","2","2","5","1","2","7","3","2","1","2","1","5","3","2","5","2","3","5","2","2","2","2","3","3","2","2","6","3","3","2","3","7","2","1","3","2","2","6","3","789416392486293505","王","104","Female","[""坏我"",""好她"",""好我"",""坏她""]","[""弱我"",""强她"",""强我"",""弱她""]","","true","false","[]","[]","[]","","","","","","","","","","","","","","","","","","","","","","","","","","","","","","","","",""
"","","","fullscreen","4","67133","0.0-3.0","3","2","2","3","3","4","4","4","4","4","4","-2","1","-1","2","-2","-2","-1","-1","4","5","5","5","5","4","4","5","4","4","4","4","3","4","2","2","3","2","4","6","3","2","2","5","1","2","7","3","2","1","2","1","5","3","2","5","2","3","5","2","2","2","2","3","3","2","2","6","3","3","2","3","7","2","1","3","2","2","6","3","789416392486293505","王","104","Female","[""坏我"",""好她"",""好我"",""坏她""]","[""弱我"",""强她"",""强我"",""弱她""]","","true","","","","","","","","","","","","","","","","","","","","","","","","","","","","","","","","","","","","",""
"23662.34500007704","","{""Q01"":""3"",""Q02"":""2"",""Q03"":""2"",""Q04"":""3"",""Q05"":""3""}","survey-template","5","90799","0.0-4.0","3","2","2","3","3","4","4","4","4","4","4","-2","1","-1","2","-2","-2","-1","-1","4","5","5","5","5","4","4","5","4","4","4","4","3","4","2","2","3","2","4","6","3","2","2","5","1","2","7","3","2","1","2","1","5","3","2","5","2","3","5","2","2","2","2","3","3","2","2","6","3","3","2","3","7","2","1","3","2","2","6","3","789416392486293505","王","104","Female","[""坏我"",""好她"",""好我"",""坏她""]","[""弱我"",""强她"",""强我"",""弱她""]","","","","","","","","{""Q01"":""3"",""Q02"":""2"",""Q03"":""2"",""Q04"":""3"",""Q05"":""3""}","[0,1,2,3,4]","[""Q01"",""Q01"",""Q02"",""Q03"",""Q04"",""Q05"",""Q05""]","[6203.195000067353,11094.495000084862,13312.870000023395,14555.214999942109,16892.435000045225,21054.490000009537,22123.314999975264]","[]","[6203.195000067353,11094.495000084862,12363.235000055283,12951.670000096783,13312.870000023395,14555.214999942109,16892.435000045225,18425.09500007145,21054.490000009537,22123.314999975264,23061.475000111386,23660.660000052303]","0.6","0.5","0","","","","","","","","","","","","","","","","","","","","","","",""
"52716.559999855235","","{""Q01"":""4"",""Q02"":""4"",""Q03"":""4"",""Q04"":""4"",""Q05"":""4"",""Q06"":""4""}","survey-template","6","143523","0.0-5.0","3","2","2","3","3","4","4","4","4","4","4","-2","1","-1","2","-2","-2","-1","-1","4","5","5","5","5","4","4","5","4","4","4","4","3","4","2","2","3","2","4","6","3","2","2","5","1","2","7","3","2","1","2","1","5","3","2","5","2","3","5","2","2","2","2","3","3","2","2","6","3","3","2","3","7","2","1","3","2","2","6","3","789416392486293505","王","104","Female","[""坏我"",""好她"",""好我"",""坏她""]","[""弱我"",""强她"",""强我"",""弱她""]","","","","","","","","{""Q01"":""4"",""Q02"":""4"",""Q03"":""4"",""Q04"":""4"",""Q05"":""4"",""Q06"":""4""}","[0,1,2,3,4,5]","[""Q01"",""Q02"",""Q03"",""Q04"",""Q06"",""Q06"",""Q05"",""Q05"",""Q06"",""Q03"",""Q03"",""Q01"",""Q02""]","[6112.759999930859,8434.339999919757,10716.599999926984,12856.549999909475,16252.569999778643,18012.59999978356,18950.509999878705,28296.434999909252,29036.30999987945,31734.45999994874,32940.44999987818,36989.064999856055,43749.05499978922]","[]","[3244.6299998555332,6112.759999930859,8434.339999919757,10716.599999926984,12856.549999909475,16252.569999778643,18012.59999978356,18950.509999878705,28296.434999909252,29036.30999987945,31734.45999994874,32940.44999987818,36014.55999980681,36989.064999856055,43749.05499978922,52715.33499984071]","0.5","0","0","","","","","","","","","","","","","","","","","","","","","","",""
"20387.244999874383","","{""Q01"":""-2"",""Q02"":""1"",""Q03"":""-1"",""Q04"":""2"",""Q05"":""-2"",""Q06"":""-2"",""Q07"":""-1"",""Q08"":""-1""}","survey-template","7","163918","0.0-6.0","3","2","2","3","3","4","4","4","4","4","4","-2","1","-1","2","-2","-2","-1","-1","4","5","5","5","5","4","4","5","4","4","4","4","3","4","2","2","3","2","4","6","3","2","2","5","1","2","7","3","2","1","2","1","5","3","2","5","2","3","5","2","2","2","2","3","3","2","2","6","3","3","2","3","7","2","1","3","2","2","6","3","789416392486293505","王","104","Female","[""坏我"",""好她"",""好我"",""坏她""]","[""弱我"",""强她"",""强我"",""弱她""]","","","","","","","","{""Q01"":""-2"",""Q02"":""1"",""Q03"":""-1"",""Q04"":""2"",""Q05"":""-2"",""Q06"":""-2"",""Q07"":""-1"",""Q08"":""-1""}","[0,1,2,3,4,5,6,7]","[""Q01"",""Q02"",""Q03"",""Q04"",""Q05"",""Q06"",""Q07"",""Q08""]","[2935.4749999474734,4610.849999822676,6515.389999840409,10729.794999817386,12251.244999933988,15208.254999946803,16755.239999853075,18027.879999950528]","[]","[2129.634999902919,2935.4749999474734,4610.849999822676,6515.389999840409,10729.794999817386,12251.244999933988,15208.254999946803,16755.239999853075,18027.879999950528,20385.449999943376]","0.375","0.14285714285714285","0","","","","","","","","","","","","","","","","","","","","","","",""
"8400","
    <p><div style='color:white;font-size:35px; line-height:20px;'>词汇评估任务</div></p><br>
    <p><div style='color:white;font-size:25px; line-height:20px;'>请再次回忆该亲密的朋友，你们至少2年前就认识了，并且最近2年经常见面。</div></p>
    <p><div style='color:white;font-size:25px; line-height:20px;'>在本实验中，您将会看到一些形容词。</div></p>
    <p><div style='color:yellow;font-size:25px; line-height:20px;'>您的任务是判断这些形容词是否符合对您自己或您的朋友的描述。</div></p><p style='font-size:35px'>符合按<span style=""color:lightgreen""> f 键</span>，不符合按<span style=""color:red""> j 键</span></p>","0","html-button-response","8","172323","0.0-7.0-0.0","3","2","2","3","3","4","4","4","4","4","4","-2","1","-1","2","-2","-2","-1","-1","4","5","5","5","5","4","4","5","4","4","4","4","3","4","2","2","3","2","4","6","3","2","2","5","1","2","7","3","2","1","2","1","5","3","2","5","2","3","5","2","2","2","2","3","3","2","2","6","3","3","2","3","7","2","1","3","2","2","6","3","789416392486293505","王","104","Female","[""坏我"",""好她"",""好我"",""坏她""]","[""弱我"",""强她"",""强我"",""弱她""]","","","","","","","","","","","","","","","","","SRET_EW","EW_instructions","Tue Jan 02 2024 20:24:44 GMT+0800 (中国标准时间)","","","","","","","","","","","","","","","","","","","",""
"1626","","f","psychophysics","9","174955","0.0-7.0-1.0-0.0","3","2","2","3","3","4","4","4","4","4","4","-2","1","-1","2","-2","-2","-1","-1","4","5","5","5","5","4","4","5","4","4","4","4","3","4","2","2","3","2","4","6","3","2","2","5","1","2","7","3","2","1","2","1","5","3","2","5","2","3","5","2","2","2","2","3","3","2","2","6","3","3","2","3","7","2","1","3","2","2","6","3","789416392486293505","王","104","Female","[""坏我"",""好她"",""好我"",""坏她""]","[""弱我"",""强她"",""强我"",""弱她""]","","","","","","","","yes","","","","","","","","","SRET_EW","EW_practice","","key","f","16.757216560509566","960","536","自己","严谨","Positive","ability","","","","","","","","","","",""
"853","","j","psychophysics","10","176810","0.0-7.0-1.0-0.1","3","2","2","3","3","4","4","4","4","4","4","-2","1","-1","2","-2","-2","-1","-1","4","5","5","5","5","4","4","5","4","4","4","4","3","4","2","2","3","2","4","6","3","2","2","5","1","2","7","3","2","1","2","1","5","3","2","5","2","3","5","2","2","2","2","3","3","2","2","6","3","3","2","3","7","2","1","3","2","2","6","3","789416392486293505","王","104","Female","[""坏我"",""好她"",""好我"",""坏她""]","[""弱我"",""强她"",""强我"",""弱她""]","","","","","","","","no","","","","","","","","","SRET_EW","EW_practice","","key","j","16.650864864864726","960","536","朋友","忠实","Positive","morality","","","","","","","","","","",""
"null","","null","psychophysics","11","179814","0.0-7.0-1.0-0.2","3","2","2","3","3","4","4","4","4","4","4","-2","1","-1","2","-2","-2","-1","-1","4","5","5","5","5","4","4","5","4","4","4","4","3","4","2","2","3","2","4","6","3","2","2","5","1","2","7","3","2","1","2","1","5","3","2","5","2","3","5","2","2","2","2","3","3","2","2","6","3","3","2","3","7","2","1","3","2","2","6","3","789416392486293505","王","104","Female","[""坏我"",""好她"",""好我"",""坏她""]","[""弱我"",""强她"",""强我"",""弱她""]","","","","","","","","","","","","","","","","","SRET_EW","EW_practice","","key","null","16.651011173184454","960","536","朋友","徇私","Negative","morality","","","","","","","","","","",""
"1204","","f","psychophysics","12","182020","0.0-7.0-1.0-0.3","3","2","2","3","3","4","4","4","4","4","4","-2","1","-1","2","-2","-2","-1","-1","4","5","5","5","5","4","4","5","4","4","4","4","3","4","2","2","3","2","4","6","3","2","2","5","1","2","7","3","2","1","2","1","5","3","2","5","2","3","5","2","2","2","2","3","3","2","2","6","3","3","2","3","7","2","1","3","2","2","6","3","789416392486293505","王","104","Female","[""坏我"",""好她"",""好我"",""坏她""]","[""弱我"",""强她"",""强我"",""弱她""]","","","","","","","","yes","","","","","","","","","SRET_EW","EW_practice","","key","f","16.69363358778633","960","536","自己","刻板","Negative","ability","","","","","","","","","","",""
"6327","
    <p><div style='color:white;font-size:35px; line-height:20px;'>请您再次阅读实验要求</div></p><br>
    <p><div style='color:white;font-size:25px; line-height:20px;'>请回忆某一个亲密的朋友，你们至少2年前就认识了，并且最近2年经常见面。</div></p>
    <p><div style='color:white;font-size:25px; line-height:20px;'>在本实验中，您将会看到一些形容词。</div></p>
    <p><div style='color:yellow;font-size:25px; line-height:20px;'>您的任务是判断这些形容词是否符合对您自己或您的朋友的描述。</div></p>
    <p><div class='footer' style='font-size:25px; line-height:20px;'>如果对本实验还有不清楚之处，请立即向实验员咨询。</p><p style='font-size:25px; line-height:20px;'>如果您明白了规则：</p><p style='font-size:22px; line-height:20px;'>请按 继续 进入正式实验</p>
    </div>
    <p style='font-size:35px'>符合按<span style=""color:lightgreen""> f 键</span>，不符合按<span style=""color:red""> j 键</span></p>","0","html-button-response","13","188349","0.0-7.0-2.0","3","2","2","3","3","4","4","4","4","4","4","-2","1","-1","2","-2","-2","-1","-1","4","5","5","5","5","4","4","5","4","4","4","4","3","4","2","2","3","2","4","6","3","2","2","5","1","2","7","3","2","1","2","1","5","3","2","5","2","3","5","2","2","2","2","3","3","2","2","6","3","3","2","3","7","2","1","3","2","2","6","3","789416392486293505","王","104","Female","[""坏我"",""好她"",""好我"",""坏她""]","[""弱我"",""强她"",""强我"",""弱她""]","","","","","","","","","","","","","","","","","SRET_EW","prac_instructions","Tue Jan 02 2024 20:24:44 GMT+0800 (中国标准时间)","","","","","","","","","","","","","","","","","","","",""
"516","","f","psychophysics","14","189867","0.0-7.0-3.0-0.0","3","2","2","3","3","4","4","4","4","4","4","-2","1","-1","2","-2","-2","-1","-1","4","5","5","5","5","4","4","5","4","4","4","4","3","4","2","2","3","2","4","6","3","2","2","5","1","2","7","3","2","1","2","1","5","3","2","5","2","3","5","2","2","2","2","3","3","2","2","6","3","3","2","3","7","2","1","3","2","2","6","3","789416392486293505","王","104","Female","[""坏我"",""好她"",""好我"",""坏她""]","[""弱我"",""强她"",""强我"",""弱她""]","","","","","","","","yes","","","","","","","","","SRET","EW_formal","","key","f","16.652120879121128","960","536","自己","说谎","Negative","morality","","","","","","","","","","",""
"616","","f","psychophysics","15","191485","0.0-7.0-3.0-0.1","3","2","2","3","3","4","4","4","4","4","4","-2","1","-1","2","-2","-2","-1","-1","4","5","5","5","5","4","4","5","4","4","4","4","3","4","2","2","3","2","4","6","3","2","2","5","1","2","7","3","2","1","2","1","5","3","2","5","2","3","5","2","2","2","2","3","3","2","2","6","3","3","2","3","7","2","1","3","2","2","6","3","789416392486293505","王","104","Female","[""坏我"",""好她"",""好我"",""坏她""]","[""弱我"",""强她"",""强我"",""弱她""]","","","","","","","","yes","","","","","","","","","SRET","EW_formal","","key","f","16.650489583333183","960","536","自己","坚贞","Positive","morality","","","","","","","","","","",""
"937","","j","psychophysics","16","193425","0.0-7.0-3.0-0.2","3","2","2","3","3","4","4","4","4","4","4","-2","1","-1","2","-2","-2","-1","-1","4","5","5","5","5","4","4","5","4","4","4","4","3","4","2","2","3","2","4","6","3","2","2","5","1","2","7","3","2","1","2","1","5","3","2","5","2","3","5","2","2","2","2","3","3","2","2","6","3","3","2","3","7","2","1","3","2","2","6","3","789416392486293505","王","104","Female","[""坏我"",""好她"",""好我"",""坏她""]","[""弱我"",""强她"",""强我"",""弱她""]","","","","","","","","no","","","","","","","","","SRET","EW_formal","","key","j","16.65062068965525","960","536","朋友","迷糊","Negative","ability","","","","","","","","","","",""
"881","","f","psychophysics","17","195309","0.0-7.0-3.0-0.3","3","2","2","3","3","4","4","4","4","4","4","-2","1","-1","2","-2","-2","-1","-1","4","5","5","5","5","4","4","5","4","4","4","4","3","4","2","2","3","2","4","6","3","2","2","5","1","2","7","3","2","1","2","1","5","3","2","5","2","3","5","2","2","2","2","3","3","2","2","6","3","3","2","3","7","2","1","3","2","2","6","3","789416392486293505","王","104","Female","[""坏我"",""好她"",""好我"",""坏她""]","[""弱我"",""强她"",""强我"",""弱她""]","","","","","","","","yes","","","","","","","","","SRET","EW_formal","","key","f","16.651071428571544","960","536","朋友","务实","Positive","ability","","","","","","","","","","",""
"1122","","f","psychophysics","18","197432","0.0-7.0-3.0-0.4","3","2","2","3","3","4","4","4","4","4","4","-2","1","-1","2","-2","-2","-1","-1","4","5","5","5","5","4","4","5","4","4","4","4","3","4","2","2","3","2","4","6","3","2","2","5","1","2","7","3","2","1","2","1","5","3","2","5","2","3","5","2","2","2","2","3","3","2","2","6","3","3","2","3","7","2","1","3","2","2","6","3","789416392486293505","王","104","Female","[""坏我"",""好她"",""好我"",""坏她""]","[""弱我"",""强她"",""强我"",""弱她""]","","","","","","","","yes","","","","","","","","","SRET","EW_formal","","key","f","16.650928571428512","960","536","朋友","忠良","Positive","morality","","","","","","","","","","",""
"1020","","j","psychophysics","19","199455","0.0-7.0-3.0-0.5","3","2","2","3","3","4","4","4","4","4","4","-2","1","-1","2","-2","-2","-1","-1","4","5","5","5","5","4","4","5","4","4","4","4","3","4","2","2","3","2","4","6","3","2","2","5","1","2","7","3","2","1","2","1","5","3","2","5","2","3","5","2","2","2","2","3","3","2","2","6","3","3","2","3","7","2","1","3","2","2","6","3","789416392486293505","王","104","Female","[""坏我"",""好她"",""好我"",""坏她""]","[""弱我"",""强她"",""强我"",""弱她""]","","","","","","","","no","","","","","","","","","SRET","EW_formal","","key","j","16.678198347107482","960","536","自己","刻薄","Negative","morality","","","","","","","","","","",""
"964","","j","psychophysics","20","201421","0.0-7.0-3.0-0.6","3","2","2","3","3","4","4","4","4","4","4","-2","1","-1","2","-2","-2","-1","-1","4","5","5","5","5","4","4","5","4","4","4","4","3","4","2","2","3","2","4","6","3","2","2","5","1","2","7","3","2","1","2","1","5","3","2","5","2","3","5","2","2","2","2","3","3","2","2","6","3","3","2","3","7","2","1","3","2","2","6","3","789416392486293505","王","104","Female","[""坏我"",""好她"",""好我"",""坏她""]","[""弱我"",""强她"",""强我"",""弱她""]","","","","","","","","no","","","","","","","","","SRET","EW_formal","","key","j","16.749991379310437","960","536","朋友","黑心","Negative","morality","","","","","","","","","","",""
"671","","j","psychophysics","21","203094","0.0-7.0-3.0-0.7","3","2","2","3","3","4","4","4","4","4","4","-2","1","-1","2","-2","-2","-1","-1","4","5","5","5","5","4","4","5","4","4","4","4","3","4","2","2","3","2","4","6","3","2","2","5","1","2","7","3","2","1","2","1","5","3","2","5","2","3","5","2","2","2","2","3","3","2","2","6","3","3","2","3","7","2","1","3","2","2","6","3","789416392486293505","王","104","Female","[""坏我"",""好她"",""好我"",""坏她""]","[""弱我"",""强她"",""强我"",""弱她""]","","","","","","","","no","","","","","","","","","SRET","EW_formal","","key","j","16.668696969696978","960","536","朋友","不仁","Negative","morality","","","","","","","","","","",""
"978","","f","psychophysics","22","205074","0.0-7.0-3.0-0.8","3","2","2","3","3","4","4","4","4","4","4","-2","1","-1","2","-2","-2","-1","-1","4","5","5","5","5","4","4","5","4","4","4","4","3","4","2","2","3","2","4","6","3","2","2","5","1","2","7","3","2","1","2","1","5","3","2","5","2","3","5","2","2","2","2","3","3","2","2","6","3","3","2","3","7","2","1","3","2","2","6","3","789416392486293505","王","104","Female","[""坏我"",""好她"",""好我"",""坏她""]","[""弱我"",""强她"",""强我"",""弱她""]","","","","","","","","yes","","","","","","","","","SRET","EW_formal","","key","f","16.64938983050845","960","536","自己","拙笨","Negative","ability","","","","","","","","","","",""
"1149","","f","psychophysics","23","207224","0.0-7.0-3.0-0.9","3","2","2","3","3","4","4","4","4","4","4","-2","1","-1","2","-2","-2","-1","-1","4","5","5","5","5","4","4","5","4","4","4","4","3","4","2","2","3","2","4","6","3","2","2","5","1","2","7","3","2","1","2","1","5","3","2","5","2","3","5","2","2","2","2","3","3","2","2","6","3","3","2","3","7","2","1","3","2","2","6","3","789416392486293505","王","104","Female","[""坏我"",""好她"",""好我"",""坏她""]","[""弱我"",""强她"",""强我"",""弱她""]","","","","","","","","yes","","","","","","","","","SRET","EW_formal","","key","f","16.65107812500014","960","536","朋友","依靠","Negative","ability","","","","","","","","","","",""
"938","","f","psychophysics","24","209164","0.0-7.0-3.0-0.10","3","2","2","3","3","4","4","4","4","4","4","-2","1","-1","2","-2","-2","-1","-1","4","5","5","5","5","4","4","5","4","4","4","4","3","4","2","2","3","2","4","6","3","2","2","5","1","2","7","3","2","1","2","1","5","3","2","5","2","3","5","2","2","2","2","3","3","2","2","6","3","3","2","3","7","2","1","3","2","2","6","3","789416392486293505","王","104","Female","[""坏我"",""好她"",""好我"",""坏她""]","[""弱我"",""强她"",""强我"",""弱她""]","","","","","","","","yes","","","","","","","","","SRET","EW_formal","","key","f","16.650775862068887","960","536","自己","窝囊","Negative","ability","","","","","","","","","","",""
"818","","j","psychophysics","25","210983","0.0-7.0-3.0-0.11","3","2","2","3","3","4","4","4","4","4","4","-2","1","-1","2","-2","-2","-1","-1","4","5","5","5","5","4","4","5","4","4","4","4","3","4","2","2","3","2","4","6","3","2","2","5","1","2","7","3","2","1","2","1","5","3","2","5","2","3","5","2","2","2","2","3","3","2","2","6","3","3","2","3","7","2","1","3","2","2","6","3","789416392486293505","王","104","Female","[""坏我"",""好她"",""好我"",""坏她""]","[""弱我"",""强她"",""强我"",""弱她""]","","","","","","","","no","","","","","","","","","SRET","EW_formal","","key","j","16.65070370370382","960","536","朋友","罪恶","Negative","morality","","","","","","","","","","",""
"880","","f","psychophysics","26","212865","0.0-7.0-3.0-0.12","3","2","2","3","3","4","4","4","4","4","4","-2","1","-1","2","-2","-2","-1","-1","4","5","5","5","5","4","4","5","4","4","4","4","3","4","2","2","3","2","4","6","3","2","2","5","1","2","7","3","2","1","2","1","5","3","2","5","2","3","5","2","2","2","2","3","3","2","2","6","3","3","2","3","7","2","1","3","2","2","6","3","789416392486293505","王","104","Female","[""坏我"",""好她"",""好我"",""坏她""]","[""弱我"",""强她"",""强我"",""弱她""]","","","","","","","","yes","","","","","","","","","SRET","EW_formal","","key","f","16.65056250000011","960","536","自己","犹豫","Negative","ability","","","","","","","","","","",""
"1026","","f","psychophysics","27","214892","0.0-7.0-3.0-0.13","3","2","2","3","3","4","4","4","4","4","4","-2","1","-1","2","-2","-2","-1","-1","4","5","5","5","5","4","4","5","4","4","4","4","3","4","2","2","3","2","4","6","3","2","2","5","1","2","7","3","2","1","2","1","5","3","2","5","2","3","5","2","2","2","2","3","3","2","2","6","3","3","2","3","7","2","1","3","2","2","6","3","789416392486293505","王","104","Female","[""坏我"",""好她"",""好我"",""坏她""]","[""弱我"",""强她"",""强我"",""弱她""]","","","","","","","","yes","","","","","","","","","SRET","EW_formal","","key","f","16.650438016528998","960","536","朋友","独立","Positive","ability","","","","","","","","","","",""
"825","","j","psychophysics","28","216720","0.0-7.0-3.0-0.14","3","2","2","3","3","4","4","4","4","4","4","-2","1","-1","2","-2","-2","-1","-1","4","5","5","5","5","4","4","5","4","4","4","4","3","4","2","2","3","2","4","6","3","2","2","5","1","2","7","3","2","1","2","1","5","3","2","5","2","3","5","2","2","2","2","3","3","2","2","6","3","3","2","3","7","2","1","3","2","2","6","3","789416392486293505","王","104","Female","[""坏我"",""好她"",""好我"",""坏她""]","[""弱我"",""强她"",""强我"",""弱她""]","","","","","","","","no","","","","","","","","","SRET","EW_formal","","key","j","16.650807339449493","960","536","朋友","贪腐","Negative","morality","","","","","","","","","","",""
"951","","f","psychophysics","29","218676","0.0-7.0-3.0-0.15","3","2","2","3","3","4","4","4","4","4","4","-2","1","-1","2","-2","-2","-1","-1","4","5","5","5","5","4","4","5","4","4","4","4","3","4","2","2","3","2","4","6","3","2","2","5","1","2","7","3","2","1","2","1","5","3","2","5","2","3","5","2","2","2","2","3","3","2","2","6","3","3","2","3","7","2","1","3","2","2","6","3","789416392486293505","王","104","Female","[""坏我"",""好她"",""好我"",""坏她""]","[""弱我"",""强她"",""强我"",""弱她""]","","","","","","","","yes","","","","","","","","","SRET","EW_formal","","key","f","16.753834782608877","960","536","自己","守法","Positive","morality","","","","","","","","","","",""
"1225","","j","psychophysics","30","220903","0.0-7.0-3.0-0.16","3","2","2","3","3","4","4","4","4","4","4","-2","1","-1","2","-2","-2","-1","-1","4","5","5","5","5","4","4","5","4","4","4","4","3","4","2","2","3","2","4","6","3","2","2","5","1","2","7","3","2","1","2","1","5","3","2","5","2","3","5","2","2","2","2","3","3","2","2","6","3","3","2","3","7","2","1","3","2","2","6","3","789416392486293505","王","104","Female","[""坏我"",""好她"",""好我"",""坏她""]","[""弱我"",""强她"",""强我"",""弱她""]","","","","","","","","no","","","","","","","","","SRET","EW_formal","","key","j","16.69006015037609","960","536","朋友","利己","Negative","morality","","","","","","","","","","",""
"1889","","f","psychophysics","31","223794","0.0-7.0-3.0-0.17","3","2","2","3","3","4","4","4","4","4","4","-2","1","-1","2","-2","-2","-1","-1","4","5","5","5","5","4","4","5","4","4","4","4","3","4","2","2","3","2","4","6","3","2","2","5","1","2","7","3","2","1","2","1","5","3","2","5","2","3","5","2","2","2","2","3","3","2","2","6","3","3","2","3","7","2","1","3","2","2","6","3","789416392486293505","王","104","Female","[""坏我"",""好她"",""好我"",""坏她""]","[""弱我"",""强她"",""强我"",""弱她""]","","","","","","","","yes","","","","","","","","","SRET","EW_formal","","key","f","16.64941860465106","960","536","自己","淡泊","Positive","morality","","","","","","","","","","",""
"913","","f","psychophysics","32","225708","0.0-7.0-3.0-0.18","3","2","2","3","3","4","4","4","4","4","4","-2","1","-1","2","-2","-2","-1","-1","4","5","5","5","5","4","4","5","4","4","4","4","3","4","2","2","3","2","4","6","3","2","2","5","1","2","7","3","2","1","2","1","5","3","2","5","2","3","5","2","2","2","2","3","3","2","2","6","3","3","2","3","7","2","1","3","2","2","6","3","789416392486293505","王","104","Female","[""坏我"",""好她"",""好我"",""坏她""]","[""弱我"",""强她"",""强我"",""弱她""]","","","","","","","","yes","","","","","","","","","SRET","EW_formal","","key","f","16.650456140350894","960","536","朋友","肯干","Positive","ability","","","","","","","","","","",""
"907","","j","psychophysics","33","227617","0.0-7.0-3.0-0.19","3","2","2","3","3","4","4","4","4","4","4","-2","1","-1","2","-2","-2","-1","-1","4","5","5","5","5","4","4","5","4","4","4","4","3","4","2","2","3","2","4","6","3","2","2","5","1","2","7","3","2","1","2","1","5","3","2","5","2","3","5","2","2","2","2","3","3","2","2","6","3","3","2","3","7","2","1","3","2","2","6","3","789416392486293505","王","104","Female","[""坏我"",""好她"",""好我"",""坏她""]","[""弱我"",""强她"",""强我"",""弱她""]","","","","","","","","no","","","","","","","","","SRET","EW_formal","","key","j","16.651166666666477","960","536","朋友","外行","Negative","ability","","","","","","","","","","",""
"1035","","f","psychophysics","34","229655","0.0-7.0-3.0-0.20","3","2","2","3","3","4","4","4","4","4","4","-2","1","-1","2","-2","-2","-1","-1","4","5","5","5","5","4","4","5","4","4","4","4","3","4","2","2","3","2","4","6","3","2","2","5","1","2","7","3","2","1","2","1","5","3","2","5","2","3","5","2","2","2","2","3","3","2","2","6","3","3","2","3","7","2","1","3","2","2","6","3","789416392486293505","王","104","Female","[""坏我"",""好她"",""好我"",""坏她""]","[""弱我"",""强她"",""强我"",""弱她""]","","","","","","","","yes","","","","","","","","","SRET","EW_formal","","key","f","16.650479338842846","960","536","自己","沉着","Positive","ability","","","","","","","","","","",""
"994","","j","psychophysics","35","231650","0.0-7.0-3.0-0.21","3","2","2","3","3","4","4","4","4","4","4","-2","1","-1","2","-2","-2","-1","-1","4","5","5","5","5","4","4","5","4","4","4","4","3","4","2","2","3","2","4","6","3","2","2","5","1","2","7","3","2","1","2","1","5","3","2","5","2","3","5","2","2","2","2","3","3","2","2","6","3","3","2","3","7","2","1","3","2","2","6","3","789416392486293505","王","104","Female","[""坏我"",""好她"",""好我"",""坏她""]","[""弱我"",""强她"",""强我"",""弱她""]","","","","","","","","no","","","","","","","","","SRET","EW_formal","","key","j","16.650546218487463","960","536","朋友","短视","Negative","ability","","","","","","","","","","",""
"845","","j","psychophysics","36","233497","0.0-7.0-3.0-0.22","3","2","2","3","3","4","4","4","4","4","4","-2","1","-1","2","-2","-2","-1","-1","4","5","5","5","5","4","4","5","4","4","4","4","3","4","2","2","3","2","4","6","3","2","2","5","1","2","7","3","2","1","2","1","5","3","2","5","2","3","5","2","2","2","2","3","3","2","2","6","3","3","2","3","7","2","1","3","2","2","6","3","789416392486293505","王","104","Female","[""坏我"",""好她"",""好我"",""坏她""]","[""弱我"",""强她"",""强我"",""弱她""]","","","","","","","","no","","","","","","","","","SRET","EW_formal","","key","j","16.651036363636376","960","536","朋友","弱智","Negative","ability","","","","","","","","","","",""
"670","","j","psychophysics","37","235169","0.0-7.0-3.0-0.23","3","2","2","3","3","4","4","4","4","4","4","-2","1","-1","2","-2","-2","-1","-1","4","5","5","5","5","4","4","5","4","4","4","4","3","4","2","2","3","2","4","6","3","2","2","5","1","2","7","3","2","1","2","1","5","3","2","5","2","3","5","2","2","2","2","3","3","2","2","6","3","3","2","3","7","2","1","3","2","2","6","3","789416392486293505","王","104","Female","[""坏我"",""好她"",""好我"",""坏她""]","[""弱我"",""强她"",""强我"",""弱她""]","","","","","","","","no","","","","","","","","","SRET","EW_formal","","key","j","16.691989898990023","960","536","朋友","低劣","Negative","morality","","","","","","","","","","",""
"1621","","f","psychophysics","38","237792","0.0-7.0-3.0-0.24","3","2","2","3","3","4","4","4","4","4","4","-2","1","-1","2","-2","-2","-1","-1","4","5","5","5","5","4","4","5","4","4","4","4","3","4","2","2","3","2","4","6","3","2","2","5","1","2","7","3","2","1","2","1","5","3","2","5","2","3","5","2","2","2","2","3","3","2","2","6","3","3","2","3","7","2","1","3","2","2","6","3","789416392486293505","王","104","Female","[""坏我"",""好她"",""好我"",""坏她""]","[""弱我"",""强她"",""强我"",""弱她""]","","","","","","","","yes","","","","","","","","","SRET","EW_formal","","key","f","16.73319230769229","960","536","自己","虚伪","Negative","morality","","","","","","","","","","",""
"1142","","f","psychophysics","39","239936","0.0-7.0-3.0-0.25","3","2","2","3","3","4","4","4","4","4","4","-2","1","-1","2","-2","-2","-1","-1","4","5","5","5","5","4","4","5","4","4","4","4","3","4","2","2","3","2","4","6","3","2","2","5","1","2","7","3","2","1","2","1","5","3","2","5","2","3","5","2","2","2","2","3","3","2","2","6","3","3","2","3","7","2","1","3","2","2","6","3","789416392486293505","王","104","Female","[""坏我"",""好她"",""好我"",""坏她""]","[""弱我"",""强她"",""强我"",""弱她""]","","","","","","","","yes","","","","","","","","","SRET","EW_formal","","key","f","16.6510156249999","960","536","自己","义气","Positive","morality","","","","","","","","","","",""
"1086","","j","psychophysics","40","242024","0.0-7.0-3.0-0.26","3","2","2","3","3","4","4","4","4","4","4","-2","1","-1","2","-2","-2","-1","-1","4","5","5","5","5","4","4","5","4","4","4","4","3","4","2","2","3","2","4","6","3","2","2","5","1","2","7","3","2","1","2","1","5","3","2","5","2","3","5","2","2","2","2","3","3","2","2","6","3","3","2","3","7","2","1","3","2","2","6","3","789416392486293505","王","104","Female","[""坏我"",""好她"",""好我"",""坏她""]","[""弱我"",""强她"",""强我"",""弱她""]","","","","","","","","no","","","","","","","","","SRET","EW_formal","","key","j","16.650564516129137","960","536","自己","果决","Positive","ability","","","","","","","","","","",""
"1141","","f","psychophysics","41","244167","0.0-7.0-3.0-0.27","3","2","2","3","3","4","4","4","4","4","4","-2","1","-1","2","-2","-2","-1","-1","4","5","5","5","5","4","4","5","4","4","4","4","3","4","2","2","3","2","4","6","3","2","2","5","1","2","7","3","2","1","2","1","5","3","2","5","2","3","5","2","2","2","2","3","3","2","2","6","3","3","2","3","7","2","1","3","2","2","6","3","789416392486293505","王","104","Female","[""坏我"",""好她"",""好我"",""坏她""]","[""弱我"",""强她"",""强我"",""弱她""]","","","","","","","","yes","","","","","","","","","SRET","EW_formal","","key","f","16.649773437500016","960","536","朋友","果断","Positive","ability","","","","","","","","","","",""
"944","","f","psychophysics","42","246112","0.0-7.0-3.0-0.28","3","2","2","3","3","4","4","4","4","4","4","-2","1","-1","2","-2","-2","-1","-1","4","5","5","5","5","4","4","5","4","4","4","4","3","4","2","2","3","2","4","6","3","2","2","5","1","2","7","3","2","1","2","1","5","3","2","5","2","3","5","2","2","2","2","3","3","2","2","6","3","3","2","3","7","2","1","3","2","2","6","3","789416392486293505","王","104","Female","[""坏我"",""好她"",""好我"",""坏她""]","[""弱我"",""强她"",""强我"",""弱她""]","","","","","","","","yes","","","","","","","","","SRET","EW_formal","","key","f","16.651448275862062","960","536","朋友","忠诚","Positive","morality","","","","","","","","","","",""
"1054","","f","psychophysics","43","248169","0.0-7.0-3.0-0.29","3","2","2","3","3","4","4","4","4","4","4","-2","1","-1","2","-2","-2","-1","-1","4","5","5","5","5","4","4","5","4","4","4","4","3","4","2","2","3","2","4","6","3","2","2","5","1","2","7","3","2","1","2","1","5","3","2","5","2","3","5","2","2","2","2","3","3","2","2","6","3","3","2","3","7","2","1","3","2","2","6","3","789416392486293505","王","104","Female","[""坏我"",""好她"",""好我"",""坏她""]","[""弱我"",""强她"",""强我"",""弱她""]","","","","","","","","yes","","","","","","","","","SRET","EW_formal","","key","f","16.65087704918038","960","536","朋友","全才","Positive","ability","","","","","","","","","","",""
"1063","","j","psychophysics","44","250234","0.0-7.0-3.0-0.30","3","2","2","3","3","4","4","4","4","4","4","-2","1","-1","2","-2","-2","-1","-1","4","5","5","5","5","4","4","5","4","4","4","4","3","4","2","2","3","2","4","6","3","2","2","5","1","2","7","3","2","1","2","1","5","3","2","5","2","3","5","2","2","2","2","3","3","2","2","6","3","3","2","3","7","2","1","3","2","2","6","3","789416392486293505","王","104","Female","[""坏我"",""好她"",""好我"",""坏她""]","[""弱我"",""强她"",""强我"",""弱她""]","","","","","","","","no","","","","","","","","","SRET","EW_formal","","key","j","16.651065040650217","960","536","自己","背叛","Negative","morality","","","","","","","","","","",""
"1470","","j","psychophysics","45","252705","0.0-7.0-3.0-0.31","3","2","2","3","3","4","4","4","4","4","4","-2","1","-1","2","-2","-2","-1","-1","4","5","5","5","5","4","4","5","4","4","4","4","3","4","2","2","3","2","4","6","3","2","2","5","1","2","7","3","2","1","2","1","5","3","2","5","2","3","5","2","2","2","2","3","3","2","2","6","3","3","2","3","7","2","1","3","2","2","6","3","789416392486293505","王","104","Female","[""坏我"",""好她"",""好我"",""坏她""]","[""弱我"",""强她"",""强我"",""弱她""]","","","","","","","","no","","","","","","","","","SRET","EW_formal","","key","j","16.661486486486645","960","536","自己","刚正","Positive","morality","","","","","","","","","","",""
"1498","","j","psychophysics","46","255204","0.0-7.0-3.0-0.32","3","2","2","3","3","4","4","4","4","4","4","-2","1","-1","2","-2","-2","-1","-1","4","5","5","5","5","4","4","5","4","4","4","4","3","4","2","2","3","2","4","6","3","2","2","5","1","2","7","3","2","1","2","1","5","3","2","5","2","3","5","2","2","2","2","3","3","2","2","6","3","3","2","3","7","2","1","3","2","2","6","3","789416392486293505","王","104","Female","[""坏我"",""好她"",""好我"",""坏她""]","[""弱我"",""强她"",""强我"",""弱她""]","","","","","","","","no","","","","","","","","","SRET","EW_formal","","key","j","16.74699324324339","960","536","自己","无敌","Positive","ability","","","","","","","","","","",""
"1144","","f","psychophysics","47","257350","0.0-7.0-3.0-0.33","3","2","2","3","3","4","4","4","4","4","4","-2","1","-1","2","-2","-2","-1","-1","4","5","5","5","5","4","4","5","4","4","4","4","3","4","2","2","3","2","4","6","3","2","2","5","1","2","7","3","2","1","2","1","5","3","2","5","2","3","5","2","2","2","2","3","3","2","2","6","3","3","2","3","7","2","1","3","2","2","6","3","789416392486293505","王","104","Female","[""坏我"",""好她"",""好我"",""坏她""]","[""弱我"",""强她"",""强我"",""弱她""]","","","","","","","","yes","","","","","","","","","SRET","EW_formal","","key","f","16.656757812500018","960","536","自己","无能","Negative","ability","","","","","","","","","","",""
"1191","","f","psychophysics","48","259543","0.0-7.0-3.0-0.34","3","2","2","3","3","4","4","4","4","4","4","-2","1","-1","2","-2","-2","-1","-1","4","5","5","5","5","4","4","5","4","4","4","4","3","4","2","2","3","2","4","6","3","2","2","5","1","2","7","3","2","1","2","1","5","3","2","5","2","3","5","2","2","2","2","3","3","2","2","6","3","3","2","3","7","2","1","3","2","2","6","3","789416392486293505","王","104","Female","[""坏我"",""好她"",""好我"",""坏她""]","[""弱我"",""强她"",""强我"",""弱她""]","","","","","","","","yes","","","","","","","","","SRET","EW_formal","","key","f","16.649984615384557","960","536","自己","礼貌","Positive","morality","","","","","","","","","","",""
"838","","f","psychophysics","49","261383","0.0-7.0-3.0-0.35","3","2","2","3","3","4","4","4","4","4","4","-2","1","-1","2","-2","-2","-1","-1","4","5","5","5","5","4","4","5","4","4","4","4","3","4","2","2","3","2","4","6","3","2","2","5","1","2","7","3","2","1","2","1","5","3","2","5","2","3","5","2","2","2","2","3","3","2","2","6","3","3","2","3","7","2","1","3","2","2","6","3","789416392486293505","王","104","Female","[""坏我"",""好她"",""好我"",""坏她""]","[""弱我"",""强她"",""强我"",""弱她""]","","","","","","","","yes","","","","","","","","","SRET","EW_formal","","key","f","16.651509090909066","960","536","朋友","奉献","Positive","morality","","","","","","","","","","",""
"979","","j","psychophysics","50","263363","0.0-7.0-3.0-0.36","3","2","2","3","3","4","4","4","4","4","4","-2","1","-1","2","-2","-2","-1","-1","4","5","5","5","5","4","4","5","4","4","4","4","3","4","2","2","3","2","4","6","3","2","2","5","1","2","7","3","2","1","2","1","5","3","2","5","2","3","5","2","2","2","2","3","3","2","2","6","3","3","2","3","7","2","1","3","2","2","6","3","789416392486293505","王","104","Female","[""坏我"",""好她"",""好我"",""坏她""]","[""弱我"",""强她"",""强我"",""弱她""]","","","","","","","","no","","","","","","","","","SRET","EW_formal","","key","j","16.650254237287978","960","536","朋友","不良","Negative","morality","","","","","","","","","","",""
"960","","f","psychophysics","51","265324","0.0-7.0-3.0-0.37","3","2","2","3","3","4","4","4","4","4","4","-2","1","-1","2","-2","-2","-1","-1","4","5","5","5","5","4","4","5","4","4","4","4","3","4","2","2","3","2","4","6","3","2","2","5","1","2","7","3","2","1","2","1","5","3","2","5","2","3","5","2","2","2","2","3","3","2","2","6","3","3","2","3","7","2","1","3","2","2","6","3","789416392486293505","王","104","Female","[""坏我"",""好她"",""好我"",""坏她""]","[""弱我"",""强她"",""强我"",""弱她""]","","","","","","","","yes","","","","","","","","","SRET","EW_formal","","key","f","16.650760683760396","960","536","朋友","聪明","Positive","ability","","","","","","","","","","",""
"638","","f","psychophysics","52","266963","0.0-7.0-3.0-0.38","3","2","2","3","3","4","4","4","4","4","4","-2","1","-1","2","-2","-2","-1","-1","4","5","5","5","5","4","4","5","4","4","4","4","3","4","2","2","3","2","4","6","3","2","2","5","1","2","7","3","2","1","2","1","5","3","2","5","2","3","5","2","2","2","2","3","3","2","2","6","3","3","2","3","7","2","1","3","2","2","6","3","789416392486293505","王","104","Female","[""坏我"",""好她"",""好我"",""坏她""]","[""弱我"",""强她"",""强我"",""弱她""]","","","","","","","","yes","","","","","","","","","SRET","EW_formal","","key","f","16.651618556700978","960","536","朋友","善心","Positive","morality","","","","","","","","","","",""
"631","","f","psychophysics","53","268596","0.0-7.0-3.0-0.39","3","2","2","3","3","4","4","4","4","4","4","-2","1","-1","2","-2","-2","-1","-1","4","5","5","5","5","4","4","5","4","4","4","4","3","4","2","2","3","2","4","6","3","2","2","5","1","2","7","3","2","1","2","1","5","3","2","5","2","3","5","2","2","2","2","3","3","2","2","6","3","3","2","3","7","2","1","3","2","2","6","3","789416392486293505","王","104","Female","[""坏我"",""好她"",""好我"",""坏她""]","[""弱我"",""强她"",""强我"",""弱她""]","","","","","","","","yes","","","","","","","","","SRET","EW_formal","","key","f","16.651422680412015","960","536","朋友","坦荡","Positive","morality","","","","","","","","","","",""
"878","","j","psychophysics","54","270476","0.0-7.0-3.0-0.40","3","2","2","3","3","4","4","4","4","4","4","-2","1","-1","2","-2","-2","-1","-1","4","5","5","5","5","4","4","5","4","4","4","4","3","4","2","2","3","2","4","6","3","2","2","5","1","2","7","3","2","1","2","1","5","3","2","5","2","3","5","2","2","2","2","3","3","2","2","6","3","3","2","3","7","2","1","3","2","2","6","3","789416392486293505","王","104","Female","[""坏我"",""好她"",""好我"",""坏她""]","[""弱我"",""强她"",""强我"",""弱她""]","","","","","","","","no","","","","","","","","","SRET","EW_formal","","key","j","16.664794642857096","960","536","朋友","无助","Negative","ability","","","","","","","","","","",""
"863","","j","psychophysics","55","272341","0.0-7.0-3.0-0.41","3","2","2","3","3","4","4","4","4","4","4","-2","1","-1","2","-2","-2","-1","-1","4","5","5","5","5","4","4","5","4","4","4","4","3","4","2","2","3","2","4","6","3","2","2","5","1","2","7","3","2","1","2","1","5","3","2","5","2","3","5","2","2","2","2","3","3","2","2","6","3","3","2","3","7","2","1","3","2","2","6","3","789416392486293505","王","104","Female","[""坏我"",""好她"",""好我"",""坏她""]","[""弱我"",""强她"",""强我"",""弱她""]","","","","","","","","no","","","","","","","","","SRET","EW_formal","","key","j","16.756745454545705","960","536","自己","无赖","Negative","morality","","","","","","","","","","",""
"1074","","j","psychophysics","56","274417","0.0-7.0-3.0-0.42","3","2","2","3","3","4","4","4","4","4","4","-2","1","-1","2","-2","-2","-1","-1","4","5","5","5","5","4","4","5","4","4","4","4","3","4","2","2","3","2","4","6","3","2","2","5","1","2","7","3","2","1","2","1","5","3","2","5","2","3","5","2","2","2","2","3","3","2","2","6","3","3","2","3","7","2","1","3","2","2","6","3","789416392486293505","王","104","Female","[""坏我"",""好她"",""好我"",""坏她""]","[""弱我"",""强她"",""强我"",""弱她""]","","","","","","","","no","","","","","","","","","SRET","EW_formal","","key","j","16.680588709677743","960","536","朋友","无为","Negative","ability","","","","","","","","","","",""
"766","","j","psychophysics","57","276184","0.0-7.0-3.0-0.43","3","2","2","3","3","4","4","4","4","4","4","-2","1","-1","2","-2","-2","-1","-1","4","5","5","5","5","4","4","5","4","4","4","4","3","4","2","2","3","2","4","6","3","2","2","5","1","2","7","3","2","1","2","1","5","3","2","5","2","3","5","2","2","2","2","3","3","2","2","6","3","3","2","3","7","2","1","3","2","2","6","3","789416392486293505","王","104","Female","[""坏我"",""好她"",""好我"",""坏她""]","[""弱我"",""强她"",""强我"",""弱她""]","","","","","","","","no","","","","","","","","","SRET","EW_formal","","key","j","16.650533333333165","960","536","朋友","不孝","Negative","morality","","","","","","","","","","",""
"1580","","j","psychophysics","58","278766","0.0-7.0-3.0-0.44","3","2","2","3","3","4","4","4","4","4","4","-2","1","-1","2","-2","-2","-1","-1","4","5","5","5","5","4","4","5","4","4","4","4","3","4","2","2","3","2","4","6","3","2","2","5","1","2","7","3","2","1","2","1","5","3","2","5","2","3","5","2","2","2","2","3","3","2","2","6","3","3","2","3","7","2","1","3","2","2","6","3","789416392486293505","王","104","Female","[""坏我"",""好她"",""好我"",""坏她""]","[""弱我"",""强她"",""强我"",""弱她""]","","","","","","","","no","","","","","","","","","SRET","EW_formal","","key","j","16.64991558441558","960","536","自己","势利","Negative","morality","","","","","","","","","","",""
"799","","f","psychophysics","59","280567","0.0-7.0-3.0-0.45","3","2","2","3","3","4","4","4","4","4","4","-2","1","-1","2","-2","-2","-1","-1","4","5","5","5","5","4","4","5","4","4","4","4","3","4","2","2","3","2","4","6","3","2","2","5","1","2","7","3","2","1","2","1","5","3","2","5","2","3","5","2","2","2","2","3","3","2","2","6","3","3","2","3","7","2","1","3","2","2","6","3","789416392486293505","王","104","Female","[""坏我"",""好她"",""好我"",""坏她""]","[""弱我"",""强她"",""强我"",""弱她""]","","","","","","","","yes","","","","","","","","","SRET","EW_formal","","key","f","16.65214953271","960","536","自己","文明","Positive","morality","","","","","","","","","","",""
"714","","f","psychophysics","60","282283","0.0-7.0-3.0-0.46","3","2","2","3","3","4","4","4","4","4","4","-2","1","-1","2","-2","-2","-1","-1","4","5","5","5","5","4","4","5","4","4","4","4","3","4","2","2","3","2","4","6","3","2","2","5","1","2","7","3","2","1","2","1","5","3","2","5","2","3","5","2","2","2","2","3","3","2","2","6","3","3","2","3","7","2","1","3","2","2","6","3","789416392486293505","王","104","Female","[""坏我"",""好她"",""好我"",""坏她""]","[""弱我"",""强她"",""强我"",""弱她""]","","","","","","","","yes","","","","","","","","","SRET","EW_formal","","key","f","16.65110784313726","960","536","自己","勤恳","Positive","morality","","","","","","","","","","",""
"897","","j","psychophysics","61","284182","0.0-7.0-3.0-0.47","3","2","2","3","3","4","4","4","4","4","4","-2","1","-1","2","-2","-2","-1","-1","4","5","5","5","5","4","4","5","4","4","4","4","3","4","2","2","3","2","4","6","3","2","2","5","1","2","7","3","2","1","2","1","5","3","2","5","2","3","5","2","2","2","2","3","3","2","2","6","3","3","2","3","7","2","1","3","2","2","6","3","789416392486293505","王","104","Female","[""坏我"",""好她"",""好我"",""坏她""]","[""弱我"",""强她"",""强我"",""弱她""]","","","","","","","","no","","","","","","","","","SRET","EW_formal","","key","j","16.650504424778614","960","536","自己","无耻","Negative","morality","","","","","","","","","","",""
"646","","j","psychophysics","62","285830","0.0-7.0-3.0-0.48","3","2","2","3","3","4","4","4","4","4","4","-2","1","-1","2","-2","-2","-1","-1","4","5","5","5","5","4","4","5","4","4","4","4","3","4","2","2","3","2","4","6","3","2","2","5","1","2","7","3","2","1","2","1","5","3","2","5","2","3","5","2","2","2","2","3","3","2","2","6","3","3","2","3","7","2","1","3","2","2","6","3","789416392486293505","王","104","Female","[""坏我"",""好她"",""好我"",""坏她""]","[""弱我"",""强她"",""强我"",""弱她""]","","","","","","","","no","","","","","","","","","SRET","EW_formal","","key","j","16.650948979591888","960","536","自己","小人","Negative","morality","","","","","","","","","","",""
"985","","f","psychophysics","63","287818","0.0-7.0-3.0-0.49","3","2","2","3","3","4","4","4","4","4","4","-2","1","-1","2","-2","-2","-1","-1","4","5","5","5","5","4","4","5","4","4","4","4","3","4","2","2","3","2","4","6","3","2","2","5","1","2","7","3","2","1","2","1","5","3","2","5","2","3","5","2","2","2","2","3","3","2","2","6","3","3","2","3","7","2","1","3","2","2","6","3","789416392486293505","王","104","Female","[""坏我"",""好她"",""好我"",""坏她""]","[""弱我"",""强她"",""强我"",""弱她""]","","","","","","","","yes","","","","","","","","","SRET","EW_formal","","key","f","16.651203389830545","960","536","自己","利落","Positive","ability","","","","","","","","","","",""
"844","","f","psychophysics","64","289665","0.0-7.0-3.0-0.50","3","2","2","3","3","4","4","4","4","4","4","-2","1","-1","2","-2","-2","-1","-1","4","5","5","5","5","4","4","5","4","4","4","4","3","4","2","2","3","2","4","6","3","2","2","5","1","2","7","3","2","1","2","1","5","3","2","5","2","3","5","2","2","2","2","3","3","2","2","6","3","3","2","3","7","2","1","3","2","2","6","3","789416392486293505","王","104","Female","[""坏我"",""好她"",""好我"",""坏她""]","[""弱我"",""强她"",""强我"",""弱她""]","","","","","","","","yes","","","","","","","","","SRET","EW_formal","","key","f","16.74554545454554","960","536","朋友","敬业","Positive","morality","","","","","","","","","","",""
"857","","f","psychophysics","65","291523","0.0-7.0-3.0-0.51","3","2","2","3","3","4","4","4","4","4","4","-2","1","-1","2","-2","-2","-1","-1","4","5","5","5","5","4","4","5","4","4","4","4","3","4","2","2","3","2","4","6","3","2","2","5","1","2","7","3","2","1","2","1","5","3","2","5","2","3","5","2","2","2","2","3","3","2","2","6","3","3","2","3","7","2","1","3","2","2","6","3","789416392486293505","王","104","Female","[""坏我"",""好她"",""好我"",""坏她""]","[""弱我"",""强她"",""强我"",""弱她""]","","","","","","","","yes","","","","","","","","","SRET","EW_formal","","key","f","16.70599999999977","960","536","朋友","诚信","Positive","morality","","","","","","","","","","",""
"774","","f","psychophysics","66","293298","0.0-7.0-3.0-0.52","3","2","2","3","3","4","4","4","4","4","4","-2","1","-1","2","-2","-2","-1","-1","4","5","5","5","5","4","4","5","4","4","4","4","3","4","2","2","3","2","4","6","3","2","2","5","1","2","7","3","2","1","2","1","5","3","2","5","2","3","5","2","2","2","2","3","3","2","2","6","3","3","2","3","7","2","1","3","2","2","6","3","789416392486293505","王","104","Female","[""坏我"",""好她"",""好我"",""坏她""]","[""弱我"",""强她"",""强我"",""弱她""]","","","","","","","","yes","","","","","","","","","SRET","EW_formal","","key","f","16.650547169811173","960","536","朋友","懂行","Positive","ability","","","","","","","","","","",""
"1085","","j","psychophysics","67","295385","0.0-7.0-3.0-0.53","3","2","2","3","3","4","4","4","4","4","4","-2","1","-1","2","-2","-2","-1","-1","4","5","5","5","5","4","4","5","4","4","4","4","3","4","2","2","3","2","4","6","3","2","2","5","1","2","7","3","2","1","2","1","5","3","2","5","2","3","5","2","2","2","2","3","3","2","2","6","3","3","2","3","7","2","1","3","2","2","6","3","789416392486293505","王","104","Female","[""坏我"",""好她"",""好我"",""坏她""]","[""弱我"",""强她"",""强我"",""弱她""]","","","","","","","","no","","","","","","","","","SRET","EW_formal","","key","j","16.6505887096775","960","536","自己","盲目","Negative","ability","","","","","","","","","","",""
"1036","","j","psychophysics","68","297423","0.0-7.0-3.0-0.54","3","2","2","3","3","4","4","4","4","4","4","-2","1","-1","2","-2","-2","-1","-1","4","5","5","5","5","4","4","5","4","4","4","4","3","4","2","2","3","2","4","6","3","2","2","5","1","2","7","3","2","1","2","1","5","3","2","5","2","3","5","2","2","2","2","3","3","2","2","6","3","3","2","3","7","2","1","3","2","2","6","3","789416392486293505","王","104","Female","[""坏我"",""好她"",""好我"",""坏她""]","[""弱我"",""强她"",""强我"",""弱她""]","","","","","","","","no","","","","","","","","","SRET","EW_formal","","key","j","16.65071074380193","960","536","自己","才尽","Negative","ability","","","","","","","","","","",""
"710","","f","psychophysics","69","299134","0.0-7.0-3.0-0.55","3","2","2","3","3","4","4","4","4","4","4","-2","1","-1","2","-2","-2","-1","-1","4","5","5","5","5","4","4","5","4","4","4","4","3","4","2","2","3","2","4","6","3","2","2","5","1","2","7","3","2","1","2","1","5","3","2","5","2","3","5","2","2","2","2","3","3","2","2","6","3","3","2","3","7","2","1","3","2","2","6","3","789416392486293505","王","104","Female","[""坏我"",""好她"",""好我"",""坏她""]","[""弱我"",""强她"",""强我"",""弱她""]","","","","","","","","yes","","","","","","","","","SRET","EW_formal","","key","f","16.648980392156826","960","536","朋友","高效","Positive","ability","","","","","","","","","","",""
"810","","j","psychophysics","70","300946","0.0-7.0-3.0-0.56","3","2","2","3","3","4","4","4","4","4","4","-2","1","-1","2","-2","-2","-1","-1","4","5","5","5","5","4","4","5","4","4","4","4","3","4","2","2","3","2","4","6","3","2","2","5","1","2","7","3","2","1","2","1","5","3","2","5","2","3","5","2","2","2","2","3","3","2","2","6","3","3","2","3","7","2","1","3","2","2","6","3","789416392486293505","王","104","Female","[""坏我"",""好她"",""好我"",""坏她""]","[""弱我"",""强她"",""强我"",""弱她""]","","","","","","","","no","","","","","","","","","SRET","EW_formal","","key","j","16.65081481481482","960","536","自己","屈才","Negative","ability","","","","","","","","","","",""
"1452","","j","psychophysics","71","303400","0.0-7.0-3.0-0.57","3","2","2","3","3","4","4","4","4","4","4","-2","1","-1","2","-2","-2","-1","-1","4","5","5","5","5","4","4","5","4","4","4","4","3","4","2","2","3","2","4","6","3","2","2","5","1","2","7","3","2","1","2","1","5","3","2","5","2","3","5","2","2","2","2","3","3","2","2","6","3","3","2","3","7","2","1","3","2","2","6","3","789416392486293505","王","104","Female","[""坏我"",""好她"",""好我"",""坏她""]","[""弱我"",""强她"",""强我"",""弱她""]","","","","","","","","no","","","","","","","","","SRET","EW_formal","","key","j","16.65124657534243","960","536","自己","自私","Negative","morality","","","","","","","","","","",""
"764","","f","psychophysics","72","305166","0.0-7.0-3.0-0.58","3","2","2","3","3","4","4","4","4","4","4","-2","1","-1","2","-2","-2","-1","-1","4","5","5","5","5","4","4","5","4","4","4","4","3","4","2","2","3","2","4","6","3","2","2","5","1","2","7","3","2","1","2","1","5","3","2","5","2","3","5","2","2","2","2","3","3","2","2","6","3","3","2","3","7","2","1","3","2","2","6","3","789416392486293505","王","104","Female","[""坏我"",""好她"",""好我"",""坏她""]","[""弱我"",""强她"",""强我"",""弱她""]","","","","","","","","yes","","","","","","","","","SRET","EW_formal","","key","f","16.651161904762212","960","536","自己","好心","Positive","morality","","","","","","","","","","",""
"975","","f","psychophysics","73","307142","0.0-7.0-3.0-0.59","3","2","2","3","3","4","4","4","4","4","4","-2","1","-1","2","-2","-2","-1","-1","4","5","5","5","5","4","4","5","4","4","4","4","3","4","2","2","3","2","4","6","3","2","2","5","1","2","7","3","2","1","2","1","5","3","2","5","2","3","5","2","2","2","2","3","3","2","2","6","3","3","2","3","7","2","1","3","2","2","6","3","789416392486293505","王","104","Female","[""坏我"",""好她"",""好我"",""坏她""]","[""弱我"",""强她"",""强我"",""弱她""]","","","","","","","","yes","","","","","","","","","SRET","EW_formal","","key","f","16.718906779661065","960","536","朋友","刻苦","Positive","ability","","","","","","","","","","",""
"821","","j","psychophysics","74","308964","0.0-7.0-3.0-0.60","3","2","2","3","3","4","4","4","4","4","4","-2","1","-1","2","-2","-2","-1","-1","4","5","5","5","5","4","4","5","4","4","4","4","3","4","2","2","3","2","4","6","3","2","2","5","1","2","7","3","2","1","2","1","5","3","2","5","2","3","5","2","2","2","2","3","3","2","2","6","3","3","2","3","7","2","1","3","2","2","6","3","789416392486293505","王","104","Female","[""坏我"",""好她"",""好我"",""坏她""]","[""弱我"",""强她"",""强我"",""弱她""]","","","","","","","","no","","","","","","","","","SRET","EW_formal","","key","j","16.729878504672435","960","536","自己","无知","Negative","ability","","","","","","","","","","",""
"1034","","j","psychophysics","75","311000","0.0-7.0-3.0-0.61","3","2","2","3","3","4","4","4","4","4","4","-2","1","-1","2","-2","-2","-1","-1","4","5","5","5","5","4","4","5","4","4","4","4","3","4","2","2","3","2","4","6","3","2","2","5","1","2","7","3","2","1","2","1","5","3","2","5","2","3","5","2","2","2","2","3","3","2","2","6","3","3","2","3","7","2","1","3","2","2","6","3","789416392486293505","王","104","Female","[""坏我"",""好她"",""好我"",""坏她""]","[""弱我"",""强她"",""强我"",""弱她""]","","","","","","","","no","","","","","","","","","SRET","EW_formal","","key","j","16.650909836065754","960","536","朋友","庸碌","Negative","ability","","","","","","","","","","",""
"712","","j","psychophysics","76","312715","0.0-7.0-3.0-0.62","3","2","2","3","3","4","4","4","4","4","4","-2","1","-1","2","-2","-2","-1","-1","4","5","5","5","5","4","4","5","4","4","4","4","3","4","2","2","3","2","4","6","3","2","2","5","1","2","7","3","2","1","2","1","5","3","2","5","2","3","5","2","2","2","2","3","3","2","2","6","3","3","2","3","7","2","1","3","2","2","6","3","789416392486293505","王","104","Female","[""坏我"",""好她"",""好我"",""坏她""]","[""弱我"",""强她"",""强我"",""弱她""]","","","","","","","","no","","","","","","","","","SRET","EW_formal","","key","j","16.649509803921568","960","536","自己","不端","Negative","morality","","","","","","","","","","",""
"1161","","j","psychophysics","77","314878","0.0-7.0-3.0-0.63","3","2","2","3","3","4","4","4","4","4","4","-2","1","-1","2","-2","-2","-1","-1","4","5","5","5","5","4","4","5","4","4","4","4","3","4","2","2","3","2","4","6","3","2","2","5","1","2","7","3","2","1","2","1","5","3","2","5","2","3","5","2","2","2","2","3","3","2","2","6","3","3","2","3","7","2","1","3","2","2","6","3","789416392486293505","王","104","Female","[""坏我"",""好她"",""好我"",""坏她""]","[""弱我"",""强她"",""强我"",""弱她""]","","","","","","","","no","","","","","","","","","SRET","EW_formal","","key","j","16.649790697674675","960","536","朋友","拖拉","Negative","ability","","","","","","","","","","",""
"772","","j","psychophysics","78","316651","0.0-7.0-3.0-0.64","3","2","2","3","3","4","4","4","4","4","4","-2","1","-1","2","-2","-2","-1","-1","4","5","5","5","5","4","4","5","4","4","4","4","3","4","2","2","3","2","4","6","3","2","2","5","1","2","7","3","2","1","2","1","5","3","2","5","2","3","5","2","2","2","2","3","3","2","2","6","3","3","2","3","7","2","1","3","2","2","6","3","789416392486293505","王","104","Female","[""坏我"",""好她"",""好我"",""坏她""]","[""弱我"",""强她"",""强我"",""弱她""]","","","","","","","","no","","","","","","","","","SRET","EW_formal","","key","j","16.650142857142992","960","536","朋友","马虎","Negative","ability","","","","","","","","","","",""
"954","","j","psychophysics","79","318607","0.0-7.0-3.0-0.65","3","2","2","3","3","4","4","4","4","4","4","-2","1","-1","2","-2","-2","-1","-1","4","5","5","5","5","4","4","5","4","4","4","4","3","4","2","2","3","2","4","6","3","2","2","5","1","2","7","3","2","1","2","1","5","3","2","5","2","3","5","2","2","2","2","3","3","2","2","6","3","3","2","3","7","2","1","3","2","2","6","3","789416392486293505","王","104","Female","[""坏我"",""好她"",""好我"",""坏她""]","[""弱我"",""强她"",""强我"",""弱她""]","","","","","","","","no","","","","","","","","","SRET","EW_formal","","key","j","16.650555555555474","960","536","自己","卑鄙","Negative","morality","","","","","","","","","","",""
"830","","f","psychophysics","80","320441","0.0-7.0-3.0-0.66","3","2","2","3","3","4","4","4","4","4","4","-2","1","-1","2","-2","-2","-1","-1","4","5","5","5","5","4","4","5","4","4","4","4","3","4","2","2","3","2","4","6","3","2","2","5","1","2","7","3","2","1","2","1","5","3","2","5","2","3","5","2","2","2","2","3","3","2","2","6","3","3","2","3","7","2","1","3","2","2","6","3","789416392486293505","王","104","Female","[""坏我"",""好她"",""好我"",""坏她""]","[""弱我"",""强她"",""强我"",""弱她""]","","","","","","","","yes","","","","","","","","","SRET","EW_formal","","key","f","16.65118348623846","960","536","朋友","守时","Positive","morality","","","","","","","","","","",""
"1111","","j","psychophysics","81","322553","0.0-7.0-3.0-0.67","3","2","2","3","3","4","4","4","4","4","4","-2","1","-1","2","-2","-2","-1","-1","4","5","5","5","5","4","4","5","4","4","4","4","3","4","2","2","3","2","4","6","3","2","2","5","1","2","7","3","2","1","2","1","5","3","2","5","2","3","5","2","2","2","2","3","3","2","2","6","3","3","2","3","7","2","1","3","2","2","6","3","789416392486293505","王","104","Female","[""坏我"",""好她"",""好我"",""坏她""]","[""弱我"",""强她"",""强我"",""弱她""]","","","","","","","","no","","","","","","","","","SRET","EW_formal","","key","j","16.65091269841281","960","536","朋友","浅薄","Negative","ability","","","","","","","","","","",""
"1119","","j","psychophysics","82","324674","0.0-7.0-3.0-0.68","3","2","2","3","3","4","4","4","4","4","4","-2","1","-1","2","-2","-2","-1","-1","4","5","5","5","5","4","4","5","4","4","4","4","3","4","2","2","3","2","4","6","3","2","2","5","1","2","7","3","2","1","2","1","5","3","2","5","2","3","5","2","2","2","2","3","3","2","2","6","3","3","2","3","7","2","1","3","2","2","6","3","789416392486293505","王","104","Female","[""坏我"",""好她"",""好我"",""坏她""]","[""弱我"",""强她"",""强我"",""弱她""]","","","","","","","","no","","","","","","","","","SRET","EW_formal","","key","j","16.698904761904572","960","536","自己","短浅","Negative","ability","","","","","","","","","","",""
"832","","j","psychophysics","83","326508","0.0-7.0-3.0-0.69","3","2","2","3","3","4","4","4","4","4","4","-2","1","-1","2","-2","-2","-1","-1","4","5","5","5","5","4","4","5","4","4","4","4","3","4","2","2","3","2","4","6","3","2","2","5","1","2","7","3","2","1","2","1","5","3","2","5","2","3","5","2","2","2","2","3","3","2","2","6","3","3","2","3","7","2","1","3","2","2","6","3","789416392486293505","王","104","Female","[""坏我"",""好她"",""好我"",""坏她""]","[""弱我"",""强她"",""强我"",""弱她""]","","","","","","","","no","","","","","","","","","SRET","EW_formal","","key","j","16.742250000000006","960","536","自己","差生","Negative","ability","","","","","","","","","","",""
"760","","f","psychophysics","84","328271","0.0-7.0-3.0-0.70","3","2","2","3","3","4","4","4","4","4","4","-2","1","-1","2","-2","-2","-1","-1","4","5","5","5","5","4","4","5","4","4","4","4","3","4","2","2","3","2","4","6","3","2","2","5","1","2","7","3","2","1","2","1","5","3","2","5","2","3","5","2","2","2","2","3","3","2","2","6","3","3","2","3","7","2","1","3","2","2","6","3","789416392486293505","王","104","Female","[""坏我"",""好她"",""好我"",""坏她""]","[""弱我"",""强她"",""强我"",""弱她""]","","","","","","","","yes","","","","","","","","","SRET","EW_formal","","key","f","16.652609523809847","960","536","朋友","守信","Positive","morality","","","","","","","","","","",""
"673","","j","psychophysics","85","329946","0.0-7.0-3.0-0.71","3","2","2","3","3","4","4","4","4","4","4","-2","1","-1","2","-2","-2","-1","-1","4","5","5","5","5","4","4","5","4","4","4","4","3","4","2","2","3","2","4","6","3","2","2","5","1","2","7","3","2","1","2","1","5","3","2","5","2","3","5","2","2","2","2","3","3","2","2","6","3","3","2","3","7","2","1","3","2","2","6","3","789416392486293505","王","104","Female","[""坏我"",""好她"",""好我"",""坏她""]","[""弱我"",""强她"",""强我"",""弱她""]","","","","","","","","no","","","","","","","","","SRET","EW_formal","","key","j","16.651819999999717","960","536","朋友","偏私","Negative","morality","","","","","","","","","","",""
"720","","f","psychophysics","86","331668","0.0-7.0-3.0-0.72","3","2","2","3","3","4","4","4","4","4","4","-2","1","-1","2","-2","-2","-1","-1","4","5","5","5","5","4","4","5","4","4","4","4","3","4","2","2","3","2","4","6","3","2","2","5","1","2","7","3","2","1","2","1","5","3","2","5","2","3","5","2","2","2","2","3","3","2","2","6","3","3","2","3","7","2","1","3","2","2","6","3","789416392486293505","王","104","Female","[""坏我"",""好她"",""好我"",""坏她""]","[""弱我"",""强她"",""强我"",""弱她""]","","","","","","","","yes","","","","","","","","","SRET","EW_formal","","key","f","16.645598039215354","960","536","朋友","厚道","Positive","morality","","","","","","","","","","",""
"694","","f","psychophysics","87","333364","0.0-7.0-3.0-0.73","3","2","2","3","3","4","4","4","4","4","4","-2","1","-1","2","-2","-2","-1","-1","4","5","5","5","5","4","4","5","4","4","4","4","3","4","2","2","3","2","4","6","3","2","2","5","1","2","7","3","2","1","2","1","5","3","2","5","2","3","5","2","2","2","2","3","3","2","2","6","3","3","2","3","7","2","1","3","2","2","6","3","789416392486293505","王","104","Female","[""坏我"",""好她"",""好我"",""坏她""]","[""弱我"",""强她"",""强我"",""弱她""]","","","","","","","","yes","","","","","","","","","SRET","EW_formal","","key","f","16.649188118811587","960","536","自己","高尚","Positive","morality","","","","","","","","","","",""
"574","","f","psychophysics","88","334940","0.0-7.0-3.0-0.74","3","2","2","3","3","4","4","4","4","4","4","-2","1","-1","2","-2","-2","-1","-1","4","5","5","5","5","4","4","5","4","4","4","4","3","4","2","2","3","2","4","6","3","2","2","5","1","2","7","3","2","1","2","1","5","3","2","5","2","3","5","2","2","2","2","3","3","2","2","6","3","3","2","3","7","2","1","3","2","2","6","3","789416392486293505","王","104","Female","[""坏我"",""好她"",""好我"",""坏她""]","[""弱我"",""强她"",""强我"",""弱她""]","","","","","","","","yes","","","","","","","","","SRET","EW_formal","","key","f","16.650043010752352","960","536","自己","精干","Positive","ability","","","","","","","","","","",""
"505","","f","psychophysics","89","336446","0.0-7.0-3.0-0.75","3","2","2","3","3","4","4","4","4","4","4","-2","1","-1","2","-2","-2","-1","-1","4","5","5","5","5","4","4","5","4","4","4","4","3","4","2","2","3","2","4","6","3","2","2","5","1","2","7","3","2","1","2","1","5","3","2","5","2","3","5","2","2","2","2","3","3","2","2","6","3","3","2","3","7","2","1","3","2","2","6","3","789416392486293505","王","104","Female","[""坏我"",""好她"",""好我"",""坏她""]","[""弱我"",""强她"",""强我"",""弱她""]","","","","","","","","yes","","","","","","","","","SRET","EW_formal","","key","f","16.65102222222227","960","536","自己","稳健","Positive","ability","","","","","","","","","","",""
"1480","","j","psychophysics","90","338928","0.0-7.0-3.0-0.76","3","2","2","3","3","4","4","4","4","4","4","-2","1","-1","2","-2","-2","-1","-1","4","5","5","5","5","4","4","5","4","4","4","4","3","4","2","2","3","2","4","6","3","2","2","5","1","2","7","3","2","1","2","1","5","3","2","5","2","3","5","2","2","2","2","3","3","2","2","6","3","3","2","3","7","2","1","3","2","2","6","3","789416392486293505","王","104","Female","[""坏我"",""好她"",""好我"",""坏她""]","[""弱我"",""强她"",""强我"",""弱她""]","","","","","","","","no","","","","","","","","","SRET","EW_formal","","key","j","16.651222972973326","960","536","朋友","自律","Positive","ability","","","","","","","","","","",""
"1043","","f","psychophysics","91","340973","0.0-7.0-3.0-0.77","3","2","2","3","3","4","4","4","4","4","4","-2","1","-1","2","-2","-2","-1","-1","4","5","5","5","5","4","4","5","4","4","4","4","3","4","2","2","3","2","4","6","3","2","2","5","1","2","7","3","2","1","2","1","5","3","2","5","2","3","5","2","2","2","2","3","3","2","2","6","3","3","2","3","7","2","1","3","2","2","6","3","789416392486293505","王","104","Female","[""坏我"",""好她"",""好我"",""坏她""]","[""弱我"",""强她"",""强我"",""弱她""]","","","","","","","","yes","","","","","","","","","SRET","EW_formal","","key","f","16.650909836065754","960","536","自己","扎实","Positive","ability","","","","","","","","","","",""
"598","","f","psychophysics","92","342574","0.0-7.0-3.0-0.78","3","2","2","3","3","4","4","4","4","4","4","-2","1","-1","2","-2","-2","-1","-1","4","5","5","5","5","4","4","5","4","4","4","4","3","4","2","2","3","2","4","6","3","2","2","5","1","2","7","3","2","1","2","1","5","3","2","5","2","3","5","2","2","2","2","3","3","2","2","6","3","3","2","3","7","2","1","3","2","2","6","3","789416392486293505","王","104","Female","[""坏我"",""好她"",""好我"",""坏她""]","[""弱我"",""强她"",""强我"",""弱她""]","","","","","","","","yes","","","","","","","","","SRET","EW_formal","","key","f","16.724831578947946","960","536","自己","上进","Positive","ability","","","","","","","","","","",""
"816","","f","psychophysics","93","344391","0.0-7.0-3.0-0.79","3","2","2","3","3","4","4","4","4","4","4","-2","1","-1","2","-2","-2","-1","-1","4","5","5","5","5","4","4","5","4","4","4","4","3","4","2","2","3","2","4","6","3","2","2","5","1","2","7","3","2","1","2","1","5","3","2","5","2","3","5","2","2","2","2","3","3","2","2","6","3","3","2","3","7","2","1","3","2","2","6","3","789416392486293505","王","104","Female","[""坏我"",""好她"",""好我"",""坏她""]","[""弱我"",""强她"",""强我"",""弱她""]","","","","","","","","yes","","","","","","","","","SRET","EW_formal","","key","f","16.740514018691456","960","536","自己","思辨","Positive","ability","","","","","","","","","","",""
"962","","f","psychophysics","94","346356","0.0-7.0-3.0-0.80","3","2","2","3","3","4","4","4","4","4","4","-2","1","-1","2","-2","-2","-1","-1","4","5","5","5","5","4","4","5","4","4","4","4","3","4","2","2","3","2","4","6","3","2","2","5","1","2","7","3","2","1","2","1","5","3","2","5","2","3","5","2","2","2","2","3","3","2","2","6","3","3","2","3","7","2","1","3","2","2","6","3","789416392486293505","王","104","Female","[""坏我"",""好她"",""好我"",""坏她""]","[""弱我"",""强她"",""强我"",""弱她""]","","","","","","","","yes","","","","","","","","","SRET","EW_formal","","key","f","16.655051282050813","960","536","朋友","周到","Positive","ability","","","","","","","","","","",""
"817","","f","psychophysics","95","348174","0.0-7.0-3.0-0.81","3","2","2","3","3","4","4","4","4","4","4","-2","1","-1","2","-2","-2","-1","-1","4","5","5","5","5","4","4","5","4","4","4","4","3","4","2","2","3","2","4","6","3","2","2","5","1","2","7","3","2","1","2","1","5","3","2","5","2","3","5","2","2","2","2","3","3","2","2","6","3","3","2","3","7","2","1","3","2","2","6","3","789416392486293505","王","104","Female","[""坏我"",""好她"",""好我"",""坏她""]","[""弱我"",""强她"",""强我"",""弱她""]","","","","","","","","yes","","","","","","","","","SRET","EW_formal","","key","f","16.65071296296298","960","536","自己","忠勇","Positive","morality","","","","","","","","","","",""
"1509","","j","psychophysics","96","350686","0.0-7.0-3.0-0.82","3","2","2","3","3","4","4","4","4","4","4","-2","1","-1","2","-2","-2","-1","-1","4","5","5","5","5","4","4","5","4","4","4","4","3","4","2","2","3","2","4","6","3","2","2","5","1","2","7","3","2","1","2","1","5","3","2","5","2","3","5","2","2","2","2","3","3","2","2","6","3","3","2","3","7","2","1","3","2","2","6","3","789416392486293505","王","104","Female","[""坏我"",""好她"",""好我"",""坏她""]","[""弱我"",""强她"",""强我"",""弱她""]","","","","","","","","no","","","","","","","","","SRET","EW_formal","","key","j","16.650219999999972","960","536","自己","顶事","Positive","ability","","","","","","","","","","",""
"873","","j","psychophysics","97","352561","0.0-7.0-3.0-0.83","3","2","2","3","3","4","4","4","4","4","4","-2","1","-1","2","-2","-2","-1","-1","4","5","5","5","5","4","4","5","4","4","4","4","3","4","2","2","3","2","4","6","3","2","2","5","1","2","7","3","2","1","2","1","5","3","2","5","2","3","5","2","2","2","2","3","3","2","2","6","3","3","2","3","7","2","1","3","2","2","6","3","789416392486293505","王","104","Female","[""坏我"",""好她"",""好我"",""坏她""]","[""弱我"",""强她"",""强我"",""弱她""]","","","","","","","","no","","","","","","","","","SRET","EW_formal","","key","j","16.651928571428602","960","536","朋友","贪污","Negative","morality","","","","","","","","","","",""
"731","","f","psychophysics","98","354294","0.0-7.0-3.0-0.84","3","2","2","3","3","4","4","4","4","4","4","-2","1","-1","2","-2","-2","-1","-1","4","5","5","5","5","4","4","5","4","4","4","4","3","4","2","2","3","2","4","6","3","2","2","5","1","2","7","3","2","1","2","1","5","3","2","5","2","3","5","2","2","2","2","3","3","2","2","6","3","3","2","3","7","2","1","3","2","2","6","3","789416392486293505","王","104","Female","[""坏我"",""好她"",""好我"",""坏她""]","[""弱我"",""强她"",""强我"",""弱她""]","","","","","","","","yes","","","","","","","","","SRET","EW_formal","","key","f","16.650349514563434","960","536","自己","主见","Positive","ability","","","","","","","","","","",""
"821","","f","psychophysics","99","356116","0.0-7.0-3.0-0.85","3","2","2","3","3","4","4","4","4","4","4","-2","1","-1","2","-2","-2","-1","-1","4","5","5","5","5","4","4","5","4","4","4","4","3","4","2","2","3","2","4","6","3","2","2","5","1","2","7","3","2","1","2","1","5","3","2","5","2","3","5","2","2","2","2","3","3","2","2","6","3","3","2","3","7","2","1","3","2","2","6","3","789416392486293505","王","104","Female","[""坏我"",""好她"",""好我"",""坏她""]","[""弱我"",""强她"",""强我"",""弱她""]","","","","","","","","yes","","","","","","","","","SRET","EW_formal","","key","f","16.651009259259336","960","536","朋友","素养","Positive","morality","","","","","","","","","","",""
"1180","","j","psychophysics","100","358297","0.0-7.0-3.0-0.86","3","2","2","3","3","4","4","4","4","4","4","-2","1","-1","2","-2","-2","-1","-1","4","5","5","5","5","4","4","5","4","4","4","4","3","4","2","2","3","2","4","6","3","2","2","5","1","2","7","3","2","1","2","1","5","3","2","5","2","3","5","2","2","2","2","3","3","2","2","6","3","3","2","3","7","2","1","3","2","2","6","3","789416392486293505","王","104","Female","[""坏我"",""好她"",""好我"",""坏她""]","[""弱我"",""强她"",""强我"",""弱她""]","","","","","","","","no","","","","","","","","","SRET","EW_formal","","key","j","16.65130769230757","960","536","自己","缓慢","Negative","ability","","","","","","","","","","",""
"692","","j","psychophysics","101","359990","0.0-7.0-3.0-0.87","3","2","2","3","3","4","4","4","4","4","4","-2","1","-1","2","-2","-2","-1","-1","4","5","5","5","5","4","4","5","4","4","4","4","3","4","2","2","3","2","4","6","3","2","2","5","1","2","7","3","2","1","2","1","5","3","2","5","2","3","5","2","2","2","2","3","3","2","2","6","3","3","2","3","7","2","1","3","2","2","6","3","789416392486293505","王","104","Female","[""坏我"",""好她"",""好我"",""坏她""]","[""弱我"",""强她"",""强我"",""弱她""]","","","","","","","","no","","","","","","","","","SRET","EW_formal","","key","j","16.6923663366337","960","536","朋友","低俗","Negative","morality","","","","","","","","","","",""
"6011","
    <p><div style='color:white;font-size:35px; line-height:20px;'>计算任务</div></p><br>
    <p><div style='color:red;font-size:25px; line-height:20px;'>接下来，您将看到一些四则运算题，<b>请从键盘选择 0-9 进行反应。</b></div></p>
    <p><div style='color:red;font-size:25px; line-height:20px;'>请尽可能快地进行计算，计算的速度和正确率将影响报酬的发放。</div></p>
    <p><div class='footer' style='color:white;font-size:25px; line-height:20px;'>如果对本实验还有不清楚之处，请立即向实验员咨询。</p><p style='color:white;font-size:25px; line-height:20px;'>如果您明白了规则：</p><p style='color:white;font-size:22px; line-height:20px;'>请按 继续 进入练习</p>
    </div>
    ","0","html-button-response","102","366002","0.0-7.0-4.0","3","2","2","3","3","4","4","4","4","4","4","-2","1","-1","2","-2","-2","-1","-1","4","5","5","5","5","4","4","5","4","4","4","4","3","4","2","2","3","2","4","6","3","2","2","5","1","2","7","3","2","1","2","1","5","3","2","5","2","3","5","2","2","2","2","3","3","2","2","6","3","3","2","3","7","2","1","3","2","2","6","3","789416392486293505","王","104","Female","[""坏我"",""好她"",""好我"",""坏她""]","[""弱我"",""强她"",""强我"",""弱她""]","","","","","","","","","","","","","","","","","SRET_math","math_instructions","Tue Jan 02 2024 20:24:44 GMT+0800 (中国标准时间)","","","","","","","","","","","","","","","","","","","",""
"1886","","8","psychophysics","103","367893","0.0-7.0-5.0-0.0","3","2","2","3","3","4","4","4","4","4","4","-2","1","-1","2","-2","-2","-1","-1","4","5","5","5","5","4","4","5","4","4","4","4","3","4","2","2","3","2","4","6","3","2","2","5","1","2","7","3","2","1","2","1","5","3","2","5","2","3","5","2","2","2","2","3","3","2","2","6","3","3","2","3","7","2","1","3","2","2","6","3","789416392486293505","王","104","Female","[""坏我"",""好她"",""好我"",""坏她""]","[""弱我"",""强她"",""强我"",""弱她""]","","","","","","","","8","","","","","","","","","SRET","SRET_math_calculate","","key","8","16.650522123893982","960","536","","","","","56/7= ?","8","1","","","","","","","",""
"1966","","3","psychophysics","104","369862","0.0-7.0-5.0-0.1","3","2","2","3","3","4","4","4","4","4","4","-2","1","-1","2","-2","-2","-1","-1","4","5","5","5","5","4","4","5","4","4","4","4","3","4","2","2","3","2","4","6","3","2","2","5","1","2","7","3","2","1","2","1","5","3","2","5","2","3","5","2","2","2","2","3","3","2","2","6","3","3","2","3","7","2","1","3","2","2","6","3","789416392486293505","王","104","Female","[""坏我"",""好她"",""好我"",""坏她""]","[""弱我"",""强她"",""强我"",""弱她""]","","","","","","","","3","","","","","","","","","SRET","SRET_math_calculate","","key","3","16.651093220339213","960","536","","","","","3*1= ?","3","1","","","","","","","",""
"1865","","8","psychophysics","105","371735","0.0-7.0-5.0-0.2","3","2","2","3","3","4","4","4","4","4","4","-2","1","-1","2","-2","-2","-1","-1","4","5","5","5","5","4","4","5","4","4","4","4","3","4","2","2","3","2","4","6","3","2","2","5","1","2","7","3","2","1","2","1","5","3","2","5","2","3","5","2","2","2","2","3","3","2","2","6","3","3","2","3","7","2","1","3","2","2","6","3","789416392486293505","王","104","Female","[""坏我"",""好她"",""好我"",""坏她""]","[""弱我"",""强她"",""强我"",""弱她""]","","","","","","","","8","","","","","","","","","SRET","SRET_math_calculate","","key","8","16.650909909909814","960","536","","","","","72/9= ?","8","1","","","","","","","",""
"1758","","8","psychophysics","106","373495","0.0-7.0-5.0-0.3","3","2","2","3","3","4","4","4","4","4","4","-2","1","-1","2","-2","-2","-1","-1","4","5","5","5","5","4","4","5","4","4","4","4","3","4","2","2","3","2","4","6","3","2","2","5","1","2","7","3","2","1","2","1","5","3","2","5","2","3","5","2","2","2","2","3","3","2","2","6","3","3","2","3","7","2","1","3","2","2","6","3","789416392486293505","王","104","Female","[""坏我"",""好她"",""好我"",""坏她""]","[""弱我"",""强她"",""强我"",""弱她""]","","","","","","","","8","","","","","","","","","SRET","SRET_math_calculate","","key","8","16.65089523809563","960","536","","","","","5+3= ?","8","1","","","","","","","",""
"2946","","4","psychophysics","107","376444","0.0-7.0-5.0-0.4","3","2","2","3","3","4","4","4","4","4","4","-2","1","-1","2","-2","-2","-1","-1","4","5","5","5","5","4","4","5","4","4","4","4","3","4","2","2","3","2","4","6","3","2","2","5","1","2","7","3","2","1","2","1","5","3","2","5","2","3","5","2","2","2","2","3","3","2","2","6","3","3","2","3","7","2","1","3","2","2","6","3","789416392486293505","王","104","Female","[""坏我"",""好她"",""好我"",""坏她""]","[""弱我"",""强她"",""强我"",""弱她""]","","","","","","","","4","","","","","","","","","SRET","SRET_math_calculate","","key","4","16.65102840909094","960","536","","","","","13-9= ?","4","1","","","","","","","",""
"1868","","0","psychophysics","108","378314","0.0-7.0-5.0-0.5","3","2","2","3","3","4","4","4","4","4","4","-2","1","-1","2","-2","-2","-1","-1","4","5","5","5","5","4","4","5","4","4","4","4","3","4","2","2","3","2","4","6","3","2","2","5","1","2","7","3","2","1","2","1","5","3","2","5","2","3","5","2","2","2","2","3","3","2","2","6","3","3","2","3","7","2","1","3","2","2","6","3","789416392486293505","王","104","Female","[""坏我"",""好她"",""好我"",""坏她""]","[""弱我"",""强她"",""强我"",""弱她""]","","","","","","","","0","","","","","","","","","SRET","SRET_math_calculate","","key","0","16.720189189189114","960","536","","","","","1-1= ?","0","1","","","","","","","",""
"1767","","5","psychophysics","109","380085","0.0-7.0-5.0-0.6","3","2","2","3","3","4","4","4","4","4","4","-2","1","-1","2","-2","-2","-1","-1","4","5","5","5","5","4","4","5","4","4","4","4","3","4","2","2","3","2","4","6","3","2","2","5","1","2","7","3","2","1","2","1","5","3","2","5","2","3","5","2","2","2","2","3","3","2","2","6","3","3","2","3","7","2","1","3","2","2","6","3","789416392486293505","王","104","Female","[""坏我"",""好她"",""好我"",""坏她""]","[""弱我"",""强她"",""强我"",""弱她""]","","","","","","","","5","","","","","","","","","SRET","SRET_math_calculate","","key","5","16.737428571428506","960","536","","","","","2+3= ?","5","1","","","","","","","",""
"1730","","2","psychophysics","110","381818","0.0-7.0-5.0-0.7","3","2","2","3","3","4","4","4","4","4","4","-2","1","-1","2","-2","-2","-1","-1","4","5","5","5","5","4","4","5","4","4","4","4","3","4","2","2","3","2","4","6","3","2","2","5","1","2","7","3","2","1","2","1","5","3","2","5","2","3","5","2","2","2","2","3","3","2","2","6","3","3","2","3","7","2","1","3","2","2","6","3","789416392486293505","王","104","Female","[""坏我"",""好她"",""好我"",""坏她""]","[""弱我"",""强她"",""强我"",""弱她""]","","","","","","","","2","","","","","","","","","SRET","SRET_math_calculate","","key","2","16.652475728155498","960","536","","","","","8-6= ?","2","1","","","","","","","",""
"1741","","3","psychophysics","111","383562","0.0-7.0-5.0-0.8","3","2","2","3","3","4","4","4","4","4","4","-2","1","-1","2","-2","-2","-1","-1","4","5","5","5","5","4","4","5","4","4","4","4","3","4","2","2","3","2","4","6","3","2","2","5","1","2","7","3","2","1","2","1","5","3","2","5","2","3","5","2","2","2","2","3","3","2","2","6","3","3","2","3","7","2","1","3","2","2","6","3","789416392486293505","王","104","Female","[""坏我"",""好她"",""好我"",""坏她""]","[""弱我"",""强她"",""强我"",""弱她""]","","","","","","","","3","","","","","","","","","SRET","SRET_math_calculate","","key","3","16.650281553398546","960","536","","","","","3+0= ?","3","1","","","","","","","",""
"1866","","2","psychophysics","112","385434","0.0-7.0-5.0-0.9","3","2","2","3","3","4","4","4","4","4","4","-2","1","-1","2","-2","-2","-1","-1","4","5","5","5","5","4","4","5","4","4","4","4","3","4","2","2","3","2","4","6","3","2","2","5","1","2","7","3","2","1","2","1","5","3","2","5","2","3","5","2","2","2","2","3","3","2","2","6","3","3","2","3","7","2","1","3","2","2","6","3","789416392486293505","王","104","Female","[""坏我"",""好她"",""好我"",""坏她""]","[""弱我"",""强她"",""强我"",""弱她""]","","","","","","","","2","","","","","","","","","SRET","SRET_math_calculate","","key","2","16.649937500000046","960","536","","","","","12/6= ?","2","1","","","","","","","",""
"1699","","7","psychophysics","113","387136","0.0-7.0-5.0-0.10","3","2","2","3","3","4","4","4","4","4","4","-2","1","-1","2","-2","-2","-1","-1","4","5","5","5","5","4","4","5","4","4","4","4","3","4","2","2","3","2","4","6","3","2","2","5","1","2","7","3","2","1","2","1","5","3","2","5","2","3","5","2","2","2","2","3","3","2","2","6","3","3","2","3","7","2","1","3","2","2","6","3","789416392486293505","王","104","Female","[""坏我"",""好她"",""好我"",""坏她""]","[""弱我"",""强她"",""强我"",""弱她""]","","","","","","","","7","","","","","","","","","SRET","SRET_math_calculate","","key","7","16.64972277227697","960","536","","","","","8-1= ?","7","1","","","","","","","",""
"1703","","9","psychophysics","114","388841","0.0-7.0-5.0-0.11","3","2","2","3","3","4","4","4","4","4","4","-2","1","-1","2","-2","-2","-1","-1","4","5","5","5","5","4","4","5","4","4","4","4","3","4","2","2","3","2","4","6","3","2","2","5","1","2","7","3","2","1","2","1","5","3","2","5","2","3","5","2","2","2","2","3","3","2","2","6","3","3","2","3","7","2","1","3","2","2","6","3","789416392486293505","王","104","Female","[""坏我"",""好她"",""好我"",""坏她""]","[""弱我"",""强她"",""强我"",""弱她""]","","","","","","","","9","","","","","","","","","SRET","SRET_math_calculate","","key","9","16.650647058823335","960","536","","","","","5+4= ?","9","1","","","","","","","",""
"1886","","6","psychophysics","115","390731","0.0-7.0-5.0-0.12","3","2","2","3","3","4","4","4","4","4","4","-2","1","-1","2","-2","-2","-1","-1","4","5","5","5","5","4","4","5","4","4","4","4","3","4","2","2","3","2","4","6","3","2","2","5","1","2","7","3","2","1","2","1","5","3","2","5","2","3","5","2","2","2","2","3","3","2","2","6","3","3","2","3","7","2","1","3","2","2","6","3","789416392486293505","王","104","Female","[""坏我"",""好她"",""好我"",""坏她""]","[""弱我"",""强她"",""强我"",""弱她""]","","","","","","","","6","","","","","","","","","SRET","SRET_math_calculate","","key","6","16.651258928571355","960","536","","","","","3*2= ?","6","1","","","","","","","",""
"1705","","2","psychophysics","116","392438","0.0-7.0-5.0-0.13","3","2","2","3","3","4","4","4","4","4","4","-2","1","-1","2","-2","-2","-1","-1","4","5","5","5","5","4","4","5","4","4","4","4","3","4","2","2","3","2","4","6","3","2","2","5","1","2","7","3","2","1","2","1","5","3","2","5","2","3","5","2","2","2","2","3","3","2","2","6","3","3","2","3","7","2","1","3","2","2","6","3","789416392486293505","王","104","Female","[""坏我"",""好她"",""好我"",""坏她""]","[""弱我"",""强她"",""强我"",""弱她""]","","","","","","","","2","","","","","","","","","SRET","SRET_math_calculate","","key","2","16.65095098039213","960","536","","","","","5-3= ?","2","1","","","","","","","",""
"1717","","8","psychophysics","117","394157","0.0-7.0-5.0-0.14","3","2","2","3","3","4","4","4","4","4","4","-2","1","-1","2","-2","-2","-1","-1","4","5","5","5","5","4","4","5","4","4","4","4","3","4","2","2","3","2","4","6","3","2","2","5","1","2","7","3","2","1","2","1","5","3","2","5","2","3","5","2","2","2","2","3","3","2","2","6","3","3","2","3","7","2","1","3","2","2","6","3","789416392486293505","王","104","Female","[""坏我"",""好她"",""好我"",""坏她""]","[""弱我"",""强她"",""强我"",""弱她""]","","","","","","","","8","","","","","","","","","SRET","SRET_math_calculate","","key","8","16.651098039215796","960","536","","","","","6+2= ?","8","1","","","","","","","",""
"1838","","0","psychophysics","118","395998","0.0-7.0-5.0-0.15","3","2","2","3","3","4","4","4","4","4","4","-2","1","-1","2","-2","-2","-1","-1","4","5","5","5","5","4","4","5","4","4","4","4","3","4","2","2","3","2","4","6","3","2","2","5","1","2","7","3","2","1","2","1","5","3","2","5","2","3","5","2","2","2","2","3","3","2","2","6","3","3","2","3","7","2","1","3","2","2","6","3","789416392486293505","王","104","Female","[""坏我"",""好她"",""好我"",""坏她""]","[""弱我"",""强她"",""强我"",""弱她""]","","","","","","","","0","","","","","","","","","SRET","SRET_math_calculate","","key","0","16.712275229357587","960","536","","","","","32-32= ?","0","1","","","","","","","",""
"2278","","5","psychophysics","119","398279","0.0-7.0-5.0-0.16","3","2","2","3","3","4","4","4","4","4","4","-2","1","-1","2","-2","-2","-1","-1","4","5","5","5","5","4","4","5","4","4","4","4","3","4","2","2","3","2","4","6","3","2","2","5","1","2","7","3","2","1","2","1","5","3","2","5","2","3","5","2","2","2","2","3","3","2","2","6","3","3","2","3","7","2","1","3","2","2","6","3","789416392486293505","王","104","Female","[""坏我"",""好她"",""好我"",""坏她""]","[""弱我"",""强她"",""强我"",""弱她""]","","","","","","","","5","","","","","","","","","SRET","SRET_math_calculate","","key","5","16.723644444444304","960","536","","","","","5/1= ?","5","1","","","","","","","",""
"1703","","2","psychophysics","120","399984","0.0-7.0-5.0-0.17","3","2","2","3","3","4","4","4","4","4","4","-2","1","-1","2","-2","-2","-1","-1","4","5","5","5","5","4","4","5","4","4","4","4","3","4","2","2","3","2","4","6","3","2","2","5","1","2","7","3","2","1","2","1","5","3","2","5","2","3","5","2","2","2","2","3","3","2","2","6","3","3","2","3","7","2","1","3","2","2","6","3","789416392486293505","王","104","Female","[""坏我"",""好她"",""好我"",""坏她""]","[""弱我"",""强她"",""强我"",""弱她""]","","","","","","","","2","","","","","","","","","SRET","SRET_math_calculate","","key","2","16.65110784313726","960","536","","","","","9-7= ?","2","1","","","","","","","",""
"1635","","5","psychophysics","121","401622","0.0-7.0-5.0-0.18","3","2","2","3","3","4","4","4","4","4","4","-2","1","-1","2","-2","-2","-1","-1","4","5","5","5","5","4","4","5","4","4","4","4","3","4","2","2","3","2","4","6","3","2","2","5","1","2","7","3","2","1","2","1","5","3","2","5","2","3","5","2","2","2","2","3","3","2","2","6","3","3","2","3","7","2","1","3","2","2","6","3","789416392486293505","王","104","Female","[""坏我"",""好她"",""好我"",""坏她""]","[""弱我"",""强她"",""强我"",""弱她""]","","","","","","","","5","","","","","","","","","SRET","SRET_math_calculate","","key","5","16.648639175257784","960","536","","","","","3+2= ?","5","1","","","","","","","",""
"1896","","8","psychophysics","122","403519","0.0-7.0-5.0-0.19","3","2","2","3","3","4","4","4","4","4","4","-2","1","-1","2","-2","-2","-1","-1","4","5","5","5","5","4","4","5","4","4","4","4","3","4","2","2","3","2","4","6","3","2","2","5","1","2","7","3","2","1","2","1","5","3","2","5","2","3","5","2","2","2","2","3","3","2","2","6","3","3","2","3","7","2","1","3","2","2","6","3","789416392486293505","王","104","Female","[""坏我"",""好她"",""好我"",""坏她""]","[""弱我"",""强她"",""强我"",""弱她""]","","","","","","","","8","","","","","","","","","SRET","SRET_math_calculate","","key","8","16.651097345132428","960","536","","","","","4*2= ?","8","1","","","","","","","",""
"1701","","6","psychophysics","123","405223","0.0-7.0-5.0-0.20","3","2","2","3","3","4","4","4","4","4","4","-2","1","-1","2","-2","-2","-1","-1","4","5","5","5","5","4","4","5","4","4","4","4","3","4","2","2","3","2","4","6","3","2","2","5","1","2","7","3","2","1","2","1","5","3","2","5","2","3","5","2","2","2","2","3","3","2","2","6","3","3","2","3","7","2","1","3","2","2","6","3","789416392486293505","王","104","Female","[""坏我"",""好她"",""好我"",""坏她""]","[""弱我"",""强她"",""强我"",""弱她""]","","","","","","","","6","","","","","","","","","SRET","SRET_math_calculate","","key","6","16.65145544554476","960","536","","","","","4+2= ?","6","1","","","","","","","",""
"1679","","8","psychophysics","124","406910","0.0-7.0-5.0-0.21","3","2","2","3","3","4","4","4","4","4","4","-2","1","-1","2","-2","-2","-1","-1","4","5","5","5","5","4","4","5","4","4","4","4","3","4","2","2","3","2","4","6","3","2","2","5","1","2","7","3","2","1","2","1","5","3","2","5","2","3","5","2","2","2","2","3","3","2","2","6","3","3","2","3","7","2","1","3","2","2","6","3","789416392486293505","王","104","Female","[""坏我"",""好她"",""好我"",""坏她""]","[""弱我"",""强她"",""强我"",""弱她""]","","","","","","","","8","","","","","","","","","SRET","SRET_math_calculate","","key","8","16.651762376237997","960","536","","","","","3+5= ?","8","1","","","","","","","",""
"1746","","4","psychophysics","125","408658","0.0-7.0-5.0-0.22","3","2","2","3","3","4","4","4","4","4","4","-2","1","-1","2","-2","-2","-1","-1","4","5","5","5","5","4","4","5","4","4","4","4","3","4","2","2","3","2","4","6","3","2","2","5","1","2","7","3","2","1","2","1","5","3","2","5","2","3","5","2","2","2","2","3","3","2","2","6","3","3","2","3","7","2","1","3","2","2","6","3","789416392486293505","王","104","Female","[""坏我"",""好她"",""好我"",""坏她""]","[""弱我"",""强她"",""强我"",""弱她""]","","","","","","","","4","","","","","","","","","SRET","SRET_math_calculate","","key","4","16.651028846153796","960","536","","","","","8-4= ?","4","1","","","","","","","",""
"1712","","9","psychophysics","126","410374","0.0-7.0-5.0-0.23","3","2","2","3","3","4","4","4","4","4","4","-2","1","-1","2","-2","-2","-1","-1","4","5","5","5","5","4","4","5","4","4","4","4","3","4","2","2","3","2","4","6","3","2","2","5","1","2","7","3","2","1","2","1","5","3","2","5","2","3","5","2","2","2","2","3","3","2","2","6","3","3","2","3","7","2","1","3","2","2","6","3","789416392486293505","王","104","Female","[""坏我"",""好她"",""好我"",""坏她""]","[""弱我"",""强她"",""强我"",""弱她""]","","","","","","","","9","","","","","","","","","SRET","SRET_math_calculate","","key","9","16.65137254901963","960","536","","","","","1+8= ?","9","1","","","","","","","",""
"1776","","6","psychophysics","127","412152","0.0-7.0-5.0-0.24","3","2","2","3","3","4","4","4","4","4","4","-2","1","-1","2","-2","-2","-1","-1","4","5","5","5","5","4","4","5","4","4","4","4","3","4","2","2","3","2","4","6","3","2","2","5","1","2","7","3","2","1","2","1","5","3","2","5","2","3","5","2","2","2","2","3","3","2","2","6","3","3","2","3","7","2","1","3","2","2","6","3","789416392486293505","王","104","Female","[""坏我"",""好她"",""好我"",""坏她""]","[""弱我"",""强她"",""强我"",""弱她""]","","","","","","","","6","","","","","","","","","SRET","SRET_math_calculate","","key","6","16.65089622641505","960","536","","","","","9-3= ?","6","1","","","","","","","",""
"1696","","7","psychophysics","128","413853","0.0-7.0-5.0-0.25","3","2","2","3","3","4","4","4","4","4","4","-2","1","-1","2","-2","-2","-1","-1","4","5","5","5","5","4","4","5","4","4","4","4","3","4","2","2","3","2","4","6","3","2","2","5","1","2","7","3","2","1","2","1","5","3","2","5","2","3","5","2","2","2","2","3","3","2","2","6","3","3","2","3","7","2","1","3","2","2","6","3","789416392486293505","王","104","Female","[""坏我"",""好她"",""好我"",""坏她""]","[""弱我"",""强她"",""强我"",""弱她""]","","","","","","","","7","","","","","","","","","SRET","SRET_math_calculate","","key","7","16.716879999999655","960","536","","","","","5+2= ?","7","1","","","","","","","",""
"1608","","8","psychophysics","129","415463","0.0-7.0-5.0-0.26","3","2","2","3","3","4","4","4","4","4","4","-2","1","-1","2","-2","-2","-1","-1","4","5","5","5","5","4","4","5","4","4","4","4","3","4","2","2","3","2","4","6","3","2","2","5","1","2","7","3","2","1","2","1","5","3","2","5","2","3","5","2","2","2","2","3","3","2","2","6","3","3","2","3","7","2","1","3","2","2","6","3","789416392486293505","王","104","Female","[""坏我"",""好她"",""好我"",""坏她""]","[""弱我"",""强她"",""强我"",""弱她""]","","","","","","","","8","","","","","","","","","SRET","SRET_math_calculate","","key","8","16.743463157894286","960","536","","","","","1+7= ?","8","1","","","","","","","",""
"2315","","3","psychophysics","130","417785","0.0-7.0-5.0-0.27","3","2","2","3","3","4","4","4","4","4","4","-2","1","-1","2","-2","-2","-1","-1","4","5","5","5","5","4","4","5","4","4","4","4","3","4","2","2","3","2","4","6","3","2","2","5","1","2","7","3","2","1","2","1","5","3","2","5","2","3","5","2","2","2","2","3","3","2","2","6","3","3","2","3","7","2","1","3","2","2","6","3","789416392486293505","王","104","Female","[""坏我"",""好她"",""好我"",""坏她""]","[""弱我"",""强她"",""强我"",""弱她""]","","","","","","","","3","","","","","","","","","SRET","SRET_math_calculate","","key","3","16.661402877697824","960","536","","","","","12/4= ?","3","1","","","","","","","",""
"1846","","0","psychophysics","131","419633","0.0-7.0-5.0-0.28","3","2","2","3","3","4","4","4","4","4","4","-2","1","-1","2","-2","-2","-1","-1","4","5","5","5","5","4","4","5","4","4","4","4","3","4","2","2","3","2","4","6","3","2","2","5","1","2","7","3","2","1","2","1","5","3","2","5","2","3","5","2","2","2","2","3","3","2","2","6","3","3","2","3","7","2","1","3","2","2","6","3","789416392486293505","王","104","Female","[""坏我"",""好她"",""好我"",""坏她""]","[""弱我"",""强她"",""强我"",""弱她""]","","","","","","","","0","","","","","","","","","SRET","SRET_math_calculate","","key","0","16.653872727273054","960","536","","","","","9-9= ?","0","1","","","","","","","",""
"1682","","2","psychophysics","132","421318","0.0-7.0-5.0-0.29","3","2","2","3","3","4","4","4","4","4","4","-2","1","-1","2","-2","-2","-1","-1","4","5","5","5","5","4","4","5","4","4","4","4","3","4","2","2","3","2","4","6","3","2","2","5","1","2","7","3","2","1","2","1","5","3","2","5","2","3","5","2","2","2","2","3","3","2","2","6","3","3","2","3","7","2","1","3","2","2","6","3","789416392486293505","王","104","Female","[""坏我"",""好她"",""好我"",""坏她""]","[""弱我"",""强她"",""强我"",""弱她""]","","","","","","","","2","","","","","","","","","SRET","SRET_math_calculate","","key","2","16.65","960","536","","","","","19-17= ?","2","1","","","","","","","",""
"1786","","5","psychophysics","133","423107","0.0-7.0-5.0-0.30","3","2","2","3","3","4","4","4","4","4","4","-2","1","-1","2","-2","-2","-1","-1","4","5","5","5","5","4","4","5","4","4","4","4","3","4","2","2","3","2","4","6","3","2","2","5","1","2","7","3","2","1","2","1","5","3","2","5","2","3","5","2","2","2","2","3","3","2","2","6","3","3","2","3","7","2","1","3","2","2","6","3","789416392486293505","王","104","Female","[""坏我"",""好她"",""好我"",""坏她""]","[""弱我"",""强她"",""强我"",""弱她""]","","","","","","","","5","","","","","","","","","SRET","SRET_math_calculate","","key","5","16.65210377358456","960","536","","","","","9-4= ?","5","1","","","","","","","",""
"2175","","9","psychophysics","134","425286","0.0-7.0-5.0-0.31","3","2","2","3","3","4","4","4","4","4","4","-2","1","-1","2","-2","-2","-1","-1","4","5","5","5","5","4","4","5","4","4","4","4","3","4","2","2","3","2","4","6","3","2","2","5","1","2","7","3","2","1","2","1","5","3","2","5","2","3","5","2","2","2","2","3","3","2","2","6","3","3","2","3","7","2","1","3","2","2","6","3","789416392486293505","王","104","Female","[""坏我"",""好她"",""好我"",""坏她""]","[""弱我"",""强她"",""强我"",""弱她""]","","","","","","","","9","","","","","","","","","SRET","SRET_math_calculate","","key","9","16.65107692307703","960","536","","","","","43-34= ?","9","1","","","","","","","",""
"1843","","7","psychophysics","135","427131","0.0-7.0-5.0-0.32","3","2","2","3","3","4","4","4","4","4","4","-2","1","-1","2","-2","-2","-1","-1","4","5","5","5","5","4","4","5","4","4","4","4","3","4","2","2","3","2","4","6","3","2","2","5","1","2","7","3","2","1","2","1","5","3","2","5","2","3","5","2","2","2","2","3","3","2","2","6","3","3","2","3","7","2","1","3","2","2","6","3","789416392486293505","王","104","Female","[""坏我"",""好她"",""好我"",""坏她""]","[""弱我"",""强她"",""强我"",""弱她""]","","","","","","","","7","","","","","","","","","SRET","SRET_math_calculate","","key","7","16.651009090908868","960","536","","","","","13-6= ?","7","1","","","","","","","",""
"1906","","2","psychophysics","136","429039","0.0-7.0-5.0-0.33","3","2","2","3","3","4","4","4","4","4","4","-2","1","-1","2","-2","-2","-1","-1","4","5","5","5","5","4","4","5","4","4","4","4","3","4","2","2","3","2","4","6","3","2","2","5","1","2","7","3","2","1","2","1","5","3","2","5","2","3","5","2","2","2","2","3","3","2","2","6","3","3","2","3","7","2","1","3","2","2","6","3","789416392486293505","王","104","Female","[""坏我"",""好她"",""好我"",""坏她""]","[""弱我"",""强她"",""强我"",""弱她""]","","","","","","","","2","","","","","","","","","SRET","SRET_math_calculate","","key","2","16.65135964912285","960","536","","","","","18/9= ?","2","1","","","","","","","",""
"2522","","9","psychophysics","137","431564","0.0-7.0-5.0-0.34","3","2","2","3","3","4","4","4","4","4","4","-2","1","-1","2","-2","-2","-1","-1","4","5","5","5","5","4","4","5","4","4","4","4","3","4","2","2","3","2","4","6","3","2","2","5","1","2","7","3","2","1","2","1","5","3","2","5","2","3","5","2","2","2","2","3","3","2","2","6","3","3","2","3","7","2","1","3","2","2","6","3","789416392486293505","王","104","Female","[""坏我"",""好她"",""好我"",""坏她""]","[""弱我"",""强她"",""强我"",""弱她""]","","","","","","","","9","","","","","","","","","SRET","SRET_math_calculate","","key","9","16.691140000000207","960","536","","","","","81/9= ?","9","1","","","","","","","",""
"1744","","8","psychophysics","138","433311","0.0-7.0-5.0-0.35","3","2","2","3","3","4","4","4","4","4","4","-2","1","-1","2","-2","-2","-1","-1","4","5","5","5","5","4","4","5","4","4","4","4","3","4","2","2","3","2","4","6","3","2","2","5","1","2","7","3","2","1","2","1","5","3","2","5","2","3","5","2","2","2","2","3","3","2","2","6","3","3","2","3","7","2","1","3","2","2","6","3","789416392486293505","王","104","Female","[""坏我"",""好她"",""好我"",""坏她""]","[""弱我"",""强她"",""强我"",""弱她""]","","","","","","","","8","","","","","","","","","SRET","SRET_math_calculate","","key","8","16.741737864077436","960","536","","","","","50-42= ?","8","1","","","","","","","",""
"2096","","0","psychophysics","139","435414","0.0-7.0-5.0-0.36","3","2","2","3","3","4","4","4","4","4","4","-2","1","-1","2","-2","-2","-1","-1","4","5","5","5","5","4","4","5","4","4","4","4","3","4","2","2","3","2","4","6","3","2","2","5","1","2","7","3","2","1","2","1","5","3","2","5","2","3","5","2","2","2","2","3","3","2","2","6","3","3","2","3","7","2","1","3","2","2","6","3","789416392486293505","王","104","Female","[""坏我"",""好她"",""好我"",""坏她""]","[""弱我"",""强她"",""强我"",""弱她""]","","","","","","","","0","","","","","","","","","SRET","SRET_math_calculate","","key","0","16.660063492063532","960","536","","","","","6*0= ?","0","1","","","","","","","",""
"1661","","9","psychophysics","140","437078","0.0-7.0-5.0-0.37","3","2","2","3","3","4","4","4","4","4","4","-2","1","-1","2","-2","-2","-1","-1","4","5","5","5","5","4","4","5","4","4","4","4","3","4","2","2","3","2","4","6","3","2","2","5","1","2","7","3","2","1","2","1","5","3","2","5","2","3","5","2","2","2","2","3","3","2","2","6","3","3","2","3","7","2","1","3","2","2","6","3","789416392486293505","王","104","Female","[""坏我"",""好她"",""好我"",""坏她""]","[""弱我"",""强她"",""强我"",""弱她""]","","","","","","","","9","","","","","","","","","SRET","SRET_math_calculate","","key","9","16.65166666666622","960","536","","","","","2+7= ?","9","1","","","","","","","",""
