"rt","stimulus","response","trial_type","trial_index","time_elapsed","internal_node_id","swb_1","swb_2","swb_3","swb_4","swb_5","LOT_1","LOT_2","LOT_3","LOT_4","LOT_5","LOT_6","IPC_1","IPC_2","IPC_3","IPC_4","IPC_5","IPC_6","IPC_7","IPC_8","MorIden_1","MorIden_2","MorIden_3","MorIden_4","MorIden_5","MorIden_6","MorIden_7","MorIden_8","MorIden_9","MorIden_10","moralSeImag_1","moralSeImag_2","moralSeImag_3","moralSeImag_4","moralSeImag_5","moralSeImag_6","moralSeImag_7","moralSeImag_8","moralSeImag_9","sde_1","sde_2","sde_3","sde_4","sde_5","sde_6","sde_7","sde_8","sde_9","sde_10","trap2","sde_11","sde_12","sde_13","sde_14","sde_15","sde_16","sde_17","sde_18","sde_19","sde_20","IM_1","IM_2","IM_3","IM_4","IM_5","IM_6","IM_7","IM_8","IM_9","IM_10","IM_11","IM_12","IM_13","IM_14","IM_15","IM_16","IM_17","IM_18","IM_19","IM_20","subj_idx","friend_name","ParticipantID","Sex","Word","Word2","value","success","timeout","failed_images","failed_audio","failed_video","user_agent","responses","item_order","radio_event_ids","radio_event_times","key_event_times","mouse_event_times","straightlining","zigzagging","honeypot","task_id","screen_id","time_stamp","response_type","key_press","avg_frame_time","center_x","center_y","person","word","valence","domain","math","correct_response","correct","status","view_history","identity","duration","Image","condition","question_order","trap2_item"
"27126","
   <p><div style='color:white; font-size: 25px'>您好，欢迎参加本次实验。</div></p>
   <p><div style='color:white; font-size: 25px'>为充分保障您的权利，请确保您已经知晓并同意《参与实验同意书》以及《数据公开知情同意书》。</div></p>
   <p><div style='color:white; font-size: 25px'>如果您未见过上述内容，请咨询实验员。</div></p>
   <p style='color:white; font-size: 25px'>如果您选择继续实验，则表示您已经清楚两份知情同意书的内容并同意。</p>
   <p><div style = ""color: pink;font-size:30px;"">请确保您记得day0的实验编号，您将在本次实验输入该编号，若您忘记，请咨询实验员后作答。</div></p>
   <p><div style = ""color:lightblue;font-size:25px;"">请您尽可能认真地作答，我们将依据您在各问卷和按键任务中的作答质量发放报酬。</div></p>
   <p> <div style = ""color: green""><按空格键至下页></div> </p>
   "," ","html-keyboard-response","0","27129","0.0-0.0","5","4","4","2","1","4","1","3","4","2","5","1","1","-2","1","-3","-1","1","0","5","4","5","4","4","4","4","3","4","5","5","5","7","6","8","7","5","4","5","6","1","2","2","1","1","6","1","4","1","1","5","1","5","2","5","6","4","3","3","1","2","6","3","2","1","6","6","6","7","6","3","4","7","3","1","6","3","7","1","6","789938022656385026","焦","484","Male","[""好我"",""坏他"",""坏我"",""好他""]","[""强我"",""弱他"",""弱我"",""强他""]","","","","","","","","","","","","","","","","","","","","","","","","","","","","","","","","","","","","","","",""
"","","","call-function","1","27131","0.0-1.0-0.0","5","4","4","2","1","4","1","3","4","2","5","1","1","-2","1","-3","-1","1","0","5","4","5","4","4","4","4","3","4","5","5","5","7","6","8","7","5","4","5","6","1","2","2","1","1","6","1","4","1","1","5","1","5","2","5","6","4","3","3","1","2","6","3","2","1","6","6","6","7","6","3","4","7","3","1","6","3","7","1","6","789938022656385026","焦","484","Male","[""好我"",""坏他"",""坏我"",""好他""]","[""强我"",""弱他"",""弱我"",""强他""]","","","","","","","","","","","","","","","","","","","","","","","","","","","","","","","","","","","","","","",""
"18236","","[{""name"":""Sex"",""value"":""0""},{""name"":""friend_name"",""value"":""焦""},{""name"":""ParticipantID"",""value"":""484""}]","survey-html-form","2","45368","0.0-1.0-1.0","5","4","4","2","1","4","1","3","4","2","5","1","1","-2","1","-3","-1","1","0","5","4","5","4","4","4","4","3","4","5","5","5","7","6","8","7","5","4","5","6","1","2","2","1","1","6","1","4","1","1","5","1","5","2","5","6","4","3","3","1","2","6","3","2","1","6","6","6","7","6","3","4","7","3","1","6","3","7","1","6","789938022656385026","焦","484","Male","[""好我"",""坏他"",""坏我"",""好他""]","[""强我"",""弱他"",""弱我"",""强他""]","","","","","","","","","","","","","","","","","","","","","","","","","","","","","","","","","","","","","","",""
"","","","preload","3","46048","0.0-2.0","5","4","4","2","1","4","1","3","4","2","5","1","1","-2","1","-3","-1","1","0","5","4","5","4","4","4","4","3","4","5","5","5","7","6","8","7","5","4","5","6","1","2","2","1","1","6","1","4","1","1","5","1","5","2","5","6","4","3","3","1","2","6","3","2","1","6","6","6","7","6","3","4","7","3","1","6","3","7","1","6","789938022656385026","焦","484","Male","[""好我"",""坏他"",""坏我"",""好他""]","[""强我"",""弱他"",""弱我"",""强他""]","","true","false","[]","[]","[]","","","","","","","","","","","","","","","","","","","","","","","","","","","","","","","","",""
"","","","fullscreen","4","52913","0.0-3.0","5","4","4","2","1","4","1","3","4","2","5","1","1","-2","1","-3","-1","1","0","5","4","5","4","4","4","4","3","4","5","5","5","7","6","8","7","5","4","5","6","1","2","2","1","1","6","1","4","1","1","5","1","5","2","5","6","4","3","3","1","2","6","3","2","1","6","6","6","7","6","3","4","7","3","1","6","3","7","1","6","789938022656385026","焦","484","Male","[""好我"",""坏他"",""坏我"",""好他""]","[""强我"",""弱他"",""弱我"",""强他""]","","true","","","","","{}","","","","","","","","","","","","","","","","","","","","","","","","","","","","","","","",""
"19273","","{""Q01"":""5"",""Q02"":""4"",""Q03"":""4"",""Q04"":""2"",""Q05"":""1""}","survey-template","5","72189","0.0-4.0","5","4","4","2","1","4","1","3","4","2","5","1","1","-2","1","-3","-1","1","0","5","4","5","4","4","4","4","3","4","5","5","5","7","6","8","7","5","4","5","6","1","2","2","1","1","6","1","4","1","1","5","1","5","2","5","6","4","3","3","1","2","6","3","2","1","6","6","6","7","6","3","4","7","3","1","6","3","7","1","6","789938022656385026","焦","484","Male","[""好我"",""坏他"",""坏我"",""好他""]","[""强我"",""弱他"",""弱我"",""强他""]","","","","","","","","{""Q01"":""5"",""Q02"":""4"",""Q03"":""4"",""Q04"":""2"",""Q05"":""1""}","[0,1,2,3,4]","[""Q01"",""Q02"",""Q03"",""Q04"",""Q05""]","[4054.199999988079,6900.299999982119,8742.699999988079,12535.199999988079,16320.199999988079]","[]","[4054.199999988079,6900.299999982119,8742.699999988079,10832.5,12535.199999988079,14715.899999976158,16320.199999988079,19271.899999976158]","0.4","0.5","0","","","","","","","","","","","","","","","","","","","","","","",""
"25658.5","","{""Q01"":""4"",""Q02"":""1"",""Q03"":""3"",""Q04"":""4"",""Q05"":""2"",""Q06"":""5""}","survey-template","6","97853","0.0-5.0","5","4","4","2","1","4","1","3","4","2","5","1","1","-2","1","-3","-1","1","0","5","4","5","4","4","4","4","3","4","5","5","5","7","6","8","7","5","4","5","6","1","2","2","1","1","6","1","4","1","1","5","1","5","2","5","6","4","3","3","1","2","6","3","2","1","6","6","6","7","6","3","4","7","3","1","6","3","7","1","6","789938022656385026","焦","484","Male","[""好我"",""坏他"",""坏我"",""好他""]","[""强我"",""弱他"",""弱我"",""强他""]","","","","","","","","{""Q01"":""4"",""Q02"":""1"",""Q03"":""3"",""Q04"":""4"",""Q05"":""2"",""Q06"":""5""}","[0,1,2,3,4,5]","[""Q01"",""Q01"",""Q02"",""Q03"",""Q04"",""Q05"",""Q06""]","[3888.4000000059605,4510.4000000059605,8873.799999982119,13356.59999999404,17275,19327.09999999404,24330.29999998212]","[]","[3888.4000000059605,4510.4000000059605,8873.799999982119,13356.59999999404,17275,19327.09999999404,23380.79999998212,24330.29999998212,25657.40000000596]","0.3333333333333333","0.6","0","","","","","","","","","","","","","","","","","","","","","","",""
"40270.39999997616","","{""Q01"":""1"",""Q02"":""1"",""Q03"":""-2"",""Q04"":""1"",""Q05"":""-3"",""Q06"":""-1"",""Q07"":""1"",""Q08"":""0""}","survey-template","7","138128","0.0-6.0","5","4","4","2","1","4","1","3","4","2","5","1","1","-2","1","-3","-1","1","0","5","4","5","4","4","4","4","3","4","5","5","5","7","6","8","7","5","4","5","6","1","2","2","1","1","6","1","4","1","1","5","1","5","2","5","6","4","3","3","1","2","6","3","2","1","6","6","6","7","6","3","4","7","3","1","6","3","7","1","6","789938022656385026","焦","484","Male","[""好我"",""坏他"",""坏我"",""好他""]","[""强我"",""弱他"",""弱我"",""强他""]","","","","","","","","{""Q01"":""1"",""Q02"":""1"",""Q03"":""-2"",""Q04"":""1"",""Q05"":""-3"",""Q06"":""-1"",""Q07"":""1"",""Q08"":""0""}","[0,1,2,3,4,5,6,7]","[""Q01"",""Q02"",""Q03"",""Q04"",""Q05"",""Q06"",""Q07"",""Q08""]","[11773.799999982119,19200.19999998808,21305.29999998212,23736.09999999404,25868.69999998808,30949,35607.89999997616,38949.79999998212]","[]","[11773.799999982119,19200.19999998808,21305.29999998212,23736.09999999404,25868.69999998808,30949,35607.89999997616,38949.79999998212,40269.09999999404]","0.5","0.14285714285714285","0","","","","","","","","","","","","","","","","","","","","","","",""
"11569","
    <p><div style='color:white;font-size:35px; line-height:20px;'>词汇评估任务</div></p><br>
    <p><div style='color:white;font-size:25px; line-height:20px;'>请再次回忆该亲密的朋友，你们至少2年前就认识了，并且最近2年经常见面。</div></p>
    <p><div style='color:white;font-size:25px; line-height:20px;'>在本实验中，您将会看到一些形容词。</div></p>
    <p><div style='color:yellow;font-size:25px; line-height:20px;'>您的任务是判断这些形容词是否符合对您自己或您的朋友的描述。</div></p><p style='font-size:35px'>符合按<span style=""color:lightgreen""> f 键</span>，不符合按<span style=""color:red""> j 键</span></p>","0","html-button-response","8","149701","0.0-7.0-0.0","5","4","4","2","1","4","1","3","4","2","5","1","1","-2","1","-3","-1","1","0","5","4","5","4","4","4","4","3","4","5","5","5","7","6","8","7","5","4","5","6","1","2","2","1","1","6","1","4","1","1","5","1","5","2","5","6","4","3","3","1","2","6","3","2","1","6","6","6","7","6","3","4","7","3","1","6","3","7","1","6","789938022656385026","焦","484","Male","[""好我"",""坏他"",""坏我"",""好他""]","[""强我"",""弱他"",""弱我"",""强他""]","","","","","","","","","","","","","","","","","SRET_EW","EW_instructions","Tue Jan 02 2024 21:16:25 GMT+0800 (中国标准时间)","","","","","","","","","","","","","","","","","","","",""
"1893","","f","psychophysics","9","152602","0.0-7.0-1.0-0.0","5","4","4","2","1","4","1","3","4","2","5","1","1","-2","1","-3","-1","1","0","5","4","5","4","4","4","4","3","4","5","5","5","7","6","8","7","5","4","5","6","1","2","2","1","1","6","1","4","1","1","5","1","5","2","5","6","4","3","3","1","2","6","3","2","1","6","6","6","7","6","3","4","7","3","1","6","3","7","1","6","789938022656385026","焦","484","Male","[""好我"",""坏他"",""坏我"",""好他""]","[""强我"",""弱他"",""弱我"",""强他""]","","","","","","","","yes","","","","","","","","","SRET_EW","EW_practice","","key","f","16.6524885057471","799.9999682108573","445.8333156175091","朋友","忠实","Positive","morality","","","","","","","","","","",""
"1128","","f","psychophysics","10","154737","0.0-7.0-1.0-0.1","5","4","4","2","1","4","1","3","4","2","5","1","1","-2","1","-3","-1","1","0","5","4","5","4","4","4","4","3","4","5","5","5","7","6","8","7","5","4","5","6","1","2","2","1","1","6","1","4","1","1","5","1","5","2","5","6","4","3","3","1","2","6","3","2","1","6","6","6","7","6","3","4","7","3","1","6","3","7","1","6","789938022656385026","焦","484","Male","[""好我"",""坏他"",""坏我"",""好他""]","[""强我"",""弱他"",""弱我"",""强他""]","","","","","","","","yes","","","","","","","","","SRET_EW","EW_practice","","key","f","16.653109374999985","799.9999682108573","445.8333156175091","自己","严谨","Positive","ability","","","","","","","","","","",""
"1484","","j","psychophysics","11","157229","0.0-7.0-1.0-0.2","5","4","4","2","1","4","1","3","4","2","5","1","1","-2","1","-3","-1","1","0","5","4","5","4","4","4","4","3","4","5","5","5","7","6","8","7","5","4","5","6","1","2","2","1","1","6","1","4","1","1","5","1","5","2","5","6","4","3","3","1","2","6","3","2","1","6","6","6","7","6","3","4","7","3","1","6","3","7","1","6","789938022656385026","焦","484","Male","[""好我"",""坏他"",""坏我"",""好他""]","[""强我"",""弱他"",""弱我"",""强他""]","","","","","","","","no","","","","","","","","","SRET_EW","EW_practice","","key","j","16.65256756756768","799.9999682108573","445.8333156175091","朋友","徇私","Negative","morality","","","","","","","","","","",""
"1305","","f","psychophysics","12","159536","0.0-7.0-1.0-0.3","5","4","4","2","1","4","1","3","4","2","5","1","1","-2","1","-3","-1","1","0","5","4","5","4","4","4","4","3","4","5","5","5","7","6","8","7","5","4","5","6","1","2","2","1","1","6","1","4","1","1","5","1","5","2","5","6","4","3","3","1","2","6","3","2","1","6","6","6","7","6","3","4","7","3","1","6","3","7","1","6","789938022656385026","焦","484","Male","[""好我"",""坏他"",""坏我"",""好他""]","[""强我"",""弱他"",""弱我"",""强他""]","","","","","","","","yes","","","","","","","","","SRET_EW","EW_practice","","key","f","16.656065217391173","799.9999682108573","445.8333156175091","自己","刻板","Negative","ability","","","","","","","","","","",""
"10850","
    <p><div style='color:white;font-size:35px; line-height:20px;'>请您再次阅读实验要求</div></p><br>
    <p><div style='color:white;font-size:25px; line-height:20px;'>请回忆某一个亲密的朋友，你们至少2年前就认识了，并且最近2年经常见面。</div></p>
    <p><div style='color:white;font-size:25px; line-height:20px;'>在本实验中，您将会看到一些形容词。</div></p>
    <p><div style='color:yellow;font-size:25px; line-height:20px;'>您的任务是判断这些形容词是否符合对您自己或您的朋友的描述。</div></p>
    <p><div class='footer' style='font-size:25px; line-height:20px;'>如果对本实验还有不清楚之处，请立即向实验员咨询。</p><p style='font-size:25px; line-height:20px;'>如果您明白了规则：</p><p style='font-size:22px; line-height:20px;'>请按 继续 进入正式实验</p>
    </div>
    <p style='font-size:35px'>符合按<span style=""color:lightgreen""> f 键</span>，不符合按<span style=""color:red""> j 键</span></p>","0","html-button-response","13","170388","0.0-7.0-2.0","5","4","4","2","1","4","1","3","4","2","5","1","1","-2","1","-3","-1","1","0","5","4","5","4","4","4","4","3","4","5","5","5","7","6","8","7","5","4","5","6","1","2","2","1","1","6","1","4","1","1","5","1","5","2","5","6","4","3","3","1","2","6","3","2","1","6","6","6","7","6","3","4","7","3","1","6","3","7","1","6","789938022656385026","焦","484","Male","[""好我"",""坏他"",""坏我"",""好他""]","[""强我"",""弱他"",""弱我"",""强他""]","","","","","","","","","","","","","","","","","SRET_EW","prac_instructions","Tue Jan 02 2024 21:16:25 GMT+0800 (中国标准时间)","","","","","","","","","","","","","","","","","","","",""
"1036","","j","psychophysics","14","172430","0.0-7.0-3.0-0.0","5","4","4","2","1","4","1","3","4","2","5","1","1","-2","1","-3","-1","1","0","5","4","5","4","4","4","4","3","4","5","5","5","7","6","8","7","5","4","5","6","1","2","2","1","1","6","1","4","1","1","5","1","5","2","5","6","4","3","3","1","2","6","3","2","1","6","6","6","7","6","3","4","7","3","1","6","3","7","1","6","789938022656385026","焦","484","Male","[""好我"",""坏他"",""坏我"",""好他""]","[""强我"",""弱他"",""弱我"",""强他""]","","","","","","","","no","","","","","","","","","SRET","EW_formal","","key","j","16.655065573770536","799.9999682108573","445.8333156175091","自己","说谎","Negative","morality","","","","","","","","","","",""
"1042","","f","psychophysics","15","174475","0.0-7.0-3.0-0.1","5","4","4","2","1","4","1","3","4","2","5","1","1","-2","1","-3","-1","1","0","5","4","5","4","4","4","4","3","4","5","5","5","7","6","8","7","5","4","5","6","1","2","2","1","1","6","1","4","1","1","5","1","5","2","5","6","4","3","3","1","2","6","3","2","1","6","6","6","7","6","3","4","7","3","1","6","3","7","1","6","789938022656385026","焦","484","Male","[""好我"",""坏他"",""坏我"",""好他""]","[""强我"",""弱他"",""弱我"",""强他""]","","","","","","","","yes","","","","","","","","","SRET","EW_formal","","key","f","16.650606557377138","799.9999682108573","445.8333156175091","朋友","务实","Positive","ability","","","","","","","","","","",""
"1233","","j","psychophysics","16","176715","0.0-7.0-3.0-0.2","5","4","4","2","1","4","1","3","4","2","5","1","1","-2","1","-3","-1","1","0","5","4","5","4","4","4","4","3","4","5","5","5","7","6","8","7","5","4","5","6","1","2","2","1","1","6","1","4","1","1","5","1","5","2","5","6","4","3","3","1","2","6","3","2","1","6","6","6","7","6","3","4","7","3","1","6","3","7","1","6","789938022656385026","焦","484","Male","[""好我"",""坏他"",""坏我"",""好他""]","[""强我"",""弱他"",""弱我"",""强他""]","","","","","","","","no","","","","","","","","","SRET","EW_formal","","key","j","16.653451127819437","799.9999682108573","445.8333156175091","朋友","迷糊","Negative","ability","","","","","","","","","","",""
"734","","f","psychophysics","17","178450","0.0-7.0-3.0-0.3","5","4","4","2","1","4","1","3","4","2","5","1","1","-2","1","-3","-1","1","0","5","4","5","4","4","4","4","3","4","5","5","5","7","6","8","7","5","4","5","6","1","2","2","1","1","6","1","4","1","1","5","1","5","2","5","6","4","3","3","1","2","6","3","2","1","6","6","6","7","6","3","4","7","3","1","6","3","7","1","6","789938022656385026","焦","484","Male","[""好我"",""坏他"",""坏我"",""好他""]","[""强我"",""弱他"",""弱我"",""强他""]","","","","","","","","yes","","","","","","","","","SRET","EW_formal","","key","f","16.65341346153834","799.9999682108573","445.8333156175091","自己","坚贞","Positive","morality","","","","","","","","","","",""
"833","","j","psychophysics","18","180290","0.0-7.0-3.0-0.4","5","4","4","2","1","4","1","3","4","2","5","1","1","-2","1","-3","-1","1","0","5","4","5","4","4","4","4","3","4","5","5","5","7","6","8","7","5","4","5","6","1","2","2","1","1","6","1","4","1","1","5","1","5","2","5","6","4","3","3","1","2","6","3","2","1","6","6","6","7","6","3","4","7","3","1","6","3","7","1","6","789938022656385026","焦","484","Male","[""好我"",""坏他"",""坏我"",""好他""]","[""强我"",""弱他"",""弱我"",""强他""]","","","","","","","","no","","","","","","","","","SRET","EW_formal","","key","j","16.652981651376308","799.9999682108573","445.8333156175091","朋友","不孝","Negative","morality","","","","","","","","","","",""
"767","","f","psychophysics","19","182062","0.0-7.0-3.0-0.5","5","4","4","2","1","4","1","3","4","2","5","1","1","-2","1","-3","-1","1","0","5","4","5","4","4","4","4","3","4","5","5","5","7","6","8","7","5","4","5","6","1","2","2","1","1","6","1","4","1","1","5","1","5","2","5","6","4","3","3","1","2","6","3","2","1","6","6","6","7","6","3","4","7","3","1","6","3","7","1","6","789938022656385026","焦","484","Male","[""好我"",""坏他"",""坏我"",""好他""]","[""强我"",""弱他"",""弱我"",""强他""]","","","","","","","","yes","","","","","","","","","SRET","EW_formal","","key","f","16.652754716981228","799.9999682108573","445.8333156175091","自己","热心","Positive","morality","","","","","","","","","","",""
"695","","f","psychophysics","20","183761","0.0-7.0-3.0-0.6","5","4","4","2","1","4","1","3","4","2","5","1","1","-2","1","-3","-1","1","0","5","4","5","4","4","4","4","3","4","5","5","5","7","6","8","7","5","4","5","6","1","2","2","1","1","6","1","4","1","1","5","1","5","2","5","6","4","3","3","1","2","6","3","2","1","6","6","6","7","6","3","4","7","3","1","6","3","7","1","6","789938022656385026","焦","484","Male","[""好我"",""坏他"",""坏我"",""好他""]","[""强我"",""弱他"",""弱我"",""强他""]","","","","","","","","yes","","","","","","","","","SRET","EW_formal","","key","f","16.653346534653586","799.9999682108573","445.8333156175091","自己","诚信","Positive","morality","","","","","","","","","","",""
"1211","","f","psychophysics","21","185980","0.0-7.0-3.0-0.7","5","4","4","2","1","4","1","3","4","2","5","1","1","-2","1","-3","-1","1","0","5","4","5","4","4","4","4","3","4","5","5","5","7","6","8","7","5","4","5","6","1","2","2","1","1","6","1","4","1","1","5","1","5","2","5","6","4","3","3","1","2","6","3","2","1","6","6","6","7","6","3","4","7","3","1","6","3","7","1","6","789938022656385026","焦","484","Male","[""好我"",""坏他"",""坏我"",""好他""]","[""强我"",""弱他"",""弱我"",""强他""]","","","","","","","","yes","","","","","","","","","SRET","EW_formal","","key","f","16.655068181818272","799.9999682108573","445.8333156175091","朋友","顶事","Positive","ability","","","","","","","","","","",""
"755","","f","psychophysics","22","187741","0.0-7.0-3.0-0.8","5","4","4","2","1","4","1","3","4","2","5","1","1","-2","1","-3","-1","1","0","5","4","5","4","4","4","4","3","4","5","5","5","7","6","8","7","5","4","5","6","1","2","2","1","1","6","1","4","1","1","5","1","5","2","5","6","4","3","3","1","2","6","3","2","1","6","6","6","7","6","3","4","7","3","1","6","3","7","1","6","789938022656385026","焦","484","Male","[""好我"",""坏他"",""坏我"",""好他""]","[""强我"",""弱他"",""弱我"",""强他""]","","","","","","","","yes","","","","","","","","","SRET","EW_formal","","key","f","16.654638095238035","799.9999682108573","445.8333156175091","自己","敏捷","Positive","ability","","","","","","","","","","",""
"1043","","f","psychophysics","23","189788","0.0-7.0-3.0-0.9","5","4","4","2","1","4","1","3","4","2","5","1","1","-2","1","-3","-1","1","0","5","4","5","4","4","4","4","3","4","5","5","5","7","6","8","7","5","4","5","6","1","2","2","1","1","6","1","4","1","1","5","1","5","2","5","6","4","3","3","1","2","6","3","2","1","6","6","6","7","6","3","4","7","3","1","6","3","7","1","6","789938022656385026","焦","484","Male","[""好我"",""坏他"",""坏我"",""好他""]","[""强我"",""弱他"",""弱我"",""强他""]","","","","","","","","yes","","","","","","","","","SRET","EW_formal","","key","f","16.652983606557292","799.9999682108573","445.8333156175091","朋友","廉明","Positive","morality","","","","","","","","","","",""
"967","","j","psychophysics","24","191761","0.0-7.0-3.0-0.10","5","4","4","2","1","4","1","3","4","2","5","1","1","-2","1","-3","-1","1","0","5","4","5","4","4","4","4","3","4","5","5","5","7","6","8","7","5","4","5","6","1","2","2","1","1","6","1","4","1","1","5","1","5","2","5","6","4","3","3","1","2","6","3","2","1","6","6","6","7","6","3","4","7","3","1","6","3","7","1","6","789938022656385026","焦","484","Male","[""好我"",""坏他"",""坏我"",""好他""]","[""强我"",""弱他"",""弱我"",""强他""]","","","","","","","","no","","","","","","","","","SRET","EW_formal","","key","j","16.654743589743678","799.9999682108573","445.8333156175091","自己","弱智","Negative","ability","","","","","","","","","","",""
"753","","f","psychophysics","25","193522","0.0-7.0-3.0-0.11","5","4","4","2","1","4","1","3","4","2","5","1","1","-2","1","-3","-1","1","0","5","4","5","4","4","4","4","3","4","5","5","5","7","6","8","7","5","4","5","6","1","2","2","1","1","6","1","4","1","1","5","1","5","2","5","6","4","3","3","1","2","6","3","2","1","6","6","6","7","6","3","4","7","3","1","6","3","7","1","6","789938022656385026","焦","484","Male","[""好我"",""坏他"",""坏我"",""好他""]","[""强我"",""弱他"",""弱我"",""强他""]","","","","","","","","yes","","","","","","","","","SRET","EW_formal","","key","f","16.65627619047605","799.9999682108573","445.8333156175091","自己","奉献","Positive","morality","","","","","","","","","","",""
"886","","j","psychophysics","26","195415","0.0-7.0-3.0-0.12","5","4","4","2","1","4","1","3","4","2","5","1","1","-2","1","-3","-1","1","0","5","4","5","4","4","4","4","3","4","5","5","5","7","6","8","7","5","4","5","6","1","2","2","1","1","6","1","4","1","1","5","1","5","2","5","6","4","3","3","1","2","6","3","2","1","6","6","6","7","6","3","4","7","3","1","6","3","7","1","6","789938022656385026","焦","484","Male","[""好我"",""坏他"",""坏我"",""好他""]","[""强我"",""弱他"",""弱我"",""强他""]","","","","","","","","no","","","","","","","","","SRET","EW_formal","","key","j","16.65226785714263","799.9999682108573","445.8333156175091","朋友","自律","Positive","ability","","","","","","","","","","",""
"958","","f","psychophysics","27","197375","0.0-7.0-3.0-0.13","5","4","4","2","1","4","1","3","4","2","5","1","1","-2","1","-3","-1","1","0","5","4","5","4","4","4","4","3","4","5","5","5","7","6","8","7","5","4","5","6","1","2","2","1","1","6","1","4","1","1","5","1","5","2","5","6","4","3","3","1","2","6","3","2","1","6","6","6","7","6","3","4","7","3","1","6","3","7","1","6","789938022656385026","焦","484","Male","[""好我"",""坏他"",""坏我"",""好他""]","[""强我"",""弱他"",""弱我"",""强他""]","","","","","","","","yes","","","","","","","","","SRET","EW_formal","","key","f","16.656017094017226","799.9999682108573","445.8333156175091","朋友","忠勇","Positive","morality","","","","","","","","","","",""
"1132","","f","psychophysics","28","199511","0.0-7.0-3.0-0.14","5","4","4","2","1","4","1","3","4","2","5","1","1","-2","1","-3","-1","1","0","5","4","5","4","4","4","4","3","4","5","5","5","7","6","8","7","5","4","5","6","1","2","2","1","1","6","1","4","1","1","5","1","5","2","5","6","4","3","3","1","2","6","3","2","1","6","6","6","7","6","3","4","7","3","1","6","3","7","1","6","789938022656385026","焦","484","Male","[""好我"",""坏他"",""坏我"",""好他""]","[""强我"",""弱他"",""弱我"",""强他""]","","","","","","","","yes","","","","","","","","","SRET","EW_formal","","key","f","16.655433070866298","799.9999682108573","445.8333156175091","朋友","变通","Positive","ability","","","","","","","","","","",""
"951","","f","psychophysics","29","201463","0.0-7.0-3.0-0.15","5","4","4","2","1","4","1","3","4","2","5","1","1","-2","1","-3","-1","1","0","5","4","5","4","4","4","4","3","4","5","5","5","7","6","8","7","5","4","5","6","1","2","2","1","1","6","1","4","1","1","5","1","5","2","5","6","4","3","3","1","2","6","3","2","1","6","6","6","7","6","3","4","7","3","1","6","3","7","1","6","789938022656385026","焦","484","Male","[""好我"",""坏他"",""坏我"",""好他""]","[""强我"",""弱他"",""弱我"",""强他""]","","","","","","","","yes","","","","","","","","","SRET","EW_formal","","key","f","16.653162393162503","799.9999682108573","445.8333156175091","朋友","懂行","Positive","ability","","","","","","","","","","",""
"1129","","j","psychophysics","30","203594","0.0-7.0-3.0-0.16","5","4","4","2","1","4","1","3","4","2","5","1","1","-2","1","-3","-1","1","0","5","4","5","4","4","4","4","3","4","5","5","5","7","6","8","7","5","4","5","6","1","2","2","1","1","6","1","4","1","1","5","1","5","2","5","6","4","3","3","1","2","6","3","2","1","6","6","6","7","6","3","4","7","3","1","6","3","7","1","6","789938022656385026","焦","484","Male","[""好我"",""坏他"",""坏我"",""好他""]","[""强我"",""弱他"",""弱我"",""强他""]","","","","","","","","no","","","","","","","","","SRET","EW_formal","","key","j","16.652622047244108","799.9999682108573","445.8333156175091","自己","虚伪","Negative","morality","","","","","","","","","","",""
"961","","j","psychophysics","31","205562","0.0-7.0-3.0-0.17","5","4","4","2","1","4","1","3","4","2","5","1","1","-2","1","-3","-1","1","0","5","4","5","4","4","4","4","3","4","5","5","5","7","6","8","7","5","4","5","6","1","2","2","1","1","6","1","4","1","1","5","1","5","2","5","6","4","3","3","1","2","6","3","2","1","6","6","6","7","6","3","4","7","3","1","6","3","7","1","6","789938022656385026","焦","484","Male","[""好我"",""坏他"",""坏我"",""好他""]","[""强我"",""弱他"",""弱我"",""强他""]","","","","","","","","no","","","","","","","","","SRET","EW_formal","","key","j","16.652948717948878","799.9999682108573","445.8333156175091","朋友","龌龊","Negative","morality","","","","","","","","","","",""
"680","","f","psychophysics","32","207250","0.0-7.0-3.0-0.18","5","4","4","2","1","4","1","3","4","2","5","1","1","-2","1","-3","-1","1","0","5","4","5","4","4","4","4","3","4","5","5","5","7","6","8","7","5","4","5","6","1","2","2","1","1","6","1","4","1","1","5","1","5","2","5","6","4","3","3","1","2","6","3","2","1","6","6","6","7","6","3","4","7","3","1","6","3","7","1","6","789938022656385026","焦","484","Male","[""好我"",""坏他"",""坏我"",""好他""]","[""强我"",""弱他"",""弱我"",""强他""]","","","","","","","","yes","","","","","","","","","SRET","EW_formal","","key","f","16.656230000000214","799.9999682108573","445.8333156175091","自己","厚道","Positive","morality","","","","","","","","","","",""
"1428","","j","psychophysics","33","209683","0.0-7.0-3.0-0.19","5","4","4","2","1","4","1","3","4","2","5","1","1","-2","1","-3","-1","1","0","5","4","5","4","4","4","4","3","4","5","5","5","7","6","8","7","5","4","5","6","1","2","2","1","1","6","1","4","1","1","5","1","5","2","5","6","4","3","3","1","2","6","3","2","1","6","6","6","7","6","3","4","7","3","1","6","3","7","1","6","789938022656385026","焦","484","Male","[""好我"",""坏他"",""坏我"",""好他""]","[""强我"",""弱他"",""弱我"",""强他""]","","","","","","","","no","","","","","","","","","SRET","EW_formal","","key","j","16.653117241379444","799.9999682108573","445.8333156175091","朋友","不端","Negative","morality","","","","","","","","","","",""
"722","","f","psychophysics","34","211409","0.0-7.0-3.0-0.20","5","4","4","2","1","4","1","3","4","2","5","1","1","-2","1","-3","-1","1","0","5","4","5","4","4","4","4","3","4","5","5","5","7","6","8","7","5","4","5","6","1","2","2","1","1","6","1","4","1","1","5","1","5","2","5","6","4","3","3","1","2","6","3","2","1","6","6","6","7","6","3","4","7","3","1","6","3","7","1","6","789938022656385026","焦","484","Male","[""好我"",""坏他"",""坏我"",""好他""]","[""强我"",""弱他"",""弱我"",""强他""]","","","","","","","","yes","","","","","","","","","SRET","EW_formal","","key","f","16.653213592232895","799.9999682108573","445.8333156175091","自己","清廉","Positive","morality","","","","","","","","","","",""
"1404","","j","psychophysics","35","213821","0.0-7.0-3.0-0.21","5","4","4","2","1","4","1","3","4","2","5","1","1","-2","1","-3","-1","1","0","5","4","5","4","4","4","4","3","4","5","5","5","7","6","8","7","5","4","5","6","1","2","2","1","1","6","1","4","1","1","5","1","5","2","5","6","4","3","3","1","2","6","3","2","1","6","6","6","7","6","3","4","7","3","1","6","3","7","1","6","789938022656385026","焦","484","Male","[""好我"",""坏他"",""坏我"",""好他""]","[""强我"",""弱他"",""弱我"",""强他""]","","","","","","","","no","","","","","","","","","SRET","EW_formal","","key","j","16.651458333333316","799.9999682108573","445.8333156175091","朋友","驽钝","Negative","ability","","","","","","","","","","",""
"1331","","j","psychophysics","36","216157","0.0-7.0-3.0-0.22","5","4","4","2","1","4","1","3","4","2","5","1","1","-2","1","-3","-1","1","0","5","4","5","4","4","4","4","3","4","5","5","5","7","6","8","7","5","4","5","6","1","2","2","1","1","6","1","4","1","1","5","1","5","2","5","6","4","3","3","1","2","6","3","2","1","6","6","6","7","6","3","4","7","3","1","6","3","7","1","6","789938022656385026","焦","484","Male","[""好我"",""坏他"",""坏我"",""好他""]","[""强我"",""弱他"",""弱我"",""强他""]","","","","","","","","no","","","","","","","","","SRET","EW_formal","","key","j","16.65224460431642","799.9999682108573","445.8333156175091","朋友","自私","Negative","morality","","","","","","","","","","",""
"797","","f","psychophysics","37","217958","0.0-7.0-3.0-0.23","5","4","4","2","1","4","1","3","4","2","5","1","1","-2","1","-3","-1","1","0","5","4","5","4","4","4","4","3","4","5","5","5","7","6","8","7","5","4","5","6","1","2","2","1","1","6","1","4","1","1","5","1","5","2","5","6","4","3","3","1","2","6","3","2","1","6","6","6","7","6","3","4","7","3","1","6","3","7","1","6","789938022656385026","焦","484","Male","[""好我"",""坏他"",""坏我"",""好他""]","[""强我"",""弱他"",""弱我"",""强他""]","","","","","","","","yes","","","","","","","","","SRET","EW_formal","","key","f","16.653196261682172","799.9999682108573","445.8333156175091","朋友","努力","Positive","ability","","","","","","","","","","",""
"941","","j","psychophysics","38","219902","0.0-7.0-3.0-0.24","5","4","4","2","1","4","1","3","4","2","5","1","1","-2","1","-3","-1","1","0","5","4","5","4","4","4","4","3","4","5","5","5","7","6","8","7","5","4","5","6","1","2","2","1","1","6","1","4","1","1","5","1","5","2","5","6","4","3","3","1","2","6","3","2","1","6","6","6","7","6","3","4","7","3","1","6","3","7","1","6","789938022656385026","焦","484","Male","[""好我"",""坏他"",""坏我"",""好他""]","[""强我"",""弱他"",""弱我"",""强他""]","","","","","","","","no","","","","","","","","","SRET","EW_formal","","key","j","16.652844827586048","799.9999682108573","445.8333156175091","自己","失信","Negative","morality","","","","","","","","","","",""
"973","","j","psychophysics","39","221879","0.0-7.0-3.0-0.25","5","4","4","2","1","4","1","3","4","2","5","1","1","-2","1","-3","-1","1","0","5","4","5","4","4","4","4","3","4","5","5","5","7","6","8","7","5","4","5","6","1","2","2","1","1","6","1","4","1","1","5","1","5","2","5","6","4","3","3","1","2","6","3","2","1","6","6","6","7","6","3","4","7","3","1","6","3","7","1","6","789938022656385026","焦","484","Male","[""好我"",""坏他"",""坏我"",""好他""]","[""强我"",""弱他"",""弱我"",""强他""]","","","","","","","","no","","","","","","","","","SRET","EW_formal","","key","j","16.65617796610148","799.9999682108573","445.8333156175091","自己","拙笨","Negative","ability","","","","","","","","","","",""
"949","","j","psychophysics","40","223831","0.0-7.0-3.0-0.26","5","4","4","2","1","4","1","3","4","2","5","1","1","-2","1","-3","-1","1","0","5","4","5","4","4","4","4","3","4","5","5","5","7","6","8","7","5","4","5","6","1","2","2","1","1","6","1","4","1","1","5","1","5","2","5","6","4","3","3","1","2","6","3","2","1","6","6","6","7","6","3","4","7","3","1","6","3","7","1","6","789938022656385026","焦","484","Male","[""好我"",""坏他"",""坏我"",""好他""]","[""强我"",""弱他"",""弱我"",""强他""]","","","","","","","","no","","","","","","","","","SRET","EW_formal","","key","j","16.653060344827374","799.9999682108573","445.8333156175091","朋友","贪污","Negative","morality","","","","","","","","","","",""
"1165","","f","psychophysics","41","225998","0.0-7.0-3.0-0.27","5","4","4","2","1","4","1","3","4","2","5","1","1","-2","1","-3","-1","1","0","5","4","5","4","4","4","4","3","4","5","5","5","7","6","8","7","5","4","5","6","1","2","2","1","1","6","1","4","1","1","5","1","5","2","5","6","4","3","3","1","2","6","3","2","1","6","6","6","7","6","3","4","7","3","1","6","3","7","1","6","789938022656385026","焦","484","Male","[""好我"",""坏他"",""坏我"",""好他""]","[""强我"",""弱他"",""弱我"",""强他""]","","","","","","","","yes","","","","","","","","","SRET","EW_formal","","key","f","16.655635658914655","799.9999682108573","445.8333156175091","自己","果决","Positive","ability","","","","","","","","","","",""
"1042","","j","psychophysics","42","228044","0.0-7.0-3.0-0.28","5","4","4","2","1","4","1","3","4","2","5","1","1","-2","1","-3","-1","1","0","5","4","5","4","4","4","4","3","4","5","5","5","7","6","8","7","5","4","5","6","1","2","2","1","1","6","1","4","1","1","5","1","5","2","5","6","4","3","3","1","2","6","3","2","1","6","6","6","7","6","3","4","7","3","1","6","3","7","1","6","789938022656385026","焦","484","Male","[""好我"",""坏他"",""坏我"",""好他""]","[""强我"",""弱他"",""弱我"",""强他""]","","","","","","","","no","","","","","","","","","SRET","EW_formal","","key","j","16.65269672131136","799.9999682108573","445.8333156175091","自己","浅薄","Negative","ability","","","","","","","","","","",""
"939","","j","psychophysics","43","229989","0.0-7.0-3.0-0.29","5","4","4","2","1","4","1","3","4","2","5","1","1","-2","1","-3","-1","1","0","5","4","5","4","4","4","4","3","4","5","5","5","7","6","8","7","5","4","5","6","1","2","2","1","1","6","1","4","1","1","5","1","5","2","5","6","4","3","3","1","2","6","3","2","1","6","6","6","7","6","3","4","7","3","1","6","3","7","1","6","789938022656385026","焦","484","Male","[""好我"",""坏他"",""坏我"",""好他""]","[""强我"",""弱他"",""弱我"",""强他""]","","","","","","","","no","","","","","","","","","SRET","EW_formal","","key","j","16.653681034482673","799.9999682108573","445.8333156175091","自己","阴毒","Negative","morality","","","","","","","","","","",""
"1038","","f","psychophysics","44","232031","0.0-7.0-3.0-0.30","5","4","4","2","1","4","1","3","4","2","5","1","1","-2","1","-3","-1","1","0","5","4","5","4","4","4","4","3","4","5","5","5","7","6","8","7","5","4","5","6","1","2","2","1","1","6","1","4","1","1","5","1","5","2","5","6","4","3","3","1","2","6","3","2","1","6","6","6","7","6","3","4","7","3","1","6","3","7","1","6","789938022656385026","焦","484","Male","[""好我"",""坏他"",""坏我"",""好他""]","[""强我"",""弱他"",""弱我"",""强他""]","","","","","","","","yes","","","","","","","","","SRET","EW_formal","","key","f","16.65320661157025","799.9999682108573","445.8333156175091","朋友","廉正","Positive","morality","","","","","","","","","","",""
"1120","","f","psychophysics","45","234153","0.0-7.0-3.0-0.31","5","4","4","2","1","4","1","3","4","2","5","1","1","-2","1","-3","-1","1","0","5","4","5","4","4","4","4","3","4","5","5","5","7","6","8","7","5","4","5","6","1","2","2","1","1","6","1","4","1","1","5","1","5","2","5","6","4","3","3","1","2","6","3","2","1","6","6","6","7","6","3","4","7","3","1","6","3","7","1","6","789938022656385026","焦","484","Male","[""好我"",""坏他"",""坏我"",""好他""]","[""强我"",""弱他"",""弱我"",""强他""]","","","","","","","","yes","","","","","","","","","SRET","EW_formal","","key","f","16.65281889763776","799.9999682108573","445.8333156175091","自己","粗心","Negative","ability","","","","","","","","","","",""
"868","","f","psychophysics","46","236029","0.0-7.0-3.0-0.32","5","4","4","2","1","4","1","3","4","2","5","1","1","-2","1","-3","-1","1","0","5","4","5","4","4","4","4","3","4","5","5","5","7","6","8","7","5","4","5","6","1","2","2","1","1","6","1","4","1","1","5","1","5","2","5","6","4","3","3","1","2","6","3","2","1","6","6","6","7","6","3","4","7","3","1","6","3","7","1","6","789938022656385026","焦","484","Male","[""好我"",""坏他"",""坏我"",""好他""]","[""强我"",""弱他"",""弱我"",""强他""]","","","","","","","","yes","","","","","","","","","SRET","EW_formal","","key","f","16.654405405405367","799.9999682108573","445.8333156175091","朋友","仗义","Positive","morality","","","","","","","","","","",""
"940","","f","psychophysics","47","237972","0.0-7.0-3.0-0.33","5","4","4","2","1","4","1","3","4","2","5","1","1","-2","1","-3","-1","1","0","5","4","5","4","4","4","4","3","4","5","5","5","7","6","8","7","5","4","5","6","1","2","2","1","1","6","1","4","1","1","5","1","5","2","5","6","4","3","3","1","2","6","3","2","1","6","6","6","7","6","3","4","7","3","1","6","3","7","1","6","789938022656385026","焦","484","Male","[""好我"",""坏他"",""坏我"",""好他""]","[""强我"",""弱他"",""弱我"",""强他""]","","","","","","","","yes","","","","","","","","","SRET","EW_formal","","key","f","16.652724137931163","799.9999682108573","445.8333156175091","自己","勤奋","Positive","ability","","","","","","","","","","",""
"890","","j","psychophysics","48","239867","0.0-7.0-3.0-0.34","5","4","4","2","1","4","1","3","4","2","5","1","1","-2","1","-3","-1","1","0","5","4","5","4","4","4","4","3","4","5","5","5","7","6","8","7","5","4","5","6","1","2","2","1","1","6","1","4","1","1","5","1","5","2","5","6","4","3","3","1","2","6","3","2","1","6","6","6","7","6","3","4","7","3","1","6","3","7","1","6","789938022656385026","焦","484","Male","[""好我"",""坏他"",""坏我"",""好他""]","[""强我"",""弱他"",""弱我"",""强他""]","","","","","","","","no","","","","","","","","","SRET","EW_formal","","key","j","16.653424778761057","799.9999682108573","445.8333156175091","朋友","伪善","Negative","morality","","","","","","","","","","",""
"684","","f","psychophysics","49","241557","0.0-7.0-3.0-0.35","5","4","4","2","1","4","1","3","4","2","5","1","1","-2","1","-3","-1","1","0","5","4","5","4","4","4","4","3","4","5","5","5","7","6","8","7","5","4","5","6","1","2","2","1","1","6","1","4","1","1","5","1","5","2","5","6","4","3","3","1","2","6","3","2","1","6","6","6","7","6","3","4","7","3","1","6","3","7","1","6","789938022656385026","焦","484","Male","[""好我"",""坏他"",""坏我"",""好他""]","[""强我"",""弱他"",""弱我"",""强他""]","","","","","","","","yes","","","","","","","","","SRET","EW_formal","","key","f","16.65265000000014","799.9999682108573","445.8333156175091","自己","中用","Positive","ability","","","","","","","","","","",""
"1217","","j","psychophysics","50","243777","0.0-7.0-3.0-0.36","5","4","4","2","1","4","1","3","4","2","5","1","1","-2","1","-3","-1","1","0","5","4","5","4","4","4","4","3","4","5","5","5","7","6","8","7","5","4","5","6","1","2","2","1","1","6","1","4","1","1","5","1","5","2","5","6","4","3","3","1","2","6","3","2","1","6","6","6","7","6","3","4","7","3","1","6","3","7","1","6","789938022656385026","焦","484","Male","[""好我"",""坏他"",""坏我"",""好他""]","[""强我"",""弱他"",""弱我"",""强他""]","","","","","","","","no","","","","","","","","","SRET","EW_formal","","key","j","16.652541353383462","799.9999682108573","445.8333156175091","自己","无敌","Positive","ability","","","","","","","","","","",""
"673","","f","psychophysics","51","245459","0.0-7.0-3.0-0.37","5","4","4","2","1","4","1","3","4","2","5","1","1","-2","1","-3","-1","1","0","5","4","5","4","4","4","4","3","4","5","5","5","7","6","8","7","5","4","5","6","1","2","2","1","1","6","1","4","1","1","5","1","5","2","5","6","4","3","3","1","2","6","3","2","1","6","6","6","7","6","3","4","7","3","1","6","3","7","1","6","789938022656385026","焦","484","Male","[""好我"",""坏他"",""坏我"",""好他""]","[""强我"",""弱他"",""弱我"",""强他""]","","","","","","","","yes","","","","","","","","","SRET","EW_formal","","key","f","16.652509999999893","799.9999682108573","445.8333156175091","自己","敬业","Positive","morality","","","","","","","","","","",""
"1027","","f","psychophysics","52","247492","0.0-7.0-3.0-0.38","5","4","4","2","1","4","1","3","4","2","5","1","1","-2","1","-3","-1","1","0","5","4","5","4","4","4","4","3","4","5","5","5","7","6","8","7","5","4","5","6","1","2","2","1","1","6","1","4","1","1","5","1","5","2","5","6","4","3","3","1","2","6","3","2","1","6","6","6","7","6","3","4","7","3","1","6","3","7","1","6","789938022656385026","焦","484","Male","[""好我"",""坏他"",""坏我"",""好他""]","[""强我"",""弱他"",""弱我"",""强他""]","","","","","","","","yes","","","","","","","","","SRET","EW_formal","","key","f","16.654719008264625","799.9999682108573","445.8333156175091","自己","马虎","Negative","ability","","","","","","","","","","",""
"1028","","j","psychophysics","53","249525","0.0-7.0-3.0-0.39","5","4","4","2","1","4","1","3","4","2","5","1","1","-2","1","-3","-1","1","0","5","4","5","4","4","4","4","3","4","5","5","5","7","6","8","7","5","4","5","6","1","2","2","1","1","6","1","4","1","1","5","1","5","2","5","6","4","3","3","1","2","6","3","2","1","6","6","6","7","6","3","4","7","3","1","6","3","7","1","6","789938022656385026","焦","484","Male","[""好我"",""坏他"",""坏我"",""好他""]","[""强我"",""弱他"",""弱我"",""强他""]","","","","","","","","no","","","","","","","","","SRET","EW_formal","","key","j","16.650851239669397","799.9999682108573","445.8333156175091","朋友","庸碌","Negative","ability","","","","","","","","","","",""
"610","","f","psychophysics","54","251139","0.0-7.0-3.0-0.40","5","4","4","2","1","4","1","3","4","2","5","1","1","-2","1","-3","-1","1","0","5","4","5","4","4","4","4","3","4","5","5","5","7","6","8","7","5","4","5","6","1","2","2","1","1","6","1","4","1","1","5","1","5","2","5","6","4","3","3","1","2","6","3","2","1","6","6","6","7","6","3","4","7","3","1","6","3","7","1","6","789938022656385026","焦","484","Male","[""好我"",""坏他"",""坏我"",""好他""]","[""强我"",""弱他"",""弱我"",""强他""]","","","","","","","","yes","","","","","","","","","SRET","EW_formal","","key","f","16.652364583333412","799.9999682108573","445.8333156175091","自己","仁厚","Positive","morality","","","","","","","","","","",""
"729","","j","psychophysics","55","252874","0.0-7.0-3.0-0.41","5","4","4","2","1","4","1","3","4","2","5","1","1","-2","1","-3","-1","1","0","5","4","5","4","4","4","4","3","4","5","5","5","7","6","8","7","5","4","5","6","1","2","2","1","1","6","1","4","1","1","5","1","5","2","5","6","4","3","3","1","2","6","3","2","1","6","6","6","7","6","3","4","7","3","1","6","3","7","1","6","789938022656385026","焦","484","Male","[""好我"",""坏他"",""坏我"",""好他""]","[""强我"",""弱他"",""弱我"",""强他""]","","","","","","","","no","","","","","","","","","SRET","EW_formal","","key","j","16.653864077669883","799.9999682108573","445.8333156175091","自己","黑心","Negative","morality","","","","","","","","","","",""
"732","","j","psychophysics","56","254614","0.0-7.0-3.0-0.42","5","4","4","2","1","4","1","3","4","2","5","1","1","-2","1","-3","-1","1","0","5","4","5","4","4","4","4","3","4","5","5","5","7","6","8","7","5","4","5","6","1","2","2","1","1","6","1","4","1","1","5","1","5","2","5","6","4","3","3","1","2","6","3","2","1","6","6","6","7","6","3","4","7","3","1","6","3","7","1","6","789938022656385026","焦","484","Male","[""好我"",""坏他"",""坏我"",""好他""]","[""强我"",""弱他"",""弱我"",""强他""]","","","","","","","","no","","","","","","","","","SRET","EW_formal","","key","j","16.653029126213475","799.9999682108573","445.8333156175091","自己","刻薄","Negative","morality","","","","","","","","","","",""
"695","","j","psychophysics","57","256312","0.0-7.0-3.0-0.43","5","4","4","2","1","4","1","3","4","2","5","1","1","-2","1","-3","-1","1","0","5","4","5","4","4","4","4","3","4","5","5","5","7","6","8","7","5","4","5","6","1","2","2","1","1","6","1","4","1","1","5","1","5","2","5","6","4","3","3","1","2","6","3","2","1","6","6","6","7","6","3","4","7","3","1","6","3","7","1","6","789938022656385026","焦","484","Male","[""好我"",""坏他"",""坏我"",""好他""]","[""强我"",""弱他"",""弱我"",""强他""]","","","","","","","","no","","","","","","","","","SRET","EW_formal","","key","j","16.653990099009757","799.9999682108573","445.8333156175091","自己","奸险","Negative","morality","","","","","","","","","","",""
"1102","","f","psychophysics","58","258417","0.0-7.0-3.0-0.44","5","4","4","2","1","4","1","3","4","2","5","1","1","-2","1","-3","-1","1","0","5","4","5","4","4","4","4","3","4","5","5","5","7","6","8","7","5","4","5","6","1","2","2","1","1","6","1","4","1","1","5","1","5","2","5","6","4","3","3","1","2","6","3","2","1","6","6","6","7","6","3","4","7","3","1","6","3","7","1","6","789938022656385026","焦","484","Male","[""好我"",""坏他"",""坏我"",""好他""]","[""强我"",""弱他"",""弱我"",""强他""]","","","","","","","","yes","","","","","","","","","SRET","EW_formal","","key","f","16.65277777777778","799.9999682108573","445.8333156175091","朋友","侠义","Positive","morality","","","","","","","","","","",""
"850","","j","psychophysics","59","260276","0.0-7.0-3.0-0.45","5","4","4","2","1","4","1","3","4","2","5","1","1","-2","1","-3","-1","1","0","5","4","5","4","4","4","4","3","4","5","5","5","7","6","8","7","5","4","5","6","1","2","2","1","1","6","1","4","1","1","5","1","5","2","5","6","4","3","3","1","2","6","3","2","1","6","6","6","7","6","3","4","7","3","1","6","3","7","1","6","789938022656385026","焦","484","Male","[""好我"",""坏他"",""坏我"",""好他""]","[""强我"",""弱他"",""弱我"",""强他""]","","","","","","","","no","","","","","","","","","SRET","EW_formal","","key","j","16.653054545454374","799.9999682108573","445.8333156175091","自己","业余","Negative","ability","","","","","","","","","","",""
"801","","j","psychophysics","60","262079","0.0-7.0-3.0-0.46","5","4","4","2","1","4","1","3","4","2","5","1","1","-2","1","-3","-1","1","0","5","4","5","4","4","4","4","3","4","5","5","5","7","6","8","7","5","4","5","6","1","2","2","1","1","6","1","4","1","1","5","1","5","2","5","6","4","3","3","1","2","6","3","2","1","6","6","6","7","6","3","4","7","3","1","6","3","7","1","6","789938022656385026","焦","484","Male","[""好我"",""坏他"",""坏我"",""好他""]","[""强我"",""弱他"",""弱我"",""强他""]","","","","","","","","no","","","","","","","","","SRET","EW_formal","","key","j","16.65521296296329","799.9999682108573","445.8333156175091","朋友","罪恶","Negative","morality","","","","","","","","","","",""
"882","","f","psychophysics","61","263963","0.0-7.0-3.0-0.47","5","4","4","2","1","4","1","3","4","2","5","1","1","-2","1","-3","-1","1","0","5","4","5","4","4","4","4","3","4","5","5","5","7","6","8","7","5","4","5","6","1","2","2","1","1","6","1","4","1","1","5","1","5","2","5","6","4","3","3","1","2","6","3","2","1","6","6","6","7","6","3","4","7","3","1","6","3","7","1","6","789938022656385026","焦","484","Male","[""好我"",""坏他"",""坏我"",""好他""]","[""强我"",""弱他"",""弱我"",""强他""]","","","","","","","","yes","","","","","","","","","SRET","EW_formal","","key","f","16.652125000000005","799.9999682108573","445.8333156175091","朋友","忠诚","Positive","morality","","","","","","","","","","",""
"650","","j","psychophysics","62","265620","0.0-7.0-3.0-0.48","5","4","4","2","1","4","1","3","4","2","5","1","1","-2","1","-3","-1","1","0","5","4","5","4","4","4","4","3","4","5","5","5","7","6","8","7","5","4","5","6","1","2","2","1","1","6","1","4","1","1","5","1","5","2","5","6","4","3","3","1","2","6","3","2","1","6","6","6","7","6","3","4","7","3","1","6","3","7","1","6","789938022656385026","焦","484","Male","[""好我"",""坏他"",""坏我"",""好他""]","[""强我"",""弱他"",""弱我"",""强他""]","","","","","","","","no","","","","","","","","","SRET","EW_formal","","key","j","16.653193877550788","799.9999682108573","445.8333156175091","自己","下流","Negative","morality","","","","","","","","","","",""
"788","","f","psychophysics","63","267412","0.0-7.0-3.0-0.49","5","4","4","2","1","4","1","3","4","2","5","1","1","-2","1","-3","-1","1","0","5","4","5","4","4","4","4","3","4","5","5","5","7","6","8","7","5","4","5","6","1","2","2","1","1","6","1","4","1","1","5","1","5","2","5","6","4","3","3","1","2","6","3","2","1","6","6","6","7","6","3","4","7","3","1","6","3","7","1","6","789938022656385026","焦","484","Male","[""好我"",""坏他"",""坏我"",""好他""]","[""强我"",""弱他"",""弱我"",""强他""]","","","","","","","","yes","","","","","","","","","SRET","EW_formal","","key","f","16.654373831776073","799.9999682108573","445.8333156175091","自己","扎实","Positive","ability","","","","","","","","","","",""
"748","","f","psychophysics","64","269165","0.0-7.0-3.0-0.50","5","4","4","2","1","4","1","3","4","2","5","1","1","-2","1","-3","-1","1","0","5","4","5","4","4","4","4","3","4","5","5","5","7","6","8","7","5","4","5","6","1","2","2","1","1","6","1","4","1","1","5","1","5","2","5","6","4","3","3","1","2","6","3","2","1","6","6","6","7","6","3","4","7","3","1","6","3","7","1","6","789938022656385026","焦","484","Male","[""好我"",""坏他"",""坏我"",""好他""]","[""强我"",""弱他"",""弱我"",""强他""]","","","","","","","","yes","","","","","","","","","SRET","EW_formal","","key","f","16.65219230769211","799.9999682108573","445.8333156175091","自己","利落","Positive","ability","","","","","","","","","","",""
"1350","","f","psychophysics","65","271518","0.0-7.0-3.0-0.51","5","4","4","2","1","4","1","3","4","2","5","1","1","-2","1","-3","-1","1","0","5","4","5","4","4","4","4","3","4","5","5","5","7","6","8","7","5","4","5","6","1","2","2","1","1","6","1","4","1","1","5","1","5","2","5","6","4","3","3","1","2","6","3","2","1","6","6","6","7","6","3","4","7","3","1","6","3","7","1","6","789938022656385026","焦","484","Male","[""好我"",""坏他"",""坏我"",""好他""]","[""强我"",""弱他"",""弱我"",""强他""]","","","","","","","","yes","","","","","","","","","SRET","EW_formal","","key","f","16.655649999999774","799.9999682108573","445.8333156175091","朋友","拖拉","Negative","ability","","","","","","","","","","",""
"1545","","f","psychophysics","66","274065","0.0-7.0-3.0-0.52","5","4","4","2","1","4","1","3","4","2","5","1","1","-2","1","-3","-1","1","0","5","4","5","4","4","4","4","3","4","5","5","5","7","6","8","7","5","4","5","6","1","2","2","1","1","6","1","4","1","1","5","1","5","2","5","6","4","3","3","1","2","6","3","2","1","6","6","6","7","6","3","4","7","3","1","6","3","7","1","6","789938022656385026","焦","484","Male","[""好我"",""坏他"",""坏我"",""好他""]","[""强我"",""弱他"",""弱我"",""强他""]","","","","","","","","yes","","","","","","","","","SRET","EW_formal","","key","f","16.653967105263483","799.9999682108573","445.8333156175091","自己","屈才","Negative","ability","","","","","","","","","","",""
"797","","j","psychophysics","67","275863","0.0-7.0-3.0-0.53","5","4","4","2","1","4","1","3","4","2","5","1","1","-2","1","-3","-1","1","0","5","4","5","4","4","4","4","3","4","5","5","5","7","6","8","7","5","4","5","6","1","2","2","1","1","6","1","4","1","1","5","1","5","2","5","6","4","3","3","1","2","6","3","2","1","6","6","6","7","6","3","4","7","3","1","6","3","7","1","6","789938022656385026","焦","484","Male","[""好我"",""坏他"",""坏我"",""好他""]","[""强我"",""弱他"",""弱我"",""强他""]","","","","","","","","no","","","","","","","","","SRET","EW_formal","","key","j","16.653411214953074","799.9999682108573","445.8333156175091","朋友","小人","Negative","morality","","","","","","","","","","",""
"1321","","j","psychophysics","68","278186","0.0-7.0-3.0-0.54","5","4","4","2","1","4","1","3","4","2","5","1","1","-2","1","-3","-1","1","0","5","4","5","4","4","4","4","3","4","5","5","5","7","6","8","7","5","4","5","6","1","2","2","1","1","6","1","4","1","1","5","1","5","2","5","6","4","3","3","1","2","6","3","2","1","6","6","6","7","6","3","4","7","3","1","6","3","7","1","6","789938022656385026","焦","484","Male","[""好我"",""坏他"",""坏我"",""好他""]","[""强我"",""弱他"",""弱我"",""强他""]","","","","","","","","no","","","","","","","","","SRET","EW_formal","","key","j","16.653172661870276","799.9999682108573","445.8333156175091","朋友","迟钝","Negative","ability","","","","","","","","","","",""
"1083","","j","psychophysics","69","280276","0.0-7.0-3.0-0.55","5","4","4","2","1","4","1","3","4","2","5","1","1","-2","1","-3","-1","1","0","5","4","5","4","4","4","4","3","4","5","5","5","7","6","8","7","5","4","5","6","1","2","2","1","1","6","1","4","1","1","5","1","5","2","5","6","4","3","3","1","2","6","3","2","1","6","6","6","7","6","3","4","7","3","1","6","3","7","1","6","789938022656385026","焦","484","Male","[""好我"",""坏他"",""坏我"",""好他""]","[""强我"",""弱他"",""弱我"",""强他""]","","","","","","","","no","","","","","","","","","SRET","EW_formal","","key","j","16.653258064516255","799.9999682108573","445.8333156175091","自己","奸诈","Negative","morality","","","","","","","","","","",""
"1060","","j","psychophysics","70","282338","0.0-7.0-3.0-0.56","5","4","4","2","1","4","1","3","4","2","5","1","1","-2","1","-3","-1","1","0","5","4","5","4","4","4","4","3","4","5","5","5","7","6","8","7","5","4","5","6","1","2","2","1","1","6","1","4","1","1","5","1","5","2","5","6","4","3","3","1","2","6","3","2","1","6","6","6","7","6","3","4","7","3","1","6","3","7","1","6","789938022656385026","焦","484","Male","[""好我"",""坏他"",""坏我"",""好他""]","[""强我"",""弱他"",""弱我"",""强他""]","","","","","","","","no","","","","","","","","","SRET","EW_formal","","key","j","16.656715447154575","799.9999682108573","445.8333156175091","自己","混账","Negative","morality","","","","","","","","","","",""
"1054","","j","psychophysics","71","284396","0.0-7.0-3.0-0.57","5","4","4","2","1","4","1","3","4","2","5","1","1","-2","1","-3","-1","1","0","5","4","5","4","4","4","4","3","4","5","5","5","7","6","8","7","5","4","5","6","1","2","2","1","1","6","1","4","1","1","5","1","5","2","5","6","4","3","3","1","2","6","3","2","1","6","6","6","7","6","3","4","7","3","1","6","3","7","1","6","789938022656385026","焦","484","Male","[""好我"",""坏他"",""坏我"",""好他""]","[""强我"",""弱他"",""弱我"",""强他""]","","","","","","","","no","","","","","","","","","SRET","EW_formal","","key","j","16.656065040650375","799.9999682108573","445.8333156175091","自己","独断","Negative","ability","","","","","","","","","","",""
"617","","f","psychophysics","72","286017","0.0-7.0-3.0-0.58","5","4","4","2","1","4","1","3","4","2","5","1","1","-2","1","-3","-1","1","0","5","4","5","4","4","4","4","3","4","5","5","5","7","6","8","7","5","4","5","6","1","2","2","1","1","6","1","4","1","1","5","1","5","2","5","6","4","3","3","1","2","6","3","2","1","6","6","6","7","6","3","4","7","3","1","6","3","7","1","6","789938022656385026","焦","484","Male","[""好我"",""坏他"",""坏我"",""好他""]","[""强我"",""弱他"",""弱我"",""强他""]","","","","","","","","yes","","","","","","","","","SRET","EW_formal","","key","f","16.653083333333296","799.9999682108573","445.8333156175091","自己","守时","Positive","morality","","","","","","","","","","",""
"629","","f","psychophysics","73","287652","0.0-7.0-3.0-0.59","5","4","4","2","1","4","1","3","4","2","5","1","1","-2","1","-3","-1","1","0","5","4","5","4","4","4","4","3","4","5","5","5","7","6","8","7","5","4","5","6","1","2","2","1","1","6","1","4","1","1","5","1","5","2","5","6","4","3","3","1","2","6","3","2","1","6","6","6","7","6","3","4","7","3","1","6","3","7","1","6","789938022656385026","焦","484","Male","[""好我"",""坏他"",""坏我"",""好他""]","[""强我"",""弱他"",""弱我"",""强他""]","","","","","","","","yes","","","","","","","","","SRET","EW_formal","","key","f","16.653082474226675","799.9999682108573","445.8333156175091","自己","守信","Positive","morality","","","","","","","","","","",""
"698","","j","psychophysics","74","289353","0.0-7.0-3.0-0.60","5","4","4","2","1","4","1","3","4","2","5","1","1","-2","1","-3","-1","1","0","5","4","5","4","4","4","4","3","4","5","5","5","7","6","8","7","5","4","5","6","1","2","2","1","1","6","1","4","1","1","5","1","5","2","5","6","4","3","3","1","2","6","3","2","1","6","6","6","7","6","3","4","7","3","1","6","3","7","1","6","789938022656385026","焦","484","Male","[""好我"",""坏他"",""坏我"",""好他""]","[""强我"",""弱他"",""弱我"",""强他""]","","","","","","","","no","","","","","","","","","SRET","EW_formal","","key","j","16.650970297029914","799.9999682108573","445.8333156175091","朋友","淫乱","Negative","morality","","","","","","","","","","",""
"1131","","f","psychophysics","75","291486","0.0-7.0-3.0-0.61","5","4","4","2","1","4","1","3","4","2","5","1","1","-2","1","-3","-1","1","0","5","4","5","4","4","4","4","3","4","5","5","5","7","6","8","7","5","4","5","6","1","2","2","1","1","6","1","4","1","1","5","1","5","2","5","6","4","3","3","1","2","6","3","2","1","6","6","6","7","6","3","4","7","3","1","6","3","7","1","6","789938022656385026","焦","484","Male","[""好我"",""坏他"",""坏我"",""好他""]","[""强我"",""弱他"",""弱我"",""强他""]","","","","","","","","yes","","","","","","","","","SRET","EW_formal","","key","f","16.654125984252143","799.9999682108573","445.8333156175091","朋友","刻苦","Positive","ability","","","","","","","","","","",""
"918","","j","psychophysics","76","293405","0.0-7.0-3.0-0.62","5","4","4","2","1","4","1","3","4","2","5","1","1","-2","1","-3","-1","1","0","5","4","5","4","4","4","4","3","4","5","5","5","7","6","8","7","5","4","5","6","1","2","2","1","1","6","1","4","1","1","5","1","5","2","5","6","4","3","3","1","2","6","3","2","1","6","6","6","7","6","3","4","7","3","1","6","3","7","1","6","789938022656385026","焦","484","Male","[""好我"",""坏他"",""坏我"",""好他""]","[""强我"",""弱他"",""弱我"",""强他""]","","","","","","","","no","","","","","","","","","SRET","EW_formal","","key","j","16.653139130434568","799.9999682108573","445.8333156175091","朋友","虚假","Negative","morality","","","","","","","","","","",""
"660","","f","psychophysics","77","295069","0.0-7.0-3.0-0.63","5","4","4","2","1","4","1","3","4","2","5","1","1","-2","1","-3","-1","1","0","5","4","5","4","4","4","4","3","4","5","5","5","7","6","8","7","5","4","5","6","1","2","2","1","1","6","1","4","1","1","5","1","5","2","5","6","4","3","3","1","2","6","3","2","1","6","6","6","7","6","3","4","7","3","1","6","3","7","1","6","789938022656385026","焦","484","Male","[""好我"",""坏他"",""坏我"",""好他""]","[""强我"",""弱他"",""弱我"",""强他""]","","","","","","","","yes","","","","","","","","","SRET","EW_formal","","key","f","16.65633333333347","799.9999682108573","445.8333156175091","自己","仁爱","Positive","morality","","","","","","","","","","",""
"976","","j","psychophysics","78","297049","0.0-7.0-3.0-0.64","5","4","4","2","1","4","1","3","4","2","5","1","1","-2","1","-3","-1","1","0","5","4","5","4","4","4","4","3","4","5","5","5","7","6","8","7","5","4","5","6","1","2","2","1","1","6","1","4","1","1","5","1","5","2","5","6","4","3","3","1","2","6","3","2","1","6","6","6","7","6","3","4","7","3","1","6","3","7","1","6","789938022656385026","焦","484","Male","[""好我"",""坏他"",""坏我"",""好他""]","[""强我"",""弱他"",""弱我"",""强他""]","","","","","","","","no","","","","","","","","","SRET","EW_formal","","key","j","16.649694915254642","799.9999682108573","445.8333156175091","朋友","怠惰","Negative","ability","","","","","","","","","","",""
"962","","j","psychophysics","79","299019","0.0-7.0-3.0-0.65","5","4","4","2","1","4","1","3","4","2","5","1","1","-2","1","-3","-1","1","0","5","4","5","4","4","4","4","3","4","5","5","5","7","6","8","7","5","4","5","6","1","2","2","1","1","6","1","4","1","1","5","1","5","2","5","6","4","3","3","1","2","6","3","2","1","6","6","6","7","6","3","4","7","3","1","6","3","7","1","6","789938022656385026","焦","484","Male","[""好我"",""坏他"",""坏我"",""好他""]","[""强我"",""弱他"",""弱我"",""强他""]","","","","","","","","no","","","","","","","","","SRET","EW_formal","","key","j","16.652376068375894","799.9999682108573","445.8333156175091","朋友","愚钝","Negative","ability","","","","","","","","","","",""
"1513","","f","psychophysics","80","301538","0.0-7.0-3.0-0.66","5","4","4","2","1","4","1","3","4","2","5","1","1","-2","1","-3","-1","1","0","5","4","5","4","4","4","4","3","4","5","5","5","7","6","8","7","5","4","5","6","1","2","2","1","1","6","1","4","1","1","5","1","5","2","5","6","4","3","3","1","2","6","3","2","1","6","6","6","7","6","3","4","7","3","1","6","3","7","1","6","789938022656385026","焦","484","Male","[""好我"",""坏他"",""坏我"",""好他""]","[""强我"",""弱他"",""弱我"",""强他""]","","","","","","","","yes","","","","","","","","","SRET","EW_formal","","key","f","16.6525","799.9999682108573","445.8333156175091","朋友","独立","Positive","ability","","","","","","","","","","",""
"1311","","f","psychophysics","81","303855","0.0-7.0-3.0-0.67","5","4","4","2","1","4","1","3","4","2","5","1","1","-2","1","-3","-1","1","0","5","4","5","4","4","4","4","3","4","5","5","5","7","6","8","7","5","4","5","6","1","2","2","1","1","6","1","4","1","1","5","1","5","2","5","6","4","3","3","1","2","6","3","2","1","6","6","6","7","6","3","4","7","3","1","6","3","7","1","6","789938022656385026","焦","484","Male","[""好我"",""坏他"",""坏我"",""好他""]","[""强我"",""弱他"",""弱我"",""强他""]","","","","","","","","yes","","","","","","","","","SRET","EW_formal","","key","f","16.653094202898394","799.9999682108573","445.8333156175091","朋友","无私","Positive","morality","","","","","","","","","","",""
"1106","","f","psychophysics","82","305963","0.0-7.0-3.0-0.68","5","4","4","2","1","4","1","3","4","2","5","1","1","-2","1","-3","-1","1","0","5","4","5","4","4","4","4","3","4","5","5","5","7","6","8","7","5","4","5","6","1","2","2","1","1","6","1","4","1","1","5","1","5","2","5","6","4","3","3","1","2","6","3","2","1","6","6","6","7","6","3","4","7","3","1","6","3","7","1","6","789938022656385026","焦","484","Male","[""好我"",""坏他"",""坏我"",""好他""]","[""强我"",""弱他"",""弱我"",""强他""]","","","","","","","","yes","","","","","","","","","SRET","EW_formal","","key","f","16.65254761904731","799.9999682108573","445.8333156175091","朋友","专注","Positive","ability","","","","","","","","","","",""
"764","","j","psychophysics","83","307733","0.0-7.0-3.0-0.69","5","4","4","2","1","4","1","3","4","2","5","1","1","-2","1","-3","-1","1","0","5","4","5","4","4","4","4","3","4","5","5","5","7","6","8","7","5","4","5","6","1","2","2","1","1","6","1","4","1","1","5","1","5","2","5","6","4","3","3","1","2","6","3","2","1","6","6","6","7","6","3","4","7","3","1","6","3","7","1","6","789938022656385026","焦","484","Male","[""好我"",""坏他"",""坏我"",""好他""]","[""强我"",""弱他"",""弱我"",""强他""]","","","","","","","","no","","","","","","","","","SRET","EW_formal","","key","j","16.655780952381125","799.9999682108573","445.8333156175091","朋友","迂拙","Negative","ability","","","","","","","","","","",""
"1027","","j","psychophysics","84","309765","0.0-7.0-3.0-0.70","5","4","4","2","1","4","1","3","4","2","5","1","1","-2","1","-3","-1","1","0","5","4","5","4","4","4","4","3","4","5","5","5","7","6","8","7","5","4","5","6","1","2","2","1","1","6","1","4","1","1","5","1","5","2","5","6","4","3","3","1","2","6","3","2","1","6","6","6","7","6","3","4","7","3","1","6","3","7","1","6","789938022656385026","焦","484","Male","[""好我"",""坏他"",""坏我"",""好他""]","[""强我"",""弱他"",""弱我"",""强他""]","","","","","","","","no","","","","","","","","","SRET","EW_formal","","key","j","16.653057851239343","799.9999682108573","445.8333156175091","自己","昏庸","Negative","ability","","","","","","","","","","",""
"882","","f","psychophysics","85","311650","0.0-7.0-3.0-0.71","5","4","4","2","1","4","1","3","4","2","5","1","1","-2","1","-3","-1","1","0","5","4","5","4","4","4","4","3","4","5","5","5","7","6","8","7","5","4","5","6","1","2","2","1","1","6","1","4","1","1","5","1","5","2","5","6","4","3","3","1","2","6","3","2","1","6","6","6","7","6","3","4","7","3","1","6","3","7","1","6","789938022656385026","焦","484","Male","[""好我"",""坏他"",""坏我"",""好他""]","[""强我"",""弱他"",""弱我"",""强他""]","","","","","","","","yes","","","","","","","","","SRET","EW_formal","","key","f","16.656053571428597","799.9999682108573","445.8333156175091","朋友","果断","Positive","ability","","","","","","","","","","",""
"993","","j","psychophysics","86","313645","0.0-7.0-3.0-0.72","5","4","4","2","1","4","1","3","4","2","5","1","1","-2","1","-3","-1","1","0","5","4","5","4","4","4","4","3","4","5","5","5","7","6","8","7","5","4","5","6","1","2","2","1","1","6","1","4","1","1","5","1","5","2","5","6","4","3","3","1","2","6","3","2","1","6","6","6","7","6","3","4","7","3","1","6","3","7","1","6","789938022656385026","焦","484","Male","[""好我"",""坏他"",""坏我"",""好他""]","[""强我"",""弱他"",""弱我"",""强他""]","","","","","","","","no","","","","","","","","","SRET","EW_formal","","key","j","16.654151260504058","799.9999682108573","445.8333156175091","朋友","笨蛋","Negative","ability","","","","","","","","","","",""
"994","","j","psychophysics","87","315643","0.0-7.0-3.0-0.73","5","4","4","2","1","4","1","3","4","2","5","1","1","-2","1","-3","-1","1","0","5","4","5","4","4","4","4","3","4","5","5","5","7","6","8","7","5","4","5","6","1","2","2","1","1","6","1","4","1","1","5","1","5","2","5","6","4","3","3","1","2","6","3","2","1","6","6","6","7","6","3","4","7","3","1","6","3","7","1","6","789938022656385026","焦","484","Male","[""好我"",""坏他"",""坏我"",""好他""]","[""强我"",""弱他"",""弱我"",""强他""]","","","","","","","","no","","","","","","","","","SRET","EW_formal","","key","j","16.653184873949513","799.9999682108573","445.8333156175091","朋友","犹豫","Negative","ability","","","","","","","","","","",""
"918","","j","psychophysics","88","317567","0.0-7.0-3.0-0.74","5","4","4","2","1","4","1","3","4","2","5","1","1","-2","1","-3","-1","1","0","5","4","5","4","4","4","4","3","4","5","5","5","7","6","8","7","5","4","5","6","1","2","2","1","1","6","1","4","1","1","5","1","5","2","5","6","4","3","3","1","2","6","3","2","1","6","6","6","7","6","3","4","7","3","1","6","3","7","1","6","789938022656385026","焦","484","Male","[""好我"",""坏他"",""坏我"",""好他""]","[""强我"",""弱他"",""弱我"",""强他""]","","","","","","","","no","","","","","","","","","SRET","EW_formal","","key","j","16.654434782608778","799.9999682108573","445.8333156175091","自己","卑鄙","Negative","morality","","","","","","","","","","",""
"1080","","j","psychophysics","89","319648","0.0-7.0-3.0-0.75","5","4","4","2","1","4","1","3","4","2","5","1","1","-2","1","-3","-1","1","0","5","4","5","4","4","4","4","3","4","5","5","5","7","6","8","7","5","4","5","6","1","2","2","1","1","6","1","4","1","1","5","1","5","2","5","6","4","3","3","1","2","6","3","2","1","6","6","6","7","6","3","4","7","3","1","6","3","7","1","6","789938022656385026","焦","484","Male","[""好我"",""坏他"",""坏我"",""好他""]","[""强我"",""弱他"",""弱我"",""强他""]","","","","","","","","no","","","","","","","","","SRET","EW_formal","","key","j","16.653008064516115","799.9999682108573","445.8333156175091","朋友","草率","Negative","ability","","","","","","","","","","",""
"1173","","j","psychophysics","90","321829","0.0-7.0-3.0-0.76","5","4","4","2","1","4","1","3","4","2","5","1","1","-2","1","-3","-1","1","0","5","4","5","4","4","4","4","3","4","5","5","5","7","6","8","7","5","4","5","6","1","2","2","1","1","6","1","4","1","1","5","1","5","2","5","6","4","3","3","1","2","6","3","2","1","6","6","6","7","6","3","4","7","3","1","6","3","7","1","6","789938022656385026","焦","484","Male","[""好我"",""坏他"",""坏我"",""好他""]","[""强我"",""弱他"",""弱我"",""强他""]","","","","","","","","no","","","","","","","","","SRET","EW_formal","","key","j","16.652846153846117","799.9999682108573","445.8333156175091","自己","差生","Negative","ability","","","","","","","","","","",""
"804","","f","psychophysics","91","323636","0.0-7.0-3.0-0.77","5","4","4","2","1","4","1","3","4","2","5","1","1","-2","1","-3","-1","1","0","5","4","5","4","4","4","4","3","4","5","5","5","7","6","8","7","5","4","5","6","1","2","2","1","1","6","1","4","1","1","5","1","5","2","5","6","4","3","3","1","2","6","3","2","1","6","6","6","7","6","3","4","7","3","1","6","3","7","1","6","789938022656385026","焦","484","Male","[""好我"",""坏他"",""坏我"",""好他""]","[""强我"",""弱他"",""弱我"",""强他""]","","","","","","","","yes","","","","","","","","","SRET","EW_formal","","key","f","16.65277570093466","799.9999682108573","445.8333156175091","朋友","淡泊","Positive","morality","","","","","","","","","","",""
"881","","f","psychophysics","92","325522","0.0-7.0-3.0-0.78","5","4","4","2","1","4","1","3","4","2","5","1","1","-2","1","-3","-1","1","0","5","4","5","4","4","4","4","3","4","5","5","5","7","6","8","7","5","4","5","6","1","2","2","1","1","6","1","4","1","1","5","1","5","2","5","6","4","3","3","1","2","6","3","2","1","6","6","6","7","6","3","4","7","3","1","6","3","7","1","6","789938022656385026","焦","484","Male","[""好我"",""坏他"",""坏我"",""好他""]","[""强我"",""弱他"",""弱我"",""强他""]","","","","","","","","yes","","","","","","","","","SRET","EW_formal","","key","f","16.65322321428591","799.9999682108573","445.8333156175091","朋友","宽容","Positive","morality","","","","","","","","","","",""
"851","","f","psychophysics","93","327375","0.0-7.0-3.0-0.79","5","4","4","2","1","4","1","3","4","2","5","1","1","-2","1","-3","-1","1","0","5","4","5","4","4","4","4","3","4","5","5","5","7","6","8","7","5","4","5","6","1","2","2","1","1","6","1","4","1","1","5","1","5","2","5","6","4","3","3","1","2","6","3","2","1","6","6","6","7","6","3","4","7","3","1","6","3","7","1","6","789938022656385026","焦","484","Male","[""好我"",""坏他"",""坏我"",""好他""]","[""强我"",""弱他"",""弱我"",""强他""]","","","","","","","","yes","","","","","","","","","SRET","EW_formal","","key","f","16.65386486486511","799.9999682108573","445.8333156175091","朋友","好心","Positive","morality","","","","","","","","","","",""
"1203","","f","psychophysics","94","329580","0.0-7.0-3.0-0.80","5","4","4","2","1","4","1","3","4","2","5","1","1","-2","1","-3","-1","1","0","5","4","5","4","4","4","4","3","4","5","5","5","7","6","8","7","5","4","5","6","1","2","2","1","1","6","1","4","1","1","5","1","5","2","5","6","4","3","3","1","2","6","3","2","1","6","6","6","7","6","3","4","7","3","1","6","3","7","1","6","789938022656385026","焦","484","Male","[""好我"",""坏他"",""坏我"",""好他""]","[""强我"",""弱他"",""弱我"",""强他""]","","","","","","","","yes","","","","","","","","","SRET","EW_formal","","key","f","16.65546564885525","799.9999682108573","445.8333156175091","自己","骁勇","Positive","ability","","","","","","","","","","",""
"1003","","f","psychophysics","95","331588","0.0-7.0-3.0-0.81","5","4","4","2","1","4","1","3","4","2","5","1","1","-2","1","-3","-1","1","0","5","4","5","4","4","4","4","3","4","5","5","5","7","6","8","7","5","4","5","6","1","2","2","1","1","6","1","4","1","1","5","1","5","2","5","6","4","3","3","1","2","6","3","2","1","6","6","6","7","6","3","4","7","3","1","6","3","7","1","6","789938022656385026","焦","484","Male","[""好我"",""坏他"",""坏我"",""好他""]","[""强我"",""弱他"",""弱我"",""强他""]","","","","","","","","yes","","","","","","","","","SRET","EW_formal","","key","f","16.653083333333296","799.9999682108573","445.8333156175091","朋友","精干","Positive","ability","","","","","","","","","","",""
"893","","f","psychophysics","96","333486","0.0-7.0-3.0-0.82","5","4","4","2","1","4","1","3","4","2","5","1","1","-2","1","-3","-1","1","0","5","4","5","4","4","4","4","3","4","5","5","5","7","6","8","7","5","4","5","6","1","2","2","1","1","6","1","4","1","1","5","1","5","2","5","6","4","3","3","1","2","6","3","2","1","6","6","6","7","6","3","4","7","3","1","6","3","7","1","6","789938022656385026","焦","484","Male","[""好我"",""坏他"",""坏我"",""好他""]","[""强我"",""弱他"",""弱我"",""强他""]","","","","","","","","yes","","","","","","","","","SRET","EW_formal","","key","f","16.649672566371684","799.9999682108573","445.8333156175091","自己","上进","Positive","ability","","","","","","","","","","",""
"1048","","j","psychophysics","97","335536","0.0-7.0-3.0-0.83","5","4","4","2","1","4","1","3","4","2","5","1","1","-2","1","-3","-1","1","0","5","4","5","4","4","4","4","3","4","5","5","5","7","6","8","7","5","4","5","6","1","2","2","1","1","6","1","4","1","1","5","1","5","2","5","6","4","3","3","1","2","6","3","2","1","6","6","6","7","6","3","4","7","3","1","6","3","7","1","6","789938022656385026","焦","484","Male","[""好我"",""坏他"",""坏我"",""好他""]","[""强我"",""弱他"",""弱我"",""强他""]","","","","","","","","no","","","","","","","","","SRET","EW_formal","","key","j","16.651901639344317","799.9999682108573","445.8333156175091","自己","博学","Positive","ability","","","","","","","","","","",""
"1683","","j","psychophysics","98","338228","0.0-7.0-3.0-0.84","5","4","4","2","1","4","1","3","4","2","5","1","1","-2","1","-3","-1","1","0","5","4","5","4","4","4","4","3","4","5","5","5","7","6","8","7","5","4","5","6","1","2","2","1","1","6","1","4","1","1","5","1","5","2","5","6","4","3","3","1","2","6","3","2","1","6","6","6","7","6","3","4","7","3","1","6","3","7","1","6","789938022656385026","焦","484","Male","[""好我"",""坏他"",""坏我"",""好他""]","[""强我"",""弱他"",""弱我"",""强他""]","","","","","","","","no","","","","","","","","","SRET","EW_formal","","key","j","16.652131250000092","799.9999682108573","445.8333156175091","自己","缓慢","Negative","ability","","","","","","","","","","",""
"1400","","f","psychophysics","99","340631","0.0-7.0-3.0-0.85","5","4","4","2","1","4","1","3","4","2","5","1","1","-2","1","-3","-1","1","0","5","4","5","4","4","4","4","3","4","5","5","5","7","6","8","7","5","4","5","6","1","2","2","1","1","6","1","4","1","1","5","1","5","2","5","6","4","3","3","1","2","6","3","2","1","6","6","6","7","6","3","4","7","3","1","6","3","7","1","6","789938022656385026","焦","484","Male","[""好我"",""坏他"",""坏我"",""好他""]","[""强我"",""弱他"",""弱我"",""强他""]","","","","","","","","yes","","","","","","","","","SRET","EW_formal","","key","f","16.652986111110902","799.9999682108573","445.8333156175091","自己","主见","Positive","ability","","","","","","","","","","",""
"1254","","f","psychophysics","100","342887","0.0-7.0-3.0-0.86","5","4","4","2","1","4","1","3","4","2","5","1","1","-2","1","-3","-1","1","0","5","4","5","4","4","4","4","3","4","5","5","5","7","6","8","7","5","4","5","6","1","2","2","1","1","6","1","4","1","1","5","1","5","2","5","6","4","3","3","1","2","6","3","2","1","6","6","6","7","6","3","4","7","3","1","6","3","7","1","6","789938022656385026","焦","484","Male","[""好我"",""坏他"",""坏我"",""好他""]","[""强我"",""弱他"",""弱我"",""强他""]","","","","","","","","yes","","","","","","","","","SRET","EW_formal","","key","f","16.652955223880916","799.9999682108573","445.8333156175091","朋友","素养","Positive","morality","","","","","","","","","","",""
"1009","","j","psychophysics","101","344898","0.0-7.0-3.0-0.87","5","4","4","2","1","4","1","3","4","2","5","1","1","-2","1","-3","-1","1","0","5","4","5","4","4","4","4","3","4","5","5","5","7","6","8","7","5","4","5","6","1","2","2","1","1","6","1","4","1","1","5","1","5","2","5","6","4","3","3","1","2","6","3","2","1","6","6","6","7","6","3","4","7","3","1","6","3","7","1","6","789938022656385026","焦","484","Male","[""好我"",""坏他"",""坏我"",""好他""]","[""强我"",""弱他"",""弱我"",""强他""]","","","","","","","","no","","","","","","","","","SRET","EW_formal","","key","j","16.658524999999887","799.9999682108573","445.8333156175091","朋友","低俗","Negative","morality","","","","","","","","","","",""
"12607","
    <p><div style='color:white;font-size:35px; line-height:20px;'>计算任务</div></p><br>
    <p><div style='color:red;font-size:25px; line-height:20px;'>接下来，您将看到一些四则运算题，<b>请从键盘选择 0-9 进行反应。</b></div></p>
    <p><div style='color:red;font-size:25px; line-height:20px;'>请尽可能快地进行计算，计算的速度和正确率将影响报酬的发放。</div></p>
    <p><div class='footer' style='color:white;font-size:25px; line-height:20px;'>如果对本实验还有不清楚之处，请立即向实验员咨询。</p><p style='color:white;font-size:25px; line-height:20px;'>如果您明白了规则：</p><p style='color:white;font-size:22px; line-height:20px;'>请按 继续 进入练习</p>
    </div>
    ","0","html-button-response","102","357507","0.0-7.0-4.0","5","4","4","2","1","4","1","3","4","2","5","1","1","-2","1","-3","-1","1","0","5","4","5","4","4","4","4","3","4","5","5","5","7","6","8","7","5","4","5","6","1","2","2","1","1","6","1","4","1","1","5","1","5","2","5","6","4","3","3","1","2","6","3","2","1","6","6","6","7","6","3","4","7","3","1","6","3","7","1","6","789938022656385026","焦","484","Male","[""好我"",""坏他"",""坏我"",""好他""]","[""强我"",""弱他"",""弱我"",""强他""]","","","","","","","","","","","","","","","","","SRET_math","math_instructions","Tue Jan 02 2024 21:16:25 GMT+0800 (中国标准时间)","","","","","","","","","","","","","","","","","","","",""
"2425","","8","psychophysics","103","359935","0.0-7.0-5.0-0.0","5","4","4","2","1","4","1","3","4","2","5","1","1","-2","1","-3","-1","1","0","5","4","5","4","4","4","4","3","4","5","5","5","7","6","8","7","5","4","5","6","1","2","2","1","1","6","1","4","1","1","5","1","5","2","5","6","4","3","3","1","2","6","3","2","1","6","6","6","7","6","3","4","7","3","1","6","3","7","1","6","789938022656385026","焦","484","Male","[""好我"",""坏他"",""坏我"",""好他""]","[""强我"",""弱他"",""弱我"",""强他""]","","","","","","","","8","","","","","","","","","SRET","SRET_math_calculate","","key","8","16.654993150685037","799.9999682108573","445.8333156175091","","","","","8*1= ?","8","1","","","","","","","",""
"1897","","3","psychophysics","104","361834","0.0-7.0-5.0-0.1","5","4","4","2","1","4","1","3","4","2","5","1","1","-2","1","-3","-1","1","0","5","4","5","4","4","4","4","3","4","5","5","5","7","6","8","7","5","4","5","6","1","2","2","1","1","6","1","4","1","1","5","1","5","2","5","6","4","3","3","1","2","6","3","2","1","6","6","6","7","6","3","4","7","3","1","6","3","7","1","6","789938022656385026","焦","484","Male","[""好我"",""坏他"",""坏我"",""好他""]","[""强我"",""弱他"",""弱我"",""强他""]","","","","","","","","3","","","","","","","","","SRET","SRET_math_calculate","","key","3","16.652920353982033","799.9999682108573","445.8333156175091","","","","","3+0= ?","3","1","","","","","","","",""
"2082","","7","psychophysics","105","363917","0.0-7.0-5.0-0.2","5","4","4","2","1","4","1","3","4","2","5","1","1","-2","1","-3","-1","1","0","5","4","5","4","4","4","4","3","4","5","5","5","7","6","8","7","5","4","5","6","1","2","2","1","1","6","1","4","1","1","5","1","5","2","5","6","4","3","3","1","2","6","3","2","1","6","6","6","7","6","3","4","7","3","1","6","3","7","1","6","789938022656385026","焦","484","Male","[""好我"",""坏他"",""坏我"",""好他""]","[""强我"",""弱他"",""弱我"",""强他""]","","","","","","","","7","","","","","","","","","SRET","SRET_math_calculate","","key","7","16.655766129032276","799.9999682108573","445.8333156175091","","","","","8-1= ?","7","1","","","","","","","",""
"2341","","3","psychophysics","106","366260","0.0-7.0-5.0-0.3","5","4","4","2","1","4","1","3","4","2","5","1","1","-2","1","-3","-1","1","0","5","4","5","4","4","4","4","3","4","5","5","5","7","6","8","7","5","4","5","6","1","2","2","1","1","6","1","4","1","1","5","1","5","2","5","6","4","3","3","1","2","6","3","2","1","6","6","6","7","6","3","4","7","3","1","6","3","7","1","6","789938022656385026","焦","484","Male","[""好我"",""坏他"",""坏我"",""好他""]","[""强我"",""弱他"",""弱我"",""强他""]","","","","","","","","3","","","","","","","","","SRET","SRET_math_calculate","","key","3","16.654385714285723","799.9999682108573","445.8333156175091","","","","","11-8= ?","3","1","","","","","","","",""
"2070","","2","psychophysics","107","368331","0.0-7.0-5.0-0.4","5","4","4","2","1","4","1","3","4","2","5","1","1","-2","1","-3","-1","1","0","5","4","5","4","4","4","4","3","4","5","5","5","7","6","8","7","5","4","5","6","1","2","2","1","1","6","1","4","1","1","5","1","5","2","5","6","4","3","3","1","2","6","3","2","1","6","6","6","7","6","3","4","7","3","1","6","3","7","1","6","789938022656385026","焦","484","Male","[""好我"",""坏他"",""坏我"",""好他""]","[""强我"",""弱他"",""弱我"",""强他""]","","","","","","","","2","","","","","","","","","SRET","SRET_math_calculate","","key","2","16.652845528455188","799.9999682108573","445.8333156175091","","","","","18/9= ?","2","1","","","","","","","",""
"2281","","5","psychophysics","108","370614","0.0-7.0-5.0-0.5","5","4","4","2","1","4","1","3","4","2","5","1","1","-2","1","-3","-1","1","0","5","4","5","4","4","4","4","3","4","5","5","5","7","6","8","7","5","4","5","6","1","2","2","1","1","6","1","4","1","1","5","1","5","2","5","6","4","3","3","1","2","6","3","2","1","6","6","6","7","6","3","4","7","3","1","6","3","7","1","6","789938022656385026","焦","484","Male","[""好我"",""坏他"",""坏我"",""好他""]","[""强我"",""弱他"",""弱我"",""强他""]","","","","","","","","5","","","","","","","","","SRET","SRET_math_calculate","","key","5","16.652080882353083","799.9999682108573","445.8333156175091","","","","","17-12= ? ","5","1","","","","","","","",""
"2093","","9","psychophysics","109","372721","0.0-7.0-5.0-0.6","5","4","4","2","1","4","1","3","4","2","5","1","1","-2","1","-3","-1","1","0","5","4","5","4","4","4","4","3","4","5","5","5","7","6","8","7","5","4","5","6","1","2","2","1","1","6","1","4","1","1","5","1","5","2","5","6","4","3","3","1","2","6","3","2","1","6","6","6","7","6","3","4","7","3","1","6","3","7","1","6","789938022656385026","焦","484","Male","[""好我"",""坏他"",""坏我"",""好他""]","[""强我"",""弱他"",""弱我"",""强他""]","","","","","","","","9","","","","","","","","","SRET","SRET_math_calculate","","key","9","16.65321428571423","799.9999682108573","445.8333156175091","","","","","8+1= ?","9","1","","","","","","","",""
"2114","","6","psychophysics","110","374836","0.0-7.0-5.0-0.7","5","4","4","2","1","4","1","3","4","2","5","1","1","-2","1","-3","-1","1","0","5","4","5","4","4","4","4","3","4","5","5","5","7","6","8","7","5","4","5","6","1","2","2","1","1","6","1","4","1","1","5","1","5","2","5","6","4","3","3","1","2","6","3","2","1","6","6","6","7","6","3","4","7","3","1","6","3","7","1","6","789938022656385026","焦","484","Male","[""好我"",""坏他"",""坏我"",""好他""]","[""强我"",""弱他"",""弱我"",""强他""]","","","","","","","","6","","","","","","","","","SRET","SRET_math_calculate","","key","6","16.65380158730125","799.9999682108573","445.8333156175091","","","","","4+2= ?","6","1","","","","","","","",""
"1801","","3","psychophysics","111","376638","0.0-7.0-5.0-0.8","5","4","4","2","1","4","1","3","4","2","5","1","1","-2","1","-3","-1","1","0","5","4","5","4","4","4","4","3","4","5","5","5","7","6","8","7","5","4","5","6","1","2","2","1","1","6","1","4","1","1","5","1","5","2","5","6","4","3","3","1","2","6","3","2","1","6","6","6","7","6","3","4","7","3","1","6","3","7","1","6","789938022656385026","焦","484","Male","[""好我"",""坏他"",""坏我"",""好他""]","[""强我"",""弱他"",""弱我"",""强他""]","","","","","","","","3","","","","","","","","","SRET","SRET_math_calculate","","key","3","16.651897196261928","799.9999682108573","445.8333156175091","","","","","1+2= ?","3","1","","","","","","","",""
"3166","","8","psychophysics","112","379805","0.0-7.0-5.0-0.9","5","4","4","2","1","4","1","3","4","2","5","1","1","-2","1","-3","-1","1","0","5","4","5","4","4","4","4","3","4","5","5","5","7","6","8","7","5","4","5","6","1","2","2","1","1","6","1","4","1","1","5","1","5","2","5","6","4","3","3","1","2","6","3","2","1","6","6","6","7","6","3","4","7","3","1","6","3","7","1","6","789938022656385026","焦","484","Male","[""好我"",""坏他"",""坏我"",""好他""]","[""强我"",""弱他"",""弱我"",""强他""]","","","","","","","","8","","","","","","","","","SRET","SRET_math_calculate","","key","8","16.652629629629676","799.9999682108573","445.8333156175091","","","","","11-3= ?","8","1","","","","","","","",""
"1952","","8","psychophysics","113","381759","0.0-7.0-5.0-0.10","5","4","4","2","1","4","1","3","4","2","5","1","1","-2","1","-3","-1","1","0","5","4","5","4","4","4","4","3","4","5","5","5","7","6","8","7","5","4","5","6","1","2","2","1","1","6","1","4","1","1","5","1","5","2","5","6","4","3","3","1","2","6","3","2","1","6","6","6","7","6","3","4","7","3","1","6","3","7","1","6","789938022656385026","焦","484","Male","[""好我"",""坏他"",""坏我"",""好他""]","[""强我"",""弱他"",""弱我"",""强他""]","","","","","","","","8","","","","","","","","","SRET","SRET_math_calculate","","key","8","16.6506551724135","799.9999682108573","445.8333156175091","","","","","3+5= ?","8","1","","","","","","","",""
"1703","","8","psychophysics","114","383463","0.0-7.0-5.0-0.11","5","4","4","2","1","4","1","3","4","2","5","1","1","-2","1","-3","-1","1","0","5","4","5","4","4","4","4","3","4","5","5","5","7","6","8","7","5","4","5","6","1","2","2","1","1","6","1","4","1","1","5","1","5","2","5","6","4","3","3","1","2","6","3","2","1","6","6","6","7","6","3","4","7","3","1","6","3","7","1","6","789938022656385026","焦","484","Male","[""好我"",""坏他"",""坏我"",""好他""]","[""强我"",""弱他"",""弱我"",""强他""]","","","","","","","","8","","","","","","","","","SRET","SRET_math_calculate","","key","8","16.65396078431399","799.9999682108573","445.8333156175091","","","","","1*8= ?","8","1","","","","","","","",""
"2087","","3","psychophysics","115","385554","0.0-7.0-5.0-0.12","5","4","4","2","1","4","1","3","4","2","5","1","1","-2","1","-3","-1","1","0","5","4","5","4","4","4","4","3","4","5","5","5","7","6","8","7","5","4","5","6","1","2","2","1","1","6","1","4","1","1","5","1","5","2","5","6","4","3","3","1","2","6","3","2","1","6","6","6","7","6","3","4","7","3","1","6","3","7","1","6","789938022656385026","焦","484","Male","[""好我"",""坏他"",""坏我"",""好他""]","[""强我"",""弱他"",""弱我"",""强他""]","","","","","","","","3","","","","","","","","","SRET","SRET_math_calculate","","key","3","16.65391935483879","799.9999682108573","445.8333156175091","","","","","21/7=  ?","3","1","","","","","","","",""
"3815","","8","psychophysics","116","389370","0.0-7.0-5.0-0.13","5","4","4","2","1","4","1","3","4","2","5","1","1","-2","1","-3","-1","1","0","5","4","5","4","4","4","4","3","4","5","5","5","7","6","8","7","5","4","5","6","1","2","2","1","1","6","1","4","1","1","5","1","5","2","5","6","4","3","3","1","2","6","3","2","1","6","6","6","7","6","3","4","7","3","1","6","3","7","1","6","789938022656385026","焦","484","Male","[""好我"",""坏他"",""坏我"",""好他""]","[""强我"",""弱他"",""弱我"",""强他""]","","","","","","","","8","","","","","","","","","SRET","SRET_math_calculate","","key","8","16.652964912280655","799.9999682108573","445.8333156175091","","","","","56/7= ?","8","1","","","","","","","",""
"2057","","5","psychophysics","117","391428","0.0-7.0-5.0-0.14","5","4","4","2","1","4","1","3","4","2","5","1","1","-2","1","-3","-1","1","0","5","4","5","4","4","4","4","3","4","5","5","5","7","6","8","7","5","4","5","6","1","2","2","1","1","6","1","4","1","1","5","1","5","2","5","6","4","3","3","1","2","6","3","2","1","6","6","6","7","6","3","4","7","3","1","6","3","7","1","6","789938022656385026","焦","484","Male","[""好我"",""坏他"",""坏我"",""好他""]","[""强我"",""弱他"",""弱我"",""强他""]","","","","","","","","5","","","","","","","","","SRET","SRET_math_calculate","","key","5","16.652634146341267","799.9999682108573","445.8333156175091","","","","","2+3= ?","5","1","","","","","","","",""
"1842","","7","psychophysics","118","393272","0.0-7.0-5.0-0.15","5","4","4","2","1","4","1","3","4","2","5","1","1","-2","1","-3","-1","1","0","5","4","5","4","4","4","4","3","4","5","5","5","7","6","8","7","5","4","5","6","1","2","2","1","1","6","1","4","1","1","5","1","5","2","5","6","4","3","3","1","2","6","3","2","1","6","6","6","7","6","3","4","7","3","1","6","3","7","1","6","789938022656385026","焦","484","Male","[""好我"",""坏他"",""坏我"",""好他""]","[""强我"",""弱他"",""弱我"",""强他""]","","","","","","","","7","","","","","","","","","SRET","SRET_math_calculate","","key","7","16.65640909090924","799.9999682108573","445.8333156175091","","","","","6+1= ?","7","1","","","","","","","",""
"1861","","1","psychophysics","119","395134","0.0-7.0-5.0-0.16","5","4","4","2","1","4","1","3","4","2","5","1","1","-2","1","-3","-1","1","0","5","4","5","4","4","4","4","3","4","5","5","5","7","6","8","7","5","4","5","6","1","2","2","1","1","6","1","4","1","1","5","1","5","2","5","6","4","3","3","1","2","6","3","2","1","6","6","6","7","6","3","4","7","3","1","6","3","7","1","6","789938022656385026","焦","484","Male","[""好我"",""坏他"",""坏我"",""好他""]","[""强我"",""弱他"",""弱我"",""强他""]","","","","","","","","1","","","","","","","","","SRET","SRET_math_calculate","","key","1","16.653145454545104","799.9999682108573","445.8333156175091","","","","","9-8= ?","1","1","","","","","","","",""
"1865","","2","psychophysics","120","397002","0.0-7.0-5.0-0.17","5","4","4","2","1","4","1","3","4","2","5","1","1","-2","1","-3","-1","1","0","5","4","5","4","4","4","4","3","4","5","5","5","7","6","8","7","5","4","5","6","1","2","2","1","1","6","1","4","1","1","5","1","5","2","5","6","4","3","3","1","2","6","3","2","1","6","6","6","7","6","3","4","7","3","1","6","3","7","1","6","789938022656385026","焦","484","Male","[""好我"",""坏他"",""坏我"",""好他""]","[""强我"",""弱他"",""弱我"",""强他""]","","","","","","","","2","","","","","","","","","SRET","SRET_math_calculate","","key","2","16.653205357142724","799.9999682108573","445.8333156175091","","","","","22/11= ?","2","1","","","","","","","",""
"2387","","9","psychophysics","121","399390","0.0-7.0-5.0-0.18","5","4","4","2","1","4","1","3","4","2","5","1","1","-2","1","-3","-1","1","0","5","4","5","4","4","4","4","3","4","5","5","5","7","6","8","7","5","4","5","6","1","2","2","1","1","6","1","4","1","1","5","1","5","2","5","6","4","3","3","1","2","6","3","2","1","6","6","6","7","6","3","4","7","3","1","6","3","7","1","6","789938022656385026","焦","484","Male","[""好我"",""坏他"",""坏我"",""好他""]","[""强我"",""弱他"",""弱我"",""强他""]","","","","","","","","9","","","","","","","","","SRET","SRET_math_calculate","","key","9","16.652802816901232","799.9999682108573","445.8333156175091","","","","","81/9= ?","9","1","","","","","","","",""
"2033","","8","psychophysics","122","401424","0.0-7.0-5.0-0.19","5","4","4","2","1","4","1","3","4","2","5","1","1","-2","1","-3","-1","1","0","5","4","5","4","4","4","4","3","4","5","5","5","7","6","8","7","5","4","5","6","1","2","2","1","1","6","1","4","1","1","5","1","5","2","5","6","4","3","3","1","2","6","3","2","1","6","6","6","7","6","3","4","7","3","1","6","3","7","1","6","789938022656385026","焦","484","Male","[""好我"",""坏他"",""坏我"",""好他""]","[""强我"",""弱他"",""弱我"",""强他""]","","","","","","","","8","","","","","","","","","SRET","SRET_math_calculate","","key","8","16.654247933884214","799.9999682108573","445.8333156175091","","","","","2+6= ?","8","1","","","","","","","",""
"2272","","5","psychophysics","123","403697","0.0-7.0-5.0-0.20","5","4","4","2","1","4","1","3","4","2","5","1","1","-2","1","-3","-1","1","0","5","4","5","4","4","4","4","3","4","5","5","5","7","6","8","7","5","4","5","6","1","2","2","1","1","6","1","4","1","1","5","1","5","2","5","6","4","3","3","1","2","6","3","2","1","6","6","6","7","6","3","4","7","3","1","6","3","7","1","6","789938022656385026","焦","484","Male","[""好我"",""坏他"",""坏我"",""好他""]","[""强我"",""弱他"",""弱我"",""强他""]","","","","","","","","5","","","","","","","","","SRET","SRET_math_calculate","","key","5","16.652227941176747","799.9999682108573","445.8333156175091","","","","","9-4= ?","5","1","","","","","","","",""
"1831","","2","psychophysics","124","405529","0.0-7.0-5.0-0.21","5","4","4","2","1","4","1","3","4","2","5","1","1","-2","1","-3","-1","1","0","5","4","5","4","4","4","4","3","4","5","5","5","7","6","8","7","5","4","5","6","1","2","2","1","1","6","1","4","1","1","5","1","5","2","5","6","4","3","3","1","2","6","3","2","1","6","6","6","7","6","3","4","7","3","1","6","3","7","1","6","789938022656385026","焦","484","Male","[""好我"",""坏他"",""坏我"",""好他""]","[""强我"",""弱他"",""弱我"",""强他""]","","","","","","","","2","","","","","","","","","SRET","SRET_math_calculate","","key","2","16.65291743119271","799.9999682108573","445.8333156175091","","","","","9-7= ?","2","1","","","","","","","",""
"2078","","9","psychophysics","125","407609","0.0-7.0-5.0-0.22","5","4","4","2","1","4","1","3","4","2","5","1","1","-2","1","-3","-1","1","0","5","4","5","4","4","4","4","3","4","5","5","5","7","6","8","7","5","4","5","6","1","2","2","1","1","6","1","4","1","1","5","1","5","2","5","6","4","3","3","1","2","6","3","2","1","6","6","6","7","6","3","4","7","3","1","6","3","7","1","6","789938022656385026","焦","484","Male","[""好我"",""坏他"",""坏我"",""好他""]","[""强我"",""弱他"",""弱我"",""强他""]","","","","","","","","9","","","","","","","","","SRET","SRET_math_calculate","","key","9","16.654790322580787","799.9999682108573","445.8333156175091","","","","","4+5= ?","9","1","","","","","","","",""
"2675","","8","psychophysics","126","410286","0.0-7.0-5.0-0.23","5","4","4","2","1","4","1","3","4","2","5","1","1","-2","1","-3","-1","1","0","5","4","5","4","4","4","4","3","4","5","5","5","7","6","8","7","5","4","5","6","1","2","2","1","1","6","1","4","1","1","5","1","5","2","5","6","4","3","3","1","2","6","3","2","1","6","6","6","7","6","3","4","7","3","1","6","3","7","1","6","789938022656385026","焦","484","Male","[""好我"",""坏他"",""坏我"",""好他""]","[""强我"",""弱他"",""弱我"",""强他""]","","","","","","","","8","","","","","","","","","SRET","SRET_math_calculate","","key","8","16.651792452830247","799.9999682108573","445.8333156175091","","","","","13-5= ?","8","1","","","","","","","",""
"1737","","1","psychophysics","127","412025","0.0-7.0-5.0-0.24","5","4","4","2","1","4","1","3","4","2","5","1","1","-2","1","-3","-1","1","0","5","4","5","4","4","4","4","3","4","5","5","5","7","6","8","7","5","4","5","6","1","2","2","1","1","6","1","4","1","1","5","1","5","2","5","6","4","3","3","1","2","6","3","2","1","6","6","6","7","6","3","4","7","3","1","6","3","7","1","6","789938022656385026","焦","484","Male","[""好我"",""坏他"",""坏我"",""好他""]","[""强我"",""弱他"",""弱我"",""强他""]","","","","","","","","1","","","","","","","","","SRET","SRET_math_calculate","","key","1","16.656509615384632","799.9999682108573","445.8333156175091","","","","","10-9= ?","1","1","","","","","","","",""
"2047","","7","psychophysics","128","414073","0.0-7.0-5.0-0.25","5","4","4","2","1","4","1","3","4","2","5","1","1","-2","1","-3","-1","1","0","5","4","5","4","4","4","4","3","4","5","5","5","7","6","8","7","5","4","5","6","1","2","2","1","1","6","1","4","1","1","5","1","5","2","5","6","4","3","3","1","2","6","3","2","1","6","6","6","7","6","3","4","7","3","1","6","3","7","1","6","789938022656385026","焦","484","Male","[""好我"",""坏他"",""坏我"",""好他""]","[""强我"",""弱他"",""弱我"",""强他""]","","","","","","","","7","","","","","","","","","SRET","SRET_math_calculate","","key","7","16.65281147540969","799.9999682108573","445.8333156175091","","","","","1+6= ?","7","1","","","","","","","",""
"2030","","3","psychophysics","129","416105","0.0-7.0-5.0-0.26","5","4","4","2","1","4","1","3","4","2","5","1","1","-2","1","-3","-1","1","0","5","4","5","4","4","4","4","3","4","5","5","5","7","6","8","7","5","4","5","6","1","2","2","1","1","6","1","4","1","1","5","1","5","2","5","6","4","3","3","1","2","6","3","2","1","6","6","6","7","6","3","4","7","3","1","6","3","7","1","6","789938022656385026","焦","484","Male","[""好我"",""坏他"",""坏我"",""好他""]","[""强我"",""弱他"",""弱我"",""强他""]","","","","","","","","3","","","","","","","","","SRET","SRET_math_calculate","","key","3","16.652561983471248","799.9999682108573","445.8333156175091","","","","","9/3= ?","3","1","","","","","","","",""
"3896","","9","psychophysics","130","420001","0.0-7.0-5.0-0.27","5","4","4","2","1","4","1","3","4","2","5","1","1","-2","1","-3","-1","1","0","5","4","5","4","4","4","4","3","4","5","5","5","7","6","8","7","5","4","5","6","1","2","2","1","1","6","1","4","1","1","5","1","5","2","5","6","4","3","3","1","2","6","3","2","1","6","6","6","7","6","3","4","7","3","1","6","3","7","1","6","789938022656385026","焦","484","Male","[""好我"",""坏他"",""坏我"",""好他""]","[""强我"",""弱他"",""弱我"",""强他""]","","","","","","","","9","","","","","","","","","SRET","SRET_math_calculate","","key","9","16.65245064377686","799.9999682108573","445.8333156175091","","","","","43-34= ?","9","1","","","","","","","",""
"1769","","9","psychophysics","131","421772","0.0-7.0-5.0-0.28","5","4","4","2","1","4","1","3","4","2","5","1","1","-2","1","-3","-1","1","0","5","4","5","4","4","4","4","3","4","5","5","5","7","6","8","7","5","4","5","6","1","2","2","1","1","6","1","4","1","1","5","1","5","2","5","6","4","3","3","1","2","6","3","2","1","6","6","6","7","6","3","4","7","3","1","6","3","7","1","6","789938022656385026","焦","484","Male","[""好我"",""坏他"",""坏我"",""好他""]","[""强我"",""弱他"",""弱我"",""强他""]","","","","","","","","9","","","","","","","","","SRET","SRET_math_calculate","","key","9","16.652980952381178","799.9999682108573","445.8333156175091","","","","","3*3= ?","9","1","","","","","","","",""
"2065","","0","psychophysics","132","423839","0.0-7.0-5.0-0.29","5","4","4","2","1","4","1","3","4","2","5","1","1","-2","1","-3","-1","1","0","5","4","5","4","4","4","4","3","4","5","5","5","7","6","8","7","5","4","5","6","1","2","2","1","1","6","1","4","1","1","5","1","5","2","5","6","4","3","3","1","2","6","3","2","1","6","6","6","7","6","3","4","7","3","1","6","3","7","1","6","789938022656385026","焦","484","Male","[""好我"",""坏他"",""坏我"",""好他""]","[""强我"",""弱他"",""弱我"",""强他""]","","","","","","","","0","","","","","","","","","SRET","SRET_math_calculate","","key","0","16.65297560975603","799.9999682108573","445.8333156175091","","","","","1-1= ?","0","1","","","","","","","",""
"2157","","5","psychophysics","133","425998","0.0-7.0-5.0-0.30","5","4","4","2","1","4","1","3","4","2","5","1","1","-2","1","-3","-1","1","0","5","4","5","4","4","4","4","3","4","5","5","5","7","6","8","7","5","4","5","6","1","2","2","1","1","6","1","4","1","1","5","1","5","2","5","6","4","3","3","1","2","6","3","2","1","6","6","6","7","6","3","4","7","3","1","6","3","7","1","6","789938022656385026","焦","484","Male","[""好我"",""坏他"",""坏我"",""好他""]","[""强我"",""弱他"",""弱我"",""强他""]","","","","","","","","5","","","","","","","","","SRET","SRET_math_calculate","","key","5","16.65415503875968","799.9999682108573","445.8333156175091","","","","","15-10= ?","5","1","","","","","","","",""
"2170","","6","psychophysics","134","428169","0.0-7.0-5.0-0.31","5","4","4","2","1","4","1","3","4","2","5","1","1","-2","1","-3","-1","1","0","5","4","5","4","4","4","4","3","4","5","5","5","7","6","8","7","5","4","5","6","1","2","2","1","1","6","1","4","1","1","5","1","5","2","5","6","4","3","3","1","2","6","3","2","1","6","6","6","7","6","3","4","7","3","1","6","3","7","1","6","789938022656385026","焦","484","Male","[""好我"",""坏他"",""坏我"",""好他""]","[""强我"",""弱他"",""弱我"",""强他""]","","","","","","","","6","","","","","","","","","SRET","SRET_math_calculate","","key","6","16.655806201550742","799.9999682108573","445.8333156175091","","","","","8-2= ?","6","1","","","","","","","",""
"2202","","8","psychophysics","135","430373","0.0-7.0-5.0-0.32","5","4","4","2","1","4","1","3","4","2","5","1","1","-2","1","-3","-1","1","0","5","4","5","4","4","4","4","3","4","5","5","5","7","6","8","7","5","4","5","6","1","2","2","1","1","6","1","4","1","1","5","1","5","2","5","6","4","3","3","1","2","6","3","2","1","6","6","6","7","6","3","4","7","3","1","6","3","7","1","6","789938022656385026","焦","484","Male","[""好我"",""坏他"",""坏我"",""好他""]","[""强我"",""弱他"",""弱我"",""强他""]","","","","","","","","8","","","","","","","","","SRET","SRET_math_calculate","","key","8","16.652515151515026","799.9999682108573","445.8333156175091","","","","","6+2= ?","8","1","","","","","","","",""
"2254","","0","psychophysics","136","432630","0.0-7.0-5.0-0.33","5","4","4","2","1","4","1","3","4","2","5","1","1","-2","1","-3","-1","1","0","5","4","5","4","4","4","4","3","4","5","5","5","7","6","8","7","5","4","5","6","1","2","2","1","1","6","1","4","1","1","5","1","5","2","5","6","4","3","3","1","2","6","3","2","1","6","6","6","7","6","3","4","7","3","1","6","3","7","1","6","789938022656385026","焦","484","Male","[""好我"",""坏他"",""坏我"",""好他""]","[""强我"",""弱他"",""弱我"",""强他""]","","","","","","","","0","","","","","","","","","SRET","SRET_math_calculate","","key","0","16.65387313432797","799.9999682108573","445.8333156175091","","","","","7*0= ?","0","1","","","","","","","",""
