"rt","stimulus","response","trial_type","trial_index","time_elapsed","internal_node_id","swb_1","swb_2","swb_3","swb_4","swb_5","LOT_1","LOT_2","LOT_3","LOT_4","LOT_5","LOT_6","IPC_1","IPC_2","IPC_3","IPC_4","IPC_5","IPC_6","IPC_7","IPC_8","MorIden_1","MorIden_2","MorIden_3","MorIden_4","MorIden_5","MorIden_6","MorIden_7","MorIden_8","MorIden_9","MorIden_10","moralSeImag_1","moralSeImag_2","moralSeImag_3","moralSeImag_4","moralSeImag_5","moralSeImag_6","moralSeImag_7","moralSeImag_8","moralSeImag_9","sde_1","sde_2","sde_3","sde_4","sde_5","sde_6","sde_7","sde_8","sde_9","sde_10","trap2","sde_11","sde_12","sde_13","sde_14","sde_15","sde_16","sde_17","sde_18","sde_19","sde_20","IM_1","IM_2","IM_3","IM_4","IM_5","IM_6","IM_7","IM_8","IM_9","IM_10","IM_11","IM_12","IM_13","IM_14","IM_15","IM_16","IM_17","IM_18","IM_19","IM_20","subj_idx","friend_name","ParticipantID","Sex","Word","Word2","value","success","timeout","failed_images","failed_audio","failed_video","user_agent","responses","item_order","radio_event_ids","radio_event_times","key_event_times","mouse_event_times","straightlining","zigzagging","honeypot","task_id","screen_id","time_stamp","response_type","key_press","avg_frame_time","center_x","center_y","person","word","valence","domain","math","correct_response","correct","status","view_history","identity","duration","Image","condition","question_order","trap2_item"
"16809","
   <p><div style='color:white; font-size: 25px'>您好，欢迎参加本次实验。</div></p>
   <p><div style='color:white; font-size: 25px'>为充分保障您的权利，请确保您已经知晓并同意《参与实验同意书》以及《数据公开知情同意书》。</div></p>
   <p><div style='color:white; font-size: 25px'>如果您未见过上述内容，请咨询实验员。</div></p>
   <p style='color:white; font-size: 25px'>如果您选择继续实验，则表示您已经清楚两份知情同意书的内容并同意。</p>
   <p><div style = ""color: pink;font-size:30px;"">请确保您记得day0的实验编号，您将在本次实验输入该编号，若您忘记，请咨询实验员后作答。</div></p>
   <p><div style = ""color:lightblue;font-size:25px;"">请您尽可能认真地作答，我们将依据您在各问卷和按键任务中的作答质量发放报酬。</div></p>
   <p> <div style = ""color: green""><按空格键至下页></div> </p>
   "," ","html-keyboard-response","0","16813","0.0-0.0","6","5","6","5","5","5","2","5","5","5","5","1","0","2","1","0","0","1","0","4","5","5","2","4","5","3","4","5","4","6","5","5","6","6","5","6","6","5","5","6","6","7","6","6","5","7","6","6","1","6","5","7","7","5","6","7","5","7","7","7","6","6","5","6","6","7","5","7","7","7","6","5","7","7","7","6","6","7","5","768791430436229121","叶","403","Female","[""坏她"",""好我"",""好她"",""坏我""]","[""弱她"",""强我"",""强她"",""弱我""]","","","","","","","","","","","","","","","","","","","","","","","","","","","","","","","","","","","","","","",""
"","","","call-function","1","16814","0.0-1.0-0.0","6","5","6","5","5","5","2","5","5","5","5","1","0","2","1","0","0","1","0","4","5","5","2","4","5","3","4","5","4","6","5","5","6","6","5","6","6","5","5","6","6","7","6","6","5","7","6","6","1","6","5","7","7","5","6","7","5","7","7","7","6","6","5","6","6","7","5","7","7","7","6","5","7","7","7","6","6","7","5","768791430436229121","叶","403","Female","[""坏她"",""好我"",""好她"",""坏我""]","[""弱她"",""强我"",""强她"",""弱我""]","","","","","","","","","","","","","","","","","","","","","","","","","","","","","","","","","","","","","","",""
"118638","","[{""name"":""Sex"",""value"":""1""},{""name"":""friend_name"",""value"":""叶""},{""name"":""ParticipantID"",""value"":""403""}]","survey-html-form","2","135455","0.0-1.0-1.0","6","5","6","5","5","5","2","5","5","5","5","1","0","2","1","0","0","1","0","4","5","5","2","4","5","3","4","5","4","6","5","5","6","6","5","6","6","5","5","6","6","7","6","6","5","7","6","6","1","6","5","7","7","5","6","7","5","7","7","7","6","6","5","6","6","7","5","7","7","7","6","5","7","7","7","6","6","7","5","768791430436229121","叶","403","Female","[""坏她"",""好我"",""好她"",""坏我""]","[""弱她"",""强我"",""强她"",""弱我""]","","","","","","","","","","","","","","","","","","","","","","","","","","","","","","","","","","","","","","",""
"","","","preload","3","136063","0.0-2.0","6","5","6","5","5","5","2","5","5","5","5","1","0","2","1","0","0","1","0","4","5","5","2","4","5","3","4","5","4","6","5","5","6","6","5","6","6","5","5","6","6","7","6","6","5","7","6","6","1","6","5","7","7","5","6","7","5","7","7","7","6","6","5","6","6","7","5","7","7","7","6","5","7","7","7","6","6","7","5","768791430436229121","叶","403","Female","[""坏她"",""好我"",""好她"",""坏我""]","[""弱她"",""强我"",""强她"",""弱我""]","","true","false","[]","[]","[]","","","","","","","","","","","","","","","","","","","","","","","","","","","","","","","","",""
"","","","fullscreen","4","150473","0.0-3.0","6","5","6","5","5","5","2","5","5","5","5","1","0","2","1","0","0","1","0","4","5","5","2","4","5","3","4","5","4","6","5","5","6","6","5","6","6","5","5","6","6","7","6","6","5","7","6","6","1","6","5","7","7","5","6","7","5","7","7","7","6","6","5","6","6","7","5","7","7","7","6","5","7","7","7","6","6","7","5","768791430436229121","叶","403","Female","[""坏她"",""好我"",""好她"",""坏我""]","[""弱她"",""强我"",""强她"",""弱我""]","","true","","","","","{}","","","","","","","","","","","","","","","","","","","","","","","","","","","","","","","",""
"11414.60000038147","","{""Q01"":""6"",""Q02"":""5"",""Q03"":""6"",""Q04"":""5"",""Q05"":""5""}","survey-template","5","161892","0.0-4.0","6","5","6","5","5","5","2","5","5","5","5","1","0","2","1","0","0","1","0","4","5","5","2","4","5","3","4","5","4","6","5","5","6","6","5","6","6","5","5","6","6","7","6","6","5","7","6","6","1","6","5","7","7","5","6","7","5","7","7","7","6","6","5","6","6","7","5","7","7","7","6","5","7","7","7","6","6","7","5","768791430436229121","叶","403","Female","[""坏她"",""好我"",""好她"",""坏我""]","[""弱她"",""强我"",""强她"",""弱我""]","","","","","","","","{""Q01"":""6"",""Q02"":""5"",""Q03"":""6"",""Q04"":""5"",""Q05"":""5""}","[0,1,2,3,4]","[""Q01"",""Q02"",""Q03"",""Q04"",""Q05""]","[2940.2000002861023,4999.900000095367,6715.400000095367,8474.5,9768.300000190735]","[]","[2940.2000002861023,4999.900000095367,6715.400000095367,8474.5,9768.300000190735,11412.900000095367]","0.6","0.75","0","","","","","","","","","","","","","","","","","","","","","","",""
"25760","","{""Q01"":""5"",""Q02"":""2"",""Q03"":""5"",""Q04"":""5"",""Q05"":""5"",""Q06"":""5""}","survey-template","6","187657","0.0-5.0","6","5","6","5","5","5","2","5","5","5","5","1","0","2","1","0","0","1","0","4","5","5","2","4","5","3","4","5","4","6","5","5","6","6","5","6","6","5","5","6","6","7","6","6","5","7","6","6","1","6","5","7","7","5","6","7","5","7","7","7","6","6","5","6","6","7","5","7","7","7","6","5","7","7","7","6","6","7","5","768791430436229121","叶","403","Female","[""坏她"",""好我"",""好她"",""坏我""]","[""弱她"",""强我"",""强她"",""弱我""]","","","","","","","","{""Q01"":""5"",""Q02"":""2"",""Q03"":""5"",""Q04"":""5"",""Q05"":""5"",""Q06"":""5""}","[0,1,2,3,4,5]","[""Q01"",""Q02"",""Q03"",""Q04"",""Q05"",""Q06"",""Q06"",""Q04"",""Q05""]","[2938.4000000953674,6205.199999809265,7970.800000190735,10502,11989.300000190735,15942.5,18251.699999809265,22205.199999809265,23599.699999809265]","[]","[2938.4000000953674,6205.199999809265,7970.800000190735,10502,11989.300000190735,15942.5,18251.699999809265,19989.099999904633,22205.199999809265,23599.699999809265,25758.800000190735]","0.5","0.8","0","","","","","","","","","","","","","","","","","","","","","","",""
"19807.800000190735","","{""Q01"":""1"",""Q02"":""0"",""Q03"":""2"",""Q04"":""1"",""Q05"":""0"",""Q06"":""0"",""Q07"":""1"",""Q08"":""0""}","survey-template","7","207469","0.0-6.0","6","5","6","5","5","5","2","5","5","5","5","1","0","2","1","0","0","1","0","4","5","5","2","4","5","3","4","5","4","6","5","5","6","6","5","6","6","5","5","6","6","7","6","6","5","7","6","6","1","6","5","7","7","5","6","7","5","7","7","7","6","6","5","6","6","7","5","7","7","7","6","5","7","7","7","6","6","7","5","768791430436229121","叶","403","Female","[""坏她"",""好我"",""好她"",""坏我""]","[""弱她"",""强我"",""强她"",""弱我""]","","","","","","","","{""Q01"":""1"",""Q02"":""0"",""Q03"":""2"",""Q04"":""1"",""Q05"":""0"",""Q06"":""0"",""Q07"":""1"",""Q08"":""0""}","[0,1,2,3,4,5,6,7]","[""Q01"",""Q02"",""Q03"",""Q04"",""Q05"",""Q06"",""Q07"",""Q08""]","[3161.300000190735,6500.300000190735,9610.200000286102,11626.200000286102,13464.400000095367,14821.5,17010,18411.700000286102]","[]","[3161.300000190735,6500.300000190735,9610.200000286102,11626.200000286102,13464.400000095367,14821.5,17010,18411.700000286102,19805.700000286102]","0.5","0.7142857142857143","0","","","","","","","","","","","","","","","","","","","","","","",""
"29928","
    <p><div style='color:white;font-size:35px; line-height:20px;'>词汇评估任务</div></p><br>
    <p><div style='color:white;font-size:25px; line-height:20px;'>请再次回忆该亲密的朋友，你们至少2年前就认识了，并且最近2年经常见面。</div></p>
    <p><div style='color:white;font-size:25px; line-height:20px;'>在本实验中，您将会看到一些形容词。</div></p>
    <p><div style='color:yellow;font-size:25px; line-height:20px;'>您的任务是判断这些形容词是否符合对您自己或您的朋友的描述。</div></p><p style='font-size:35px'>符合按<span style=""color:lightgreen""> j 键</span>，不符合按<span style=""color:red""> f 键</span></p>","0","html-button-response","8","237402","0.0-7.0-0.0","6","5","6","5","5","5","2","5","5","5","5","1","0","2","1","0","0","1","0","4","5","5","2","4","5","3","4","5","4","6","5","5","6","6","5","6","6","5","5","6","6","7","6","6","5","7","6","6","1","6","5","7","7","5","6","7","5","7","7","7","6","6","5","6","6","7","5","7","7","7","6","5","7","7","7","6","6","7","5","768791430436229121","叶","403","Female","[""坏她"",""好我"",""好她"",""坏我""]","[""弱她"",""强我"",""强她"",""弱我""]","","","","","","","","","","","","","","","","","SRET_EW","EW_instructions","Wed Jan 03 2024 21:18:37 GMT+0800 (中国标准时间)","","","","","","","","","","","","","","","","","","","",""
"null","","null","psychophysics","9","240410","0.0-7.0-1.0-0.0","6","5","6","5","5","5","2","5","5","5","5","1","0","2","1","0","0","1","0","4","5","5","2","4","5","3","4","5","4","6","5","5","6","6","5","6","6","5","5","6","6","7","6","6","5","7","6","6","1","6","5","7","7","5","6","7","5","7","7","7","6","6","5","6","6","7","5","7","7","7","6","5","7","7","7","6","6","7","5","768791430436229121","叶","403","Female","[""坏她"",""好我"",""好她"",""坏我""]","[""弱她"",""强我"",""强她"",""弱我""]","","","","","","","","","","","","","","","","","SRET_EW","EW_practice","","key","null","16.653888888888954","710.7407909492769","364.8148405862625","自己","严谨","Positive","ability","","","","","","","","","","",""
"1291","","f","psychophysics","10","242705","0.0-7.0-1.0-0.1","6","5","6","5","5","5","2","5","5","5","5","1","0","2","1","0","0","1","0","4","5","5","2","4","5","3","4","5","4","6","5","5","6","6","5","6","6","5","5","6","6","7","6","6","5","7","6","6","1","6","5","7","7","5","6","7","5","7","7","7","6","6","5","6","6","7","5","7","7","7","6","5","7","7","7","6","6","7","5","768791430436229121","叶","403","Female","[""坏她"",""好我"",""好她"",""坏我""]","[""弱她"",""强我"",""强她"",""弱我""]","","","","","","","","no","","","","","","","","","SRET_EW","EW_practice","","key","f","16.66204379562031","710.7407909492769","364.8148405862625","朋友","忠实","Positive","morality","","","","","","","","","","",""
"1031","","f","psychophysics","11","244740","0.0-7.0-1.0-0.2","6","5","6","5","5","5","2","5","5","5","5","1","0","2","1","0","0","1","0","4","5","5","2","4","5","3","4","5","4","6","5","5","6","6","5","6","6","5","5","6","6","7","6","6","5","7","6","6","1","6","5","7","7","5","6","7","5","7","7","7","6","6","5","6","6","7","5","7","7","7","6","5","7","7","7","6","6","7","5","768791430436229121","叶","403","Female","[""坏她"",""好我"",""好她"",""坏我""]","[""弱她"",""强我"",""强她"",""弱我""]","","","","","","","","no","","","","","","","","","SRET_EW","EW_practice","","key","f","16.66198347107443","710.7407909492769","364.8148405862625","自己","刻板","Negative","ability","","","","","","","","","","",""
"null","","null","psychophysics","12","247749","0.0-7.0-1.0-0.3","6","5","6","5","5","5","2","5","5","5","5","1","0","2","1","0","0","1","0","4","5","5","2","4","5","3","4","5","4","6","5","5","6","6","5","6","6","5","5","6","6","7","6","6","5","7","6","6","1","6","5","7","7","5","6","7","5","7","7","7","6","6","5","6","6","7","5","7","7","7","6","5","7","7","7","6","6","7","5","768791430436229121","叶","403","Female","[""坏她"",""好我"",""好她"",""坏我""]","[""弱她"",""强我"",""强她"",""弱我""]","","","","","","","","","","","","","","","","","SRET_EW","EW_practice","","key","null","16.66145251396645","710.7407909492769","364.8148405862625","朋友","徇私","Negative","morality","","","","","","","","","","",""
"16580","
    <p><div style='color:white;font-size:35px; line-height:20px;'>请您再次阅读实验要求</div></p><br>
    <p><div style='color:white;font-size:25px; line-height:20px;'>请回忆某一个亲密的朋友，你们至少2年前就认识了，并且最近2年经常见面。</div></p>
    <p><div style='color:white;font-size:25px; line-height:20px;'>在本实验中，您将会看到一些形容词。</div></p>
    <p><div style='color:yellow;font-size:25px; line-height:20px;'>您的任务是判断这些形容词是否符合对您自己或您的朋友的描述。</div></p>
    <p><div class='footer' style='font-size:25px; line-height:20px;'>如果对本实验还有不清楚之处，请立即向实验员咨询。</p><p style='font-size:25px; line-height:20px;'>如果您明白了规则：</p><p style='font-size:22px; line-height:20px;'>请按 继续 进入正式实验</p>
    </div>
    <p style='font-size:35px'>符合按<span style=""color:lightgreen""> j 键</span>，不符合按<span style=""color:red""> f 键</span></p>","0","html-button-response","13","264333","0.0-7.0-2.0","6","5","6","5","5","5","2","5","5","5","5","1","0","2","1","0","0","1","0","4","5","5","2","4","5","3","4","5","4","6","5","5","6","6","5","6","6","5","5","6","6","7","6","6","5","7","6","6","1","6","5","7","7","5","6","7","5","7","7","7","6","6","5","6","6","7","5","7","7","7","6","5","7","7","7","6","6","7","5","768791430436229121","叶","403","Female","[""坏她"",""好我"",""好她"",""坏我""]","[""弱她"",""强我"",""强她"",""弱我""]","","","","","","","","","","","","","","","","","SRET_EW","prac_instructions","Wed Jan 03 2024 21:18:37 GMT+0800 (中国标准时间)","","","","","","","","","","","","","","","","","","","",""
"665","","f","psychophysics","14","266000","0.0-7.0-3.0-0.0","6","5","6","5","5","5","2","5","5","5","5","1","0","2","1","0","0","1","0","4","5","5","2","4","5","3","4","5","4","6","5","5","6","6","5","6","6","5","5","6","6","7","6","6","5","7","6","6","1","6","5","7","7","5","6","7","5","7","7","7","6","6","5","6","6","7","5","7","7","7","6","5","7","7","7","6","6","7","5","768791430436229121","叶","403","Female","[""坏她"",""好我"",""好她"",""坏我""]","[""弱她"",""强我"",""强她"",""弱我""]","","","","","","","","no","","","","","","","","","SRET","EW_formal","","key","f","16.644000000000233","710.7407909492769","364.8148405862625","自己","说谎","Negative","morality","","","","","","","","","","",""
"926","","f","psychophysics","15","267929","0.0-7.0-3.0-0.1","6","5","6","5","5","5","2","5","5","5","5","1","0","2","1","0","0","1","0","4","5","5","2","4","5","3","4","5","4","6","5","5","6","6","5","6","6","5","5","6","6","7","6","6","5","7","6","6","1","6","5","7","7","5","6","7","5","7","7","7","6","6","5","6","6","7","5","7","7","7","6","5","7","7","7","6","6","7","5","768791430436229121","叶","403","Female","[""坏她"",""好我"",""好她"",""坏我""]","[""弱她"",""强我"",""强她"",""弱我""]","","","","","","","","no","","","","","","","","","SRET","EW_formal","","key","f","16.660869565217393","710.7407909492769","364.8148405862625","朋友","迷糊","Negative","ability","","","","","","","","","","",""
"1262","","f","psychophysics","16","270195","0.0-7.0-3.0-0.2","6","5","6","5","5","5","2","5","5","5","5","1","0","2","1","0","0","1","0","4","5","5","2","4","5","3","4","5","4","6","5","5","6","6","5","6","6","5","5","6","6","7","6","6","5","7","6","6","1","6","5","7","7","5","6","7","5","7","7","7","6","6","5","6","6","7","5","7","7","7","6","5","7","7","7","6","6","7","5","768791430436229121","叶","403","Female","[""坏她"",""好我"",""好她"",""坏我""]","[""弱她"",""强我"",""强她"",""弱我""]","","","","","","","","no","","","","","","","","","SRET","EW_formal","","key","f","16.66296296296296","710.7407909492769","364.8148405862625","朋友","务实","Positive","ability","","","","","","","","","","",""
"1407","","f","psychophysics","17","272605","0.0-7.0-3.0-0.3","6","5","6","5","5","5","2","5","5","5","5","1","0","2","1","0","0","1","0","4","5","5","2","4","5","3","4","5","4","6","5","5","6","6","5","6","6","5","5","6","6","7","6","6","5","7","6","6","1","6","5","7","7","5","6","7","5","7","7","7","6","6","5","6","6","7","5","7","7","7","6","5","7","7","7","6","6","7","5","768791430436229121","叶","403","Female","[""坏她"",""好我"",""好她"",""坏我""]","[""弱她"",""强我"",""强她"",""弱我""]","","","","","","","","no","","","","","","","","","SRET","EW_formal","","key","f","16.66083916083916","710.7407909492769","364.8148405862625","自己","坚贞","Positive","morality","","","","","","","","","","",""
"1580","","j","psychophysics","18","275189","0.0-7.0-3.0-0.4","6","5","6","5","5","5","2","5","5","5","5","1","0","2","1","0","0","1","0","4","5","5","2","4","5","3","4","5","4","6","5","5","6","6","5","6","6","5","5","6","6","7","6","6","5","7","6","6","1","6","5","7","7","5","6","7","5","7","7","7","6","6","5","6","6","7","5","7","7","7","6","5","7","7","7","6","6","7","5","768791430436229121","叶","403","Female","[""坏她"",""好我"",""好她"",""坏我""]","[""弱她"",""强我"",""强她"",""弱我""]","","","","","","","","yes","","","","","","","","","SRET","EW_formal","","key","j","16.77058823529389","710.7407909492769","364.8148405862625","朋友","忠义","Positive","morality","","","","","","","","","","",""
"1655","","f","psychophysics","19","277848","0.0-7.0-3.0-0.5","6","5","6","5","5","5","2","5","5","5","5","1","0","2","1","0","0","1","0","4","5","5","2","4","5","3","4","5","4","6","5","5","6","6","5","6","6","5","5","6","6","7","6","6","5","7","6","6","1","6","5","7","7","5","6","7","5","7","7","7","6","6","5","6","6","7","5","7","7","7","6","5","7","7","7","6","6","7","5","768791430436229121","叶","403","Female","[""坏她"",""好我"",""好她"",""坏我""]","[""弱她"",""强我"",""强她"",""弱我""]","","","","","","","","no","","","","","","","","","SRET","EW_formal","","key","f","16.66163522012586","710.7407909492769","364.8148405862625","自己","拖延","Negative","ability","","","","","","","","","","",""
"1619","","f","psychophysics","20","280470","0.0-7.0-3.0-0.6","6","5","6","5","5","5","2","5","5","5","5","1","0","2","1","0","0","1","0","4","5","5","2","4","5","3","4","5","4","6","5","5","6","6","5","6","6","5","5","6","6","7","6","6","5","7","6","6","1","6","5","7","7","5","6","7","5","7","7","7","6","6","5","6","6","7","5","7","7","7","6","5","7","7","7","6","6","7","5","768791430436229121","叶","403","Female","[""坏她"",""好我"",""好她"",""坏我""]","[""弱她"",""强我"",""强她"",""弱我""]","","","","","","","","no","","","","","","","","","SRET","EW_formal","","key","f","16.66217948717941","710.7407909492769","364.8148405862625","自己","无赖","Negative","morality","","","","","","","","","","",""
"956","","f","psychophysics","21","282430","0.0-7.0-3.0-0.7","6","5","6","5","5","5","2","5","5","5","5","1","0","2","1","0","0","1","0","4","5","5","2","4","5","3","4","5","4","6","5","5","6","6","5","6","6","5","5","6","6","7","6","6","5","7","6","6","1","6","5","7","7","5","6","7","5","7","7","7","6","6","5","6","6","7","5","7","7","7","6","5","7","7","7","6","6","7","5","768791430436229121","叶","403","Female","[""坏她"",""好我"",""好她"",""坏我""]","[""弱她"",""强我"",""强她"",""弱我""]","","","","","","","","no","","","","","","","","","SRET","EW_formal","","key","f","16.663247863247665","710.7407909492769","364.8148405862625","朋友","刻薄","Negative","morality","","","","","","","","","","",""
"1061","","f","psychophysics","22","284495","0.0-7.0-3.0-0.8","6","5","6","5","5","5","2","5","5","5","5","1","0","2","1","0","0","1","0","4","5","5","2","4","5","3","4","5","4","6","5","5","6","6","5","6","6","5","5","6","6","7","6","6","5","7","6","6","1","6","5","7","7","5","6","7","5","7","7","7","6","6","5","6","6","7","5","7","7","7","6","5","7","7","7","6","6","7","5","768791430436229121","叶","403","Female","[""坏她"",""好我"",""好她"",""坏我""]","[""弱她"",""强我"",""强她"",""弱我""]","","","","","","","","no","","","","","","","","","SRET","EW_formal","","key","f","16.93719008264434","710.7407909492769","364.8148405862625","朋友","笨蛋","Negative","ability","","","","","","","","","","",""
"896","","j","psychophysics","23","286394","0.0-7.0-3.0-0.9","6","5","6","5","5","5","2","5","5","5","5","1","0","2","1","0","0","1","0","4","5","5","2","4","5","3","4","5","4","6","5","5","6","6","5","6","6","5","5","6","6","7","6","6","5","7","6","6","1","6","5","7","7","5","6","7","5","7","7","7","6","6","5","6","6","7","5","7","7","7","6","5","7","7","7","6","6","7","5","768791430436229121","叶","403","Female","[""坏她"",""好我"",""好她"",""坏我""]","[""弱她"",""强我"",""强她"",""弱我""]","","","","","","","","yes","","","","","","","","","SRET","EW_formal","","key","j","16.660176991150752","710.7407909492769","364.8148405862625","朋友","好心","Positive","morality","","","","","","","","","","",""
"910","","f","psychophysics","24","288307","0.0-7.0-3.0-0.10","6","5","6","5","5","5","2","5","5","5","5","1","0","2","1","0","0","1","0","4","5","5","2","4","5","3","4","5","4","6","5","5","6","6","5","6","6","5","5","6","6","7","6","6","5","7","6","6","1","6","5","7","7","5","6","7","5","7","7","7","6","6","5","6","6","7","5","7","7","7","6","5","7","7","7","6","6","7","5","768791430436229121","叶","403","Female","[""坏她"",""好我"",""好她"",""坏我""]","[""弱她"",""强我"",""强她"",""弱我""]","","","","","","","","no","","","","","","","","","SRET","EW_formal","","key","f","16.66315789473664","710.7407909492769","364.8148405862625","自己","阴毒","Negative","morality","","","","","","","","","","",""
"899","","j","psychophysics","25","290210","0.0-7.0-3.0-0.11","6","5","6","5","5","5","2","5","5","5","5","1","0","2","1","0","0","1","0","4","5","5","2","4","5","3","4","5","4","6","5","5","6","6","5","6","6","5","5","6","6","7","6","6","5","7","6","6","1","6","5","7","7","5","6","7","5","7","7","7","6","6","5","6","6","7","5","7","7","7","6","5","7","7","7","6","6","7","5","768791430436229121","叶","403","Female","[""坏她"",""好我"",""好她"",""坏我""]","[""弱她"",""强我"",""强她"",""弱我""]","","","","","","","","yes","","","","","","","","","SRET","EW_formal","","key","j","16.661946902654766","710.7407909492769","364.8148405862625","自己","精干","Positive","ability","","","","","","","","","","",""
"929","","j","psychophysics","26","292143","0.0-7.0-3.0-0.12","6","5","6","5","5","5","2","5","5","5","5","1","0","2","1","0","0","1","0","4","5","5","2","4","5","3","4","5","4","6","5","5","6","6","5","6","6","5","5","6","6","7","6","6","5","7","6","6","1","6","5","7","7","5","6","7","5","7","7","7","6","6","5","6","6","7","5","7","7","7","6","5","7","7","7","6","6","7","5","768791430436229121","叶","403","Female","[""坏她"",""好我"",""好她"",""坏我""]","[""弱她"",""强我"",""强她"",""弱我""]","","","","","","","","yes","","","","","","","","","SRET","EW_formal","","key","j","16.66173913043458","710.7407909492769","364.8148405862625","朋友","高效","Positive","ability","","","","","","","","","","",""
"1100","","f","psychophysics","27","294246","0.0-7.0-3.0-0.13","6","5","6","5","5","5","2","5","5","5","5","1","0","2","1","0","0","1","0","4","5","5","2","4","5","3","4","5","4","6","5","5","6","6","5","6","6","5","5","6","6","7","6","6","5","7","6","6","1","6","5","7","7","5","6","7","5","7","7","7","6","6","5","6","6","7","5","7","7","7","6","5","7","7","7","6","6","7","5","768791430436229121","叶","403","Female","[""坏她"",""好我"",""好她"",""坏我""]","[""弱她"",""强我"",""强她"",""弱我""]","","","","","","","","no","","","","","","","","","SRET","EW_formal","","key","f","16.661600000000092","710.7407909492769","364.8148405862625","朋友","迟钝","Negative","ability","","","","","","","","","","",""
"890","","f","psychophysics","28","296140","0.0-7.0-3.0-0.14","6","5","6","5","5","5","2","5","5","5","5","1","0","2","1","0","0","1","0","4","5","5","2","4","5","3","4","5","4","6","5","5","6","6","5","6","6","5","5","6","6","7","6","6","5","7","6","6","1","6","5","7","7","5","6","7","5","7","7","7","6","6","5","6","6","7","5","7","7","7","6","5","7","7","7","6","6","7","5","768791430436229121","叶","403","Female","[""坏她"",""好我"",""好她"",""坏我""]","[""弱她"",""强我"",""强她"",""弱我""]","","","","","","","","no","","","","","","","","","SRET","EW_formal","","key","f","16.661946902654766","710.7407909492769","364.8148405862625","自己","奸诈","Negative","morality","","","","","","","","","","",""
"1008","","f","psychophysics","29","298151","0.0-7.0-3.0-0.15","6","5","6","5","5","5","2","5","5","5","5","1","0","2","1","0","0","1","0","4","5","5","2","4","5","3","4","5","4","6","5","5","6","6","5","6","6","5","5","6","6","7","6","6","5","7","6","6","1","6","5","7","7","5","6","7","5","7","7","7","6","6","5","6","6","7","5","7","7","7","6","5","7","7","7","6","6","7","5","768791430436229121","叶","403","Female","[""坏她"",""好我"",""好她"",""坏我""]","[""弱她"",""强我"",""强她"",""弱我""]","","","","","","","","no","","","","","","","","","SRET","EW_formal","","key","f","16.661666666666374","710.7407909492769","364.8148405862625","朋友","差生","Negative","ability","","","","","","","","","","",""
"1317","","j","psychophysics","30","300472","0.0-7.0-3.0-0.16","6","5","6","5","5","5","2","5","5","5","5","1","0","2","1","0","0","1","0","4","5","5","2","4","5","3","4","5","4","6","5","5","6","6","5","6","6","5","5","6","6","7","6","6","5","7","6","6","1","6","5","7","7","5","6","7","5","7","7","7","6","6","5","6","6","7","5","7","7","7","6","5","7","7","7","6","6","7","5","768791430436229121","叶","403","Female","[""坏她"",""好我"",""好她"",""坏我""]","[""弱她"",""强我"",""强她"",""弱我""]","","","","","","","","yes","","","","","","","","","SRET","EW_formal","","key","j","16.661594202898467","710.7407909492769","364.8148405862625","朋友","能干","Positive","ability","","","","","","","","","","",""
"1096","","j","psychophysics","31","302571","0.0-7.0-3.0-0.17","6","5","6","5","5","5","2","5","5","5","5","1","0","2","1","0","0","1","0","4","5","5","2","4","5","3","4","5","4","6","5","5","6","6","5","6","6","5","5","6","6","7","6","6","5","7","6","6","1","6","5","7","7","5","6","7","5","7","7","7","6","6","5","6","6","7","5","7","7","7","6","5","7","7","7","6","6","7","5","768791430436229121","叶","403","Female","[""坏她"",""好我"",""好她"",""坏我""]","[""弱她"",""强我"",""强她"",""弱我""]","","","","","","","","yes","","","","","","","","","SRET","EW_formal","","key","j","16.661600000000092","710.7407909492769","364.8148405862625","自己","高明","Positive","ability","","","","","","","","","","",""
"1270","","f","psychophysics","32","304844","0.0-7.0-3.0-0.18","6","5","6","5","5","5","2","5","5","5","5","1","0","2","1","0","0","1","0","4","5","5","2","4","5","3","4","5","4","6","5","5","6","6","5","6","6","5","5","6","6","7","6","6","5","7","6","6","1","6","5","7","7","5","6","7","5","7","7","7","6","6","5","6","6","7","5","7","7","7","6","5","7","7","7","6","6","7","5","768791430436229121","叶","403","Female","[""坏她"",""好我"",""好她"",""坏我""]","[""弱她"",""强我"",""强她"",""弱我""]","","","","","","","","no","","","","","","","","","SRET","EW_formal","","key","f","16.66296296296296","710.7407909492769","364.8148405862625","自己","腐败","Negative","morality","","","","","","","","","","",""
"697","","f","psychophysics","33","306544","0.0-7.0-3.0-0.19","6","5","6","5","5","5","2","5","5","5","5","1","0","2","1","0","0","1","0","4","5","5","2","4","5","3","4","5","4","6","5","5","6","6","5","6","6","5","5","6","6","7","6","6","5","7","6","6","1","6","5","7","7","5","6","7","5","7","7","7","6","6","5","6","6","7","5","7","7","7","6","5","7","7","7","6","6","7","5","768791430436229121","叶","403","Female","[""坏她"",""好我"",""好她"",""坏我""]","[""弱她"",""强我"",""强她"",""弱我""]","","","","","","","","no","","","","","","","","","SRET","EW_formal","","key","f","16.66237623762399","710.7407909492769","364.8148405862625","朋友","无耻","Negative","morality","","","","","","","","","","",""
"808","","f","psychophysics","34","308355","0.0-7.0-3.0-0.20","6","5","6","5","5","5","2","5","5","5","5","1","0","2","1","0","0","1","0","4","5","5","2","4","5","3","4","5","4","6","5","5","6","6","5","6","6","5","5","6","6","7","6","6","5","7","6","6","1","6","5","7","7","5","6","7","5","7","7","7","6","6","5","6","6","7","5","7","7","7","6","5","7","7","7","6","6","7","5","768791430436229121","叶","403","Female","[""坏她"",""好我"",""好她"",""坏我""]","[""弱她"",""强我"",""强她"",""弱我""]","","","","","","","","no","","","","","","","","","SRET","EW_formal","","key","f","16.662037037037038","710.7407909492769","364.8148405862625","自己","庸碌","Negative","ability","","","","","","","","","","",""
"1093","","f","psychophysics","35","310451","0.0-7.0-3.0-0.21","6","5","6","5","5","5","2","5","5","5","5","1","0","2","1","0","0","1","0","4","5","5","2","4","5","3","4","5","4","6","5","5","6","6","5","6","6","5","5","6","6","7","6","6","5","7","6","6","1","6","5","7","7","5","6","7","5","7","7","7","6","6","5","6","6","7","5","7","7","7","6","5","7","7","7","6","6","7","5","768791430436229121","叶","403","Female","[""坏她"",""好我"",""好她"",""坏我""]","[""弱她"",""强我"",""强她"",""弱我""]","","","","","","","","no","","","","","","","","","SRET","EW_formal","","key","f","16.661600000000092","710.7407909492769","364.8148405862625","自己","粗心","Negative","ability","","","","","","","","","","",""
"874","","f","psychophysics","36","312335","0.0-7.0-3.0-0.22","6","5","6","5","5","5","2","5","5","5","5","1","0","2","1","0","0","1","0","4","5","5","2","4","5","3","4","5","4","6","5","5","6","6","5","6","6","5","5","6","6","7","6","6","5","7","6","6","1","6","5","7","7","5","6","7","5","7","7","7","6","6","5","6","6","7","5","7","7","7","6","5","7","7","7","6","6","7","5","768791430436229121","叶","403","Female","[""坏她"",""好我"",""好她"",""坏我""]","[""弱她"",""强我"",""强她"",""弱我""]","","","","","","","","no","","","","","","","","","SRET","EW_formal","","key","f","16.96545454545465","710.7407909492769","364.8148405862625","自己","迂拙","Negative","ability","","","","","","","","","","",""
"767","","j","psychophysics","37","314106","0.0-7.0-3.0-0.23","6","5","6","5","5","5","2","5","5","5","5","1","0","2","1","0","0","1","0","4","5","5","2","4","5","3","4","5","4","6","5","5","6","6","5","6","6","5","5","6","6","7","6","6","5","7","6","6","1","6","5","7","7","5","6","7","5","7","7","7","6","6","5","6","6","7","5","7","7","7","6","5","7","7","7","6","6","7","5","768791430436229121","叶","403","Female","[""坏她"",""好我"",""好她"",""坏我""]","[""弱她"",""强我"",""强她"",""弱我""]","","","","","","","","yes","","","","","","","","","SRET","EW_formal","","key","j","16.66190476190476","710.7407909492769","364.8148405862625","自己","君子","Positive","morality","","","","","","","","","","",""
"760","","f","psychophysics","38","315868","0.0-7.0-3.0-0.24","6","5","6","5","5","5","2","5","5","5","5","1","0","2","1","0","0","1","0","4","5","5","2","4","5","3","4","5","4","6","5","5","6","6","5","6","6","5","5","6","6","7","6","6","5","7","6","6","1","6","5","7","7","5","6","7","5","7","7","7","6","6","5","6","6","7","5","7","7","7","6","5","7","7","7","6","6","7","5","768791430436229121","叶","403","Female","[""坏她"",""好我"",""好她"",""坏我""]","[""弱她"",""强我"",""强她"",""弱我""]","","","","","","","","no","","","","","","","","","SRET","EW_formal","","key","f","16.66190476190476","710.7407909492769","364.8148405862625","自己","无能","Negative","ability","","","","","","","","","","",""
"1617","","j","psychophysics","39","318488","0.0-7.0-3.0-0.25","6","5","6","5","5","5","2","5","5","5","5","1","0","2","1","0","0","1","0","4","5","5","2","4","5","3","4","5","4","6","5","5","6","6","5","6","6","5","5","6","6","7","6","6","5","7","6","6","1","6","5","7","7","5","6","7","5","7","7","7","6","6","5","6","6","7","5","7","7","7","6","5","7","7","7","6","6","7","5","768791430436229121","叶","403","Female","[""坏她"",""好我"",""好她"",""坏我""]","[""弱她"",""强我"",""强她"",""弱我""]","","","","","","","","yes","","","","","","","","","SRET","EW_formal","","key","j","16.661538461538164","710.7407909492769","364.8148405862625","朋友","懂行","Positive","ability","","","","","","","","","","",""
"1323","","j","psychophysics","40","320814","0.0-7.0-3.0-0.26","6","5","6","5","5","5","2","5","5","5","5","1","0","2","1","0","0","1","0","4","5","5","2","4","5","3","4","5","4","6","5","5","6","6","5","6","6","5","5","6","6","7","6","6","5","7","6","6","1","6","5","7","7","5","6","7","5","7","7","7","6","6","5","6","6","7","5","7","7","7","6","5","7","7","7","6","6","7","5","768791430436229121","叶","403","Female","[""坏她"",""好我"",""好她"",""坏我""]","[""弱她"",""强我"",""强她"",""弱我""]","","","","","","","","yes","","","","","","","","","SRET","EW_formal","","key","j","16.661151079136438","710.7407909492769","364.8148405862625","自己","无私","Positive","morality","","","","","","","","","","",""
"986","","f","psychophysics","41","322803","0.0-7.0-3.0-0.27","6","5","6","5","5","5","2","5","5","5","5","1","0","2","1","0","0","1","0","4","5","5","2","4","5","3","4","5","4","6","5","5","6","6","5","6","6","5","5","6","6","7","6","6","5","7","6","6","1","6","5","7","7","5","6","7","5","7","7","7","6","6","5","6","6","7","5","7","7","7","6","5","7","7","7","6","6","7","5","768791430436229121","叶","403","Female","[""坏她"",""好我"",""好她"",""坏我""]","[""弱她"",""强我"",""强她"",""弱我""]","","","","","","","","no","","","","","","","","","SRET","EW_formal","","key","f","16.661864406779465","710.7407909492769","364.8148405862625","自己","背叛","Negative","morality","","","","","","","","","","",""
"1121","","f","psychophysics","42","324926","0.0-7.0-3.0-0.28","6","5","6","5","5","5","2","5","5","5","5","1","0","2","1","0","0","1","0","4","5","5","2","4","5","3","4","5","4","6","5","5","6","6","5","6","6","5","5","6","6","7","6","6","5","7","6","6","1","6","5","7","7","5","6","7","5","7","7","7","6","6","5","6","6","7","5","7","7","7","6","5","7","7","7","6","6","7","5","768791430436229121","叶","403","Female","[""坏她"",""好我"",""好她"",""坏我""]","[""弱她"",""强我"",""强她"",""弱我""]","","","","","","","","no","","","","","","","","","SRET","EW_formal","","key","f","16.662204724409722","710.7407909492769","364.8148405862625","朋友","短视","Negative","ability","","","","","","","","","","",""
"1279","","f","psychophysics","43","327209","0.0-7.0-3.0-0.29","6","5","6","5","5","5","2","5","5","5","5","1","0","2","1","0","0","1","0","4","5","5","2","4","5","3","4","5","4","6","5","5","6","6","5","6","6","5","5","6","6","7","6","6","5","7","6","6","1","6","5","7","7","5","6","7","5","7","7","7","6","6","5","6","6","7","5","7","7","7","6","5","7","7","7","6","6","7","5","768791430436229121","叶","403","Female","[""坏她"",""好我"",""好她"",""坏我""]","[""弱她"",""强我"",""强她"",""弱我""]","","","","","","","","no","","","","","","","","","SRET","EW_formal","","key","f","16.6602941176474","710.7407909492769","364.8148405862625","朋友","无为","Negative","ability","","","","","","","","","","",""
"952","","j","psychophysics","44","329163","0.0-7.0-3.0-0.30","6","5","6","5","5","5","2","5","5","5","5","1","0","2","1","0","0","1","0","4","5","5","2","4","5","3","4","5","4","6","5","5","6","6","5","6","6","5","5","6","6","7","6","6","5","7","6","6","1","6","5","7","7","5","6","7","5","7","7","7","6","6","5","6","6","7","5","7","7","7","6","5","7","7","7","6","6","7","5","768791430436229121","叶","403","Female","[""坏她"",""好我"",""好她"",""坏我""]","[""弱她"",""强我"",""强她"",""弱我""]","","","","","","","","yes","","","","","","","","","SRET","EW_formal","","key","j","16.662931034482458","710.7407909492769","364.8148405862625","自己","礼貌","Positive","morality","","","","","","","","","","",""
"1027","","j","psychophysics","45","331195","0.0-7.0-3.0-0.31","6","5","6","5","5","5","2","5","5","5","5","1","0","2","1","0","0","1","0","4","5","5","2","4","5","3","4","5","4","6","5","5","6","6","5","6","6","5","5","6","6","7","6","6","5","7","6","6","1","6","5","7","7","5","6","7","5","7","7","7","6","6","5","6","6","7","5","7","7","7","6","5","7","7","7","6","6","7","5","768791430436229121","叶","403","Female","[""坏她"",""好我"",""好她"",""坏我""]","[""弱她"",""强我"",""强她"",""弱我""]","","","","","","","","yes","","","","","","","","","SRET","EW_formal","","key","j","16.661983471074187","710.7407909492769","364.8148405862625","自己","刻苦","Positive","ability","","","","","","","","","","",""
"1059","","f","psychophysics","46","333257","0.0-7.0-3.0-0.32","6","5","6","5","5","5","2","5","5","5","5","1","0","2","1","0","0","1","0","4","5","5","2","4","5","3","4","5","4","6","5","5","6","6","5","6","6","5","5","6","6","7","6","6","5","7","6","6","1","6","5","7","7","5","6","7","5","7","7","7","6","6","5","6","6","7","5","7","7","7","6","5","7","7","7","6","6","7","5","768791430436229121","叶","403","Female","[""坏她"",""好我"",""好她"",""坏我""]","[""弱她"",""强我"",""强她"",""弱我""]","","","","","","","","no","","","","","","","","","SRET","EW_formal","","key","f","16.66260162601626","710.7407909492769","364.8148405862625","朋友","愚钝","Negative","ability","","","","","","","","","","",""
"1020","","j","psychophysics","47","335281","0.0-7.0-3.0-0.33","6","5","6","5","5","5","2","5","5","5","5","1","0","2","1","0","0","1","0","4","5","5","2","4","5","3","4","5","4","6","5","5","6","6","5","6","6","5","5","6","6","7","6","6","5","7","6","6","1","6","5","7","7","5","6","7","5","7","7","7","6","6","5","6","6","7","5","7","7","7","6","5","7","7","7","6","6","7","5","768791430436229121","叶","403","Female","[""坏她"",""好我"",""好她"",""坏我""]","[""弱她"",""强我"",""强她"",""弱我""]","","","","","","","","yes","","","","","","","","","SRET","EW_formal","","key","j","16.6625","710.7407909492769","364.8148405862625","朋友","博学","Positive","ability","","","","","","","","","","",""
"1014","","f","psychophysics","48","337298","0.0-7.0-3.0-0.34","6","5","6","5","5","5","2","5","5","5","5","1","0","2","1","0","0","1","0","4","5","5","2","4","5","3","4","5","4","6","5","5","6","6","5","6","6","5","5","6","6","7","6","6","5","7","6","6","1","6","5","7","7","5","6","7","5","7","7","7","6","6","5","6","6","7","5","7","7","7","6","5","7","7","7","6","6","7","5","768791430436229121","叶","403","Female","[""坏她"",""好我"",""好她"",""坏我""]","[""弱她"",""强我"",""强她"",""弱我""]","","","","","","","","no","","","","","","","","","SRET","EW_formal","","key","f","16.66166666666686","710.7407909492769","364.8148405862625","朋友","罪恶","Negative","morality","","","","","","","","","","",""
"1790","","j","psychophysics","49","340091","0.0-7.0-3.0-0.35","6","5","6","5","5","5","2","5","5","5","5","1","0","2","1","0","0","1","0","4","5","5","2","4","5","3","4","5","4","6","5","5","6","6","5","6","6","5","5","6","6","7","6","6","5","7","6","6","1","6","5","7","7","5","6","7","5","7","7","7","6","6","5","6","6","7","5","7","7","7","6","5","7","7","7","6","6","7","5","768791430436229121","叶","403","Female","[""坏她"",""好我"",""好她"",""坏我""]","[""弱她"",""强我"",""强她"",""弱我""]","","","","","","","","yes","","","","","","","","","SRET","EW_formal","","key","j","16.662874251496728","710.7407909492769","364.8148405862625","自己","才尽","Negative","ability","","","","","","","","","","",""
"1804","","f","psychophysics","50","342898","0.0-7.0-3.0-0.36","6","5","6","5","5","5","2","5","5","5","5","1","0","2","1","0","0","1","0","4","5","5","2","4","5","3","4","5","4","6","5","5","6","6","5","6","6","5","5","6","6","7","6","6","5","7","6","6","1","6","5","7","7","5","6","7","5","7","7","7","6","6","5","6","6","7","5","7","7","7","6","5","7","7","7","6","6","7","5","768791430436229121","叶","403","Female","[""坏她"",""好我"",""好她"",""坏我""]","[""弱她"",""强我"",""强她"",""弱我""]","","","","","","","","no","","","","","","","","","SRET","EW_formal","","key","f","16.661676646706585","710.7407909492769","364.8148405862625","自己","毛糙","Negative","ability","","","","","","","","","","",""
"1515","","f","psychophysics","51","345417","0.0-7.0-3.0-0.37","6","5","6","5","5","5","2","5","5","5","5","1","0","2","1","0","0","1","0","4","5","5","2","4","5","3","4","5","4","6","5","5","6","6","5","6","6","5","5","6","6","7","6","6","5","7","6","6","1","6","5","7","7","5","6","7","5","7","7","7","6","6","5","6","6","7","5","7","7","7","6","5","7","7","7","6","6","7","5","768791430436229121","叶","403","Female","[""坏她"",""好我"",""好她"",""坏我""]","[""弱她"",""强我"",""强她"",""弱我""]","","","","","","","","no","","","","","","","","","SRET","EW_formal","","key","f","16.66200000000031","710.7407909492769","364.8148405862625","朋友","新手","Negative","ability","","","","","","","","","","",""
"655","","f","psychophysics","52","347075","0.0-7.0-3.0-0.38","6","5","6","5","5","5","2","5","5","5","5","1","0","2","1","0","0","1","0","4","5","5","2","4","5","3","4","5","4","6","5","5","6","6","5","6","6","5","5","6","6","7","6","6","5","7","6","6","1","6","5","7","7","5","6","7","5","7","7","7","6","6","5","6","6","7","5","7","7","7","6","5","7","7","7","6","6","7","5","768791430436229121","叶","403","Female","[""坏她"",""好我"",""好她"",""坏我""]","[""弱她"",""强我"",""强她"",""弱我""]","","","","","","","","no","","","","","","","","","SRET","EW_formal","","key","f","16.661616161616163","710.7407909492769","364.8148405862625","自己","歹毒","Negative","morality","","","","","","","","","","",""
"1015","","j","psychophysics","53","349094","0.0-7.0-3.0-0.39","6","5","6","5","5","5","2","5","5","5","5","1","0","2","1","0","0","1","0","4","5","5","2","4","5","3","4","5","4","6","5","5","6","6","5","6","6","5","5","6","6","7","6","6","5","7","6","6","1","6","5","7","7","5","6","7","5","7","7","7","6","6","5","6","6","7","5","7","7","7","6","5","7","7","7","6","6","7","5","768791430436229121","叶","403","Female","[""坏她"",""好我"",""好她"",""坏我""]","[""弱她"",""强我"",""强她"",""弱我""]","","","","","","","","yes","","","","","","","","","SRET","EW_formal","","key","j","16.661666666666374","710.7407909492769","364.8148405862625","自己","自律","Positive","ability","","","","","","","","","","",""
"904","","j","psychophysics","54","351002","0.0-7.0-3.0-0.40","6","5","6","5","5","5","2","5","5","5","5","1","0","2","1","0","0","1","0","4","5","5","2","4","5","3","4","5","4","6","5","5","6","6","5","6","6","5","5","6","6","7","6","6","5","7","6","6","1","6","5","7","7","5","6","7","5","7","7","7","6","6","5","6","6","7","5","7","7","7","6","5","7","7","7","6","6","7","5","768791430436229121","叶","403","Female","[""坏她"",""好我"",""好她"",""坏我""]","[""弱她"",""强我"",""强她"",""弱我""]","","","","","","","","yes","","","","","","","","","SRET","EW_formal","","key","j","16.660526315789372","710.7407909492769","364.8148405862625","朋友","慷慨","Positive","morality","","","","","","","","","","",""
"779","","f","psychophysics","55","352785","0.0-7.0-3.0-0.41","6","5","6","5","5","5","2","5","5","5","5","1","0","2","1","0","0","1","0","4","5","5","2","4","5","3","4","5","4","6","5","5","6","6","5","6","6","5","5","6","6","7","6","6","5","7","6","6","1","6","5","7","7","5","6","7","5","7","7","7","6","6","5","6","6","7","5","7","7","7","6","5","7","7","7","6","6","7","5","768791430436229121","叶","403","Female","[""坏她"",""好我"",""好她"",""坏我""]","[""弱她"",""强我"",""强她"",""弱我""]","","","","","","","","no","","","","","","","","","SRET","EW_formal","","key","f","16.662264150942956","710.7407909492769","364.8148405862625","朋友","诡诈","Negative","morality","","","","","","","","","","",""
"736","","j","psychophysics","56","354524","0.0-7.0-3.0-0.42","6","5","6","5","5","5","2","5","5","5","5","1","0","2","1","0","0","1","0","4","5","5","2","4","5","3","4","5","4","6","5","5","6","6","5","6","6","5","5","6","6","7","6","6","5","7","6","6","1","6","5","7","7","5","6","7","5","7","7","7","6","6","5","6","6","7","5","7","7","7","6","5","7","7","7","6","6","7","5","768791430436229121","叶","403","Female","[""坏她"",""好我"",""好她"",""坏我""]","[""弱她"",""强我"",""强她"",""弱我""]","","","","","","","","yes","","","","","","","","","SRET","EW_formal","","key","j","16.66213592233021","710.7407909492769","364.8148405862625","自己","热心","Positive","morality","","","","","","","","","","",""
"1083","","j","psychophysics","57","356610","0.0-7.0-3.0-0.43","6","5","6","5","5","5","2","5","5","5","5","1","0","2","1","0","0","1","0","4","5","5","2","4","5","3","4","5","4","6","5","5","6","6","5","6","6","5","5","6","6","7","6","6","5","7","6","6","1","6","5","7","7","5","6","7","5","7","7","7","6","6","5","6","6","7","5","7","7","7","6","5","7","7","7","6","6","7","5","768791430436229121","叶","403","Female","[""坏她"",""好我"",""好她"",""坏我""]","[""弱她"",""强我"",""强她"",""弱我""]","","","","","","","","yes","","","","","","","","","SRET","EW_formal","","key","j","16.666129032257878","710.7407909492769","364.8148405862625","朋友","廉正","Positive","morality","","","","","","","","","","",""
"937","","j","psychophysics","58","358551","0.0-7.0-3.0-0.44","6","5","6","5","5","5","2","5","5","5","5","1","0","2","1","0","0","1","0","4","5","5","2","4","5","3","4","5","4","6","5","5","6","6","5","6","6","5","5","6","6","7","6","6","5","7","6","6","1","6","5","7","7","5","6","7","5","7","7","7","6","6","5","6","6","7","5","7","7","7","6","5","7","7","7","6","6","7","5","768791430436229121","叶","403","Female","[""坏她"",""好我"",""好她"",""坏我""]","[""弱她"",""强我"",""强她"",""弱我""]","","","","","","","","yes","","","","","","","","","SRET","EW_formal","","key","j","16.662068965517644","710.7407909492769","364.8148405862625","朋友","娴熟","Positive","ability","","","","","","","","","","",""
"760","","j","psychophysics","59","360314","0.0-7.0-3.0-0.45","6","5","6","5","5","5","2","5","5","5","5","1","0","2","1","0","0","1","0","4","5","5","2","4","5","3","4","5","4","6","5","5","6","6","5","6","6","5","5","6","6","7","6","6","5","7","6","6","1","6","5","7","7","5","6","7","5","7","7","7","6","6","5","6","6","7","5","7","7","7","6","5","7","7","7","6","6","7","5","768791430436229121","叶","403","Female","[""坏她"",""好我"",""好她"",""坏我""]","[""弱她"",""强我"",""强她"",""弱我""]","","","","","","","","yes","","","","","","","","","SRET","EW_formal","","key","j","16.663809523809636","710.7407909492769","364.8148405862625","朋友","厚道","Positive","morality","","","","","","","","","","",""
"928","","f","psychophysics","60","362246","0.0-7.0-3.0-0.46","6","5","6","5","5","5","2","5","5","5","5","1","0","2","1","0","0","1","0","4","5","5","2","4","5","3","4","5","4","6","5","5","6","6","5","6","6","5","5","6","6","7","6","6","5","7","6","6","1","6","5","7","7","5","6","7","5","7","7","7","6","6","5","6","6","7","5","7","7","7","6","5","7","7","7","6","6","7","5","768791430436229121","叶","403","Female","[""坏她"",""好我"",""好她"",""坏我""]","[""弱她"",""强我"",""强她"",""弱我""]","","","","","","","","no","","","","","","","","","SRET","EW_formal","","key","f","16.660000000000203","710.7407909492769","364.8148405862625","朋友","黑心","Negative","morality","","","","","","","","","","",""
"1266","","j","psychophysics","61","364514","0.0-7.0-3.0-0.47","6","5","6","5","5","5","2","5","5","5","5","1","0","2","1","0","0","1","0","4","5","5","2","4","5","3","4","5","4","6","5","5","6","6","5","6","6","5","5","6","6","7","6","6","5","7","6","6","1","6","5","7","7","5","6","7","5","7","7","7","6","6","5","6","6","7","5","7","7","7","6","5","7","7","7","6","6","7","5","768791430436229121","叶","403","Female","[""坏她"",""好我"",""好她"",""坏我""]","[""弱她"",""强我"",""强她"",""弱我""]","","","","","","","","yes","","","","","","","","","SRET","EW_formal","","key","j","16.662222222222393","710.7407909492769","364.8148405862625","朋友","周到","Positive","ability","","","","","","","","","","",""
"899","","f","psychophysics","62","366416","0.0-7.0-3.0-0.48","6","5","6","5","5","5","2","5","5","5","5","1","0","2","1","0","0","1","0","4","5","5","2","4","5","3","4","5","4","6","5","5","6","6","5","6","6","5","5","6","6","7","6","6","5","7","6","6","1","6","5","7","7","5","6","7","5","7","7","7","6","6","5","6","6","7","5","7","7","7","6","5","7","7","7","6","6","7","5","768791430436229121","叶","403","Female","[""坏她"",""好我"",""好她"",""坏我""]","[""弱她"",""强我"",""强她"",""弱我""]","","","","","","","","no","","","","","","","","","SRET","EW_formal","","key","f","16.660176991150237","710.7407909492769","364.8148405862625","朋友","驽钝","Negative","ability","","","","","","","","","","",""
"743","","f","psychophysics","63","368162","0.0-7.0-3.0-0.49","6","5","6","5","5","5","2","5","5","5","5","1","0","2","1","0","0","1","0","4","5","5","2","4","5","3","4","5","4","6","5","5","6","6","5","6","6","5","5","6","6","7","6","6","5","7","6","6","1","6","5","7","7","5","6","7","5","7","7","7","6","6","5","6","6","7","5","7","7","7","6","5","7","7","7","6","6","7","5","768791430436229121","叶","403","Female","[""坏她"",""好我"",""好她"",""坏我""]","[""弱她"",""强我"",""强她"",""弱我""]","","","","","","","","no","","","","","","","","","SRET","EW_formal","","key","f","16.66153846153835","710.7407909492769","364.8148405862625","自己","狡诈","Negative","morality","","","","","","","","","","",""
"841","","j","psychophysics","64","370006","0.0-7.0-3.0-0.50","6","5","6","5","5","5","2","5","5","5","5","1","0","2","1","0","0","1","0","4","5","5","2","4","5","3","4","5","4","6","5","5","6","6","5","6","6","5","5","6","6","7","6","6","5","7","6","6","1","6","5","7","7","5","6","7","5","7","7","7","6","6","5","6","6","7","5","7","7","7","6","5","7","7","7","6","6","7","5","768791430436229121","叶","403","Female","[""坏她"",""好我"",""好她"",""坏我""]","[""弱她"",""强我"",""强她"",""弱我""]","","","","","","","","yes","","","","","","","","","SRET","EW_formal","","key","j","16.663302752293472","710.7407909492769","364.8148405862625","朋友","专注","Positive","ability","","","","","","","","","","",""
"991","","j","psychophysics","65","372001","0.0-7.0-3.0-0.51","6","5","6","5","5","5","2","5","5","5","5","1","0","2","1","0","0","1","0","4","5","5","2","4","5","3","4","5","4","6","5","5","6","6","5","6","6","5","5","6","6","7","6","6","5","7","6","6","1","6","5","7","7","5","6","7","5","7","7","7","6","6","5","6","6","7","5","7","7","7","6","5","7","7","7","6","6","7","5","768791430436229121","叶","403","Female","[""坏她"",""好我"",""好她"",""坏我""]","[""弱她"",""强我"",""强她"",""弱我""]","","","","","","","","yes","","","","","","","","","SRET","EW_formal","","key","j","16.66218487394948","710.7407909492769","364.8148405862625","自己","敏捷","Positive","ability","","","","","","","","","","",""
"707","","f","psychophysics","66","373711","0.0-7.0-3.0-0.52","6","5","6","5","5","5","2","5","5","5","5","1","0","2","1","0","0","1","0","4","5","5","2","4","5","3","4","5","4","6","5","5","6","6","5","6","6","5","5","6","6","7","6","6","5","7","6","6","1","6","5","7","7","5","6","7","5","7","7","7","6","6","5","6","6","7","5","7","7","7","6","5","7","7","7","6","6","7","5","768791430436229121","叶","403","Female","[""坏她"",""好我"",""好她"",""坏我""]","[""弱她"",""强我"",""强她"",""弱我""]","","","","","","","","no","","","","","","","","","SRET","EW_formal","","key","f","16.662745098039558","710.7407909492769","364.8148405862625","自己","贪腐","Negative","morality","","","","","","","","","","",""
"957","","f","psychophysics","67","375672","0.0-7.0-3.0-0.53","6","5","6","5","5","5","2","5","5","5","5","1","0","2","1","0","0","1","0","4","5","5","2","4","5","3","4","5","4","6","5","5","6","6","5","6","6","5","5","6","6","7","6","6","5","7","6","6","1","6","5","7","7","5","6","7","5","7","7","7","6","6","5","6","6","7","5","7","7","7","6","5","7","7","7","6","6","7","5","768791430436229121","叶","403","Female","[""坏她"",""好我"",""好她"",""坏我""]","[""弱她"",""强我"",""强她"",""弱我""]","","","","","","","","no","","","","","","","","","SRET","EW_formal","","key","f","16.80695652173903","710.7407909492769","364.8148405862625","朋友","狡狯","Negative","morality","","","","","","","","","","",""
"760","","j","psychophysics","68","377435","0.0-7.0-3.0-0.54","6","5","6","5","5","5","2","5","5","5","5","1","0","2","1","0","0","1","0","4","5","5","2","4","5","3","4","5","4","6","5","5","6","6","5","6","6","5","5","6","6","7","6","6","5","7","6","6","1","6","5","7","7","5","6","7","5","7","7","7","6","6","5","6","6","7","5","7","7","7","6","5","7","7","7","6","6","7","5","768791430436229121","叶","403","Female","[""坏她"",""好我"",""好她"",""坏我""]","[""弱她"",""强我"",""强她"",""弱我""]","","","","","","","","yes","","","","","","","","","SRET","EW_formal","","key","j","16.66190476190476","710.7407909492769","364.8148405862625","自己","谦逊","Positive","morality","","","","","","","","","","",""
"623","","j","psychophysics","69","379061","0.0-7.0-3.0-0.55","6","5","6","5","5","5","2","5","5","5","5","1","0","2","1","0","0","1","0","4","5","5","2","4","5","3","4","5","4","6","5","5","6","6","5","6","6","5","5","6","6","7","6","6","5","7","6","6","1","6","5","7","7","5","6","7","5","7","7","7","6","6","5","6","6","7","5","7","7","7","6","5","7","7","7","6","6","7","5","768791430436229121","叶","403","Female","[""坏她"",""好我"",""好她"",""坏我""]","[""弱她"",""强我"",""强她"",""弱我""]","","","","","","","","yes","","","","","","","","","SRET","EW_formal","","key","j","16.661855670102614","710.7407909492769","364.8148405862625","自己","坚持","Positive","ability","","","","","","","","","","",""
"1079","","j","psychophysics","70","381144","0.0-7.0-3.0-0.56","6","5","6","5","5","5","2","5","5","5","5","1","0","2","1","0","0","1","0","4","5","5","2","4","5","3","4","5","4","6","5","5","6","6","5","6","6","5","5","6","6","7","6","6","5","7","6","6","1","6","5","7","7","5","6","7","5","7","7","7","6","6","5","6","6","7","5","7","7","7","6","5","7","7","7","6","6","7","5","768791430436229121","叶","403","Female","[""坏她"",""好我"",""好她"",""坏我""]","[""弱她"",""强我"",""强她"",""弱我""]","","","","","","","","yes","","","","","","","","","SRET","EW_formal","","key","j","16.662096774193362","710.7407909492769","364.8148405862625","朋友","思辨","Positive","ability","","","","","","","","","","",""
"1476","","j","psychophysics","71","383624","0.0-7.0-3.0-0.57","6","5","6","5","5","5","2","5","5","5","5","1","0","2","1","0","0","1","0","4","5","5","2","4","5","3","4","5","4","6","5","5","6","6","5","6","6","5","5","6","6","7","6","6","5","7","6","6","1","6","5","7","7","5","6","7","5","7","7","7","6","6","5","6","6","7","5","7","7","7","6","5","7","7","7","6","6","7","5","768791430436229121","叶","403","Female","[""坏她"",""好我"",""好她"",""坏我""]","[""弱她"",""强我"",""强她"",""弱我""]","","","","","","","","yes","","","","","","","","","SRET","EW_formal","","key","j","16.66148648648625","710.7407909492769","364.8148405862625","自己","中用","Positive","ability","","","","","","","","","","",""
"706","","j","psychophysics","72","385330","0.0-7.0-3.0-0.58","6","5","6","5","5","5","2","5","5","5","5","1","0","2","1","0","0","1","0","4","5","5","2","4","5","3","4","5","4","6","5","5","6","6","5","6","6","5","5","6","6","7","6","6","5","7","6","6","1","6","5","7","7","5","6","7","5","7","7","7","6","6","5","6","6","7","5","7","7","7","6","5","7","7","7","6","6","7","5","768791430436229121","叶","403","Female","[""坏她"",""好我"",""好她"",""坏我""]","[""弱她"",""强我"",""强她"",""弱我""]","","","","","","","","yes","","","","","","","","","SRET","EW_formal","","key","j","16.661386138613747","710.7407909492769","364.8148405862625","自己","守法","Positive","morality","","","","","","","","","","",""
"885","","f","psychophysics","73","387218","0.0-7.0-3.0-0.59","6","5","6","5","5","5","2","5","5","5","5","1","0","2","1","0","0","1","0","4","5","5","2","4","5","3","4","5","4","6","5","5","6","6","5","6","6","5","5","6","6","7","6","6","5","7","6","6","1","6","5","7","7","5","6","7","5","7","7","7","6","6","5","6","6","7","5","7","7","7","6","5","7","7","7","6","6","7","5","768791430436229121","叶","403","Female","[""坏她"",""好我"",""好她"",""坏我""]","[""弱她"",""强我"",""强她"",""弱我""]","","","","","","","","no","","","","","","","","","SRET","EW_formal","","key","f","16.662500000000104","710.7407909492769","364.8148405862625","朋友","虚假","Negative","morality","","","","","","","","","","",""
"707","","f","psychophysics","74","388929","0.0-7.0-3.0-0.60","6","5","6","5","5","5","2","5","5","5","5","1","0","2","1","0","0","1","0","4","5","5","2","4","5","3","4","5","4","6","5","5","6","6","5","6","6","5","5","6","6","7","6","6","5","7","6","6","1","6","5","7","7","5","6","7","5","7","7","7","6","6","5","6","6","7","5","7","7","7","6","5","7","7","7","6","6","7","5","768791430436229121","叶","403","Female","[""坏她"",""好我"",""好她"",""坏我""]","[""弱她"",""强我"",""强她"",""弱我""]","","","","","","","","no","","","","","","","","","SRET","EW_formal","","key","f","16.66176470588235","710.7407909492769","364.8148405862625","朋友","浅薄","Negative","ability","","","","","","","","","","",""
"644","","j","psychophysics","75","390577","0.0-7.0-3.0-0.61","6","5","6","5","5","5","2","5","5","5","5","1","0","2","1","0","0","1","0","4","5","5","2","4","5","3","4","5","4","6","5","5","6","6","5","6","6","5","5","6","6","7","6","6","5","7","6","6","1","6","5","7","7","5","6","7","5","7","7","7","6","6","5","6","6","7","5","7","7","7","6","5","7","7","7","6","6","7","5","768791430436229121","叶","403","Female","[""坏她"",""好我"",""好她"",""坏我""]","[""弱她"",""强我"",""强她"",""弱我""]","","","","","","","","yes","","","","","","","","","SRET","EW_formal","","key","j","16.66020408163277","710.7407909492769","364.8148405862625","朋友","忠良","Positive","morality","","","","","","","","","","",""
"1134","","j","psychophysics","76","392715","0.0-7.0-3.0-0.62","6","5","6","5","5","5","2","5","5","5","5","1","0","2","1","0","0","1","0","4","5","5","2","4","5","3","4","5","4","6","5","5","6","6","5","6","6","5","5","6","6","7","6","6","5","7","6","6","1","6","5","7","7","5","6","7","5","7","7","7","6","6","5","6","6","7","5","7","7","7","6","5","7","7","7","6","6","7","5","768791430436229121","叶","403","Female","[""坏她"",""好我"",""好她"",""坏我""]","[""弱她"",""强我"",""强她"",""弱我""]","","","","","","","","yes","","","","","","","","","SRET","EW_formal","","key","j","16.662204724409264","710.7407909492769","364.8148405862625","自己","奉献","Positive","morality","","","","","","","","","","",""
"656","","j","psychophysics","77","394375","0.0-7.0-3.0-0.63","6","5","6","5","5","5","2","5","5","5","5","1","0","2","1","0","0","1","0","4","5","5","2","4","5","3","4","5","4","6","5","5","6","6","5","6","6","5","5","6","6","7","6","6","5","7","6","6","1","6","5","7","7","5","6","7","5","7","7","7","6","6","5","6","6","7","5","7","7","7","6","5","7","7","7","6","6","7","5","768791430436229121","叶","403","Female","[""坏她"",""好我"",""好她"",""坏我""]","[""弱她"",""强我"",""强她"",""弱我""]","","","","","","","","yes","","","","","","","","","SRET","EW_formal","","key","j","16.661616161616163","710.7407909492769","364.8148405862625","朋友","高洁","Positive","morality","","","","","","","","","","",""
"559","","j","psychophysics","78","395937","0.0-7.0-3.0-0.64","6","5","6","5","5","5","2","5","5","5","5","1","0","2","1","0","0","1","0","4","5","5","2","4","5","3","4","5","4","6","5","5","6","6","5","6","6","5","5","6","6","7","6","6","5","7","6","6","1","6","5","7","7","5","6","7","5","7","7","7","6","6","5","6","6","7","5","7","7","7","6","5","7","7","7","6","6","7","5","768791430436229121","叶","403","Female","[""坏她"",""好我"",""好她"",""坏我""]","[""弱她"",""强我"",""强她"",""弱我""]","","","","","","","","yes","","","","","","","","","SRET","EW_formal","","key","j","16.663440860214553","710.7407909492769","364.8148405862625","朋友","善良","Positive","morality","","","","","","","","","","",""
"1130","","j","psychophysics","79","398069","0.0-7.0-3.0-0.65","6","5","6","5","5","5","2","5","5","5","5","1","0","2","1","0","0","1","0","4","5","5","2","4","5","3","4","5","4","6","5","5","6","6","5","6","6","5","5","6","6","7","6","6","5","7","6","6","1","6","5","7","7","5","6","7","5","7","7","7","6","6","5","6","6","7","5","7","7","7","6","5","7","7","7","6","6","7","5","768791430436229121","叶","403","Female","[""坏她"",""好我"",""好她"",""坏我""]","[""弱她"",""强我"",""强她"",""弱我""]","","","","","","","","yes","","","","","","","","","SRET","EW_formal","","key","j","16.661417322834644","710.7407909492769","364.8148405862625","朋友","仗义","Positive","morality","","","","","","","","","","",""
"866","","j","psychophysics","80","399937","0.0-7.0-3.0-0.66","6","5","6","5","5","5","2","5","5","5","5","1","0","2","1","0","0","1","0","4","5","5","2","4","5","3","4","5","4","6","5","5","6","6","5","6","6","5","5","6","6","7","6","6","5","7","6","6","1","6","5","7","7","5","6","7","5","7","7","7","6","6","5","6","6","7","5","7","7","7","6","5","7","7","7","6","6","7","5","768791430436229121","叶","403","Female","[""坏她"",""好我"",""好她"",""坏我""]","[""弱她"",""强我"",""强她"",""弱我""]","","","","","","","","yes","","","","","","","","","SRET","EW_formal","","key","j","16.66216216216216","710.7407909492769","364.8148405862625","自己","利己","Negative","morality","","","","","","","","","","",""
"906","","f","psychophysics","81","401847","0.0-7.0-3.0-0.67","6","5","6","5","5","5","2","5","5","5","5","1","0","2","1","0","0","1","0","4","5","5","2","4","5","3","4","5","4","6","5","5","6","6","5","6","6","5","5","6","6","7","6","6","5","7","6","6","1","6","5","7","7","5","6","7","5","7","7","7","6","6","5","6","6","7","5","7","7","7","6","5","7","7","7","6","6","7","5","768791430436229121","叶","403","Female","[""坏她"",""好我"",""好她"",""坏我""]","[""弱她"",""强我"",""强她"",""弱我""]","","","","","","","","no","","","","","","","","","SRET","EW_formal","","key","f","16.663716814159294","710.7407909492769","364.8148405862625","朋友","势利","Negative","morality","","","","","","","","","","",""
"686","","f","psychophysics","82","403538","0.0-7.0-3.0-0.68","6","5","6","5","5","5","2","5","5","5","5","1","0","2","1","0","0","1","0","4","5","5","2","4","5","3","4","5","4","6","5","5","6","6","5","6","6","5","5","6","6","7","6","6","5","7","6","6","1","6","5","7","7","5","6","7","5","7","7","7","6","6","5","6","6","7","5","7","7","7","6","5","7","7","7","6","6","7","5","768791430436229121","叶","403","Female","[""坏她"",""好我"",""好她"",""坏我""]","[""弱她"",""强我"",""强她"",""弱我""]","","","","","","","","no","","","","","","","","","SRET","EW_formal","","key","f","16.661386138613747","710.7407909492769","364.8148405862625","朋友","贪污","Negative","morality","","","","","","","","","","",""
"950","","j","psychophysics","83","405490","0.0-7.0-3.0-0.69","6","5","6","5","5","5","2","5","5","5","5","1","0","2","1","0","0","1","0","4","5","5","2","4","5","3","4","5","4","6","5","5","6","6","5","6","6","5","5","6","6","7","6","6","5","7","6","6","1","6","5","7","7","5","6","7","5","7","7","7","6","6","5","6","6","7","5","7","7","7","6","5","7","7","7","6","6","7","5","768791430436229121","叶","403","Female","[""坏她"",""好我"",""好她"",""坏我""]","[""弱她"",""强我"",""强她"",""弱我""]","","","","","","","","yes","","","","","","","","","SRET","EW_formal","","key","j","16.661206896551825","710.7407909492769","364.8148405862625","自己","忠勇","Positive","morality","","","","","","","","","","",""
"1479","","f","psychophysics","84","407972","0.0-7.0-3.0-0.70","6","5","6","5","5","5","2","5","5","5","5","1","0","2","1","0","0","1","0","4","5","5","2","4","5","3","4","5","4","6","5","5","6","6","5","6","6","5","5","6","6","7","6","6","5","7","6","6","1","6","5","7","7","5","6","7","5","7","7","7","6","6","5","6","6","7","5","7","7","7","6","5","7","7","7","6","6","7","5","768791430436229121","叶","403","Female","[""坏她"",""好我"",""好她"",""坏我""]","[""弱她"",""强我"",""强她"",""弱我""]","","","","","","","","no","","","","","","","","","SRET","EW_formal","","key","f","16.66216216216216","710.7407909492769","364.8148405862625","自己","拙笨","Negative","ability","","","","","","","","","","",""
"795","","f","psychophysics","85","409771","0.0-7.0-3.0-0.71","6","5","6","5","5","5","2","5","5","5","5","1","0","2","1","0","0","1","0","4","5","5","2","4","5","3","4","5","4","6","5","5","6","6","5","6","6","5","5","6","6","7","6","6","5","7","6","6","1","6","5","7","7","5","6","7","5","7","7","7","6","6","5","6","6","7","5","7","7","7","6","5","7","7","7","6","6","7","5","768791430436229121","叶","403","Female","[""坏她"",""好我"",""好她"",""坏我""]","[""弱她"",""强我"",""强她"",""弱我""]","","","","","","","","no","","","","","","","","","SRET","EW_formal","","key","f","16.97904761904751","710.7407909492769","364.8148405862625","朋友","卑鄙","Negative","morality","","","","","","","","","","",""
"649","","j","psychophysics","86","411422","0.0-7.0-3.0-0.72","6","5","6","5","5","5","2","5","5","5","5","1","0","2","1","0","0","1","0","4","5","5","2","4","5","3","4","5","4","6","5","5","6","6","5","6","6","5","5","6","6","7","6","6","5","7","6","6","1","6","5","7","7","5","6","7","5","7","7","7","6","6","5","6","6","7","5","7","7","7","6","5","7","7","7","6","6","7","5","768791430436229121","叶","403","Female","[""坏她"",""好我"",""好她"",""坏我""]","[""弱她"",""强我"",""强她"",""弱我""]","","","","","","","","yes","","","","","","","","","SRET","EW_formal","","key","j","16.66224489795883","710.7407909492769","364.8148405862625","自己","义气","Positive","morality","","","","","","","","","","",""
"859","","j","psychophysics","87","413284","0.0-7.0-3.0-0.73","6","5","6","5","5","5","2","5","5","5","5","1","0","2","1","0","0","1","0","4","5","5","2","4","5","3","4","5","4","6","5","5","6","6","5","6","6","5","5","6","6","7","6","6","5","7","6","6","1","6","5","7","7","5","6","7","5","7","7","7","6","6","5","6","6","7","5","7","7","7","6","5","7","7","7","6","6","7","5","768791430436229121","叶","403","Female","[""坏她"",""好我"",""好她"",""坏我""]","[""弱她"",""强我"",""强她"",""弱我""]","","","","","","","","yes","","","","","","","","","SRET","EW_formal","","key","j","16.66216216216216","710.7407909492769","364.8148405862625","朋友","骁勇","Positive","ability","","","","","","","","","","",""
"1563","","f","psychophysics","88","415850","0.0-7.0-3.0-0.74","6","5","6","5","5","5","2","5","5","5","5","1","0","2","1","0","0","1","0","4","5","5","2","4","5","3","4","5","4","6","5","5","6","6","5","6","6","5","5","6","6","7","6","6","5","7","6","6","1","6","5","7","7","5","6","7","5","7","7","7","6","6","5","6","6","7","5","7","7","7","6","5","7","7","7","6","6","7","5","768791430436229121","叶","403","Female","[""坏她"",""好我"",""好她"",""坏我""]","[""弱她"",""强我"",""强她"",""弱我""]","","","","","","","","no","","","","","","","","","SRET","EW_formal","","key","f","16.662745098039366","710.7407909492769","364.8148405862625","朋友","畏难","Negative","ability","","","","","","","","","","",""
"812","","f","psychophysics","89","417665","0.0-7.0-3.0-0.75","6","5","6","5","5","5","2","5","5","5","5","1","0","2","1","0","0","1","0","4","5","5","2","4","5","3","4","5","4","6","5","5","6","6","5","6","6","5","5","6","6","7","6","6","5","7","6","6","1","6","5","7","7","5","6","7","5","7","7","7","6","6","5","6","6","7","5","7","7","7","6","5","7","7","7","6","6","7","5","768791430436229121","叶","403","Female","[""坏她"",""好我"",""好她"",""坏我""]","[""弱她"",""强我"",""强她"",""弱我""]","","","","","","","","no","","","","","","","","","SRET","EW_formal","","key","f","16.97735849056582","710.7407909492769","364.8148405862625","自己","愚蠢","Negative","ability","","","","","","","","","","",""
"1177","","j","psychophysics","90","419846","0.0-7.0-3.0-0.76","6","5","6","5","5","5","2","5","5","5","5","1","0","2","1","0","0","1","0","4","5","5","2","4","5","3","4","5","4","6","5","5","6","6","5","6","6","5","5","6","6","7","6","6","5","7","6","6","1","6","5","7","7","5","6","7","5","7","7","7","6","6","5","6","6","7","5","7","7","7","6","5","7","7","7","6","6","7","5","768791430436229121","叶","403","Female","[""坏她"",""好我"",""好她"",""坏我""]","[""弱她"",""强我"",""强她"",""弱我""]","","","","","","","","yes","","","","","","","","","SRET","EW_formal","","key","j","16.663076923077014","710.7407909492769","364.8148405862625","朋友","慈悲","Positive","morality","","","","","","","","","","",""
"1380","","j","psychophysics","91","422230","0.0-7.0-3.0-0.77","6","5","6","5","5","5","2","5","5","5","5","1","0","2","1","0","0","1","0","4","5","5","2","4","5","3","4","5","4","6","5","5","6","6","5","6","6","5","5","6","6","7","6","6","5","7","6","6","1","6","5","7","7","5","6","7","5","7","7","7","6","6","5","6","6","7","5","7","7","7","6","5","7","7","7","6","6","7","5","768791430436229121","叶","403","Female","[""坏她"",""好我"",""好她"",""坏我""]","[""弱她"",""强我"",""强她"",""弱我""]","","","","","","","","yes","","","","","","","","","SRET","EW_formal","","key","j","16.661971830985916","710.7407909492769","364.8148405862625","自己","高尚","Positive","morality","","","","","","","","","","",""
"897","","j","psychophysics","92","424129","0.0-7.0-3.0-0.78","6","5","6","5","5","5","2","5","5","5","5","1","0","2","1","0","0","1","0","4","5","5","2","4","5","3","4","5","4","6","5","5","6","6","5","6","6","5","5","6","6","7","6","6","5","7","6","6","1","6","5","7","7","5","6","7","5","7","7","7","6","6","5","6","6","7","5","7","7","7","6","5","7","7","7","6","6","7","5","768791430436229121","叶","403","Female","[""坏她"",""好我"",""好她"",""坏我""]","[""弱她"",""强我"",""强她"",""弱我""]","","","","","","","","yes","","","","","","","","","SRET","EW_formal","","key","j","16.663716814159294","710.7407909492769","364.8148405862625","朋友","稳健","Positive","ability","","","","","","","","","","",""
"1359","","f","psychophysics","93","426492","0.0-7.0-3.0-0.79","6","5","6","5","5","5","2","5","5","5","5","1","0","2","1","0","0","1","0","4","5","5","2","4","5","3","4","5","4","6","5","5","6","6","5","6","6","5","5","6","6","7","6","6","5","7","6","6","1","6","5","7","7","5","6","7","5","7","7","7","6","6","5","6","6","7","5","7","7","7","6","5","7","7","7","6","6","7","5","768791430436229121","叶","403","Female","[""坏她"",""好我"",""好她"",""坏我""]","[""弱她"",""强我"",""强她"",""弱我""]","","","","","","","","no","","","","","","","","","SRET","EW_formal","","key","f","16.662411347517896","710.7407909492769","364.8148405862625","自己","小人","Negative","morality","","","","","","","","","","",""
"1013","","j","psychophysics","94","428509","0.0-7.0-3.0-0.80","6","5","6","5","5","5","2","5","5","5","5","1","0","2","1","0","0","1","0","4","5","5","2","4","5","3","4","5","4","6","5","5","6","6","5","6","6","5","5","6","6","7","6","6","5","7","6","6","1","6","5","7","7","5","6","7","5","7","7","7","6","6","5","6","6","7","5","7","7","7","6","5","7","7","7","6","6","7","5","768791430436229121","叶","403","Female","[""坏她"",""好我"",""好她"",""坏我""]","[""弱她"",""强我"",""强她"",""弱我""]","","","","","","","","yes","","","","","","","","","SRET","EW_formal","","key","j","16.66333333333314","710.7407909492769","364.8148405862625","自己","果断","Positive","ability","","","","","","","","","","",""
"685","","j","psychophysics","95","430196","0.0-7.0-3.0-0.81","6","5","6","5","5","5","2","5","5","5","5","1","0","2","1","0","0","1","0","4","5","5","2","4","5","3","4","5","4","6","5","5","6","6","5","6","6","5","5","6","6","7","6","6","5","7","6","6","1","6","5","7","7","5","6","7","5","7","7","7","6","6","5","6","6","7","5","7","7","7","6","5","7","7","7","6","6","7","5","768791430436229121","叶","403","Female","[""坏她"",""好我"",""好她"",""坏我""]","[""弱她"",""强我"",""强她"",""弱我""]","","","","","","","","yes","","","","","","","","","SRET","EW_formal","","key","j","16.662000000000116","710.7407909492769","364.8148405862625","自己","全才","Positive","ability","","","","","","","","","","",""
"1216","","f","psychophysics","96","432415","0.0-7.0-3.0-0.82","6","5","6","5","5","5","2","5","5","5","5","1","0","2","1","0","0","1","0","4","5","5","2","4","5","3","4","5","4","6","5","5","6","6","5","6","6","5","5","6","6","7","6","6","5","7","6","6","1","6","5","7","7","5","6","7","5","7","7","7","6","6","5","6","6","7","5","7","7","7","6","5","7","7","7","6","6","7","5","768791430436229121","叶","403","Female","[""坏她"",""好我"",""好她"",""坏我""]","[""弱她"",""强我"",""强她"",""弱我""]","","","","","","","","no","","","","","","","","","SRET","EW_formal","","key","f","16.662121212120947","710.7407909492769","364.8148405862625","自己","屈才","Negative","ability","","","","","","","","","","",""
"890","","j","psychophysics","97","434307","0.0-7.0-3.0-0.83","6","5","6","5","5","5","2","5","5","5","5","1","0","2","1","0","0","1","0","4","5","5","2","4","5","3","4","5","4","6","5","5","6","6","5","6","6","5","5","6","6","7","6","6","5","7","6","6","1","6","5","7","7","5","6","7","5","7","7","7","6","6","5","6","6","7","5","7","7","7","6","5","7","7","7","6","6","7","5","768791430436229121","叶","403","Female","[""坏她"",""好我"",""好她"",""坏我""]","[""弱她"",""强我"",""强她"",""弱我""]","","","","","","","","yes","","","","","","","","","SRET","EW_formal","","key","j","16.663716814159294","710.7407909492769","364.8148405862625","自己","无敌","Positive","ability","","","","","","","","","","",""
"1156","","f","psychophysics","98","436466","0.0-7.0-3.0-0.84","6","5","6","5","5","5","2","5","5","5","5","1","0","2","1","0","0","1","0","4","5","5","2","4","5","3","4","5","4","6","5","5","6","6","5","6","6","5","5","6","6","7","6","6","5","7","6","6","1","6","5","7","7","5","6","7","5","7","7","7","6","6","5","6","6","7","5","7","7","7","6","5","7","7","7","6","6","7","5","768791430436229121","叶","403","Female","[""坏她"",""好我"",""好她"",""坏我""]","[""弱她"",""强我"",""强她"",""弱我""]","","","","","","","","no","","","","","","","","","SRET","EW_formal","","key","f","16.660937500000273","710.7407909492769","364.8148405862625","自己","缓慢","Negative","ability","","","","","","","","","","",""
"725","","f","psychophysics","99","438192","0.0-7.0-3.0-0.85","6","5","6","5","5","5","2","5","5","5","5","1","0","2","1","0","0","1","0","4","5","5","2","4","5","3","4","5","4","6","5","5","6","6","5","6","6","5","5","6","6","7","6","6","5","7","6","6","1","6","5","7","7","5","6","7","5","7","7","7","6","6","5","6","6","7","5","7","7","7","6","5","7","7","7","6","6","7","5","768791430436229121","叶","403","Female","[""坏她"",""好我"",""好她"",""坏我""]","[""弱她"",""强我"",""强她"",""弱我""]","","","","","","","","no","","","","","","","","","SRET","EW_formal","","key","f","16.99306930693058","710.7407909492769","364.8148405862625","朋友","低俗","Negative","morality","","","","","","","","","","",""
"1189","","j","psychophysics","100","440384","0.0-7.0-3.0-0.86","6","5","6","5","5","5","2","5","5","5","5","1","0","2","1","0","0","1","0","4","5","5","2","4","5","3","4","5","4","6","5","5","6","6","5","6","6","5","5","6","6","7","6","6","5","7","6","6","1","6","5","7","7","5","6","7","5","7","7","7","6","6","5","6","6","7","5","7","7","7","6","5","7","7","7","6","6","7","5","768791430436229121","叶","403","Female","[""坏她"",""好我"",""好她"",""坏我""]","[""弱她"",""强我"",""强她"",""弱我""]","","","","","","","","yes","","","","","","","","","SRET","EW_formal","","key","j","16.662307692307515","710.7407909492769","364.8148405862625","朋友","素养","Positive","morality","","","","","","","","","","",""
"806","","j","psychophysics","101","442194","0.0-7.0-3.0-0.87","6","5","6","5","5","5","2","5","5","5","5","1","0","2","1","0","0","1","0","4","5","5","2","4","5","3","4","5","4","6","5","5","6","6","5","6","6","5","5","6","6","7","6","6","5","7","6","6","1","6","5","7","7","5","6","7","5","7","7","7","6","6","5","6","6","7","5","7","7","7","6","5","7","7","7","6","6","7","5","768791430436229121","叶","403","Female","[""坏她"",""好我"",""好她"",""坏我""]","[""弱她"",""强我"",""强她"",""弱我""]","","","","","","","","yes","","","","","","","","","SRET","EW_formal","","key","j","16.662037037037038","710.7407909492769","364.8148405862625","自己","主见","Positive","ability","","","","","","","","","","",""
"13569","
    <p><div style='color:white;font-size:35px; line-height:20px;'>计算任务</div></p><br>
    <p><div style='color:red;font-size:25px; line-height:20px;'>接下来，您将看到一些四则运算题，<b>请从键盘选择 0-9 进行反应。</b></div></p>
    <p><div style='color:red;font-size:25px; line-height:20px;'>请尽可能快地进行计算，计算的速度和正确率将影响报酬的发放。</div></p>
    <p><div class='footer' style='color:white;font-size:25px; line-height:20px;'>如果对本实验还有不清楚之处，请立即向实验员咨询。</p><p style='color:white;font-size:25px; line-height:20px;'>如果您明白了规则：</p><p style='color:white;font-size:22px; line-height:20px;'>请按 继续 进入练习</p>
    </div>
    ","0","html-button-response","102","455766","0.0-7.0-4.0","6","5","6","5","5","5","2","5","5","5","5","1","0","2","1","0","0","1","0","4","5","5","2","4","5","3","4","5","4","6","5","5","6","6","5","6","6","5","5","6","6","7","6","6","5","7","6","6","1","6","5","7","7","5","6","7","5","7","7","7","6","6","5","6","6","7","5","7","7","7","6","5","7","7","7","6","6","7","5","768791430436229121","叶","403","Female","[""坏她"",""好我"",""好她"",""坏我""]","[""弱她"",""强我"",""强她"",""弱我""]","","","","","","","","","","","","","","","","","SRET_math","math_instructions","Wed Jan 03 2024 21:18:37 GMT+0800 (中国标准时间)","","","","","","","","","","","","","","","","","","","",""
"2061","","0","psychophysics","103","457830","0.0-7.0-5.0-0.0","6","5","6","5","5","5","2","5","5","5","5","1","0","2","1","0","0","1","0","4","5","5","2","4","5","3","4","5","4","6","5","5","6","6","5","6","6","5","5","6","6","7","6","6","5","7","6","6","1","6","5","7","7","5","6","7","5","7","7","7","6","6","5","6","6","7","5","7","7","7","6","5","7","7","7","6","6","7","5","768791430436229121","叶","403","Female","[""坏她"",""好我"",""好她"",""坏我""]","[""弱她"",""强我"",""强她"",""弱我""]","","","","","","","","0","","","","","","","","","SRET","SRET_math_calculate","","key","0","16.65161290322571","710.7407909492769","364.8148405862625","","","","","7*0= ?","0","1","","","","","","","",""
"2327","","6","psychophysics","104","460163","0.0-7.0-5.0-0.1","6","5","6","5","5","5","2","5","5","5","5","1","0","2","1","0","0","1","0","4","5","5","2","4","5","3","4","5","4","6","5","5","6","6","5","6","6","5","5","6","6","7","6","6","5","7","6","6","1","6","5","7","7","5","6","7","5","7","7","7","6","6","5","6","6","7","5","7","7","7","6","5","7","7","7","6","6","7","5","768791430436229121","叶","403","Female","[""坏她"",""好我"",""好她"",""坏我""]","[""弱她"",""强我"",""强她"",""弱我""]","","","","","","","","6","","","","","","","","","SRET","SRET_math_calculate","","key","6","16.662589928057805","710.7407909492769","364.8148405862625","","","","","3+3= ?","6","1","","","","","","","",""
"2233","","8","psychophysics","105","462401","0.0-7.0-5.0-0.2","6","5","6","5","5","5","2","5","5","5","5","1","0","2","1","0","0","1","0","4","5","5","2","4","5","3","4","5","4","6","5","5","6","6","5","6","6","5","5","6","6","7","6","6","5","7","6","6","1","6","5","7","7","5","6","7","5","7","7","7","6","6","5","6","6","7","5","7","7","7","6","5","7","7","7","6","6","7","5","768791430436229121","叶","403","Female","[""坏她"",""好我"",""好她"",""坏我""]","[""弱她"",""强我"",""强她"",""弱我""]","","","","","","","","8","","","","","","","","","SRET","SRET_math_calculate","","key","8","16.661654135338345","710.7407909492769","364.8148405862625","","","","","4*2= ?","8","1","","","","","","","",""
"2085","","2","psychophysics","106","464490","0.0-7.0-5.0-0.3","6","5","6","5","5","5","2","5","5","5","5","1","0","2","1","0","0","1","0","4","5","5","2","4","5","3","4","5","4","6","5","5","6","6","5","6","6","5","5","6","6","7","6","6","5","7","6","6","1","6","5","7","7","5","6","7","5","7","7","7","6","6","5","6","6","7","5","7","7","7","6","5","7","7","7","6","6","7","5","768791430436229121","叶","403","Female","[""坏她"",""好我"",""好她"",""坏我""]","[""弱她"",""强我"",""强她"",""弱我""]","","","","","","","","2","","","","","","","","","SRET","SRET_math_calculate","","key","2","16.662096774193362","710.7407909492769","364.8148405862625","","","","","5-3= ?","2","1","","","","","","","",""
"2163","","7","psychophysics","107","466660","0.0-7.0-5.0-0.4","6","5","6","5","5","5","2","5","5","5","5","1","0","2","1","0","0","1","0","4","5","5","2","4","5","3","4","5","4","6","5","5","6","6","5","6","6","5","5","6","6","7","6","6","5","7","6","6","1","6","5","7","7","5","6","7","5","7","7","7","6","6","5","6","6","7","5","7","7","7","6","5","7","7","7","6","6","7","5","768791430436229121","叶","403","Female","[""坏她"",""好我"",""好她"",""坏我""]","[""弱她"",""强我"",""强她"",""弱我""]","","","","","","","","7","","","","","","","","","SRET","SRET_math_calculate","","key","7","16.661538461538463","710.7407909492769","364.8148405862625","","","","","8-1= ?","7","1","","","","","","","",""
"2282","","2","psychophysics","108","468948","0.0-7.0-5.0-0.5","6","5","6","5","5","5","2","5","5","5","5","1","0","2","1","0","0","1","0","4","5","5","2","4","5","3","4","5","4","6","5","5","6","6","5","6","6","5","5","6","6","7","6","6","5","7","6","6","1","6","5","7","7","5","6","7","5","7","7","7","6","6","5","6","6","7","5","7","7","7","6","5","7","7","7","6","6","7","5","768791430436229121","叶","403","Female","[""坏她"",""好我"",""好她"",""坏我""]","[""弱她"",""强我"",""强她"",""弱我""]","","","","","","","","2","","","","","","","","","SRET","SRET_math_calculate","","key","2","16.66176470588235","710.7407909492769","364.8148405862625","","","","","19-17= ?","2","1","","","","","","","",""
"2041","","7","psychophysics","109","470993","0.0-7.0-5.0-0.6","6","5","6","5","5","5","2","5","5","5","5","1","0","2","1","0","0","1","0","4","5","5","2","4","5","3","4","5","4","6","5","5","6","6","5","6","6","5","5","6","6","7","6","6","5","7","6","6","1","6","5","7","7","5","6","7","5","7","7","7","6","6","5","6","6","7","5","7","7","7","6","5","7","7","7","6","6","7","5","768791430436229121","叶","403","Female","[""坏她"",""好我"",""好她"",""坏我""]","[""弱她"",""强我"",""强她"",""弱我""]","","","","","","","","7","","","","","","","","","SRET","SRET_math_calculate","","key","7","16.663114754098075","710.7407909492769","364.8148405862625","","","","","1+6= ?","7","1","","","","","","","",""
"2437","","9","psychophysics","110","473437","0.0-7.0-5.0-0.7","6","5","6","5","5","5","2","5","5","5","5","1","0","2","1","0","0","1","0","4","5","5","2","4","5","3","4","5","4","6","5","5","6","6","5","6","6","5","5","6","6","7","6","6","5","7","6","6","1","6","5","7","7","5","6","7","5","7","7","7","6","6","5","6","6","7","5","7","7","7","6","5","7","7","7","6","6","7","5","768791430436229121","叶","403","Female","[""坏她"",""好我"",""好她"",""坏我""]","[""弱她"",""强我"",""强她"",""弱我""]","","","","","","","","9","","","","","","","","","SRET","SRET_math_calculate","","key","9","16.662758620689495","710.7407909492769","364.8148405862625","","","","","1*9= ?","9","1","","","","","","","",""
"2290","","5","psychophysics","111","475734","0.0-7.0-5.0-0.8","6","5","6","5","5","5","2","5","5","5","5","1","0","2","1","0","0","1","0","4","5","5","2","4","5","3","4","5","4","6","5","5","6","6","5","6","6","5","5","6","6","7","6","6","5","7","6","6","1","6","5","7","7","5","6","7","5","7","7","7","6","6","5","6","6","7","5","7","7","7","6","5","7","7","7","6","6","7","5","768791430436229121","叶","403","Female","[""坏她"",""好我"",""好她"",""坏我""]","[""弱她"",""强我"",""强她"",""弱我""]","","","","","","","","5","","","","","","","","","SRET","SRET_math_calculate","","key","5","16.662043795620523","710.7407909492769","364.8148405862625","","","","","15-10= ?","5","1","","","","","","","",""
"2374","","1","psychophysics","112","478114","0.0-7.0-5.0-0.9","6","5","6","5","5","5","2","5","5","5","5","1","0","2","1","0","0","1","0","4","5","5","2","4","5","3","4","5","4","6","5","5","6","6","5","6","6","5","5","6","6","7","6","6","5","7","6","6","1","6","5","7","7","5","6","7","5","7","7","7","6","6","5","6","6","7","5","7","7","7","6","5","7","7","7","6","6","7","5","768791430436229121","叶","403","Female","[""坏她"",""好我"",""好她"",""坏我""]","[""弱她"",""强我"",""强她"",""弱我""]","","","","","","","","1","","","","","","","","","SRET","SRET_math_calculate","","key","1","16.661267605633558","710.7407909492769","364.8148405862625","","","","","50-42= ?","8","0","","","","","","","",""
"2088","","9","psychophysics","113","480206","0.0-7.0-5.0-0.10","6","5","6","5","5","5","2","5","5","5","5","1","0","2","1","0","0","1","0","4","5","5","2","4","5","3","4","5","4","6","5","5","6","6","5","6","6","5","5","6","6","7","6","6","5","7","6","6","1","6","5","7","7","5","6","7","5","7","7","7","6","6","5","6","6","7","5","7","7","7","6","5","7","7","7","6","6","7","5","768791430436229121","叶","403","Female","[""坏她"",""好我"",""好她"",""坏我""]","[""弱她"",""强我"",""强她"",""弱我""]","","","","","","","","9","","","","","","","","","SRET","SRET_math_calculate","","key","9","16.66319999999972","710.7407909492769","364.8148405862625","","","","","1+8= ?","9","1","","","","","","","",""
"2448","","5","psychophysics","114","482660","0.0-7.0-5.0-0.11","6","5","6","5","5","5","2","5","5","5","5","1","0","2","1","0","0","1","0","4","5","5","2","4","5","3","4","5","4","6","5","5","6","6","5","6","6","5","5","6","6","7","6","6","5","7","6","6","1","6","5","7","7","5","6","7","5","7","7","7","6","6","5","6","6","7","5","7","7","7","6","5","7","7","7","6","6","7","5","768791430436229121","叶","403","Female","[""坏她"",""好我"",""好她"",""坏我""]","[""弱她"",""强我"",""强她"",""弱我""]","","","","","","","","5","","","","","","","","","SRET","SRET_math_calculate","","key","5","16.662328767123366","710.7407909492769","364.8148405862625","","","","","10-5= ?","5","1","","","","","","","",""
"1950","","8","psychophysics","115","484615","0.0-7.0-5.0-0.12","6","5","6","5","5","5","2","5","5","5","5","1","0","2","1","0","0","1","0","4","5","5","2","4","5","3","4","5","4","6","5","5","6","6","5","6","6","5","5","6","6","7","6","6","5","7","6","6","1","6","5","7","7","5","6","7","5","7","7","7","6","6","5","6","6","7","5","7","7","7","6","5","7","7","7","6","6","7","5","768791430436229121","叶","403","Female","[""坏她"",""好我"",""好她"",""坏我""]","[""弱她"",""强我"",""强她"",""弱我""]","","","","","","","","8","","","","","","","","","SRET","SRET_math_calculate","","key","8","16.663793103448278","710.7407909492769","364.8148405862625","","","","","9-1= ?","8","1","","","","","","","",""
"2214","","3","psychophysics","116","486837","0.0-7.0-5.0-0.13","6","5","6","5","5","5","2","5","5","5","5","1","0","2","1","0","0","1","0","4","5","5","2","4","5","3","4","5","4","6","5","5","6","6","5","6","6","5","5","6","6","7","6","6","5","7","6","6","1","6","5","7","7","5","6","7","5","7","7","7","6","6","5","6","6","7","5","7","7","7","6","5","7","7","7","6","6","7","5","768791430436229121","叶","403","Female","[""坏她"",""好我"",""好她"",""坏我""]","[""弱她"",""强我"",""强她"",""弱我""]","","","","","","","","3","","","","","","","","","SRET","SRET_math_calculate","","key","3","16.660902255638835","710.7407909492769","364.8148405862625","","","","","11-8= ?","3","1","","","","","","","",""
"2249","","8","psychophysics","117","489091","0.0-7.0-5.0-0.14","6","5","6","5","5","5","2","5","5","5","5","1","0","2","1","0","0","1","0","4","5","5","2","4","5","3","4","5","4","6","5","5","6","6","5","6","6","5","5","6","6","7","6","6","5","7","6","6","1","6","5","7","7","5","6","7","5","7","7","7","6","6","5","6","6","7","5","7","7","7","6","5","7","7","7","6","6","7","5","768791430436229121","叶","403","Female","[""坏她"",""好我"",""好她"",""坏我""]","[""弱她"",""强我"",""强她"",""弱我""]","","","","","","","","8","","","","","","","","","SRET","SRET_math_calculate","","key","8","16.66194029850755","710.7407909492769","364.8148405862625","","","","","56/7= ?","8","1","","","","","","","",""
"1948","","7","psychophysics","118","491041","0.0-7.0-5.0-0.15","6","5","6","5","5","5","2","5","5","5","5","1","0","2","1","0","0","1","0","4","5","5","2","4","5","3","4","5","4","6","5","5","6","6","5","6","6","5","5","6","6","7","6","6","5","7","6","6","1","6","5","7","7","5","6","7","5","7","7","7","6","6","5","6","6","7","5","7","7","7","6","5","7","7","7","6","6","7","5","768791430436229121","叶","403","Female","[""坏她"",""好我"",""好她"",""坏我""]","[""弱她"",""强我"",""强她"",""弱我""]","","","","","","","","7","","","","","","","","","SRET","SRET_math_calculate","","key","7","16.66293103448296","710.7407909492769","364.8148405862625","","","","","2+5= ?","7","1","","","","","","","",""
"1961","","8","psychophysics","119","493007","0.0-7.0-5.0-0.16","6","5","6","5","5","5","2","5","5","5","5","1","0","2","1","0","0","1","0","4","5","5","2","4","5","3","4","5","4","6","5","5","6","6","5","6","6","5","5","6","6","7","6","6","5","7","6","6","1","6","5","7","7","5","6","7","5","7","7","7","6","6","5","6","6","7","5","7","7","7","6","5","7","7","7","6","6","7","5","768791430436229121","叶","403","Female","[""坏她"",""好我"",""好她"",""坏我""]","[""弱她"",""强我"",""强她"",""弱我""]","","","","","","","","8","","","","","","","","","SRET","SRET_math_calculate","","key","8","16.66153846153866","710.7407909492769","364.8148405862625","","","","","4+4= ?","8","1","","","","","","","",""
"2601","","2","psychophysics","120","495612","0.0-7.0-5.0-0.17","6","5","6","5","5","5","2","5","5","5","5","1","0","2","1","0","0","1","0","4","5","5","2","4","5","3","4","5","4","6","5","5","6","6","5","6","6","5","5","6","6","7","6","6","5","7","6","6","1","6","5","7","7","5","6","7","5","7","7","7","6","6","5","6","6","7","5","7","7","7","6","5","7","7","7","6","6","7","5","768791430436229121","叶","403","Female","[""坏她"",""好我"",""好她"",""坏我""]","[""弱她"",""强我"",""强她"",""弱我""]","","","","","","","","2","","","","","","","","","SRET","SRET_math_calculate","","key","2","16.661935483871193","710.7407909492769","364.8148405862625","","","","","90/45= ?","2","1","","","","","","","",""
"1976","","8","psychophysics","121","497596","0.0-7.0-5.0-0.18","6","5","6","5","5","5","2","5","5","5","5","1","0","2","1","0","0","1","0","4","5","5","2","4","5","3","4","5","4","6","5","5","6","6","5","6","6","5","5","6","6","7","6","6","5","7","6","6","1","6","5","7","7","5","6","7","5","7","7","7","6","6","5","6","6","7","5","7","7","7","6","5","7","7","7","6","6","7","5","768791430436229121","叶","403","Female","[""坏她"",""好我"",""好她"",""坏我""]","[""弱她"",""强我"",""强她"",""弱我""]","","","","","","","","8","","","","","","","","","SRET","SRET_math_calculate","","key","8","16.661864406779465","710.7407909492769","364.8148405862625","","","","","8*1= ?","8","1","","","","","","","",""
"1992","","6","psychophysics","122","499596","0.0-7.0-5.0-0.19","6","5","6","5","5","5","2","5","5","5","5","1","0","2","1","0","0","1","0","4","5","5","2","4","5","3","4","5","4","6","5","5","6","6","5","6","6","5","5","6","6","7","6","6","5","7","6","6","1","6","5","7","7","5","6","7","5","7","7","7","6","6","5","6","6","7","5","7","7","7","6","5","7","7","7","6","6","7","5","768791430436229121","叶","403","Female","[""坏她"",""好我"",""好她"",""坏我""]","[""弱她"",""强我"",""强她"",""弱我""]","","","","","","","","6","","","","","","","","","SRET","SRET_math_calculate","","key","6","16.661344537815225","710.7407909492769","364.8148405862625","","","","","2+4= ?","6","1","","","","","","","",""
"1884","","7","psychophysics","123","501487","0.0-7.0-5.0-0.20","6","5","6","5","5","5","2","5","5","5","5","1","0","2","1","0","0","1","0","4","5","5","2","4","5","3","4","5","4","6","5","5","6","6","5","6","6","5","5","6","6","7","6","6","5","7","6","6","1","6","5","7","7","5","6","7","5","7","7","7","6","6","5","6","6","7","5","7","7","7","6","5","7","7","7","6","6","7","5","768791430436229121","叶","403","Female","[""坏她"",""好我"",""好她"",""坏我""]","[""弱她"",""强我"",""强她"",""弱我""]","","","","","","","","7","","","","","","","","","SRET","SRET_math_calculate","","key","7","16.662831858406772","710.7407909492769","364.8148405862625","","","","","6+1= ?","7","1","","","","","","","",""
"2042","","9","psychophysics","124","503534","0.0-7.0-5.0-0.21","6","5","6","5","5","5","2","5","5","5","5","1","0","2","1","0","0","1","0","4","5","5","2","4","5","3","4","5","4","6","5","5","6","6","5","6","6","5","5","6","6","7","6","6","5","7","6","6","1","6","5","7","7","5","6","7","5","7","7","7","6","6","5","6","6","7","5","7","7","7","6","5","7","7","7","6","6","7","5","768791430436229121","叶","403","Female","[""坏她"",""好我"",""好她"",""坏我""]","[""弱她"",""强我"",""强她"",""弱我""]","","","","","","","","9","","","","","","","","","SRET","SRET_math_calculate","","key","9","16.66311475409855","710.7407909492769","364.8148405862625","","","","","3*3= ?","9","1","","","","","","","",""
"2294","","5","psychophysics","125","505833","0.0-7.0-5.0-0.22","6","5","6","5","5","5","2","5","5","5","5","1","0","2","1","0","0","1","0","4","5","5","2","4","5","3","4","5","4","6","5","5","6","6","5","6","6","5","5","6","6","7","6","6","5","7","6","6","1","6","5","7","7","5","6","7","5","7","7","7","6","6","5","6","6","7","5","7","7","7","6","5","7","7","7","6","6","7","5","768791430436229121","叶","403","Female","[""坏她"",""好我"",""好她"",""坏我""]","[""弱她"",""强我"",""强她"",""弱我""]","","","","","","","","5","","","","","","","","","SRET","SRET_math_calculate","","key","5","16.66277372262765","710.7407909492769","364.8148405862625","","","","","3+2= ?","5","1","","","","","","","",""
"2063","","3","psychophysics","126","507900","0.0-7.0-5.0-0.23","6","5","6","5","5","5","2","5","5","5","5","1","0","2","1","0","0","1","0","4","5","5","2","4","5","3","4","5","4","6","5","5","6","6","5","6","6","5","5","6","6","7","6","6","5","7","6","6","1","6","5","7","7","5","6","7","5","7","7","7","6","6","5","6","6","7","5","7","7","7","6","5","7","7","7","6","6","7","5","768791430436229121","叶","403","Female","[""坏她"",""好我"",""好她"",""坏我""]","[""弱她"",""强我"",""强她"",""弱我""]","","","","","","","","3","","","","","","","","","SRET","SRET_math_calculate","","key","3","16.66178861788637","710.7407909492769","364.8148405862625","","","","","3*1= ?","3","1","","","","","","","",""
"2160","","7","psychophysics","127","510065","0.0-7.0-5.0-0.24","6","5","6","5","5","5","2","5","5","5","5","1","0","2","1","0","0","1","0","4","5","5","2","4","5","3","4","5","4","6","5","5","6","6","5","6","6","5","5","6","6","7","6","6","5","7","6","6","1","6","5","7","7","5","6","7","5","7","7","7","6","6","5","6","6","7","5","7","7","7","6","5","7","7","7","6","6","7","5","768791430436229121","叶","403","Female","[""坏她"",""好我"",""好她"",""坏我""]","[""弱她"",""强我"",""强她"",""弱我""]","","","","","","","","7","","","","","","","","","SRET","SRET_math_calculate","","key","7","16.662790697674417","710.7407909492769","364.8148405862625","","","","","49/7 = ?","7","1","","","","","","","",""
"2119","","8","psychophysics","128","512189","0.0-7.0-5.0-0.25","6","5","6","5","5","5","2","5","5","5","5","1","0","2","1","0","0","1","0","4","5","5","2","4","5","3","4","5","4","6","5","5","6","6","5","6","6","5","5","6","6","7","6","6","5","7","6","6","1","6","5","7","7","5","6","7","5","7","7","7","6","6","5","6","6","7","5","7","7","7","6","5","7","7","7","6","6","7","5","768791430436229121","叶","403","Female","[""坏她"",""好我"",""好她"",""坏我""]","[""弱她"",""强我"",""强她"",""弱我""]","","","","","","","","8","","","","","","","","","SRET","SRET_math_calculate","","key","8","16.66269841269841","710.7407909492769","364.8148405862625","","","","","2*4= ?","8","1","","","","","","","",""
"2700","","7","psychophysics","129","514894","0.0-7.0-5.0-0.26","6","5","6","5","5","5","2","5","5","5","5","1","0","2","1","0","0","1","0","4","5","5","2","4","5","3","4","5","4","6","5","5","6","6","5","6","6","5","5","6","6","7","6","6","5","7","6","6","1","6","5","7","7","5","6","7","5","7","7","7","6","6","5","6","6","7","5","7","7","7","6","5","7","7","7","6","6","7","5","768791430436229121","叶","403","Female","[""坏她"",""好我"",""好她"",""坏我""]","[""弱她"",""强我"",""强她"",""弱我""]","","","","","","","","7","","","","","","","","","SRET","SRET_math_calculate","","key","7","16.6617283950618","710.7407909492769","364.8148405862625","","","","","12-5= ?","7","1","","","","","","","",""
"2134","","0","psychophysics","130","517033","0.0-7.0-5.0-0.27","6","5","6","5","5","5","2","5","5","5","5","1","0","2","1","0","0","1","0","4","5","5","2","4","5","3","4","5","4","6","5","5","6","6","5","6","6","5","5","6","6","7","6","6","5","7","6","6","1","6","5","7","7","5","6","7","5","7","7","7","6","6","5","6","6","7","5","7","7","7","6","5","7","7","7","6","6","7","5","768791430436229121","叶","403","Female","[""坏她"",""好我"",""好她"",""坏我""]","[""弱她"",""强我"",""强她"",""弱我""]","","","","","","","","0","","","","","","","","","SRET","SRET_math_calculate","","key","0","16.662992125984342","710.7407909492769","364.8148405862625","","","","","12-12= ?","0","1","","","","","","","",""
"2294","","6","psychophysics","131","519331","0.0-7.0-5.0-0.28","6","5","6","5","5","5","2","5","5","5","5","1","0","2","1","0","0","1","0","4","5","5","2","4","5","3","4","5","4","6","5","5","6","6","5","6","6","5","5","6","6","7","6","6","5","7","6","6","1","6","5","7","7","5","6","7","5","7","7","7","6","6","5","6","6","7","5","7","7","7","6","5","7","7","7","6","6","7","5","768791430436229121","叶","403","Female","[""坏她"",""好我"",""好她"",""坏我""]","[""弱她"",""强我"",""强她"",""弱我""]","","","","","","","","6","","","","","","","","","SRET","SRET_math_calculate","","key","6","16.663503649635206","710.7407909492769","364.8148405862625","","","","","9-3= ?","6","1","","","","","","","",""
"2181","","5","psychophysics","132","521516","0.0-7.0-5.0-0.29","6","5","6","5","5","5","2","5","5","5","5","1","0","2","1","0","0","1","0","4","5","5","2","4","5","3","4","5","4","6","5","5","6","6","5","6","6","5","5","6","6","7","6","6","5","7","6","6","1","6","5","7","7","5","6","7","5","7","7","7","6","6","5","6","6","7","5","7","7","7","6","5","7","7","7","6","6","7","5","768791430436229121","叶","403","Female","[""坏她"",""好我"",""好她"",""坏我""]","[""弱她"",""强我"",""强她"",""弱我""]","","","","","","","","5","","","","","","","","","SRET","SRET_math_calculate","","key","5","16.662307692307962","710.7407909492769","364.8148405862625","","","","","9-4= ?","5","1","","","","","","","",""
"1875","","8","psychophysics","133","523395","0.0-7.0-5.0-0.30","6","5","6","5","5","5","2","5","5","5","5","1","0","2","1","0","0","1","0","4","5","5","2","4","5","3","4","5","4","6","5","5","6","6","5","6","6","5","5","6","6","7","6","6","5","7","6","6","1","6","5","7","7","5","6","7","5","7","7","7","6","6","5","6","6","7","5","7","7","7","6","5","7","7","7","6","6","7","5","768791430436229121","叶","403","Female","[""坏她"",""好我"",""好她"",""坏我""]","[""弱她"",""强我"",""强她"",""弱我""]","","","","","","","","8","","","","","","","","","SRET","SRET_math_calculate","","key","8","16.660714285714807","710.7407909492769","364.8148405862625","","","","","2+6= ?","8","1","","","","","","","",""
"1983","","9","psychophysics","134","525380","0.0-7.0-5.0-0.31","6","5","6","5","5","5","2","5","5","5","5","1","0","2","1","0","0","1","0","4","5","5","2","4","5","3","4","5","4","6","5","5","6","6","5","6","6","5","5","6","6","7","6","6","5","7","6","6","1","6","5","7","7","5","6","7","5","7","7","7","6","6","5","6","6","7","5","7","7","7","6","5","7","7","7","6","6","7","5","768791430436229121","叶","403","Female","[""坏她"",""好我"",""好她"",""坏我""]","[""弱她"",""强我"",""强她"",""弱我""]","","","","","","","","9","","","","","","","","","SRET","SRET_math_calculate","","key","9","16.662711864406386","710.7407909492769","364.8148405862625","","","","","4+5= ?","9","1","","","","","","","",""
"2139","","7","psychophysics","135","527523","0.0-7.0-5.0-0.32","6","5","6","5","5","5","2","5","5","5","5","1","0","2","1","0","0","1","0","4","5","5","2","4","5","3","4","5","4","6","5","5","6","6","5","6","6","5","5","6","6","7","6","6","5","7","6","6","1","6","5","7","7","5","6","7","5","7","7","7","6","6","5","6","6","7","5","7","7","7","6","5","7","7","7","6","6","7","5","768791430436229121","叶","403","Female","[""坏她"",""好我"",""好她"",""坏我""]","[""弱她"",""强我"",""强她"",""弱我""]","","","","","","","","7","","","","","","","","","SRET","SRET_math_calculate","","key","7","16.662500000000364","710.7407909492769","364.8148405862625","","","","","4+3= ?","7","1","","","","","","","",""
"1747","","9","psychophysics","136","529276","0.0-7.0-5.0-0.33","6","5","6","5","5","5","2","5","5","5","5","1","0","2","1","0","0","1","0","4","5","5","2","4","5","3","4","5","4","6","5","5","6","6","5","6","6","5","5","6","6","7","6","6","5","7","6","6","1","6","5","7","7","5","6","7","5","7","7","7","6","6","5","6","6","7","5","7","7","7","6","5","7","7","7","6","6","7","5","768791430436229121","叶","403","Female","[""坏她"",""好我"",""好她"",""坏我""]","[""弱她"",""强我"",""强她"",""弱我""]","","","","","","","","9","","","","","","","","","SRET","SRET_math_calculate","","key","9","16.66346153846154","710.7407909492769","364.8148405862625","","","","","1+8= ?","9","1","","","","","","","",""
"2033","","8","psychophysics","137","531315","0.0-7.0-5.0-0.34","6","5","6","5","5","5","2","5","5","5","5","1","0","2","1","0","0","1","0","4","5","5","2","4","5","3","4","5","4","6","5","5","6","6","5","6","6","5","5","6","6","7","6","6","5","7","6","6","1","6","5","7","7","5","6","7","5","7","7","7","6","6","5","6","6","7","5","7","7","7","6","5","7","7","7","6","6","7","5","768791430436229121","叶","403","Female","[""坏她"",""好我"",""好她"",""坏我""]","[""弱她"",""强我"",""强她"",""弱我""]","","","","","","","","8","","","","","","","","","SRET","SRET_math_calculate","","key","8","16.66280991735595","710.7407909492769","364.8148405862625","","","","","72/9= ?","8","1","","","","","","","",""
