"rt","stimulus","response","trial_type","trial_index","time_elapsed","internal_node_id","swb_1","swb_2","swb_3","swb_4","swb_5","LOT_1","LOT_2","LOT_3","LOT_4","LOT_5","LOT_6","IPC_1","IPC_2","IPC_3","IPC_4","IPC_5","IPC_6","IPC_7","IPC_8","MorIden_1","MorIden_2","MorIden_3","MorIden_4","MorIden_5","MorIden_6","MorIden_7","MorIden_8","MorIden_9","MorIden_10","moralSeImag_1","moralSeImag_2","moralSeImag_3","moralSeImag_4","moralSeImag_5","moralSeImag_6","moralSeImag_7","moralSeImag_8","moralSeImag_9","sde_1","sde_2","sde_3","sde_4","sde_5","sde_6","sde_7","sde_8","sde_9","sde_10","trap2","sde_11","sde_12","sde_13","sde_14","sde_15","sde_16","sde_17","sde_18","sde_19","sde_20","IM_1","IM_2","IM_3","IM_4","IM_5","IM_6","IM_7","IM_8","IM_9","IM_10","IM_11","IM_12","IM_13","IM_14","IM_15","IM_16","IM_17","IM_18","IM_19","IM_20","subj_idx","friend_name","ParticipantID","Sex","Word","Word2","value","success","timeout","failed_images","failed_audio","failed_video","user_agent","responses","item_order","radio_event_ids","radio_event_times","key_event_times","mouse_event_times","straightlining","zigzagging","honeypot","task_id","screen_id","time_stamp","response_type","key_press","avg_frame_time","center_x","center_y","person","word","valence","domain","math","correct_response","correct","status","identity","view_history","duration","Image","condition","question_order","trap2_item"
"22404","
   <p><div style='color:white; font-size: 25px'>您好，欢迎参加本次实验。</div></p>
   <p><div style='color:white; font-size: 25px'>为充分保障您的权利，请确保您已经知晓并同意《参与实验同意书》以及《数据公开知情同意书》。</div></p>
   <p><div style='color:white; font-size: 25px'>如果您未见过上述内容，请咨询实验员。</div></p>
   <p style='color:white; font-size: 25px'>如果您选择继续实验，则表示您已经清楚两份知情同意书的内容并同意。</p>
   <p><div style = ""color: pink;font-size:30px;"">请确保您记得day0的实验编号，您将在本次实验输入该编号，若您忘记，请咨询实验员后作答。</div></p>
   <p><div style = ""color:lightblue;font-size:25px;"">请您尽可能认真地作答，我们将依据您在各问卷和按键任务中的作答质量发放报酬。</div></p>
   <p> <div style = ""color: green""><按空格键至下页></div> </p>
   "," ","html-keyboard-response","0","22408","0.0-0.0","7","5","6","6","5","4","4","5","4","5","4","0","1","1","2","0","1","1","2","5","4","5","4","4","3","4","4","5","4","5","7","4","7","4","6","5","6","6","5","6","5","7","6","5","5","5","5","6","1","6","5","2","5","6","5","6","6","5","5","5","6","6","5","5","7","6","6","5","6","7","6","6","5","5","6","6","5","5","7","767677115188645890","陶","11","Female","[""坏我"",""坏她"",""好她"",""好我""]","[""弱我"",""弱她"",""强她"",""强我""]","","","","","","","","","","","","","","","","","","","","","","","","","","","","","","","","","","","","","","",""
"","","","call-function","1","22412","0.0-1.0-0.0","7","5","6","6","5","4","4","5","4","5","4","0","1","1","2","0","1","1","2","5","4","5","4","4","3","4","4","5","4","5","7","4","7","4","6","5","6","6","5","6","5","7","6","5","5","5","5","6","1","6","5","2","5","6","5","6","6","5","5","5","6","6","5","5","7","6","6","5","6","7","6","6","5","5","6","6","5","5","7","767677115188645890","陶","11","Female","[""坏我"",""坏她"",""好她"",""好我""]","[""弱我"",""弱她"",""强她"",""强我""]","","","","","","","","","","","","","","","","","","","","","","","","","","","","","","","","","","","","","","",""
"13461","","[{""name"":""Sex"",""value"":""1""},{""name"":""friend_name"",""value"":""陶""},{""name"":""ParticipantID"",""value"":""11""}]","survey-html-form","2","35875","0.0-1.0-1.0","7","5","6","6","5","4","4","5","4","5","4","0","1","1","2","0","1","1","2","5","4","5","4","4","3","4","4","5","4","5","7","4","7","4","6","5","6","6","5","6","5","7","6","5","5","5","5","6","1","6","5","2","5","6","5","6","6","5","5","5","6","6","5","5","7","6","6","5","6","7","6","6","5","5","6","6","5","5","7","767677115188645890","陶","11","Female","[""坏我"",""坏她"",""好她"",""好我""]","[""弱我"",""弱她"",""强她"",""强我""]","","","","","","","","","","","","","","","","","","","","","","","","","","","","","","","","","","","","","","",""
"","","","preload","3","36364","0.0-2.0","7","5","6","6","5","4","4","5","4","5","4","0","1","1","2","0","1","1","2","5","4","5","4","4","3","4","4","5","4","5","7","4","7","4","6","5","6","6","5","6","5","7","6","5","5","5","5","6","1","6","5","2","5","6","5","6","6","5","5","5","6","6","5","5","7","6","6","5","6","7","6","6","5","5","6","6","5","5","7","767677115188645890","陶","11","Female","[""坏我"",""坏她"",""好她"",""好我""]","[""弱我"",""弱她"",""强她"",""强我""]","","true","false","[]","[]","[]","","","","","","","","","","","","","","","","","","","","","","","","","","","","","","","","",""
"","","","fullscreen","4","44635","0.0-3.0","7","5","6","6","5","4","4","5","4","5","4","0","1","1","2","0","1","1","2","5","4","5","4","4","3","4","4","5","4","5","7","4","7","4","6","5","6","6","5","6","5","7","6","5","5","5","5","6","1","6","5","2","5","6","5","6","6","5","5","5","6","6","5","5","7","6","6","5","6","7","6","6","5","5","6","6","5","5","7","767677115188645890","陶","11","Female","[""坏我"",""坏她"",""好她"",""好我""]","[""弱我"",""弱她"",""强她"",""强我""]","","true","","","","","{}","","","","","","","","","","","","","","","","","","","","","","","","","","","","","","","",""
"18918.19999998808","","{""Q01"":""7"",""Q02"":""5"",""Q03"":""6"",""Q04"":""6"",""Q05"":""5""}","survey-template","5","63560","0.0-4.0","7","5","6","6","5","4","4","5","4","5","4","0","1","1","2","0","1","1","2","5","4","5","4","4","3","4","4","5","4","5","7","4","7","4","6","5","6","6","5","6","5","7","6","5","5","5","5","6","1","6","5","2","5","6","5","6","6","5","5","5","6","6","5","5","7","6","6","5","6","7","6","6","5","5","6","6","5","5","7","767677115188645890","陶","11","Female","[""坏我"",""坏她"",""好她"",""好我""]","[""弱我"",""弱她"",""强她"",""强我""]","","","","","","","","{""Q01"":""7"",""Q02"":""5"",""Q03"":""6"",""Q04"":""6"",""Q05"":""5""}","[0,1,2,3,4]","[""Q01"",""Q02"",""Q03"",""Q03"",""Q01"",""Q04"",""Q05""]","[5143.899999976158,7758.699999988079,10268,11076.199999988079,13183.099999964237,16711.599999964237,18219.899999976158]","[]","[5143.899999976158,7758.699999988079,10268,11076.199999988079,12352.099999964237,13183.099999964237,16711.599999964237,18219.899999976158,18916]","0.4","0.5","0","","","","","","","","","","","","","","","","","","","","","","",""
"33700.19999998808","","{""Q01"":""4"",""Q02"":""4"",""Q03"":""5"",""Q04"":""4"",""Q05"":""5"",""Q06"":""4""}","survey-template","6","97265","0.0-5.0","7","5","6","6","5","4","4","5","4","5","4","0","1","1","2","0","1","1","2","5","4","5","4","4","3","4","4","5","4","5","7","4","7","4","6","5","6","6","5","6","5","7","6","5","5","5","5","6","1","6","5","2","5","6","5","6","6","5","5","5","6","6","5","5","7","6","6","5","6","7","6","6","5","5","6","6","5","5","7","767677115188645890","陶","11","Female","[""坏我"",""坏她"",""好她"",""好我""]","[""弱我"",""弱她"",""强她"",""强我""]","","","","","","","","{""Q01"":""4"",""Q02"":""4"",""Q03"":""5"",""Q04"":""4"",""Q05"":""5"",""Q06"":""4""}","[0,1,2,3,4,5]","[""Q01"",""Q01"",""Q02"",""Q03"",""Q04"",""Q05"",""Q06""]","[7132.5,8944.800000011921,11344.699999988079,12648.199999988079,14341,16051.5,18719.899999976158]","[]","[7132.5,8944.800000011921,11344.699999988079,12648.199999988079,14341,16051.5,18719.899999976158,33699.10000002384]","0.3333333333333333","0.2","0","","","","","","","","","","","","","","","","","","","","","","",""
"30557.69999998808","","{""Q01"":""0"",""Q02"":""1"",""Q03"":""1"",""Q04"":""2"",""Q05"":""0"",""Q06"":""1"",""Q07"":""1"",""Q08"":""2""}","survey-template","7","127827","0.0-6.0","7","5","6","6","5","4","4","5","4","5","4","0","1","1","2","0","1","1","2","5","4","5","4","4","3","4","4","5","4","5","7","4","7","4","6","5","6","6","5","6","5","7","6","5","5","5","5","6","1","6","5","2","5","6","5","6","6","5","5","5","6","6","5","5","7","6","6","5","6","7","6","6","5","5","6","6","5","5","7","767677115188645890","陶","11","Female","[""坏我"",""坏她"",""好她"",""好我""]","[""弱我"",""弱她"",""强她"",""强我""]","","","","","","","","{""Q01"":""0"",""Q02"":""1"",""Q03"":""1"",""Q04"":""2"",""Q05"":""0"",""Q06"":""1"",""Q07"":""1"",""Q08"":""2""}","[0,1,2,3,4,5,6,7]","[""Q01"",""Q02"",""Q03"",""Q01"",""Q02"",""Q04"",""Q05"",""Q06"",""Q07"",""Q08""]","[6484,7739.400000035763,8987.400000035763,10952.600000023842,11539.900000035763,15306.900000035763,16756.900000035763,17734,20947.5,22527]","[]","[6484,7739.400000035763,8987.400000035763,10952.600000023842,11539.900000035763,15306.900000035763,16756.900000035763,17734,20947.5,22527,30556]","0.5","0.5714285714285714","0","","","","","","","","","","","","","","","","","","","","","","",""
"43828","
    <p><div style='color:white;font-size:35px; line-height:20px;'>词汇评估任务</div></p><br>
    <p><div style='color:white;font-size:25px; line-height:20px;'>请再次回忆该亲密的朋友，你们至少2年前就认识了，并且最近2年经常见面。</div></p>
    <p><div style='color:white;font-size:25px; line-height:20px;'>在本实验中，您将会看到一些形容词。</div></p>
    <p><div style='color:yellow;font-size:25px; line-height:20px;'>您的任务是判断这些形容词是否符合对您自己或您的朋友的描述。</div></p><p style='font-size:35px'>符合按<span style=""color:lightgreen""> j 键</span>，不符合按<span style=""color:red""> f 键</span></p>","0","html-button-response","8","171661","0.0-7.0-0.0","7","5","6","6","5","4","4","5","4","5","4","0","1","1","2","0","1","1","2","5","4","5","4","4","3","4","4","5","4","5","7","4","7","4","6","5","6","6","5","6","5","7","6","5","5","5","5","6","1","6","5","2","5","6","5","6","6","5","5","5","6","6","5","5","7","6","6","5","6","7","6","6","5","5","6","6","5","5","7","767677115188645890","陶","11","Female","[""坏我"",""坏她"",""好她"",""好我""]","[""弱我"",""弱她"",""强她"",""强我""]","","","","","","","","","","","","","","","","","SRET_EW","EW_instructions","Wed Jan 03 2024 10:31:27 GMT+0800 (中国标准时间)","","","","","","","","","","","","","","","","","","","",""
"null","","null","psychophysics","9","174692","0.0-7.0-1.0-0.0","7","5","6","6","5","4","4","5","4","5","4","0","1","1","2","0","1","1","2","5","4","5","4","4","3","4","4","5","4","5","7","4","7","4","6","5","6","6","5","6","5","7","6","5","5","5","5","6","1","6","5","2","5","6","5","6","6","5","5","5","6","6","5","5","7","6","6","5","6","7","6","6","5","5","6","6","5","5","7","767677115188645890","陶","11","Female","[""坏我"",""坏她"",""好她"",""好我""]","[""弱我"",""弱她"",""强她"",""强我""]","","","","","","","","","","","","","","","","","SRET_EW","EW_practice","","key","null","8.36852367688019","720","446","自己","严谨","Positive","ability","","","","","","","","","","",""
"919","","j","psychophysics","10","176618","0.0-7.0-1.0-0.1","7","5","6","6","5","4","4","5","4","5","4","0","1","1","2","0","1","1","2","5","4","5","4","4","3","4","4","5","4","5","7","4","7","4","6","5","6","6","5","6","5","7","6","5","5","5","5","6","1","6","5","2","5","6","5","6","6","5","5","5","6","6","5","5","7","6","6","5","6","7","6","6","5","5","6","6","5","5","7","767677115188645890","陶","11","Female","[""坏我"",""坏她"",""好她"",""好我""]","[""弱我"",""弱她"",""强她"",""强我""]","","","","","","","","yes","","","","","","","","","SRET_EW","EW_practice","","key","j","8.333478260869615","720","446","自己","刻板","Negative","ability","","","","","","","","","","",""
"1365","","f","psychophysics","11","178989","0.0-7.0-1.0-0.2","7","5","6","6","5","4","4","5","4","5","4","0","1","1","2","0","1","1","2","5","4","5","4","4","3","4","4","5","4","5","7","4","7","4","6","5","6","6","5","6","5","7","6","5","5","5","5","6","1","6","5","2","5","6","5","6","6","5","5","5","6","6","5","5","7","6","6","5","6","7","6","6","5","5","6","6","5","5","7","767677115188645890","陶","11","Female","[""坏我"",""坏她"",""好她"",""好我""]","[""弱我"",""弱她"",""强她"",""强我""]","","","","","","","","no","","","","","","","","","SRET_EW","EW_practice","","key","f","8.362897526501808","720","446","朋友","忠实","Positive","morality","","","","","","","","","","",""
"null","","null","psychophysics","12","182002","0.0-7.0-1.0-0.3","7","5","6","6","5","4","4","5","4","5","4","0","1","1","2","0","1","1","2","5","4","5","4","4","3","4","4","5","4","5","7","4","7","4","6","5","6","6","5","6","5","7","6","5","5","5","5","6","1","6","5","2","5","6","5","6","6","5","5","5","6","6","5","5","7","6","6","5","6","7","6","6","5","5","6","6","5","5","7","767677115188645890","陶","11","Female","[""坏我"",""坏她"",""好她"",""好我""]","[""弱我"",""弱她"",""强她"",""强我""]","","","","","","","","","","","","","","","","","SRET_EW","EW_practice","","key","null","8.333795013850416","720","446","朋友","徇私","Negative","morality","","","","","","","","","","",""
"21205","
    <p><div style='color:white;font-size:35px; line-height:20px;'>请您再次阅读实验要求</div></p><br>
    <p><div style='color:white;font-size:25px; line-height:20px;'>请回忆某一个亲密的朋友，你们至少2年前就认识了，并且最近2年经常见面。</div></p>
    <p><div style='color:white;font-size:25px; line-height:20px;'>在本实验中，您将会看到一些形容词。</div></p>
    <p><div style='color:yellow;font-size:25px; line-height:20px;'>您的任务是判断这些形容词是否符合对您自己或您的朋友的描述。</div></p>
    <p><div class='footer' style='font-size:25px; line-height:20px;'>如果对本实验还有不清楚之处，请立即向实验员咨询。</p><p style='font-size:25px; line-height:20px;'>如果您明白了规则：</p><p style='font-size:22px; line-height:20px;'>请按 继续 进入正式实验</p>
    </div>
    <p style='font-size:35px'>符合按<span style=""color:lightgreen""> j 键</span>，不符合按<span style=""color:red""> f 键</span></p>","0","html-button-response","13","203209","0.0-7.0-2.0","7","5","6","6","5","4","4","5","4","5","4","0","1","1","2","0","1","1","2","5","4","5","4","4","3","4","4","5","4","5","7","4","7","4","6","5","6","6","5","6","5","7","6","5","5","5","5","6","1","6","5","2","5","6","5","6","6","5","5","5","6","6","5","5","7","6","6","5","6","7","6","6","5","5","6","6","5","5","7","767677115188645890","陶","11","Female","[""坏我"",""坏她"",""好她"",""好我""]","[""弱我"",""弱她"",""强她"",""强我""]","","","","","","","","","","","","","","","","","SRET_EW","prac_instructions","Wed Jan 03 2024 10:31:27 GMT+0800 (中国标准时间)","","","","","","","","","","","","","","","","","","","",""
"519","","j","psychophysics","14","204733","0.0-7.0-3.0-0.0","7","5","6","6","5","4","4","5","4","5","4","0","1","1","2","0","1","1","2","5","4","5","4","4","3","4","4","5","4","5","7","4","7","4","6","5","6","6","5","6","5","7","6","5","5","5","5","6","1","6","5","2","5","6","5","6","6","5","5","5","6","6","5","5","7","6","6","5","6","7","6","6","5","5","6","6","5","5","7","767677115188645890","陶","11","Female","[""坏我"",""坏她"",""好她"",""好我""]","[""弱我"",""弱她"",""强她"",""强我""]","","","","","","","","yes","","","","","","","","","SRET","EW_formal","","key","j","8.354696132596588","720","446","朋友","务实","Positive","ability","","","","","","","","","","",""
"570","","j","psychophysics","15","206312","0.0-7.0-3.0-0.1","7","5","6","6","5","4","4","5","4","5","4","0","1","1","2","0","1","1","2","5","4","5","4","4","3","4","4","5","4","5","7","4","7","4","6","5","6","6","5","6","5","7","6","5","5","5","5","6","1","6","5","2","5","6","5","6","6","5","5","5","6","6","5","5","7","6","6","5","6","7","6","6","5","5","6","6","5","5","7","767677115188645890","陶","11","Female","[""坏我"",""坏她"",""好她"",""好我""]","[""弱我"",""弱她"",""强她"",""强我""]","","","","","","","","yes","","","","","","","","","SRET","EW_formal","","key","j","8.422459893048128","720","446","自己","坚贞","Positive","morality","","","","","","","","","","",""
"997","","f","psychophysics","16","208312","0.0-7.0-3.0-0.2","7","5","6","6","5","4","4","5","4","5","4","0","1","1","2","0","1","1","2","5","4","5","4","4","3","4","4","5","4","5","7","4","7","4","6","5","6","6","5","6","5","7","6","5","5","5","5","6","1","6","5","2","5","6","5","6","6","5","5","5","6","6","5","5","7","6","6","5","6","7","6","6","5","5","6","6","5","5","7","767677115188645890","陶","11","Female","[""坏我"",""坏她"",""好她"",""好我""]","[""弱我"",""弱她"",""强她"",""强我""]","","","","","","","","no","","","","","","","","","SRET","EW_formal","","key","f","8.511111111111012","720","446","自己","说谎","Negative","morality","","","","","","","","","","",""
"1621","","f","psychophysics","17","210936","0.0-7.0-3.0-0.3","7","5","6","6","5","4","4","5","4","5","4","0","1","1","2","0","1","1","2","5","4","5","4","4","3","4","4","5","4","5","7","4","7","4","6","5","6","6","5","6","5","7","6","5","5","5","5","6","1","6","5","2","5","6","5","6","6","5","5","5","6","6","5","5","7","6","6","5","6","7","6","6","5","5","6","6","5","5","7","767677115188645890","陶","11","Female","[""坏我"",""坏她"",""好她"",""好我""]","[""弱我"",""弱她"",""强她"",""强我""]","","","","","","","","no","","","","","","","","","SRET","EW_formal","","key","f","8.386538461538388","720","446","朋友","迷糊","Negative","ability","","","","","","","","","","",""
"975","","f","psychophysics","18","212913","0.0-7.0-3.0-0.4","7","5","6","6","5","4","4","5","4","5","4","0","1","1","2","0","1","1","2","5","4","5","4","4","3","4","4","5","4","5","7","4","7","4","6","5","6","6","5","6","5","7","6","5","5","5","5","6","1","6","5","2","5","6","5","6","6","5","5","5","6","6","5","5","7","6","6","5","6","7","6","6","5","5","6","6","5","5","7","767677115188645890","陶","11","Female","[""坏我"",""坏她"",""好她"",""好我""]","[""弱我"",""弱她"",""强她"",""强我""]","","","","","","","","no","","","","","","","","","SRET","EW_formal","","key","f","8.36936170212761","720","446","自己","伪善","Negative","morality","","","","","","","","","","",""
"587","","f","psychophysics","19","214515","0.0-7.0-3.0-0.5","7","5","6","6","5","4","4","5","4","5","4","0","1","1","2","0","1","1","2","5","4","5","4","4","3","4","4","5","4","5","7","4","7","4","6","5","6","6","5","6","5","7","6","5","5","5","5","6","1","6","5","2","5","6","5","6","6","5","5","5","6","6","5","5","7","6","6","5","6","7","6","6","5","5","6","6","5","5","7","767677115188645890","陶","11","Female","[""坏我"",""坏她"",""好她"",""好我""]","[""弱我"",""弱她"",""强她"",""强我""]","","","","","","","","no","","","","","","","","","SRET","EW_formal","","key","f","8.421693121693028","720","446","自己","缺德","Negative","morality","","","","","","","","","","",""
"787","","j","psychophysics","20","216305","0.0-7.0-3.0-0.6","7","5","6","6","5","4","4","5","4","5","4","0","1","1","2","0","1","1","2","5","4","5","4","4","3","4","4","5","4","5","7","4","7","4","6","5","6","6","5","6","5","7","6","5","5","5","5","6","1","6","5","2","5","6","5","6","6","5","5","5","6","6","5","5","7","6","6","5","6","7","6","6","5","5","6","6","5","5","7","767677115188645890","陶","11","Female","[""坏我"",""坏她"",""好她"",""好我""]","[""弱我"",""弱她"",""强她"",""强我""]","","","","","","","","yes","","","","","","","","","SRET","EW_formal","","key","j","8.371830985915548","720","446","自己","聪明","Positive","ability","","","","","","","","","","",""
"1062","","f","psychophysics","21","218371","0.0-7.0-3.0-0.7","7","5","6","6","5","4","4","5","4","5","4","0","1","1","2","0","1","1","2","5","4","5","4","4","3","4","4","5","4","5","7","4","7","4","6","5","6","6","5","6","5","7","6","5","5","5","5","6","1","6","5","2","5","6","5","6","6","5","5","5","6","6","5","5","7","6","6","5","6","7","6","6","5","5","6","6","5","5","7","767677115188645890","陶","11","Female","[""坏我"",""坏她"",""好她"",""好我""]","[""弱我"",""弱她"",""强她"",""强我""]","","","","","","","","no","","","","","","","","","SRET","EW_formal","","key","f","8.334008097165992","720","446","自己","犹豫","Negative","ability","","","","","","","","","","",""
"569","","f","psychophysics","22","219943","0.0-7.0-3.0-0.8","7","5","6","6","5","4","4","5","4","5","4","0","1","1","2","0","1","1","2","5","4","5","4","4","3","4","4","5","4","5","7","4","7","4","6","5","6","6","5","6","5","7","6","5","5","5","5","6","1","6","5","2","5","6","5","6","6","5","5","5","6","6","5","5","7","6","6","5","6","7","6","6","5","5","6","6","5","5","7","767677115188645890","陶","11","Female","[""坏我"",""坏她"",""好她"",""好我""]","[""弱我"",""弱她"",""强她"",""强我""]","","","","","","","","no","","","","","","","","","SRET","EW_formal","","key","f","8.468648648648712","720","446","自己","不仁","Negative","morality","","","","","","","","","","",""
"717","","j","psychophysics","23","221664","0.0-7.0-3.0-0.9","7","5","6","6","5","4","4","5","4","5","4","0","1","1","2","0","1","1","2","5","4","5","4","4","3","4","4","5","4","5","7","4","7","4","6","5","6","6","5","6","5","7","6","5","5","5","5","6","1","6","5","2","5","6","5","6","6","5","5","5","6","6","5","5","7","6","6","5","6","7","6","6","5","5","6","6","5","5","7","767677115188645890","陶","11","Female","[""坏我"",""坏她"",""好她"",""好我""]","[""弱我"",""弱她"",""强她"",""强我""]","","","","","","","","yes","","","","","","","","","SRET","EW_formal","","key","j","8.333170731707261","720","446","朋友","坚持","Positive","ability","","","","","","","","","","",""
"655","","j","psychophysics","24","223323","0.0-7.0-3.0-0.10","7","5","6","6","5","4","4","5","4","5","4","0","1","1","2","0","1","1","2","5","4","5","4","4","3","4","4","5","4","5","7","4","7","4","6","5","6","6","5","6","5","7","6","5","5","5","5","6","1","6","5","2","5","6","5","6","6","5","5","5","6","6","5","5","7","6","6","5","6","7","6","6","5","5","6","6","5","5","7","767677115188645890","陶","11","Female","[""坏我"",""坏她"",""好她"",""好我""]","[""弱我"",""弱她"",""强她"",""强我""]","","","","","","","","yes","","","","","","","","","SRET","EW_formal","","key","j","8.37512690355327","720","446","自己","专注","Positive","ability","","","","","","","","","","",""
"816","","f","psychophysics","25","225141","0.0-7.0-3.0-0.11","7","5","6","6","5","4","4","5","4","5","4","0","1","1","2","0","1","1","2","5","4","5","4","4","3","4","4","5","4","5","7","4","7","4","6","5","6","6","5","6","5","7","6","5","5","5","5","6","1","6","5","2","5","6","5","6","6","5","5","5","6","6","5","5","7","6","6","5","6","7","6","6","5","5","6","6","5","5","7","767677115188645890","陶","11","Female","[""坏我"",""坏她"",""好她"",""好我""]","[""弱我"",""弱她"",""强她"",""强我""]","","","","","","","","no","","","","","","","","","SRET","EW_formal","","key","f","8.37314814814804","720","446","朋友","屈才","Negative","ability","","","","","","","","","","",""
"785","","j","psychophysics","26","226961","0.0-7.0-3.0-0.12","7","5","6","6","5","4","4","5","4","5","4","0","1","1","2","0","1","1","2","5","4","5","4","4","3","4","4","5","4","5","7","4","7","4","6","5","6","6","5","6","5","7","6","5","5","5","5","6","1","6","5","2","5","6","5","6","6","5","5","5","6","6","5","5","7","6","6","5","6","7","6","6","5","5","6","6","5","5","7","767677115188645890","陶","11","Female","[""坏我"",""坏她"",""好她"",""好我""]","[""弱我"",""弱她"",""强她"",""强我""]","","","","","","","","yes","","","","","","","","","SRET","EW_formal","","key","j","8.449302325581423","720","446","朋友","孝顺","Positive","morality","","","","","","","","","","",""
"655","","f","psychophysics","27","228622","0.0-7.0-3.0-0.13","7","5","6","6","5","4","4","5","4","5","4","0","1","1","2","0","1","1","2","5","4","5","4","4","3","4","4","5","4","5","7","4","7","4","6","5","6","6","5","6","5","7","6","5","5","5","5","6","1","6","5","2","5","6","5","6","6","5","5","5","6","6","5","5","7","6","6","5","6","7","6","6","5","5","6","6","5","5","7","767677115188645890","陶","11","Female","[""坏我"",""坏她"",""好她"",""好我""]","[""弱我"",""弱她"",""强她"",""强我""]","","","","","","","","no","","","","","","","","","SRET","EW_formal","","key","f","8.376142131979725","720","446","自己","利己","Negative","morality","","","","","","","","","","",""
"1195","","j","psychophysics","28","230819","0.0-7.0-3.0-0.14","7","5","6","6","5","4","4","5","4","5","4","0","1","1","2","0","1","1","2","5","4","5","4","4","3","4","4","5","4","5","7","4","7","4","6","5","6","6","5","6","5","7","6","5","5","5","5","6","1","6","5","2","5","6","5","6","6","5","5","5","6","6","5","5","7","6","6","5","6","7","6","6","5","5","6","6","5","5","7","767677115188645890","陶","11","Female","[""坏我"",""坏她"",""好她"",""好我""]","[""弱我"",""弱她"",""强她"",""强我""]","","","","","","","","yes","","","","","","","","","SRET","EW_formal","","key","j","8.365267175572452","720","446","自己","精干","Positive","ability","","","","","","","","","","",""
"956","","f","psychophysics","29","232778","0.0-7.0-3.0-0.15","7","5","6","6","5","4","4","5","4","5","4","0","1","1","2","0","1","1","2","5","4","5","4","4","3","4","4","5","4","5","7","4","7","4","6","5","6","6","5","6","5","7","6","5","5","5","5","6","1","6","5","2","5","6","5","6","6","5","5","5","6","6","5","5","7","6","6","5","6","7","6","6","5","5","6","6","5","5","7","767677115188645890","陶","11","Female","[""坏我"",""坏她"",""好她"",""好我""]","[""弱我"",""弱她"",""强她"",""强我""]","","","","","","","","no","","","","","","","","","SRET","EW_formal","","key","f","8.369527896995733","720","446","自己","废物","Negative","ability","","","","","","","","","","",""
"784","","f","psychophysics","30","234565","0.0-7.0-3.0-0.16","7","5","6","6","5","4","4","5","4","5","4","0","1","1","2","0","1","1","2","5","4","5","4","4","3","4","4","5","4","5","7","4","7","4","6","5","6","6","5","6","5","7","6","5","5","5","5","6","1","6","5","2","5","6","5","6","6","5","5","5","6","6","5","5","7","6","6","5","6","7","6","6","5","5","6","6","5","5","7","767677115188645890","陶","11","Female","[""坏我"",""坏她"",""好她"",""好我""]","[""弱我"",""弱她"",""强她"",""强我""]","","","","","","","","no","","","","","","","","","SRET","EW_formal","","key","f","8.373584905660433","720","446","朋友","无知","Negative","ability","","","","","","","","","","",""
"795","","f","psychophysics","31","236363","0.0-7.0-3.0-0.17","7","5","6","6","5","4","4","5","4","5","4","0","1","1","2","0","1","1","2","5","4","5","4","4","3","4","4","5","4","5","7","4","7","4","6","5","6","6","5","6","5","7","6","5","5","5","5","6","1","6","5","2","5","6","5","6","6","5","5","5","6","6","5","5","7","6","6","5","6","7","6","6","5","5","6","6","5","5","7","767677115188645890","陶","11","Female","[""坏我"",""坏她"",""好她"",""好我""]","[""弱我"",""弱她"",""强她"",""强我""]","","","","","","","","no","","","","","","","","","SRET","EW_formal","","key","f","8.371962616822458","720","446","自己","盲目","Negative","ability","","","","","","","","","","",""
"788","","j","psychophysics","32","238153","0.0-7.0-3.0-0.18","7","5","6","6","5","4","4","5","4","5","4","0","1","1","2","0","1","1","2","5","4","5","4","4","3","4","4","5","4","5","7","4","7","4","6","5","6","6","5","6","5","7","6","5","5","5","5","6","1","6","5","2","5","6","5","6","6","5","5","5","6","6","5","5","7","6","6","5","6","7","6","6","5","5","6","6","5","5","7","767677115188645890","陶","11","Female","[""坏我"",""坏她"",""好她"",""好我""]","[""弱我"",""弱她"",""强她"",""强我""]","","","","","","","","yes","","","","","","","","","SRET","EW_formal","","key","j","8.333644859813058","720","446","朋友","懂行","Positive","ability","","","","","","","","","","",""
"640","","j","psychophysics","33","239794","0.0-7.0-3.0-0.19","7","5","6","6","5","4","4","5","4","5","4","0","1","1","2","0","1","1","2","5","4","5","4","4","3","4","4","5","4","5","7","4","7","4","6","5","6","6","5","6","5","7","6","5","5","5","5","6","1","6","5","2","5","6","5","6","6","5","5","5","6","6","5","5","7","6","6","5","6","7","6","6","5","5","6","6","5","5","7","767677115188645890","陶","11","Female","[""坏我"",""坏她"",""好她"",""好我""]","[""弱我"",""弱她"",""强她"",""强我""]","","","","","","","","yes","","","","","","","","","SRET","EW_formal","","key","j","8.376410256410226","720","446","自己","能干","Positive","ability","","","","","","","","","","",""
"669","","j","psychophysics","34","241466","0.0-7.0-3.0-0.20","7","5","6","6","5","4","4","5","4","5","4","0","1","1","2","0","1","1","2","5","4","5","4","4","3","4","4","5","4","5","7","4","7","4","6","5","6","6","5","6","5","7","6","5","5","5","5","6","1","6","5","2","5","6","5","6","6","5","5","5","6","6","5","5","7","6","6","5","6","7","6","6","5","5","6","6","5","5","7","767677115188645890","陶","11","Female","[""坏我"",""坏她"",""好她"",""好我""]","[""弱我"",""弱她"",""强她"",""强我""]","","","","","","","","yes","","","","","","","","","SRET","EW_formal","","key","j","8.418274111675098","720","446","朋友","无私","Positive","morality","","","","","","","","","","",""
"832","","f","psychophysics","35","243305","0.0-7.0-3.0-0.21","7","5","6","6","5","4","4","5","4","5","4","0","1","1","2","0","1","1","2","5","4","5","4","4","3","4","4","5","4","5","7","4","7","4","6","5","6","6","5","6","5","7","6","5","5","5","5","6","1","6","5","2","5","6","5","6","6","5","5","5","6","6","5","5","7","6","6","5","6","7","6","6","5","5","6","6","5","5","7","767677115188645890","陶","11","Female","[""坏我"",""坏她"",""好她"",""好我""]","[""弱我"",""弱她"",""强她"",""强我""]","","","","","","","","no","","","","","","","","","SRET","EW_formal","","key","f","8.371689497716869","720","446","自己","马虎","Negative","ability","","","","","","","","","","",""
"682","","j","psychophysics","36","244991","0.0-7.0-3.0-0.22","7","5","6","6","5","4","4","5","4","5","4","0","1","1","2","0","1","1","2","5","4","5","4","4","3","4","4","5","4","5","7","4","7","4","6","5","6","6","5","6","5","7","6","5","5","5","5","6","1","6","5","2","5","6","5","6","6","5","5","5","6","6","5","5","7","6","6","5","6","7","6","6","5","5","6","6","5","5","7","767677115188645890","陶","11","Female","[""坏我"",""坏她"",""好她"",""好我""]","[""弱我"",""弱她"",""强她"",""强我""]","","","","","","","","yes","","","","","","","","","SRET","EW_formal","","key","j","8.374499999999971","720","446","自己","好心","Positive","morality","","","","","","","","","","",""
"836","","f","psychophysics","37","246834","0.0-7.0-3.0-0.23","7","5","6","6","5","4","4","5","4","5","4","0","1","1","2","0","1","1","2","5","4","5","4","4","3","4","4","5","4","5","7","4","7","4","6","5","6","6","5","6","5","7","6","5","5","5","5","6","1","6","5","2","5","6","5","6","6","5","5","5","6","6","5","5","7","6","6","5","6","7","6","6","5","5","6","6","5","5","7","767677115188645890","陶","11","Female","[""坏我"",""坏她"",""好她"",""好我""]","[""弱我"",""弱她"",""强她"",""强我""]","","","","","","","","no","","","","","","","","","SRET","EW_formal","","key","f","8.333636363636337","720","446","朋友","势利","Negative","morality","","","","","","","","","","",""
"1047","","f","psychophysics","38","248914","0.0-7.0-3.0-0.24","7","5","6","6","5","4","4","5","4","5","4","0","1","1","2","0","1","1","2","5","4","5","4","4","3","4","4","5","4","5","7","4","7","4","6","5","6","6","5","6","5","7","6","5","5","5","5","6","1","6","5","2","5","6","5","6","6","5","5","5","6","6","5","5","7","6","6","5","6","7","6","6","5","5","6","6","5","5","7","767677115188645890","陶","11","Female","[""坏我"",""坏她"",""好她"",""好我""]","[""弱我"",""弱她"",""强她"",""强我""]","","","","","","","","no","","","","","","","","","SRET","EW_formal","","key","f","8.46897959183671","720","446","朋友","拙笨","Negative","ability","","","","","","","","","","",""
"836","","j","psychophysics","39","250753","0.0-7.0-3.0-0.25","7","5","6","6","5","4","4","5","4","5","4","0","1","1","2","0","1","1","2","5","4","5","4","4","3","4","4","5","4","5","7","4","7","4","6","5","6","6","5","6","5","7","6","5","5","5","5","6","1","6","5","2","5","6","5","6","6","5","5","5","6","6","5","5","7","6","6","5","6","7","6","6","5","5","6","6","5","5","7","767677115188645890","陶","11","Female","[""坏我"",""坏她"",""好她"",""好我""]","[""弱我"",""弱她"",""强她"",""强我""]","","","","","","","","yes","","","","","","","","","SRET","EW_formal","","key","j","8.410091743119239","720","446","自己","沉着","Positive","ability","","","","","","","","","","",""
"631","","j","psychophysics","40","252386","0.0-7.0-3.0-0.26","7","5","6","6","5","4","4","5","4","5","4","0","1","1","2","0","1","1","2","5","4","5","4","4","3","4","4","5","4","5","7","4","7","4","6","5","6","6","5","6","5","7","6","5","5","5","5","6","1","6","5","2","5","6","5","6","6","5","5","5","6","6","5","5","7","6","6","5","6","7","6","6","5","5","6","6","5","5","7","767677115188645890","陶","11","Female","[""坏我"",""坏她"",""好她"",""好我""]","[""弱我"",""弱她"",""强她"",""强我""]","","","","","","","","yes","","","","","","","","","SRET","EW_formal","","key","j","8.507853403141361","720","446","自己","忠勇","Positive","morality","","","","","","","","","","",""
"639","","f","psychophysics","41","254027","0.0-7.0-3.0-0.27","7","5","6","6","5","4","4","5","4","5","4","0","1","1","2","0","1","1","2","5","4","5","4","4","3","4","4","5","4","5","7","4","7","4","6","5","6","6","5","6","5","7","6","5","5","5","5","6","1","6","5","2","5","6","5","6","6","5","5","5","6","6","5","5","7","6","6","5","6","7","6","6","5","5","6","6","5","5","7","767677115188645890","陶","11","Female","[""坏我"",""坏她"",""好她"",""好我""]","[""弱我"",""弱她"",""强她"",""强我""]","","","","","","","","no","","","","","","","","","SRET","EW_formal","","key","f","8.333163265306062","720","446","自己","贪污","Negative","morality","","","","","","","","","","",""
"607","","j","psychophysics","42","255653","0.0-7.0-3.0-0.28","7","5","6","6","5","4","4","5","4","5","4","0","1","1","2","0","1","1","2","5","4","5","4","4","3","4","4","5","4","5","7","4","7","4","6","5","6","6","5","6","5","7","6","5","5","5","5","6","1","6","5","2","5","6","5","6","6","5","5","5","6","6","5","5","7","6","6","5","6","7","6","6","5","5","6","6","5","5","7","767677115188645890","陶","11","Female","[""坏我"",""坏她"",""好她"",""好我""]","[""弱我"",""弱她"",""强她"",""强我""]","","","","","","","","yes","","","","","","","","","SRET","EW_formal","","key","j","8.33298969072153","720","446","朋友","敬业","Positive","morality","","","","","","","","","","",""
"555","","j","psychophysics","43","257210","0.0-7.0-3.0-0.29","7","5","6","6","5","4","4","5","4","5","4","0","1","1","2","0","1","1","2","5","4","5","4","4","3","4","4","5","4","5","7","4","7","4","6","5","6","6","5","6","5","7","6","5","5","5","5","6","1","6","5","2","5","6","5","6","6","5","5","5","6","6","5","5","7","6","6","5","6","7","6","6","5","5","6","6","5","5","7","767677115188645890","陶","11","Female","[""坏我"",""坏她"",""好她"",""好我""]","[""弱我"",""弱她"",""强她"",""强我""]","","","","","","","","yes","","","","","","","","","SRET","EW_formal","","key","j","8.47049180327872","720","446","自己","慈悲","Positive","morality","","","","","","","","","","",""
"474","","j","psychophysics","44","258706","0.0-7.0-3.0-0.30","7","5","6","6","5","4","4","5","4","5","4","0","1","1","2","0","1","1","2","5","4","5","4","4","3","4","4","5","4","5","7","4","7","4","6","5","6","6","5","6","5","7","6","5","5","5","5","6","1","6","5","2","5","6","5","6","6","5","5","5","6","6","5","5","7","6","6","5","6","7","6","6","5","5","6","6","5","5","7","767677115188645890","陶","11","Female","[""坏我"",""坏她"",""好她"",""好我""]","[""弱我"",""弱她"",""强她"",""强我""]","","","","","","","","yes","","","","","","","","","SRET","EW_formal","","key","j","8.380790960451945","720","446","自己","善心","Positive","morality","","","","","","","","","","",""
"644","","f","psychophysics","45","260352","0.0-7.0-3.0-0.31","7","5","6","6","5","4","4","5","4","5","4","0","1","1","2","0","1","1","2","5","4","5","4","4","3","4","4","5","4","5","7","4","7","4","6","5","6","6","5","6","5","7","6","5","5","5","5","6","1","6","5","2","5","6","5","6","6","5","5","5","6","6","5","5","7","6","6","5","6","7","6","6","5","5","6","6","5","5","7","767677115188645890","陶","11","Female","[""坏我"",""坏她"",""好她"",""好我""]","[""弱我"",""弱她"",""强她"",""强我""]","","","","","","","","no","","","","","","","","","SRET","EW_formal","","key","f","8.462886597938084","720","446","自己","迟钝","Negative","ability","","","","","","","","","","",""
"580","","f","psychophysics","46","261935","0.0-7.0-3.0-0.32","7","5","6","6","5","4","4","5","4","5","4","0","1","1","2","0","1","1","2","5","4","5","4","4","3","4","4","5","4","5","7","4","7","4","6","5","6","6","5","6","5","7","6","5","5","5","5","6","1","6","5","2","5","6","5","6","6","5","5","5","6","6","5","5","7","6","6","5","6","7","6","6","5","5","6","6","5","5","7","767677115188645890","陶","11","Female","[""坏我"",""坏她"",""好她"",""好我""]","[""弱我"",""弱她"",""强她"",""强我""]","","","","","","","","no","","","","","","","","","SRET","EW_formal","","key","f","8.377127659574438","720","446","朋友","偏私","Negative","morality","","","","","","","","","","",""
"584","","j","psychophysics","47","263520","0.0-7.0-3.0-0.33","7","5","6","6","5","4","4","5","4","5","4","0","1","1","2","0","1","1","2","5","4","5","4","4","3","4","4","5","4","5","7","4","7","4","6","5","6","6","5","6","5","7","6","5","5","5","5","6","1","6","5","2","5","6","5","6","6","5","5","5","6","6","5","5","7","6","6","5","6","7","6","6","5","5","6","6","5","5","7","767677115188645890","陶","11","Female","[""坏我"",""坏她"",""好她"",""好我""]","[""弱我"",""弱她"",""强她"",""强我""]","","","","","","","","yes","","","","","","","","","SRET","EW_formal","","key","j","8.333333333333334","720","446","朋友","谦逊","Positive","morality","","","","","","","","","","",""
"972","","f","psychophysics","48","265503","0.0-7.0-3.0-0.34","7","5","6","6","5","4","4","5","4","5","4","0","1","1","2","0","1","1","2","5","4","5","4","4","3","4","4","5","4","5","7","4","7","4","6","5","6","6","5","6","5","7","6","5","5","5","5","6","1","6","5","2","5","6","5","6","6","5","5","5","6","6","5","5","7","6","6","5","6","7","6","6","5","5","6","6","5","5","7","767677115188645890","陶","11","Female","[""坏我"",""坏她"",""好她"",""好我""]","[""弱我"",""弱她"",""强她"",""强我""]","","","","","","","","no","","","","","","","","","SRET","EW_formal","","key","f","8.334599156118095","720","446","朋友","无耻","Negative","morality","","","","","","","","","","",""
"754","","f","psychophysics","49","267260","0.0-7.0-3.0-0.35","7","5","6","6","5","4","4","5","4","5","4","0","1","1","2","0","1","1","2","5","4","5","4","4","3","4","4","5","4","5","7","4","7","4","6","5","6","6","5","6","5","7","6","5","5","5","5","6","1","6","5","2","5","6","5","6","6","5","5","5","6","6","5","5","7","6","6","5","6","7","6","6","5","5","6","6","5","5","7","767677115188645890","陶","11","Female","[""坏我"",""坏她"",""好她"",""好我""]","[""弱我"",""弱她"",""强她"",""强我""]","","","","","","","","no","","","","","","","","","SRET","EW_formal","","key","f","8.373205741626794","720","446","自己","业余","Negative","ability","","","","","","","","","","",""
"606","","j","psychophysics","50","268868","0.0-7.0-3.0-0.36","7","5","6","6","5","4","4","5","4","5","4","0","1","1","2","0","1","1","2","5","4","5","4","4","3","4","4","5","4","5","7","4","7","4","6","5","6","6","5","6","5","7","6","5","5","5","5","6","1","6","5","2","5","6","5","6","6","5","5","5","6","6","5","5","7","6","6","5","6","7","6","6","5","5","6","6","5","5","7","767677115188645890","陶","11","Female","[""坏我"",""坏她"",""好她"",""好我""]","[""弱我"",""弱她"",""强她"",""强我""]","","","","","","","","yes","","","","","","","","","SRET","EW_formal","","key","j","8.332812500000122","720","446","自己","忠义","Positive","morality","","","","","","","","","","",""
"734","","j","psychophysics","51","270605","0.0-7.0-3.0-0.37","7","5","6","6","5","4","4","5","4","5","4","0","1","1","2","0","1","1","2","5","4","5","4","4","3","4","4","5","4","5","7","4","7","4","6","5","6","6","5","6","5","7","6","5","5","5","5","6","1","6","5","2","5","6","5","6","6","5","5","5","6","6","5","5","7","6","6","5","6","7","6","6","5","5","6","6","5","5","7","767677115188645890","陶","11","Female","[""坏我"",""坏她"",""好她"",""好我""]","[""弱我"",""弱她"",""强她"",""强我""]","","","","","","","","yes","","","","","","","","","SRET","EW_formal","","key","j","8.414634146341463","720","446","自己","学霸","Positive","ability","","","","","","","","","","",""
"497","","j","psychophysics","52","272104","0.0-7.0-3.0-0.38","7","5","6","6","5","4","4","5","4","5","4","0","1","1","2","0","1","1","2","5","4","5","4","4","3","4","4","5","4","5","7","4","7","4","6","5","6","6","5","6","5","7","6","5","5","5","5","6","1","6","5","2","5","6","5","6","6","5","5","5","6","6","5","5","7","6","6","5","6","7","6","6","5","5","6","6","5","5","7","767677115188645890","陶","11","Female","[""坏我"",""坏她"",""好她"",""好我""]","[""弱我"",""弱她"",""强她"",""强我""]","","","","","","","","yes","","","","","","","","","SRET","EW_formal","","key","j","8.380898876404428","720","446","朋友","博学","Positive","ability","","","","","","","","","","",""
"1532","","j","psychophysics","53","274643","0.0-7.0-3.0-0.39","7","5","6","6","5","4","4","5","4","5","4","0","1","1","2","0","1","1","2","5","4","5","4","4","3","4","4","5","4","5","7","4","7","4","6","5","6","6","5","6","5","7","6","5","5","5","5","6","1","6","5","2","5","6","5","6","6","5","5","5","6","6","5","5","7","6","6","5","6","7","6","6","5","5","6","6","5","5","7","767677115188645890","陶","11","Female","[""坏我"",""坏她"",""好她"",""好我""]","[""弱我"",""弱她"",""强她"",""强我""]","","","","","","","","yes","","","","","","","","","SRET","EW_formal","","key","j","8.361056105610446","720","446","自己","高明","Positive","ability","","","","","","","","","","",""
"553","","f","psychophysics","54","276214","0.0-7.0-3.0-0.40","7","5","6","6","5","4","4","5","4","5","4","0","1","1","2","0","1","1","2","5","4","5","4","4","3","4","4","5","4","5","7","4","7","4","6","5","6","6","5","6","5","7","6","5","5","5","5","6","1","6","5","2","5","6","5","6","6","5","5","5","6","6","5","5","7","6","6","5","6","7","6","6","5","5","6","6","5","5","7","767677115188645890","陶","11","Female","[""坏我"",""坏她"",""好她"",""好我""]","[""弱我"",""弱她"",""强她"",""强我""]","","","","","","","","no","","","","","","","","","SRET","EW_formal","","key","f","8.379569892472993","720","446","自己","歹毒","Negative","morality","","","","","","","","","","",""
"635","","f","psychophysics","55","277852","0.0-7.0-3.0-0.41","7","5","6","6","5","4","4","5","4","5","4","0","1","1","2","0","1","1","2","5","4","5","4","4","3","4","4","5","4","5","7","4","7","4","6","5","6","6","5","6","5","7","6","5","5","5","5","6","1","6","5","2","5","6","5","6","6","5","5","5","6","6","5","5","7","6","6","5","6","7","6","6","5","5","6","6","5","5","7","767677115188645890","陶","11","Female","[""坏我"",""坏她"",""好她"",""好我""]","[""弱我"",""弱她"",""强她"",""强我""]","","","","","","","","no","","","","","","","","","SRET","EW_formal","","key","f","8.461139896373057","720","446","朋友","庸碌","Negative","ability","","","","","","","","","","",""
"572","","f","psychophysics","56","279427","0.0-7.0-3.0-0.42","7","5","6","6","5","4","4","5","4","5","4","0","1","1","2","0","1","1","2","5","4","5","4","4","3","4","4","5","4","5","7","4","7","4","6","5","6","6","5","6","5","7","6","5","5","5","5","6","1","6","5","2","5","6","5","6","6","5","5","5","6","6","5","5","7","6","6","5","6","7","6","6","5","5","6","6","5","5","7","767677115188645890","陶","11","Female","[""坏我"",""坏她"",""好她"",""好我""]","[""弱我"",""弱她"",""强她"",""强我""]","","","","","","","","no","","","","","","","","","SRET","EW_formal","","key","f","8.422580645161165","720","446","朋友","黑心","Negative","morality","","","","","","","","","","",""
"730","","f","psychophysics","57","281159","0.0-7.0-3.0-0.43","7","5","6","6","5","4","4","5","4","5","4","0","1","1","2","0","1","1","2","5","4","5","4","4","3","4","4","5","4","5","7","4","7","4","6","5","6","6","5","6","5","7","6","5","5","5","5","6","1","6","5","2","5","6","5","6","6","5","5","5","6","6","5","5","7","6","6","5","6","7","6","6","5","5","6","6","5","5","7","767677115188645890","陶","11","Female","[""坏我"",""坏她"",""好她"",""好我""]","[""弱我"",""弱她"",""强她"",""强我""]","","","","","","","","no","","","","","","","","","SRET","EW_formal","","key","f","8.455882352941176","720","446","自己","窝囊","Negative","ability","","","","","","","","","","",""
"602","","j","psychophysics","58","282769","0.0-7.0-3.0-0.44","7","5","6","6","5","4","4","5","4","5","4","0","1","1","2","0","1","1","2","5","4","5","4","4","3","4","4","5","4","5","7","4","7","4","6","5","6","6","5","6","5","7","6","5","5","5","5","6","1","6","5","2","5","6","5","6","6","5","5","5","6","6","5","5","7","6","6","5","6","7","6","6","5","5","6","6","5","5","7","767677115188645890","陶","11","Female","[""坏我"",""坏她"",""好她"",""好我""]","[""弱我"",""弱她"",""强她"",""强我""]","","","","","","","","yes","","","","","","","","","SRET","EW_formal","","key","j","8.334895833333576","720","446","朋友","博识","Positive","ability","","","","","","","","","","",""
"865","","f","psychophysics","59","284637","0.0-7.0-3.0-0.45","7","5","6","6","5","4","4","5","4","5","4","0","1","1","2","0","1","1","2","5","4","5","4","4","3","4","4","5","4","5","7","4","7","4","6","5","6","6","5","6","5","7","6","5","5","5","5","6","1","6","5","2","5","6","5","6","6","5","5","5","6","6","5","5","7","6","6","5","6","7","6","6","5","5","6","6","5","5","7","767677115188645890","陶","11","Female","[""坏我"",""坏她"",""好她"",""好我""]","[""弱我"",""弱她"",""强她"",""强我""]","","","","","","","","no","","","","","","","","","SRET","EW_formal","","key","f","8.370720720720668","720","446","朋友","粗心","Negative","ability","","","","","","","","","","",""
"788","","f","psychophysics","60","286427","0.0-7.0-3.0-0.46","7","5","6","6","5","4","4","5","4","5","4","0","1","1","2","0","1","1","2","5","4","5","4","4","3","4","4","5","4","5","7","4","7","4","6","5","6","6","5","6","5","7","6","5","5","5","5","6","1","6","5","2","5","6","5","6","6","5","5","5","6","6","5","5","7","6","6","5","6","7","6","6","5","5","6","6","5","5","7","767677115188645890","陶","11","Female","[""坏我"",""坏她"",""好她"",""好我""]","[""弱我"",""弱她"",""强她"",""强我""]","","","","","","","","no","","","","","","","","","SRET","EW_formal","","key","f","8.333177570093676","720","446","自己","毛糙","Negative","ability","","","","","","","","","","",""
"609","","f","psychophysics","61","288039","0.0-7.0-3.0-0.47","7","5","6","6","5","4","4","5","4","5","4","0","1","1","2","0","1","1","2","5","4","5","4","4","3","4","4","5","4","5","7","4","7","4","6","5","6","6","5","6","5","7","6","5","5","5","5","6","1","6","5","2","5","6","5","6","6","5","5","5","6","6","5","5","7","6","6","5","6","7","6","6","5","5","6","6","5","5","7","767677115188645890","陶","11","Female","[""坏我"",""坏她"",""好她"",""好我""]","[""弱我"",""弱她"",""强她"",""强我""]","","","","","","","","no","","","","","","","","","SRET","EW_formal","","key","f","8.33437500000006","720","446","自己","草率","Negative","ability","","","","","","","","","","",""
"613","","f","psychophysics","62","289654","0.0-7.0-3.0-0.48","7","5","6","6","5","4","4","5","4","5","4","0","1","1","2","0","1","1","2","5","4","5","4","4","3","4","4","5","4","5","7","4","7","4","6","5","6","6","5","6","5","7","6","5","5","5","5","6","1","6","5","2","5","6","5","6","6","5","5","5","6","6","5","5","7","6","6","5","6","7","6","6","5","5","6","6","5","5","7","767677115188645890","陶","11","Female","[""坏我"",""坏她"",""好她"",""好我""]","[""弱我"",""弱她"",""强她"",""强我""]","","","","","","","","no","","","","","","","","","SRET","EW_formal","","key","f","8.371875000000122","720","446","朋友","虚假","Negative","morality","","","","","","","","","","",""
"566","","j","psychophysics","63","291221","0.0-7.0-3.0-0.49","7","5","6","6","5","4","4","5","4","5","4","0","1","1","2","0","1","1","2","5","4","5","4","4","3","4","4","5","4","5","7","4","7","4","6","5","6","6","5","6","5","7","6","5","5","5","5","6","1","6","5","2","5","6","5","6","6","5","5","5","6","6","5","5","7","6","6","5","6","7","6","6","5","5","6","6","5","5","7","767677115188645890","陶","11","Female","[""坏我"",""坏她"",""好她"",""好我""]","[""弱我"",""弱她"",""强她"",""强我""]","","","","","","","","yes","","","","","","","","","SRET","EW_formal","","key","j","8.332620320855677","720","446","自己","正气","Positive","morality","","","","","","","","","","",""
"784","","f","psychophysics","64","293035","0.0-7.0-3.0-0.50","7","5","6","6","5","4","4","5","4","5","4","0","1","1","2","0","1","1","2","5","4","5","4","4","3","4","4","5","4","5","7","4","7","4","6","5","6","6","5","6","5","7","6","5","5","5","5","6","1","6","5","2","5","6","5","6","6","5","5","5","6","6","5","5","7","6","6","5","6","7","6","6","5","5","6","6","5","5","7","767677115188645890","陶","11","Female","[""坏我"",""坏她"",""好她"",""好我""]","[""弱我"",""弱她"",""强她"",""强我""]","","","","","","","","no","","","","","","","","","SRET","EW_formal","","key","f","8.334562211981728","720","446","朋友","虚伪","Negative","morality","","","","","","","","","","",""
"623","","f","psychophysics","65","294659","0.0-7.0-3.0-0.51","7","5","6","6","5","4","4","5","4","5","4","0","1","1","2","0","1","1","2","5","4","5","4","4","3","4","4","5","4","5","7","4","7","4","6","5","6","6","5","6","5","7","6","5","5","5","5","6","1","6","5","2","5","6","5","6","6","5","5","5","6","6","5","5","7","6","6","5","6","7","6","6","5","5","6","6","5","5","7","767677115188645890","陶","11","Female","[""坏我"",""坏她"",""好她"",""好我""]","[""弱我"",""弱她"",""强她"",""强我""]","","","","","","","","no","","","","","","","","","SRET","EW_formal","","key","f","8.333505154639235","720","446","朋友","弱智","Negative","ability","","","","","","","","","","",""
"971","","j","psychophysics","66","296632","0.0-7.0-3.0-0.52","7","5","6","6","5","4","4","5","4","5","4","0","1","1","2","0","1","1","2","5","4","5","4","4","3","4","4","5","4","5","7","4","7","4","6","5","6","6","5","6","5","7","6","5","5","5","5","6","1","6","5","2","5","6","5","6","6","5","5","5","6","6","5","5","7","6","6","5","6","7","6","6","5","5","6","6","5","5","7","767677115188645890","陶","11","Female","[""坏我"",""坏她"",""好她"",""好我""]","[""弱我"",""弱她"",""强她"",""强我""]","","","","","","","","yes","","","","","","","","","SRET","EW_formal","","key","j","8.333191489361653","720","446","朋友","高尚","Positive","morality","","","","","","","","","","",""
"942","","j","psychophysics","67","298575","0.0-7.0-3.0-0.53","7","5","6","6","5","4","4","5","4","5","4","0","1","1","2","0","1","1","2","5","4","5","4","4","3","4","4","5","4","5","7","4","7","4","6","5","6","6","5","6","5","7","6","5","5","5","5","6","1","6","5","2","5","6","5","6","6","5","5","5","6","6","5","5","7","6","6","5","6","7","6","6","5","5","6","6","5","5","7","767677115188645890","陶","11","Female","[""坏我"",""坏她"",""好她"",""好我""]","[""弱我"",""弱她"",""强她"",""强我""]","","","","","","","","yes","","","","","","","","","SRET","EW_formal","","key","j","8.33304721030058","720","446","自己","变通","Positive","ability","","","","","","","","","","",""
"507","","j","psychophysics","68","300084","0.0-7.0-3.0-0.54","7","5","6","6","5","4","4","5","4","5","4","0","1","1","2","0","1","1","2","5","4","5","4","4","3","4","4","5","4","5","7","4","7","4","6","5","6","6","5","6","5","7","6","5","5","5","5","6","1","6","5","2","5","6","5","6","6","5","5","5","6","6","5","5","7","6","6","5","6","7","6","6","5","5","6","6","5","5","7","767677115188645890","陶","11","Female","[""坏我"",""坏她"",""好她"",""好我""]","[""弱我"",""弱她"",""强她"",""强我""]","","","","","","","","yes","","","","","","","","","SRET","EW_formal","","key","j","8.333333333333334","720","446","自己","慷慨","Positive","morality","","","","","","","","","","",""
"818","","j","psychophysics","69","301903","0.0-7.0-3.0-0.55","7","5","6","6","5","4","4","5","4","5","4","0","1","1","2","0","1","1","2","5","4","5","4","4","3","4","4","5","4","5","7","4","7","4","6","5","6","6","5","6","5","7","6","5","5","5","5","6","1","6","5","2","5","6","5","6","6","5","5","5","6","6","5","5","7","6","6","5","6","7","6","6","5","5","6","6","5","5","7","767677115188645890","陶","11","Female","[""坏我"",""坏她"",""好她"",""好我""]","[""弱我"",""弱她"",""强她"",""强我""]","","","","","","","","yes","","","","","","","","","SRET","EW_formal","","key","j","8.334101382488479","720","446","朋友","勤奋","Positive","ability","","","","","","","","","","",""
"871","","j","psychophysics","70","303775","0.0-7.0-3.0-0.56","7","5","6","6","5","4","4","5","4","5","4","0","1","1","2","0","1","1","2","5","4","5","4","4","3","4","4","5","4","5","7","4","7","4","6","5","6","6","5","6","5","7","6","5","5","5","5","6","1","6","5","2","5","6","5","6","6","5","5","5","6","6","5","5","7","6","6","5","6","7","6","6","5","5","6","6","5","5","7","767677115188645890","陶","11","Female","[""坏我"",""坏她"",""好她"",""好我""]","[""弱我"",""弱她"",""强她"",""强我""]","","","","","","","","yes","","","","","","","","","SRET","EW_formal","","key","j","8.33318385650219","720","446","朋友","高效","Positive","ability","","","","","","","","","","",""
"967","","j","psychophysics","71","305746","0.0-7.0-3.0-0.57","7","5","6","6","5","4","4","5","4","5","4","0","1","1","2","0","1","1","2","5","4","5","4","4","3","4","4","5","4","5","7","4","7","4","6","5","6","6","5","6","5","7","6","5","5","5","5","6","1","6","5","2","5","6","5","6","6","5","5","5","6","6","5","5","7","6","6","5","6","7","6","6","5","5","6","6","5","5","7","767677115188645890","陶","11","Female","[""坏我"",""坏她"",""好她"",""好我""]","[""弱我"",""弱她"",""强她"",""强我""]","","","","","","","","yes","","","","","","","","","SRET","EW_formal","","key","j","8.333474576271236","720","446","自己","厚道","Positive","morality","","","","","","","","","","",""
"766","","j","psychophysics","72","307514","0.0-7.0-3.0-0.58","7","5","6","6","5","4","4","5","4","5","4","0","1","1","2","0","1","1","2","5","4","5","4","4","3","4","4","5","4","5","7","4","7","4","6","5","6","6","5","6","5","7","6","5","5","5","5","6","1","6","5","2","5","6","5","6","6","5","5","5","6","6","5","5","7","6","6","5","6","7","6","6","5","5","6","6","5","5","7","767677115188645890","陶","11","Female","[""坏我"",""坏她"",""好她"",""好我""]","[""弱我"",""弱她"",""强她"",""强我""]","","","","","","","","yes","","","","","","","","","SRET","EW_formal","","key","j","8.333649289099636","720","446","朋友","守法","Positive","morality","","","","","","","","","","",""
"989","","f","psychophysics","73","309508","0.0-7.0-3.0-0.59","7","5","6","6","5","4","4","5","4","5","4","0","1","1","2","0","1","1","2","5","4","5","4","4","3","4","4","5","4","5","7","4","7","4","6","5","6","6","5","6","5","7","6","5","5","5","5","6","1","6","5","2","5","6","5","6","6","5","5","5","6","6","5","5","7","6","6","5","6","7","6","6","5","5","6","6","5","5","7","767677115188645890","陶","11","Female","[""坏我"",""坏她"",""好她"",""好我""]","[""弱我"",""弱她"",""强她"",""强我""]","","","","","","","","no","","","","","","","","","SRET","EW_formal","","key","f","8.333472803347329","720","446","朋友","才尽","Negative","ability","","","","","","","","","","",""
"662","","f","psychophysics","74","311172","0.0-7.0-3.0-0.60","7","5","6","6","5","4","4","5","4","5","4","0","1","1","2","0","1","1","2","5","4","5","4","4","3","4","4","5","4","5","7","4","7","4","6","5","6","6","5","6","5","7","6","5","5","5","5","6","1","6","5","2","5","6","5","6","6","5","5","5","6","6","5","5","7","6","6","5","6","7","6","6","5","5","6","6","5","5","7","767677115188645890","陶","11","Female","[""坏我"",""坏她"",""好她"",""好我""]","[""弱我"",""弱她"",""强她"",""强我""]","","","","","","","","no","","","","","","","","","SRET","EW_formal","","key","f","8.333333333333334","720","446","朋友","差生","Negative","ability","","","","","","","","","","",""
"1061","","j","psychophysics","75","313234","0.0-7.0-3.0-0.61","7","5","6","6","5","4","4","5","4","5","4","0","1","1","2","0","1","1","2","5","4","5","4","4","3","4","4","5","4","5","7","4","7","4","6","5","6","6","5","6","5","7","6","5","5","5","5","6","1","6","5","2","5","6","5","6","6","5","5","5","6","6","5","5","7","6","6","5","6","7","6","6","5","5","6","6","5","5","7","767677115188645890","陶","11","Female","[""坏我"",""坏她"",""好她"",""好我""]","[""弱我"",""弱她"",""强她"",""强我""]","","","","","","","","yes","","","","","","","","","SRET","EW_formal","","key","j","8.367073170731897","720","446","朋友","文明","Positive","morality","","","","","","","","","","",""
"1265","","j","psychophysics","76","315501","0.0-7.0-3.0-0.62","7","5","6","6","5","4","4","5","4","5","4","0","1","1","2","0","1","1","2","5","4","5","4","4","3","4","4","5","4","5","7","4","7","4","6","5","6","6","5","6","5","7","6","5","5","5","5","6","1","6","5","2","5","6","5","6","6","5","5","5","6","6","5","5","7","6","6","5","6","7","6","6","5","5","6","6","5","5","7","767677115188645890","陶","11","Female","[""坏我"",""坏她"",""好她"",""好我""]","[""弱我"",""弱她"",""强她"",""强我""]","","","","","","","","yes","","","","","","","","","SRET","EW_formal","","key","j","8.333210332103278","720","446","朋友","无敌","Positive","ability","","","","","","","","","","",""
"580","","f","psychophysics","77","317084","0.0-7.0-3.0-0.63","7","5","6","6","5","4","4","5","4","5","4","0","1","1","2","0","1","1","2","5","4","5","4","4","3","4","4","5","4","5","7","4","7","4","6","5","6","6","5","6","5","7","6","5","5","5","5","6","1","6","5","2","5","6","5","6","6","5","5","5","6","6","5","5","7","6","6","5","6","7","6","6","5","5","6","6","5","5","7","767677115188645890","陶","11","Female","[""坏我"",""坏她"",""好她"",""好我""]","[""弱我"",""弱她"",""强她"",""强我""]","","","","","","","","no","","","","","","","","","SRET","EW_formal","","key","f","8.333333333333334","720","446","自己","罪恶","Negative","morality","","","","","","","","","","",""
"757","","j","psychophysics","78","318842","0.0-7.0-3.0-0.64","7","5","6","6","5","4","4","5","4","5","4","0","1","1","2","0","1","1","2","5","4","5","4","4","3","4","4","5","4","5","7","4","7","4","6","5","6","6","5","6","5","7","6","5","5","5","5","6","1","6","5","2","5","6","5","6","6","5","5","5","6","6","5","5","7","6","6","5","6","7","6","6","5","5","6","6","5","5","7","767677115188645890","陶","11","Female","[""坏我"",""坏她"",""好她"",""好我""]","[""弱我"",""弱她"",""强她"",""强我""]","","","","","","","","yes","","","","","","","","","SRET","EW_formal","","key","j","8.33428571428577","720","446","自己","善良","Positive","morality","","","","","","","","","","",""
"574","","f","psychophysics","79","320419","0.0-7.0-3.0-0.65","7","5","6","6","5","4","4","5","4","5","4","0","1","1","2","0","1","1","2","5","4","5","4","4","3","4","4","5","4","5","7","4","7","4","6","5","6","6","5","6","5","7","6","5","5","5","5","6","1","6","5","2","5","6","5","6","6","5","5","5","6","6","5","5","7","6","6","5","6","7","6","6","5","5","6","6","5","5","7","767677115188645890","陶","11","Female","[""坏我"",""坏她"",""好她"",""好我""]","[""弱我"",""弱她"",""强她"",""强我""]","","","","","","","","no","","","","","","","","","SRET","EW_formal","","key","f","8.333510638297625","720","446","自己","背叛","Negative","morality","","","","","","","","","","",""
"537","","j","psychophysics","80","321958","0.0-7.0-3.0-0.66","7","5","6","6","5","4","4","5","4","5","4","0","1","1","2","0","1","1","2","5","4","5","4","4","3","4","4","5","4","5","7","4","7","4","6","5","6","6","5","6","5","7","6","5","5","5","5","6","1","6","5","2","5","6","5","6","6","5","5","5","6","6","5","5","7","6","6","5","6","7","6","6","5","5","6","6","5","5","7","767677115188645890","陶","11","Female","[""坏我"",""坏她"",""好她"",""好我""]","[""弱我"",""弱她"",""强她"",""强我""]","","","","","","","","yes","","","","","","","","","SRET","EW_formal","","key","j","8.33315217391298","720","446","自己","忠良","Positive","morality","","","","","","","","","","",""
"643","","f","psychophysics","81","323605","0.0-7.0-3.0-0.67","7","5","6","6","5","4","4","5","4","5","4","0","1","1","2","0","1","1","2","5","4","5","4","4","3","4","4","5","4","5","7","4","7","4","6","5","6","6","5","6","5","7","6","5","5","5","5","6","1","6","5","2","5","6","5","6","6","5","5","5","6","6","5","5","7","6","6","5","6","7","6","6","5","5","6","6","5","5","7","767677115188645890","陶","11","Female","[""坏我"",""坏她"",""好她"",""好我""]","[""弱我"",""弱她"",""强她"",""强我""]","","","","","","","","no","","","","","","","","","SRET","EW_formal","","key","f","8.376923076923077","720","446","朋友","恶劣","Negative","morality","","","","","","","","","","",""
"630","","f","psychophysics","82","325236","0.0-7.0-3.0-0.68","7","5","6","6","5","4","4","5","4","5","4","0","1","1","2","0","1","1","2","5","4","5","4","4","3","4","4","5","4","5","7","4","7","4","6","5","6","6","5","6","5","7","6","5","5","5","5","6","1","6","5","2","5","6","5","6","6","5","5","5","6","6","5","5","7","6","6","5","6","7","6","6","5","5","6","6","5","5","7","767677115188645890","陶","11","Female","[""坏我"",""坏她"",""好她"",""好我""]","[""弱我"",""弱她"",""强她"",""强我""]","","","","","","","","no","","","","","","","","","SRET","EW_formal","","key","f","8.333846153846034","720","446","朋友","浅薄","Negative","ability","","","","","","","","","","",""
"577","","f","psychophysics","83","326818","0.0-7.0-3.0-0.69","7","5","6","6","5","4","4","5","4","5","4","0","1","1","2","0","1","1","2","5","4","5","4","4","3","4","4","5","4","5","7","4","7","4","6","5","6","6","5","6","5","7","6","5","5","5","5","6","1","6","5","2","5","6","5","6","6","5","5","5","6","6","5","5","7","6","6","5","6","7","6","6","5","5","6","6","5","5","7","767677115188645890","陶","11","Female","[""坏我"",""坏她"",""好她"",""好我""]","[""弱我"",""弱她"",""强她"",""强我""]","","","","","","","","no","","","","","","","","","SRET","EW_formal","","key","f","8.333862433862311","720","446","朋友","小人","Negative","morality","","","","","","","","","","",""
"842","","f","psychophysics","84","328662","0.0-7.0-3.0-0.70","7","5","6","6","5","4","4","5","4","5","4","0","1","1","2","0","1","1","2","5","4","5","4","4","3","4","4","5","4","5","7","4","7","4","6","5","6","6","5","6","5","7","6","5","5","5","5","6","1","6","5","2","5","6","5","6","6","5","5","5","6","6","5","5","7","6","6","5","6","7","6","6","5","5","6","6","5","5","7","767677115188645890","陶","11","Female","[""坏我"",""坏她"",""好她"",""好我""]","[""弱我"",""弱她"",""强她"",""强我""]","","","","","","","","no","","","","","","","","","SRET","EW_formal","","key","f","8.449769585253618","720","446","自己","畏难","Negative","ability","","","","","","","","","","",""
"604","","j","psychophysics","85","330268","0.0-7.0-3.0-0.71","7","5","6","6","5","4","4","5","4","5","4","0","1","1","2","0","1","1","2","5","4","5","4","4","3","4","4","5","4","5","7","4","7","4","6","5","6","6","5","6","5","7","6","5","5","5","5","6","1","6","5","2","5","6","5","6","6","5","5","5","6","6","5","5","7","6","6","5","6","7","6","6","5","5","6","6","5","5","7","767677115188645890","陶","11","Female","[""坏我"",""坏她"",""好她"",""好我""]","[""弱我"",""弱她"",""强她"",""强我""]","","","","","","","","yes","","","","","","","","","SRET","EW_formal","","key","j","8.421578947368298","720","446","朋友","义气","Positive","morality","","","","","","","","","","",""
"519","","f","psychophysics","86","331789","0.0-7.0-3.0-0.72","7","5","6","6","5","4","4","5","4","5","4","0","1","1","2","0","1","1","2","5","4","5","4","4","3","4","4","5","4","5","7","4","7","4","6","5","6","6","5","6","5","7","6","5","5","5","5","6","1","6","5","2","5","6","5","6","6","5","5","5","6","6","5","5","7","6","6","5","6","7","6","6","5","5","6","6","5","5","7","767677115188645890","陶","11","Female","[""坏我"",""坏她"",""好她"",""好我""]","[""弱我"",""弱她"",""强她"",""强我""]","","","","","","","","no","","","","","","","","","SRET","EW_formal","","key","f","8.380555555555556","720","446","自己","不端","Negative","morality","","","","","","","","","","",""
"610","","f","psychophysics","87","333402","0.0-7.0-3.0-0.73","7","5","6","6","5","4","4","5","4","5","4","0","1","1","2","0","1","1","2","5","4","5","4","4","3","4","4","5","4","5","7","4","7","4","6","5","6","6","5","6","5","7","6","5","5","5","5","6","1","6","5","2","5","6","5","6","6","5","5","5","6","6","5","5","7","6","6","5","6","7","6","6","5","5","6","6","5","5","7","767677115188645890","陶","11","Female","[""坏我"",""坏她"",""好她"",""好我""]","[""弱我"",""弱她"",""强她"",""强我""]","","","","","","","","no","","","","","","","","","SRET","EW_formal","","key","f","8.378124999999878","720","446","自己","不孝","Negative","morality","","","","","","","","","","",""
"804","","j","psychophysics","88","335209","0.0-7.0-3.0-0.74","7","5","6","6","5","4","4","5","4","5","4","0","1","1","2","0","1","1","2","5","4","5","4","4","3","4","4","5","4","5","7","4","7","4","6","5","6","6","5","6","5","7","6","5","5","5","5","6","1","6","5","2","5","6","5","6","6","5","5","5","6","6","5","5","7","6","6","5","6","7","6","6","5","5","6","6","5","5","7","767677115188645890","陶","11","Female","[""坏我"",""坏她"",""好她"",""好我""]","[""弱我"",""弱她"",""强她"",""强我""]","","","","","","","","yes","","","","","","","","","SRET","EW_formal","","key","j","8.411214953271028","720","446","朋友","刻苦","Positive","ability","","","","","","","","","","",""
"613","","f","psychophysics","89","336825","0.0-7.0-3.0-0.75","7","5","6","6","5","4","4","5","4","5","4","0","1","1","2","0","1","1","2","5","4","5","4","4","3","4","4","5","4","5","7","4","7","4","6","5","6","6","5","6","5","7","6","5","5","5","5","6","1","6","5","2","5","6","5","6","6","5","5","5","6","6","5","5","7","6","6","5","6","7","6","6","5","5","6","6","5","5","7","767677115188645890","陶","11","Female","[""坏我"",""坏她"",""好她"",""好我""]","[""弱我"",""弱她"",""强她"",""强我""]","","","","","","","","no","","","","","","","","","SRET","EW_formal","","key","f","8.333678756476504","720","446","朋友","无能","Negative","ability","","","","","","","","","","",""
"1219","","f","psychophysics","90","339047","0.0-7.0-3.0-0.76","7","5","6","6","5","4","4","5","4","5","4","0","1","1","2","0","1","1","2","5","4","5","4","4","3","4","4","5","4","5","7","4","7","4","6","5","6","6","5","6","5","7","6","5","5","5","5","6","1","6","5","2","5","6","5","6","6","5","5","5","6","6","5","5","7","6","6","5","6","7","6","6","5","5","6","6","5","5","7","767677115188645890","陶","11","Female","[""坏我"",""坏她"",""好她"",""好我""]","[""弱我"",""弱她"",""强她"",""强我""]","","","","","","","","no","","","","","","","","","SRET","EW_formal","","key","f","8.365648854962009","720","446","朋友","混账","Negative","morality","","","","","","","","","","",""
"520","","j","psychophysics","91","340569","0.0-7.0-3.0-0.77","7","5","6","6","5","4","4","5","4","5","4","0","1","1","2","0","1","1","2","5","4","5","4","4","3","4","4","5","4","5","7","4","7","4","6","5","6","6","5","6","5","7","6","5","5","5","5","6","1","6","5","2","5","6","5","6","6","5","5","5","6","6","5","5","7","6","6","5","6","7","6","6","5","5","6","6","5","5","7","767677115188645890","陶","11","Female","[""坏我"",""坏她"",""好她"",""好我""]","[""弱我"",""弱她"",""强她"",""强我""]","","","","","","","","yes","","","","","","","","","SRET","EW_formal","","key","j","8.471823204419696","720","446","自己","智慧","Positive","ability","","","","","","","","","","",""
"1040","","j","psychophysics","92","342612","0.0-7.0-3.0-0.78","7","5","6","6","5","4","4","5","4","5","4","0","1","1","2","0","1","1","2","5","4","5","4","4","3","4","4","5","4","5","7","4","7","4","6","5","6","6","5","6","5","7","6","5","5","5","5","6","1","6","5","2","5","6","5","6","6","5","5","5","6","6","5","5","7","6","6","5","6","7","6","6","5","5","6","6","5","5","7","767677115188645890","陶","11","Female","[""坏我"",""坏她"",""好她"",""好我""]","[""弱我"",""弱她"",""强她"",""强我""]","","","","","","","","yes","","","","","","","","","SRET","EW_formal","","key","j","8.367901234567757","720","446","自己","肯干","Positive","ability","","","","","","","","","","",""
"633","","j","psychophysics","93","344246","0.0-7.0-3.0-0.79","7","5","6","6","5","4","4","5","4","5","4","0","1","1","2","0","1","1","2","5","4","5","4","4","3","4","4","5","4","5","7","4","7","4","6","5","6","6","5","6","5","7","6","5","5","5","5","6","1","6","5","2","5","6","5","6","6","5","5","5","6","6","5","5","7","6","6","5","6","7","6","6","5","5","6","6","5","5","7","767677115188645890","陶","11","Female","[""坏我"",""坏她"",""好她"",""好我""]","[""弱我"",""弱她"",""强她"",""强我""]","","","","","","","","yes","","","","","","","","","SRET","EW_formal","","key","j","8.418134715025968","720","446","朋友","奉献","Positive","morality","","","","","","","","","","",""
"597","","j","psychophysics","94","345846","0.0-7.0-3.0-0.80","7","5","6","6","5","4","4","5","4","5","4","0","1","1","2","0","1","1","2","5","4","5","4","4","3","4","4","5","4","5","7","4","7","4","6","5","6","6","5","6","5","7","6","5","5","5","5","6","1","6","5","2","5","6","5","6","6","5","5","5","6","6","5","5","7","6","6","5","6","7","6","6","5","5","6","6","5","5","7","767677115188645890","陶","11","Female","[""坏我"",""坏她"",""好她"",""好我""]","[""弱我"",""弱她"",""强她"",""强我""]","","","","","","","","yes","","","","","","","","","SRET","EW_formal","","key","j","8.378947368421052","720","446","朋友","思辨","Positive","ability","","","","","","","","","","",""
"681","","j","psychophysics","95","347529","0.0-7.0-3.0-0.81","7","5","6","6","5","4","4","5","4","5","4","0","1","1","2","0","1","1","2","5","4","5","4","4","3","4","4","5","4","5","7","4","7","4","6","5","6","6","5","6","5","7","6","5","5","5","5","6","1","6","5","2","5","6","5","6","6","5","5","5","6","6","5","5","7","6","6","5","6","7","6","6","5","5","6","6","5","5","7","767677115188645890","陶","11","Female","[""坏我"",""坏她"",""好她"",""好我""]","[""弱我"",""弱她"",""强她"",""强我""]","","","","","","","","yes","","","","","","","","","SRET","EW_formal","","key","j","8.503553299492445","720","446","朋友","坦荡","Positive","morality","","","","","","","","","","",""
"583","","j","psychophysics","96","349114","0.0-7.0-3.0-0.82","7","5","6","6","5","4","4","5","4","5","4","0","1","1","2","0","1","1","2","5","4","5","4","4","3","4","4","5","4","5","7","4","7","4","6","5","6","6","5","6","5","7","6","5","5","5","5","6","1","6","5","2","5","6","5","6","6","5","5","5","6","6","5","5","7","6","6","5","6","7","6","6","5","5","6","6","5","5","7","767677115188645890","陶","11","Female","[""坏我"",""坏她"",""好她"",""好我""]","[""弱我"",""弱她"",""强她"",""强我""]","","","","","","","","yes","","","","","","","","","SRET","EW_formal","","key","j","8.378191489361578","720","446","朋友","周到","Positive","ability","","","","","","","","","","",""
"545","","f","psychophysics","97","350661","0.0-7.0-3.0-0.83","7","5","6","6","5","4","4","5","4","5","4","0","1","1","2","0","1","1","2","5","4","5","4","4","3","4","4","5","4","5","7","4","7","4","6","5","6","6","5","6","5","7","6","5","5","5","5","6","1","6","5","2","5","6","5","6","6","5","5","5","6","6","5","5","7","6","6","5","6","7","6","6","5","5","6","6","5","5","7","767677115188645890","陶","11","Female","[""坏我"",""坏她"",""好她"",""好我""]","[""弱我"",""弱她"",""强她"",""强我""]","","","","","","","","no","","","","","","","","","SRET","EW_formal","","key","f","8.379347826086894","720","446","朋友","低劣","Negative","morality","","","","","","","","","","",""
"565","","f","psychophysics","98","352228","0.0-7.0-3.0-0.84","7","5","6","6","5","4","4","5","4","5","4","0","1","1","2","0","1","1","2","5","4","5","4","4","3","4","4","5","4","5","7","4","7","4","6","5","6","6","5","6","5","7","6","5","5","5","5","6","1","6","5","2","5","6","5","6","6","5","5","5","6","6","5","5","7","6","6","5","6","7","6","6","5","5","6","6","5","5","7","767677115188645890","陶","11","Female","[""坏我"",""坏她"",""好她"",""好我""]","[""弱我"",""弱她"",""强她"",""强我""]","","","","","","","","no","","","","","","","","","SRET","EW_formal","","key","f","8.423783783783595","720","446","朋友","低俗","Negative","morality","","","","","","","","","","",""
"1145","","j","psychophysics","99","354387","0.0-7.0-3.0-0.85","7","5","6","6","5","4","4","5","4","5","4","0","1","1","2","0","1","1","2","5","4","5","4","4","3","4","4","5","4","5","7","4","7","4","6","5","6","6","5","6","5","7","6","5","5","5","5","6","1","6","5","2","5","6","5","6","6","5","5","5","6","6","5","5","7","6","6","5","6","7","6","6","5","5","6","6","5","5","7","767677115188645890","陶","11","Female","[""坏我"",""坏她"",""好她"",""好我""]","[""弱我"",""弱她"",""强她"",""强我""]","","","","","","","","yes","","","","","","","","","SRET","EW_formal","","key","j","8.36653696498059","720","446","朋友","素养","Positive","morality","","","","","","","","","","",""
"1432","","j","psychophysics","100","356820","0.0-7.0-3.0-0.86","7","5","6","6","5","4","4","5","4","5","4","0","1","1","2","0","1","1","2","5","4","5","4","4","3","4","4","5","4","5","7","4","7","4","6","5","6","6","5","6","5","7","6","5","5","5","5","6","1","6","5","2","5","6","5","6","6","5","5","5","6","6","5","5","7","6","6","5","6","7","6","6","5","5","6","6","5","5","7","767677115188645890","陶","11","Female","[""坏我"",""坏她"",""好她"",""好我""]","[""弱我"",""弱她"",""强她"",""强我""]","","","","","","","","yes","","","","","","","","","SRET","EW_formal","","key","j","8.391003460207612","720","446","自己","主见","Positive","ability","","","","","","","","","","",""
"680","","f","psychophysics","101","358502","0.0-7.0-3.0-0.87","7","5","6","6","5","4","4","5","4","5","4","0","1","1","2","0","1","1","2","5","4","5","4","4","3","4","4","5","4","5","7","4","7","4","6","5","6","6","5","6","5","7","6","5","5","5","5","6","1","6","5","2","5","6","5","6","6","5","5","5","6","6","5","5","7","6","6","5","6","7","6","6","5","5","6","6","5","5","7","767677115188645890","陶","11","Female","[""坏我"",""坏她"",""好她"",""好我""]","[""弱我"",""弱她"",""强她"",""强我""]","","","","","","","","no","","","","","","","","","SRET","EW_formal","","key","f","8.417587939698375","720","446","自己","缓慢","Negative","ability","","","","","","","","","","",""
"12886","
    <p><div style='color:white;font-size:35px; line-height:20px;'>计算任务</div></p><br>
    <p><div style='color:red;font-size:25px; line-height:20px;'>接下来，您将看到一些四则运算题，<b>请从键盘选择 0-9 进行反应。</b></div></p>
    <p><div style='color:red;font-size:25px; line-height:20px;'>请尽可能快地进行计算，计算的速度和正确率将影响报酬的发放。</div></p>
    <p><div class='footer' style='color:white;font-size:25px; line-height:20px;'>如果对本实验还有不清楚之处，请立即向实验员咨询。</p><p style='color:white;font-size:25px; line-height:20px;'>如果您明白了规则：</p><p style='color:white;font-size:22px; line-height:20px;'>请按 继续 进入练习</p>
    </div>
    ","0","html-button-response","102","371391","0.0-7.0-4.0","7","5","6","6","5","4","4","5","4","5","4","0","1","1","2","0","1","1","2","5","4","5","4","4","3","4","4","5","4","5","7","4","7","4","6","5","6","6","5","6","5","7","6","5","5","5","5","6","1","6","5","2","5","6","5","6","6","5","5","5","6","6","5","5","7","6","6","5","6","7","6","6","5","5","6","6","5","5","7","767677115188645890","陶","11","Female","[""坏我"",""坏她"",""好她"",""好我""]","[""弱我"",""弱她"",""强她"",""强我""]","","","","","","","","","","","","","","","","","SRET_math","math_instructions","Wed Jan 03 2024 10:31:27 GMT+0800 (中国标准时间)","","","","","","","","","","","","","","","","","","","",""
"1980","","9","psychophysics","103","373418","0.0-7.0-5.0-0.0","7","5","6","6","5","4","4","5","4","5","4","0","1","1","2","0","1","1","2","5","4","5","4","4","3","4","4","5","4","5","7","4","7","4","6","5","6","6","5","6","5","7","6","5","5","5","5","6","1","6","5","2","5","6","5","6","6","5","5","5","6","6","5","5","7","6","6","5","6","7","6","6","5","5","6","6","5","5","7","767677115188645890","陶","11","Female","[""坏我"",""坏她"",""好她"",""好我""]","[""弱我"",""弱她"",""强她"",""强我""]","","","","","","","","9","","","","","","","","","SRET","SRET_math_calculate","","key","9","8.345569620253018","720","446","","","","","7+2= ?","9","1","","","","","","","",""
"2020","","4","psychophysics","104","375470","0.0-7.0-5.0-0.1","7","5","6","6","5","4","4","5","4","5","4","0","1","1","2","0","1","1","2","5","4","5","4","4","3","4","4","5","4","5","7","4","7","4","6","5","6","6","5","6","5","7","6","5","5","5","5","6","1","6","5","2","5","6","5","6","6","5","5","5","6","6","5","5","7","6","6","5","6","7","6","6","5","5","6","6","5","5","7","767677115188645890","陶","11","Female","[""坏我"",""坏她"",""好她"",""好我""]","[""弱我"",""弱她"",""强她"",""强我""]","","","","","","","","4","","","","","","","","","SRET","SRET_math_calculate","","key","4","8.43677685950394","720","446","","","","","8-4= ?","4","1","","","","","","","",""
"1859","","5","psychophysics","105","377358","0.0-7.0-5.0-0.2","7","5","6","6","5","4","4","5","4","5","4","0","1","1","2","0","1","1","2","5","4","5","4","4","3","4","4","5","4","5","7","4","7","4","6","5","6","6","5","6","5","7","6","5","5","5","5","6","1","6","5","2","5","6","5","6","6","5","5","5","6","6","5","5","7","6","6","5","6","7","6","6","5","5","6","6","5","5","7","767677115188645890","陶","11","Female","[""坏我"",""坏她"",""好她"",""好我""]","[""弱我"",""弱她"",""强她"",""强我""]","","","","","","","","5","","","","","","","","","SRET","SRET_math_calculate","","key","5","8.407589285714234","720","446","","","","","2+3= ?","5","1","","","","","","","",""
"2039","","5","psychophysics","106","379400","0.0-7.0-5.0-0.3","7","5","6","6","5","4","4","5","4","5","4","0","1","1","2","0","1","1","2","5","4","5","4","4","3","4","4","5","4","5","7","4","7","4","6","5","6","6","5","6","5","7","6","5","5","5","5","6","1","6","5","2","5","6","5","6","6","5","5","5","6","6","5","5","7","6","6","5","6","7","6","6","5","5","6","6","5","5","7","767677115188645890","陶","11","Female","[""坏我"",""坏她"",""好她"",""好我""]","[""弱我"",""弱她"",""强她"",""强我""]","","","","","","","","5","","","","","","","","","SRET","SRET_math_calculate","","key","5","8.437344398340345","720","446","","","","","15-10= ?","5","1","","","","","","","",""
"3059","","8","psychophysics","107","382463","0.0-7.0-5.0-0.4","7","5","6","6","5","4","4","5","4","5","4","0","1","1","2","0","1","1","2","5","4","5","4","4","3","4","4","5","4","5","7","4","7","4","6","5","6","6","5","6","5","7","6","5","5","5","5","6","1","6","5","2","5","6","5","6","6","5","5","5","6","6","5","5","7","6","6","5","6","7","6","6","5","5","6","6","5","5","7","767677115188645890","陶","11","Female","[""坏我"",""坏她"",""好她"",""好我""]","[""弱我"",""弱她"",""强她"",""强我""]","","","","","","","","8","","","","","","","","","SRET","SRET_math_calculate","","key","8","8.356712328767156","720","446","","","","","72/9= ?","8","1","","","","","","","",""
"1982","","9","psychophysics","108","384466","0.0-7.0-5.0-0.5","7","5","6","6","5","4","4","5","4","5","4","0","1","1","2","0","1","1","2","5","4","5","4","4","3","4","4","5","4","5","7","4","7","4","6","5","6","6","5","6","5","7","6","5","5","5","5","6","1","6","5","2","5","6","5","6","6","5","5","5","6","6","5","5","7","6","6","5","6","7","6","6","5","5","6","6","5","5","7","767677115188645890","陶","11","Female","[""坏我"",""坏她"",""好她"",""好我""]","[""弱我"",""弱她"",""强她"",""强我""]","","","","","","","","9","","","","","","","","","SRET","SRET_math_calculate","","key","9","8.403781512605189","720","446","","","","","1*9= ?","9","1","","","","","","","",""
"1866","","6","psychophysics","109","386351","0.0-7.0-5.0-0.6","7","5","6","6","5","4","4","5","4","5","4","0","1","1","2","0","1","1","2","5","4","5","4","4","3","4","4","5","4","5","7","4","7","4","6","5","6","6","5","6","5","7","6","5","5","5","5","6","1","6","5","2","5","6","5","6","6","5","5","5","6","6","5","5","7","6","6","5","6","7","6","6","5","5","6","6","5","5","7","767677115188645890","陶","11","Female","[""坏我"",""坏她"",""好她"",""好我""]","[""弱我"",""弱她"",""强她"",""强我""]","","","","","","","","6","","","","","","","","","SRET","SRET_math_calculate","","key","6","8.335111111111214","720","446","","","","","2+4= ?","6","1","","","","","","","",""
"1801","","7","psychophysics","110","388155","0.0-7.0-5.0-0.7","7","5","6","6","5","4","4","5","4","5","4","0","1","1","2","0","1","1","2","5","4","5","4","4","3","4","4","5","4","5","7","4","7","4","6","5","6","6","5","6","5","7","6","5","5","5","5","6","1","6","5","2","5","6","5","6","6","5","5","5","6","6","5","5","7","6","6","5","6","7","6","6","5","5","6","6","5","5","7","767677115188645890","陶","11","Female","[""坏我"",""坏她"",""好她"",""好我""]","[""弱我"",""弱她"",""强她"",""强我""]","","","","","","","","7","","","","","","","","","SRET","SRET_math_calculate","","key","7","8.372429906542111","720","446","","","","","2+5= ?","7","1","","","","","","","",""
"1989","","1","psychophysics","111","390148","0.0-7.0-5.0-0.8","7","5","6","6","5","4","4","5","4","5","4","0","1","1","2","0","1","1","2","5","4","5","4","4","3","4","4","5","4","5","7","4","7","4","6","5","6","6","5","6","5","7","6","5","5","5","5","6","1","6","5","2","5","6","5","6","6","5","5","5","6","6","5","5","7","6","6","5","6","7","6","6","5","5","6","6","5","5","7","767677115188645890","陶","11","Female","[""坏我"",""坏她"",""好她"",""好我""]","[""弱我"",""弱她"",""强她"",""强我""]","","","","","","","","1","","","","","","","","","SRET","SRET_math_calculate","","key","1","8.40295358649789","720","446","","","","","10-9= ?","1","1","","","","","","","",""
"1961","","8","psychophysics","112","392113","0.0-7.0-5.0-0.9","7","5","6","6","5","4","4","5","4","5","4","0","1","1","2","0","1","1","2","5","4","5","4","4","3","4","4","5","4","5","7","4","7","4","6","5","6","6","5","6","5","7","6","5","5","5","5","6","1","6","5","2","5","6","5","6","6","5","5","5","6","6","5","5","7","6","6","5","6","7","6","6","5","5","6","6","5","5","7","767677115188645890","陶","11","Female","[""坏我"",""坏她"",""好她"",""好我""]","[""弱我"",""弱她"",""强她"",""强我""]","","","","","","","","8","","","","","","","","","SRET","SRET_math_calculate","","key","8","8.40646551724133","720","446","","","","","2*4= ?","8","1","","","","","","","",""
"2027","","3","psychophysics","113","394159","0.0-7.0-5.0-0.10","7","5","6","6","5","4","4","5","4","5","4","0","1","1","2","0","1","1","2","5","4","5","4","4","3","4","4","5","4","5","7","4","7","4","6","5","6","6","5","6","5","7","6","5","5","5","5","6","1","6","5","2","5","6","5","6","6","5","5","5","6","6","5","5","7","6","6","5","6","7","6","6","5","5","6","6","5","5","7","767677115188645890","陶","11","Female","[""坏我"",""坏她"",""好她"",""好我""]","[""弱我"",""弱她"",""强她"",""强我""]","","","","","","","","3","","","","","","","","","SRET","SRET_math_calculate","","key","3","8.367213114754003","720","446","","","","","8-5= ?","3","1","","","","","","","",""
"1699","","2","psychophysics","114","395862","0.0-7.0-5.0-0.11","7","5","6","6","5","4","4","5","4","5","4","0","1","1","2","0","1","1","2","5","4","5","4","4","3","4","4","5","4","5","7","4","7","4","6","5","6","6","5","6","5","7","6","5","5","5","5","6","1","6","5","2","5","6","5","6","6","5","5","5","6","6","5","5","7","6","6","5","6","7","6","6","5","5","6","6","5","5","7","767677115188645890","陶","11","Female","[""坏我"",""坏她"",""好她"",""好我""]","[""弱我"",""弱她"",""强她"",""强我""]","","","","","","","","2","","","","","","","","","SRET","SRET_math_calculate","","key","2","8.375742574257252","720","446","","","","","1+1= ?","2","1","","","","","","","",""
"2128","","0","psychophysics","115","398011","0.0-7.0-5.0-0.12","7","5","6","6","5","4","4","5","4","5","4","0","1","1","2","0","1","1","2","5","4","5","4","4","3","4","4","5","4","5","7","4","7","4","6","5","6","6","5","6","5","7","6","5","5","5","5","6","1","6","5","2","5","6","5","6","6","5","5","5","6","6","5","5","7","6","6","5","6","7","6","6","5","5","6","6","5","5","7","767677115188645890","陶","11","Female","[""坏我"",""坏她"",""好她"",""好我""]","[""弱我"",""弱她"",""强她"",""强我""]","","","","","","","","0","","","","","","","","","SRET","SRET_math_calculate","","key","0","8.365625000000136","720","446","","","","","12-12= ?","0","1","","","","","","","",""
"1893","","8","psychophysics","116","399927","0.0-7.0-5.0-0.13","7","5","6","6","5","4","4","5","4","5","4","0","1","1","2","0","1","1","2","5","4","5","4","4","3","4","4","5","4","5","7","4","7","4","6","5","6","6","5","6","5","7","6","5","5","5","5","6","1","6","5","2","5","6","5","6","6","5","5","5","6","6","5","5","7","6","6","5","6","7","6","6","5","5","6","6","5","5","7","767677115188645890","陶","11","Female","[""坏我"",""坏她"",""好她"",""好我""]","[""弱我"",""弱她"",""强她"",""强我""]","","","","","","","","8","","","","","","","","","SRET","SRET_math_calculate","","key","8","8.407488986784141","720","446","","","","","5+3= ?","8","1","","","","","","","",""
"1761","","3","psychophysics","117","401713","0.0-7.0-5.0-0.14","7","5","6","6","5","4","4","5","4","5","4","0","1","1","2","0","1","1","2","5","4","5","4","4","3","4","4","5","4","5","7","4","7","4","6","5","6","6","5","6","5","7","6","5","5","5","5","6","1","6","5","2","5","6","5","6","6","5","5","5","6","6","5","5","7","6","6","5","6","7","6","6","5","5","6","6","5","5","7","767677115188645890","陶","11","Female","[""坏我"",""坏她"",""好她"",""好我""]","[""弱我"",""弱她"",""强她"",""强我""]","","","","","","","","3","","","","","","","","","SRET","SRET_math_calculate","","key","3","8.373584905660433","720","446","","","","","1+2= ?","3","1","","","","","","","",""
"2041","","8","psychophysics","118","403774","0.0-7.0-5.0-0.15","7","5","6","6","5","4","4","5","4","5","4","0","1","1","2","0","1","1","2","5","4","5","4","4","3","4","4","5","4","5","7","4","7","4","6","5","6","6","5","6","5","7","6","5","5","5","5","6","1","6","5","2","5","6","5","6","6","5","5","5","6","6","5","5","7","6","6","5","6","7","6","6","5","5","6","6","5","5","7","767677115188645890","陶","11","Female","[""坏我"",""坏她"",""好她"",""好我""]","[""弱我"",""弱她"",""强她"",""强我""]","","","","","","","","8","","","","","","","","","SRET","SRET_math_calculate","","key","8","8.367073170731897","720","446","","","","","6+2= ?","8","1","","","","","","","",""
"1993","","1","psychophysics","119","405771","0.0-7.0-5.0-0.16","7","5","6","6","5","4","4","5","4","5","4","0","1","1","2","0","1","1","2","5","4","5","4","4","3","4","4","5","4","5","7","4","7","4","6","5","6","6","5","6","5","7","6","5","5","5","5","6","1","6","5","2","5","6","5","6","6","5","5","5","6","6","5","5","7","6","6","5","6","7","6","6","5","5","6","6","5","5","7","767677115188645890","陶","11","Female","[""坏我"",""坏她"",""好她"",""好我""]","[""弱我"",""弱她"",""强她"",""强我""]","","","","","","","","1","","","","","","","","","SRET","SRET_math_calculate","","key","1","8.36877637130787","720","446","","","","","12/12= ?","1","1","","","","","","","",""
"2243","","3","psychophysics","120","408035","0.0-7.0-5.0-0.17","7","5","6","6","5","4","4","5","4","5","4","0","1","1","2","0","1","1","2","5","4","5","4","4","3","4","4","5","4","5","7","4","7","4","6","5","6","6","5","6","5","7","6","5","5","5","5","6","1","6","5","2","5","6","5","6","6","5","5","5","6","6","5","5","7","6","6","5","6","7","6","6","5","5","6","6","5","5","7","767677115188645890","陶","11","Female","[""坏我"",""坏她"",""好她"",""好我""]","[""弱我"",""弱她"",""强她"",""强我""]","","","","","","","","3","","","","","","","","","SRET","SRET_math_calculate","","key","3","8.3947955390335","720","446","","","","","6/2= ?","3","1","","","","","","","",""
"1890","","8","psychophysics","121","409952","0.0-7.0-5.0-0.18","7","5","6","6","5","4","4","5","4","5","4","0","1","1","2","0","1","1","2","5","4","5","4","4","3","4","4","5","4","5","7","4","7","4","6","5","6","6","5","6","5","7","6","5","5","5","5","6","1","6","5","2","5","6","5","6","6","5","5","5","6","6","5","5","7","6","6","5","6","7","6","6","5","5","6","6","5","5","7","767677115188645890","陶","11","Female","[""坏我"",""坏她"",""好她"",""好我""]","[""弱我"",""弱她"",""强她"",""强我""]","","","","","","","","8","","","","","","","","","SRET","SRET_math_calculate","","key","8","8.370175438596593","720","446","","","","","3+6= ?","9","0","","","","","","","",""
"2026","","0","psychophysics","122","412003","0.0-7.0-5.0-0.19","7","5","6","6","5","4","4","5","4","5","4","0","1","1","2","0","1","1","2","5","4","5","4","4","3","4","4","5","4","5","7","4","7","4","6","5","6","6","5","6","5","7","6","5","5","5","5","6","1","6","5","2","5","6","5","6","6","5","5","5","6","6","5","5","7","6","6","5","6","7","6","6","5","5","6","6","5","5","7","767677115188645890","陶","11","Female","[""坏我"",""坏她"",""好她"",""好我""]","[""弱我"",""弱她"",""强她"",""强我""]","","","","","","","","0","","","","","","","","","SRET","SRET_math_calculate","","key","0","8.36762295081972","720","446","","","","","9-9= ?","0","1","","","","","","","",""
"2476","","4","psychophysics","123","414501","0.0-7.0-5.0-0.20","7","5","6","6","5","4","4","5","4","5","4","0","1","1","2","0","1","1","2","5","4","5","4","4","3","4","4","5","4","5","7","4","7","4","6","5","6","6","5","6","5","7","6","5","5","5","5","6","1","6","5","2","5","6","5","6","6","5","5","5","6","6","5","5","7","6","6","5","6","7","6","6","5","5","6","6","5","5","7","767677115188645890","陶","11","Female","[""坏我"",""坏她"",""好她"",""好我""]","[""弱我"",""弱她"",""强她"",""强我""]","","","","","","","","4","","","","","","","","","SRET","SRET_math_calculate","","key","4","8.361744966443108","720","446","","","","","13-9= ?","4","1","","","","","","","",""
"1811","","3","psychophysics","124","416342","0.0-7.0-5.0-0.21","7","5","6","6","5","4","4","5","4","5","4","0","1","1","2","0","1","1","2","5","4","5","4","4","3","4","4","5","4","5","7","4","7","4","6","5","6","6","5","6","5","7","6","5","5","5","5","6","1","6","5","2","5","6","5","6","6","5","5","5","6","6","5","5","7","6","6","5","6","7","6","6","5","5","6","6","5","5","7","767677115188645890","陶","11","Female","[""坏我"",""坏她"",""好她"",""好我""]","[""弱我"",""弱她"",""强她"",""强我""]","","","","","","","","3","","","","","","","","","SRET","SRET_math_calculate","","key","3","8.448387096774407","720","446","","","","","2+1= ?","3","1","","","","","","","",""
"1982","","6","psychophysics","125","418348","0.0-7.0-5.0-0.22","7","5","6","6","5","4","4","5","4","5","4","0","1","1","2","0","1","1","2","5","4","5","4","4","3","4","4","5","4","5","7","4","7","4","6","5","6","6","5","6","5","7","6","5","5","5","5","6","1","6","5","2","5","6","5","6","6","5","5","5","6","6","5","5","7","6","6","5","6","7","6","6","5","5","6","6","5","5","7","767677115188645890","陶","11","Female","[""坏我"",""坏她"",""好她"",""好我""]","[""弱我"",""弱她"",""强她"",""强我""]","","","","","","","","6","","","","","","","","","SRET","SRET_math_calculate","","key","6","8.369037656903814","720","446","","","","","2*3= ?","6","1","","","","","","","",""
"2257","","1","psychophysics","126","420608","0.0-7.0-5.0-0.23","7","5","6","6","5","4","4","5","4","5","4","0","1","1","2","0","1","1","2","5","4","5","4","4","3","4","4","5","4","5","7","4","7","4","6","5","6","6","5","6","5","7","6","5","5","5","5","6","1","6","5","2","5","6","5","6","6","5","5","5","6","6","5","5","7","6","6","5","6","7","6","6","5","5","6","6","5","5","7","767677115188645890","陶","11","Female","[""坏我"",""坏她"",""好她"",""好我""]","[""弱我"",""弱她"",""强她"",""强我""]","","","","","","","","1","","","","","","","","","SRET","SRET_math_calculate","","key","1","8.364684014869802","720","446","","","","","30-29= ?","1","1","","","","","","","",""
"1897","","7","psychophysics","127","422532","0.0-7.0-5.0-0.24","7","5","6","6","5","4","4","5","4","5","4","0","1","1","2","0","1","1","2","5","4","5","4","4","3","4","4","5","4","5","7","4","7","4","6","5","6","6","5","6","5","7","6","5","5","5","5","6","1","6","5","2","5","6","5","6","6","5","5","5","6","6","5","5","7","6","6","5","6","7","6","6","5","5","6","6","5","5","7","767677115188645890","陶","11","Female","[""坏我"",""坏她"",""好她"",""好我""]","[""弱我"",""弱她"",""强她"",""强我""]","","","","","","","","7","","","","","","","","","SRET","SRET_math_calculate","","key","7","8.369432314410378","720","446","","","","","1+6= ?","7","1","","","","","","","",""
"2189","","3","psychophysics","128","424724","0.0-7.0-5.0-0.25","7","5","6","6","5","4","4","5","4","5","4","0","1","1","2","0","1","1","2","5","4","5","4","4","3","4","4","5","4","5","7","4","7","4","6","5","6","6","5","6","5","7","6","5","5","5","5","6","1","6","5","2","5","6","5","6","6","5","5","5","6","6","5","5","7","6","6","5","6","7","6","6","5","5","6","6","5","5","7","767677115188645890","陶","11","Female","[""坏我"",""坏她"",""好她"",""好我""]","[""弱我"",""弱她"",""强她"",""强我""]","","","","","","","","3","","","","","","","","","SRET","SRET_math_calculate","","key","3","8.397307692307647","720","446","","","","","12/4= ?","3","1","","","","","","","",""
"1910","","2","psychophysics","129","426657","0.0-7.0-5.0-0.26","7","5","6","6","5","4","4","5","4","5","4","0","1","1","2","0","1","1","2","5","4","5","4","4","3","4","4","5","4","5","7","4","7","4","6","5","6","6","5","6","5","7","6","5","5","5","5","6","1","6","5","2","5","6","5","6","6","5","5","5","6","6","5","5","7","6","6","5","6","7","6","6","5","5","6","6","5","5","7","767677115188645890","陶","11","Female","[""坏我"",""坏她"",""好她"",""好我""]","[""弱我"",""弱她"",""强她"",""强我""]","","","","","","","","2","","","","","","","","","SRET","SRET_math_calculate","","key","2","8.369999999999898","720","446","","","","","12/6= ?","2","1","","","","","","","",""
"1990","","9","psychophysics","130","428650","0.0-7.0-5.0-0.27","7","5","6","6","5","4","4","5","4","5","4","0","1","1","2","0","1","1","2","5","4","5","4","4","3","4","4","5","4","5","7","4","7","4","6","5","6","6","5","6","5","7","6","5","5","5","5","6","1","6","5","2","5","6","5","6","6","5","5","5","6","6","5","5","7","6","6","5","6","7","6","6","5","5","6","6","5","5","7","767677115188645890","陶","11","Female","[""坏我"",""坏她"",""好她"",""好我""]","[""弱我"",""弱她"",""强她"",""强我""]","","","","","","","","9","","","","","","","","","SRET","SRET_math_calculate","","key","9","8.369198312236287","720","446","","","","","4+5= ?","9","1","","","","","","","",""
"1845","","9","psychophysics","131","430517","0.0-7.0-5.0-0.28","7","5","6","6","5","4","4","5","4","5","4","0","1","1","2","0","1","1","2","5","4","5","4","4","3","4","4","5","4","5","7","4","7","4","6","5","6","6","5","6","5","7","6","5","5","5","5","6","1","6","5","2","5","6","5","6","6","5","5","5","6","6","5","5","7","6","6","5","6","7","6","6","5","5","6","6","5","5","7","767677115188645890","陶","11","Female","[""坏我"",""坏她"",""好她"",""好我""]","[""弱我"",""弱她"",""强她"",""强我""]","","","","","","","","9","","","","","","","","","SRET","SRET_math_calculate","","key","9","8.371171171171014","720","446","","","","","1+8= ?","9","1","","","","","","","",""
"2231","","7","psychophysics","132","432750","0.0-7.0-5.0-0.29","7","5","6","6","5","4","4","5","4","5","4","0","1","1","2","0","1","1","2","5","4","5","4","4","3","4","4","5","4","5","7","4","7","4","6","5","6","6","5","6","5","7","6","5","5","5","5","6","1","6","5","2","5","6","5","6","6","5","5","5","6","6","5","5","7","6","6","5","6","7","6","6","5","5","6","6","5","5","7","767677115188645890","陶","11","Female","[""坏我"",""坏她"",""好她"",""好我""]","[""弱我"",""弱她"",""强她"",""强我""]","","","","","","","","7","","","","","","","","","SRET","SRET_math_calculate","","key","7","8.365037593985093","720","446","","","","","21/3= ? ","7","1","","","","","","","",""
"2276","","5","psychophysics","133","435029","0.0-7.0-5.0-0.30","7","5","6","6","5","4","4","5","4","5","4","0","1","1","2","0","1","1","2","5","4","5","4","4","3","4","4","5","4","5","7","4","7","4","6","5","6","6","5","6","5","7","6","5","5","5","5","6","1","6","5","2","5","6","5","6","6","5","5","5","6","6","5","5","7","6","6","5","6","7","6","6","5","5","6","6","5","5","7","767677115188645890","陶","11","Female","[""坏我"",""坏她"",""好她"",""好我""]","[""弱我"",""弱她"",""强她"",""强我""]","","","","","","","","5","","","","","","","","","SRET","SRET_math_calculate","","key","5","8.333823529411722","720","446","","","","","16-11= ?","5","1","","","","","","","",""
"1933","","8","psychophysics","134","436994","0.0-7.0-5.0-0.31","7","5","6","6","5","4","4","5","4","5","4","0","1","1","2","0","1","1","2","5","4","5","4","4","3","4","4","5","4","5","7","4","7","4","6","5","6","6","5","6","5","7","6","5","5","5","5","6","1","6","5","2","5","6","5","6","6","5","5","5","6","6","5","5","7","6","6","5","6","7","6","6","5","5","6","6","5","5","7","767677115188645890","陶","11","Female","[""坏我"",""坏她"",""好她"",""好我""]","[""弱我"",""弱她"",""强她"",""强我""]","","","","","","","","8","","","","","","","","","SRET","SRET_math_calculate","","key","8","8.368803418803369","720","446","","","","","1*8= ?","8","1","","","","","","","",""
"1862","","6","psychophysics","135","438860","0.0-7.0-5.0-0.32","7","5","6","6","5","4","4","5","4","5","4","0","1","1","2","0","1","1","2","5","4","5","4","4","3","4","4","5","4","5","7","4","7","4","6","5","6","6","5","6","5","7","6","5","5","5","5","6","1","6","5","2","5","6","5","6","6","5","5","5","6","6","5","5","7","6","6","5","6","7","6","6","5","5","6","6","5","5","7","767677115188645890","陶","11","Female","[""坏我"",""坏她"",""好她"",""好我""]","[""弱我"",""弱她"",""强她"",""强我""]","","","","","","","","6","","","","","","","","","SRET","SRET_math_calculate","","key","6","8.334529147981959","720","446","","","","","5+1= ?","6","1","","","","","","","",""
"1984","","3","psychophysics","136","440866","0.0-7.0-5.0-0.33","7","5","6","6","5","4","4","5","4","5","4","0","1","1","2","0","1","1","2","5","4","5","4","4","3","4","4","5","4","5","7","4","7","4","6","5","6","6","5","6","5","7","6","5","5","5","5","6","1","6","5","2","5","6","5","6","6","5","5","5","6","6","5","5","7","6","6","5","6","7","6","6","5","5","6","6","5","5","7","767677115188645890","陶","11","Female","[""坏我"",""坏她"",""好她"",""好我""]","[""弱我"",""弱她"",""强她"",""强我""]","","","","","","","","3","","","","","","","","","SRET","SRET_math_calculate","","key","3","8.404201680672317","720","446","","","","","21/7=  ?","3","1","","","","","","","",""
"1951","","7","psychophysics","137","442820","0.0-7.0-5.0-0.34","7","5","6","6","5","4","4","5","4","5","4","0","1","1","2","0","1","1","2","5","4","5","4","4","3","4","4","5","4","5","7","4","7","4","6","5","6","6","5","6","5","7","6","5","5","5","5","6","1","6","5","2","5","6","5","6","6","5","5","5","6","6","5","5","7","6","6","5","6","7","6","6","5","5","6","6","5","5","7","767677115188645890","陶","11","Female","[""坏我"",""坏她"",""好她"",""好我""]","[""弱我"",""弱她"",""强她"",""强我""]","","","","","","","","7","","","","","","","","","SRET","SRET_math_calculate","","key","7","8.368965517241278","720","446","","","","","3+4= ?","7","1","","","","","","","",""
"1949","","5","psychophysics","138","444795","0.0-7.0-5.0-0.35","7","5","6","6","5","4","4","5","4","5","4","0","1","1","2","0","1","1","2","5","4","5","4","4","3","4","4","5","4","5","7","4","7","4","6","5","6","6","5","6","5","7","6","5","5","5","5","6","1","6","5","2","5","6","5","6","6","5","5","5","6","6","5","5","7","6","6","5","6","7","6","6","5","5","6","6","5","5","7","767677115188645890","陶","11","Female","[""坏我"",""坏她"",""好她"",""好我""]","[""弱我"",""弱她"",""强她"",""强我""]","","","","","","","","5","","","","","","","","","SRET","SRET_math_calculate","","key","5","8.441201716738147","720","446","","","","","10-5= ?","5","1","","","","","","","",""
"1860","","6","psychophysics","139","446676","0.0-7.0-5.0-0.36","7","5","6","6","5","4","4","5","4","5","4","0","1","1","2","0","1","1","2","5","4","5","4","4","3","4","4","5","4","5","7","4","7","4","6","5","6","6","5","6","5","7","6","5","5","5","5","6","1","6","5","2","5","6","5","6","6","5","5","5","6","6","5","5","7","6","6","5","6","7","6","6","5","5","6","6","5","5","7","767677115188645890","陶","11","Female","[""坏我"",""坏她"",""好她"",""好我""]","[""弱我"",""弱她"",""强她"",""强我""]","","","","","","","","6","","","","","","","","","SRET","SRET_math_calculate","","key","6","8.37098214285704","720","446","","","","","3+3= ?","6","1","","","","","","","",""
"2123","","2","psychophysics","140","448819","0.0-7.0-5.0-0.37","7","5","6","6","5","4","4","5","4","5","4","0","1","1","2","0","1","1","2","5","4","5","4","4","3","4","4","5","4","5","7","4","7","4","6","5","6","6","5","6","5","7","6","5","5","5","5","6","1","6","5","2","5","6","5","6","6","5","5","5","6","6","5","5","7","6","6","5","6","7","6","6","5","5","6","6","5","5","7","767677115188645890","陶","11","Female","[""坏我"",""坏她"",""好她"",""好我""]","[""弱我"",""弱她"",""强她"",""强我""]","","","","","","","","2","","","","","","","","","SRET","SRET_math_calculate","","key","2","8.399606299212598","720","446","","","","","29-27= ?","2","1","","","","","","","",""
"1981","","4","psychophysics","141","450826","0.0-7.0-5.0-0.38","7","5","6","6","5","4","4","5","4","5","4","0","1","1","2","0","1","1","2","5","4","5","4","4","3","4","4","5","4","5","7","4","7","4","6","5","6","6","5","6","5","7","6","5","5","5","5","6","1","6","5","2","5","6","5","6","6","5","5","5","6","6","5","5","7","6","6","5","6","7","6","6","5","5","6","6","5","5","7","767677115188645890","陶","11","Female","[""坏我"",""坏她"",""好她"",""好我""]","[""弱我"",""弱她"",""强她"",""强我""]","","","","","","","","4","","","","","","","","","SRET","SRET_math_calculate","","key","4","8.368200836820083","720","446","","","","","9-5= ?","4","1","","","","","","","",""
"1920","","8","psychophysics","142","452768","0.0-7.0-5.0-0.39","7","5","6","6","5","4","4","5","4","5","4","0","1","1","2","0","1","1","2","5","4","5","4","4","3","4","4","5","4","5","7","4","7","4","6","5","6","6","5","6","5","7","6","5","5","5","5","6","1","6","5","2","5","6","5","6","6","5","5","5","6","6","5","5","7","6","6","5","6","7","6","6","5","5","6","6","5","5","7","767677115188645890","陶","11","Female","[""坏我"",""坏她"",""好她"",""好我""]","[""弱我"",""弱她"",""强她"",""强我""]","","","","","","","","8","","","","","","","","","SRET","SRET_math_calculate","","key","8","8.36926406926427","720","446","","","","","4*2= ?","8","1","","","","","","","",""
