"rt","stimulus","response","trial_type","trial_index","time_elapsed","internal_node_id","swb_1","swb_2","swb_3","swb_4","swb_5","LOT_1","LOT_2","LOT_3","LOT_4","LOT_5","LOT_6","IPC_1","IPC_2","IPC_3","IPC_4","IPC_5","IPC_6","IPC_7","IPC_8","MorIden_1","MorIden_2","MorIden_3","MorIden_4","MorIden_5","MorIden_6","MorIden_7","MorIden_8","MorIden_9","MorIden_10","moralSeImag_1","moralSeImag_2","moralSeImag_3","moralSeImag_4","moralSeImag_5","moralSeImag_6","moralSeImag_7","moralSeImag_8","moralSeImag_9","sde_1","sde_2","sde_3","sde_4","sde_5","sde_6","sde_7","sde_8","sde_9","sde_10","trap2","sde_11","sde_12","sde_13","sde_14","sde_15","sde_16","sde_17","sde_18","sde_19","sde_20","IM_1","IM_2","IM_3","IM_4","IM_5","IM_6","IM_7","IM_8","IM_9","IM_10","IM_11","IM_12","IM_13","IM_14","IM_15","IM_16","IM_17","IM_18","IM_19","IM_20","subj_idx","friend_name","ParticipantID","Sex","Word","Word2","value","success","timeout","failed_images","failed_audio","failed_video","user_agent","responses","item_order","radio_event_ids","radio_event_times","key_event_times","mouse_event_times","straightlining","zigzagging","honeypot","task_id","screen_id","time_stamp","response_type","key_press","avg_frame_time","center_x","center_y","person","word","valence","domain","math","correct_response","correct","status","view_history","identity","duration","Image","condition","question_order","trap2_item"
"17556","
   <p><div style='color:white; font-size: 25px'>您好，欢迎参加本次实验。</div></p>
   <p><div style='color:white; font-size: 25px'>为充分保障您的权利，请确保您已经知晓并同意《参与实验同意书》以及《数据公开知情同意书》。</div></p>
   <p><div style='color:white; font-size: 25px'>如果您未见过上述内容，请咨询实验员。</div></p>
   <p style='color:white; font-size: 25px'>如果您选择继续实验，则表示您已经清楚两份知情同意书的内容并同意。</p>
   <p><div style = ""color: pink;font-size:30px;"">请确保您记得day0的实验编号，您将在本次实验输入该编号，若您忘记，请咨询实验员后作答。</div></p>
   <p><div style = ""color:lightblue;font-size:25px;"">请您尽可能认真地作答，我们将依据您在各问卷和按键任务中的作答质量发放报酬。</div></p>
   <p> <div style = ""color: green""><按空格键至下页></div> </p>
   "," ","html-keyboard-response","0","17558","0.0-0.0","3","3","4","3","2","4","3","2","4","4","4","0","0","-1","1","-1","-1","0","0","4","4","5","5","4","4","4","4","4","4","6","7","5","6","5","6","6","6","7","4","3","1","4","5","3","5","3","4","3","1","4","3","5","2","4","3","3","3","2","4","3","4","3","6","3","7","3","5","4","6","5","5","3","6","5","5","3","5","3","4","718768648436580352","张","423","Female","[""好她"",""坏我"",""坏她"",""好我""]","[""强她"",""弱我"",""弱她"",""强我""]","","","","","","","","","","","","","","","","","","","","","","","","","","","","","","","","","","","","","","",""
"","","","call-function","1","17559","0.0-1.0-0.0","3","3","4","3","2","4","3","2","4","4","4","0","0","-1","1","-1","-1","0","0","4","4","5","5","4","4","4","4","4","4","6","7","5","6","5","6","6","6","7","4","3","1","4","5","3","5","3","4","3","1","4","3","5","2","4","3","3","3","2","4","3","4","3","6","3","7","3","5","4","6","5","5","3","6","5","5","3","5","3","4","718768648436580352","张","423","Female","[""好她"",""坏我"",""坏她"",""好我""]","[""强她"",""弱我"",""弱她"",""强我""]","","","","","","","","","","","","","","","","","","","","","","","","","","","","","","","","","","","","","","",""
"13463","","[{""name"":""Sex"",""value"":""1""},{""name"":""friend_name"",""value"":""张""},{""name"":""ParticipantID"",""value"":""423""}]","survey-html-form","2","31022","0.0-1.0-1.0","3","3","4","3","2","4","3","2","4","4","4","0","0","-1","1","-1","-1","0","0","4","4","5","5","4","4","4","4","4","4","6","7","5","6","5","6","6","6","7","4","3","1","4","5","3","5","3","4","3","1","4","3","5","2","4","3","3","3","2","4","3","4","3","6","3","7","3","5","4","6","5","5","3","6","5","5","3","5","3","4","718768648436580352","张","423","Female","[""好她"",""坏我"",""坏她"",""好我""]","[""强她"",""弱我"",""弱她"",""强我""]","","","","","","","","","","","","","","","","","","","","","","","","","","","","","","","","","","","","","","",""
"","","","preload","3","31723","0.0-2.0","3","3","4","3","2","4","3","2","4","4","4","0","0","-1","1","-1","-1","0","0","4","4","5","5","4","4","4","4","4","4","6","7","5","6","5","6","6","6","7","4","3","1","4","5","3","5","3","4","3","1","4","3","5","2","4","3","3","3","2","4","3","4","3","6","3","7","3","5","4","6","5","5","3","6","5","5","3","5","3","4","718768648436580352","张","423","Female","[""好她"",""坏我"",""坏她"",""好我""]","[""强她"",""弱我"",""弱她"",""强我""]","","true","false","[]","[]","[]","","","","","","","","","","","","","","","","","","","","","","","","","","","","","","","","",""
"","","","fullscreen","4","32812","0.0-3.0","3","3","4","3","2","4","3","2","4","4","4","0","0","-1","1","-1","-1","0","0","4","4","5","5","4","4","4","4","4","4","6","7","5","6","5","6","6","6","7","4","3","1","4","5","3","5","3","4","3","1","4","3","5","2","4","3","3","3","2","4","3","4","3","6","3","7","3","5","4","6","5","5","3","6","5","5","3","5","3","4","718768648436580352","张","423","Female","[""好她"",""坏我"",""坏她"",""好我""]","[""强她"",""弱我"",""弱她"",""强我""]","","true","","","","","{}","","","","","","","","","","","","","","","","","","","","","","","","","","","","","","","",""
"7608.300000000745","","{""Q01"":""3"",""Q02"":""3"",""Q03"":""4"",""Q04"":""3"",""Q05"":""2""}","survey-template","5","40422","0.0-4.0","3","3","4","3","2","4","3","2","4","4","4","0","0","-1","1","-1","-1","0","0","4","4","5","5","4","4","4","4","4","4","6","7","5","6","5","6","6","6","7","4","3","1","4","5","3","5","3","4","3","1","4","3","5","2","4","3","3","3","2","4","3","4","3","6","3","7","3","5","4","6","5","5","3","6","5","5","3","5","3","4","718768648436580352","张","423","Female","[""好她"",""坏我"",""坏她"",""好我""]","[""强她"",""弱我"",""弱她"",""强我""]","","","","","","","","{""Q01"":""3"",""Q02"":""3"",""Q03"":""4"",""Q04"":""3"",""Q05"":""2""}","[0,1,2,3,4]","[""Q01"",""Q02"",""Q04"",""Q03"",""Q05""]","[1983.6000000014901,2631.900000002235,5279.900000002235,5999.800000000745,6896.699999999255]","[]","[1983.6000000014901,2631.900000002235,4023.699999999255,5279.900000002235,5999.800000000745,6896.699999999255,7607.699999999255]","0.6","0.75","0","","","","","","","","","","","","","","","","","","","","","","",""
"12540.599999997765","","{""Q01"":""4"",""Q02"":""3"",""Q03"":""2"",""Q04"":""4"",""Q05"":""4"",""Q06"":""4""}","survey-template","6","52966","0.0-5.0","3","3","4","3","2","4","3","2","4","4","4","0","0","-1","1","-1","-1","0","0","4","4","5","5","4","4","4","4","4","4","6","7","5","6","5","6","6","6","7","4","3","1","4","5","3","5","3","4","3","1","4","3","5","2","4","3","3","3","2","4","3","4","3","6","3","7","3","5","4","6","5","5","3","6","5","5","3","5","3","4","718768648436580352","张","423","Female","[""好她"",""坏我"",""坏她"",""好我""]","[""强她"",""弱我"",""弱她"",""强我""]","","","","","","","","{""Q01"":""4"",""Q02"":""3"",""Q03"":""2"",""Q04"":""4"",""Q05"":""4"",""Q06"":""4""}","[0,1,2,3,4,5]","[""Q01"",""Q02"",""Q03"",""Q04"",""Q05"",""Q06""]","[3012,4995.89999999851,6204.099999997765,7308.099999997765,8532.300000000745,11052.800000000745]","[]","[3012,4995.89999999851,6204.099999997765,7308.099999997765,8532.300000000745,10068.39999999851,11052.800000000745,12044.5,12540.199999999255]","0.5","0.4","0","","","","","","","","","","","","","","","","","","","","","","",""
"18581.400000002235","","{""Q01"":""0"",""Q02"":""0"",""Q03"":""-1"",""Q04"":""1"",""Q05"":""-1"",""Q06"":""-1"",""Q07"":""0"",""Q08"":""0""}","survey-template","7","71552","0.0-6.0","3","3","4","3","2","4","3","2","4","4","4","0","0","-1","1","-1","-1","0","0","4","4","5","5","4","4","4","4","4","4","6","7","5","6","5","6","6","6","7","4","3","1","4","5","3","5","3","4","3","1","4","3","5","2","4","3","3","3","2","4","3","4","3","6","3","7","3","5","4","6","5","5","3","6","5","5","3","5","3","4","718768648436580352","张","423","Female","[""好她"",""坏我"",""坏她"",""好我""]","[""强她"",""弱我"",""弱她"",""强我""]","","","","","","","","{""Q01"":""0"",""Q02"":""0"",""Q03"":""-1"",""Q04"":""1"",""Q05"":""-1"",""Q06"":""-1"",""Q07"":""0"",""Q08"":""0""}","[0,1,2,3,4,5,6,7]","[""Q01"",""Q02"",""Q03"",""Q04"",""Q05"",""Q06"",""Q07"",""Q08""]","[2180.900000002235,6276.699999999255,7980.60000000149,10820.800000000745,12084.800000000745,14222.199999999255,16652.699999999255,17724.900000002235]","[]","[2180.900000002235,6276.699999999255,7980.60000000149,10820.800000000745,12084.800000000745,14222.199999999255,16652.699999999255,17724.900000002235,18580.699999999255]","0.5","0.2857142857142857","0","","","","","","","","","","","","","","","","","","","","","","",""
"9859","
    <p><div style='color:white;font-size:35px; line-height:20px;'>词汇评估任务</div></p><br>
    <p><div style='color:white;font-size:25px; line-height:20px;'>请再次回忆该亲密的朋友，你们至少2年前就认识了，并且最近2年经常见面。</div></p>
    <p><div style='color:white;font-size:25px; line-height:20px;'>在本实验中，您将会看到一些形容词。</div></p>
    <p><div style='color:yellow;font-size:25px; line-height:20px;'>您的任务是判断这些形容词是否符合对您自己或您的朋友的描述。</div></p><p style='font-size:35px'>符合按<span style=""color:lightgreen""> j 键</span>，不符合按<span style=""color:red""> f 键</span></p>","0","html-button-response","8","81413","0.0-7.0-0.0","3","3","4","3","2","4","3","2","4","4","4","0","0","-1","1","-1","-1","0","0","4","4","5","5","4","4","4","4","4","4","6","7","5","6","5","6","6","6","7","4","3","1","4","5","3","5","3","4","3","1","4","3","5","2","4","3","3","3","2","4","3","4","3","6","3","7","3","5","4","6","5","5","3","6","5","5","3","5","3","4","718768648436580352","张","423","Female","[""好她"",""坏我"",""坏她"",""好我""]","[""强她"",""弱我"",""弱她"",""强我""]","","","","","","","","","","","","","","","","","SRET_EW","EW_instructions","Tue Jan 02 2024 15:47:15 GMT+0800 (中国标准时间)","","","","","","","","","","","","","","","","","","","",""
"null","","null","psychophysics","9","84427","0.0-7.0-1.0-0.0","3","3","4","3","2","4","3","2","4","4","4","0","0","-1","1","-1","-1","0","0","4","4","5","5","4","4","4","4","4","4","6","7","5","6","5","6","6","6","7","4","3","1","4","5","3","5","3","4","3","1","4","3","5","2","4","3","3","3","2","4","3","4","3","6","3","7","3","5","4","6","5","5","3","6","5","5","3","5","3","4","718768648436580352","张","423","Female","[""好她"",""坏我"",""坏她"",""好我""]","[""强她"",""弱我"",""弱她"",""强我""]","","","","","","","","","","","","","","","","","SRET_EW","EW_practice","","key","null","16.777027932960912","960","536","朋友","徇私","Negative","morality","","","","","","","","","","",""
"951","","f","psychophysics","10","86381","0.0-7.0-1.0-0.1","3","3","4","3","2","4","3","2","4","4","4","0","0","-1","1","-1","-1","0","0","4","4","5","5","4","4","4","4","4","4","6","7","5","6","5","6","6","6","7","4","3","1","4","5","3","5","3","4","3","1","4","3","5","2","4","3","3","3","2","4","3","4","3","6","3","7","3","5","4","6","5","5","3","6","5","5","3","5","3","4","718768648436580352","张","423","Female","[""好她"",""坏我"",""坏她"",""好我""]","[""强她"",""弱我"",""弱她"",""强我""]","","","","","","","","no","","","","","","","","","SRET_EW","EW_practice","","key","f","16.68337606837596","960","536","朋友","忠实","Positive","morality","","","","","","","","","","",""
"864","","j","psychophysics","11","88253","0.0-7.0-1.0-0.2","3","3","4","3","2","4","3","2","4","4","4","0","0","-1","1","-1","-1","0","0","4","4","5","5","4","4","4","4","4","4","6","7","5","6","5","6","6","6","7","4","3","1","4","5","3","5","3","4","3","1","4","3","5","2","4","3","3","3","2","4","3","4","3","6","3","7","3","5","4","6","5","5","3","6","5","5","3","5","3","4","718768648436580352","张","423","Female","[""好她"",""坏我"",""坏她"",""好我""]","[""强她"",""弱我"",""弱她"",""强我""]","","","","","","","","yes","","","","","","","","","SRET_EW","EW_practice","","key","j","16.683216216216213","960","536","自己","严谨","Positive","ability","","","","","","","","","","",""
"878","","f","psychophysics","12","90140","0.0-7.0-1.0-0.3","3","3","4","3","2","4","3","2","4","4","4","0","0","-1","1","-1","-1","0","0","4","4","5","5","4","4","4","4","4","4","6","7","5","6","5","6","6","6","7","4","3","1","4","5","3","5","3","4","3","1","4","3","5","2","4","3","3","3","2","4","3","4","3","6","3","7","3","5","4","6","5","5","3","6","5","5","3","5","3","4","718768648436580352","张","423","Female","[""好她"",""坏我"",""坏她"",""好我""]","[""强她"",""弱我"",""弱她"",""强我""]","","","","","","","","no","","","","","","","","","SRET_EW","EW_practice","","key","f","16.68314285714288","960","536","自己","刻板","Negative","ability","","","","","","","","","","",""
"3328","
    <p><div style='color:white;font-size:35px; line-height:20px;'>请您再次阅读实验要求</div></p><br>
    <p><div style='color:white;font-size:25px; line-height:20px;'>请回忆某一个亲密的朋友，你们至少2年前就认识了，并且最近2年经常见面。</div></p>
    <p><div style='color:white;font-size:25px; line-height:20px;'>在本实验中，您将会看到一些形容词。</div></p>
    <p><div style='color:yellow;font-size:25px; line-height:20px;'>您的任务是判断这些形容词是否符合对您自己或您的朋友的描述。</div></p>
    <p><div class='footer' style='font-size:25px; line-height:20px;'>如果对本实验还有不清楚之处，请立即向实验员咨询。</p><p style='font-size:25px; line-height:20px;'>如果您明白了规则：</p><p style='font-size:22px; line-height:20px;'>请按 继续 进入正式实验</p>
    </div>
    <p style='font-size:35px'>符合按<span style=""color:lightgreen""> j 键</span>，不符合按<span style=""color:red""> f 键</span></p>","0","html-button-response","13","93469","0.0-7.0-2.0","3","3","4","3","2","4","3","2","4","4","4","0","0","-1","1","-1","-1","0","0","4","4","5","5","4","4","4","4","4","4","6","7","5","6","5","6","6","6","7","4","3","1","4","5","3","5","3","4","3","1","4","3","5","2","4","3","3","3","2","4","3","4","3","6","3","7","3","5","4","6","5","5","3","6","5","5","3","5","3","4","718768648436580352","张","423","Female","[""好她"",""坏我"",""坏她"",""好我""]","[""强她"",""弱我"",""弱她"",""强我""]","","","","","","","","","","","","","","","","","SRET_EW","prac_instructions","Tue Jan 02 2024 15:47:15 GMT+0800 (中国标准时间)","","","","","","","","","","","","","","","","","","","",""
"1135","","f","psychophysics","14","95605","0.0-7.0-3.0-0.0","3","3","4","3","2","4","3","2","4","4","4","0","0","-1","1","-1","-1","0","0","4","4","5","5","4","4","4","4","4","4","6","7","5","6","5","6","6","6","7","4","3","1","4","5","3","5","3","4","3","1","4","3","5","2","4","3","3","3","2","4","3","4","3","6","3","7","3","5","4","6","5","5","3","6","5","5","3","5","3","4","718768648436580352","张","423","Female","[""好她"",""坏我"",""坏她"",""好我""]","[""强她"",""弱我"",""弱她"",""强我""]","","","","","","","","no","","","","","","","","","SRET","EW_formal","","key","f","16.683054687499975","960","536","自己","说谎","Negative","morality","","","","","","","","","","",""
"744","","j","psychophysics","15","97364","0.0-7.0-3.0-0.1","3","3","4","3","2","4","3","2","4","4","4","0","0","-1","1","-1","-1","0","0","4","4","5","5","4","4","4","4","4","4","6","7","5","6","5","6","6","6","7","4","3","1","4","5","3","5","3","4","3","1","4","3","5","2","4","3","3","3","2","4","3","4","3","6","3","7","3","5","4","6","5","5","3","6","5","5","3","5","3","4","718768648436580352","张","423","Female","[""好她"",""坏我"",""坏她"",""好我""]","[""强她"",""弱我"",""弱她"",""强我""]","","","","","","","","yes","","","","","","","","","SRET","EW_formal","","key","j","16.683519230769328","960","536","自己","坚贞","Positive","morality","","","","","","","","","","",""
"785","","f","psychophysics","16","99156","0.0-7.0-3.0-0.2","3","3","4","3","2","4","3","2","4","4","4","0","0","-1","1","-1","-1","0","0","4","4","5","5","4","4","4","4","4","4","6","7","5","6","5","6","6","6","7","4","3","1","4","5","3","5","3","4","3","1","4","3","5","2","4","3","3","3","2","4","3","4","3","6","3","7","3","5","4","6","5","5","3","6","5","5","3","5","3","4","718768648436580352","张","423","Female","[""好她"",""坏我"",""坏她"",""好我""]","[""强她"",""弱我"",""弱她"",""强我""]","","","","","","","","no","","","","","","","","","SRET","EW_formal","","key","f","16.6835849056603","960","536","朋友","迷糊","Negative","ability","","","","","","","","","","",""
"766","","j","psychophysics","17","100924","0.0-7.0-3.0-0.3","3","3","4","3","2","4","3","2","4","4","4","0","0","-1","1","-1","-1","0","0","4","4","5","5","4","4","4","4","4","4","6","7","5","6","5","6","6","6","7","4","3","1","4","5","3","5","3","4","3","1","4","3","5","2","4","3","3","3","2","4","3","4","3","6","3","7","3","5","4","6","5","5","3","6","5","5","3","5","3","4","718768648436580352","张","423","Female","[""好她"",""坏我"",""坏她"",""好我""]","[""强她"",""弱我"",""弱她"",""强我""]","","","","","","","","yes","","","","","","","","","SRET","EW_formal","","key","j","16.684066666666574","960","536","朋友","务实","Positive","ability","","","","","","","","","","",""
"1998","","j","psychophysics","18","103926","0.0-7.0-3.0-0.4","3","3","4","3","2","4","3","2","4","4","4","0","0","-1","1","-1","-1","0","0","4","4","5","5","4","4","4","4","4","4","6","7","5","6","5","6","6","6","7","4","3","1","4","5","3","5","3","4","3","1","4","3","5","2","4","3","3","3","2","4","3","4","3","6","3","7","3","5","4","6","5","5","3","6","5","5","3","5","3","4","718768648436580352","张","423","Female","[""好她"",""坏我"",""坏她"",""好我""]","[""强她"",""弱我"",""弱她"",""强我""]","","","","","","","","yes","","","","","","","","","SRET","EW_formal","","key","j","16.68352513966486","960","536","朋友","学霸","Positive","ability","","","","","","","","","","",""
"828","","f","psychophysics","19","105756","0.0-7.0-3.0-0.5","3","3","4","3","2","4","3","2","4","4","4","0","0","-1","1","-1","-1","0","0","4","4","5","5","4","4","4","4","4","4","6","7","5","6","5","6","6","6","7","4","3","1","4","5","3","5","3","4","3","1","4","3","5","2","4","3","3","3","2","4","3","4","3","6","3","7","3","5","4","6","5","5","3","6","5","5","3","5","3","4","718768648436580352","张","423","Female","[""好她"",""坏我"",""坏她"",""好我""]","[""强她"",""弱我"",""弱她"",""强我""]","","","","","","","","no","","","","","","","","","SRET","EW_formal","","key","f","16.68320183486236","960","536","自己","草率","Negative","ability","","","","","","","","","","",""
"696","","f","psychophysics","20","107460","0.0-7.0-3.0-0.6","3","3","4","3","2","4","3","2","4","4","4","0","0","-1","1","-1","-1","0","0","4","4","5","5","4","4","4","4","4","4","6","7","5","6","5","6","6","6","7","4","3","1","4","5","3","5","3","4","3","1","4","3","5","2","4","3","3","3","2","4","3","4","3","6","3","7","3","5","4","6","5","5","3","6","5","5","3","5","3","4","718768648436580352","张","423","Female","[""好她"",""坏我"",""坏她"",""好我""]","[""强她"",""弱我"",""弱她"",""强我""]","","","","","","","","no","","","","","","","","","SRET","EW_formal","","key","f","16.683900990099087","960","536","朋友","奸诈","Negative","morality","","","","","","","","","","",""
"898","","j","psychophysics","21","109365","0.0-7.0-3.0-0.7","3","3","4","3","2","4","3","2","4","4","4","0","0","-1","1","-1","-1","0","0","4","4","5","5","4","4","4","4","4","4","6","7","5","6","5","6","6","6","7","4","3","1","4","5","3","5","3","4","3","1","4","3","5","2","4","3","3","3","2","4","3","4","3","6","3","7","3","5","4","6","5","5","3","6","5","5","3","5","3","4","718768648436580352","张","423","Female","[""好她"",""坏我"",""坏她"",""好我""]","[""强她"",""弱我"",""弱她"",""强我""]","","","","","","","","yes","","","","","","","","","SRET","EW_formal","","key","j","16.684185840708047","960","536","自己","全才","Positive","ability","","","","","","","","","","",""
"1420","","f","psychophysics","22","111788","0.0-7.0-3.0-0.8","3","3","4","3","2","4","3","2","4","4","4","0","0","-1","1","-1","-1","0","0","4","4","5","5","4","4","4","4","4","4","6","7","5","6","5","6","6","6","7","4","3","1","4","5","3","5","3","4","3","1","4","3","5","2","4","3","3","3","2","4","3","4","3","6","3","7","3","5","4","6","5","5","3","6","5","5","3","5","3","4","718768648436580352","张","423","Female","[""好她"",""坏我"",""坏她"",""好我""]","[""强她"",""弱我"",""弱她"",""强我""]","","","","","","","","no","","","","","","","","","SRET","EW_formal","","key","f","16.683537931034465","960","536","朋友","粗心","Negative","ability","","","","","","","","","","",""
"904","","f","psychophysics","23","113708","0.0-7.0-3.0-0.9","3","3","4","3","2","4","3","2","4","4","4","0","0","-1","1","-1","-1","0","0","4","4","5","5","4","4","4","4","4","4","6","7","5","6","5","6","6","6","7","4","3","1","4","5","3","5","3","4","3","1","4","3","5","2","4","3","3","3","2","4","3","4","3","6","3","7","3","5","4","6","5","5","3","6","5","5","3","5","3","4","718768648436580352","张","423","Female","[""好她"",""坏我"",""坏她"",""好我""]","[""强她"",""弱我"",""弱她"",""强我""]","","","","","","","","no","","","","","","","","","SRET","EW_formal","","key","f","16.68334210526314","960","536","自己","浅薄","Negative","ability","","","","","","","","","","",""
"878","","j","psychophysics","24","115596","0.0-7.0-3.0-0.10","3","3","4","3","2","4","3","2","4","4","4","0","0","-1","1","-1","-1","0","0","4","4","5","5","4","4","4","4","4","4","6","7","5","6","5","6","6","6","7","4","3","1","4","5","3","5","3","4","3","1","4","3","5","2","4","3","3","3","2","4","3","4","3","6","3","7","3","5","4","6","5","5","3","6","5","5","3","5","3","4","718768648436580352","张","423","Female","[""好她"",""坏我"",""坏她"",""好我""]","[""强她"",""弱我"",""弱她"",""强我""]","","","","","","","","yes","","","","","","","","","SRET","EW_formal","","key","j","16.682821428571515","960","536","自己","爱国","Positive","morality","","","","","","","","","","",""
"720","","j","psychophysics","25","117324","0.0-7.0-3.0-0.11","3","3","4","3","2","4","3","2","4","4","4","0","0","-1","1","-1","-1","0","0","4","4","5","5","4","4","4","4","4","4","6","7","5","6","5","6","6","6","7","4","3","1","4","5","3","5","3","4","3","1","4","3","5","2","4","3","3","3","2","4","3","4","3","6","3","7","3","5","4","6","5","5","3","6","5","5","3","5","3","4","718768648436580352","张","423","Female","[""好她"",""坏我"",""坏她"",""好我""]","[""强她"",""弱我"",""弱她"",""强我""]","","","","","","","","yes","","","","","","","","","SRET","EW_formal","","key","j","16.683225490196065","960","536","自己","坦荡","Positive","morality","","","","","","","","","","",""
"1464","","f","psychophysics","26","119790","0.0-7.0-3.0-0.12","3","3","4","3","2","4","3","2","4","4","4","0","0","-1","1","-1","-1","0","0","4","4","5","5","4","4","4","4","4","4","6","7","5","6","5","6","6","6","7","4","3","1","4","5","3","5","3","4","3","1","4","3","5","2","4","3","3","3","2","4","3","4","3","6","3","7","3","5","4","6","5","5","3","6","5","5","3","5","3","4","718768648436580352","张","423","Female","[""好她"",""坏我"",""坏她"",""好我""]","[""强她"",""弱我"",""弱她"",""强我""]","","","","","","","","no","","","","","","","","","SRET","EW_formal","","key","f","16.68359863945579","960","536","自己","畏难","Negative","ability","","","","","","","","","","",""
"868","","j","psychophysics","27","121661","0.0-7.0-3.0-0.13","3","3","4","3","2","4","3","2","4","4","4","0","0","-1","1","-1","-1","0","0","4","4","5","5","4","4","4","4","4","4","6","7","5","6","5","6","6","6","7","4","3","1","4","5","3","5","3","4","3","1","4","3","5","2","4","3","3","3","2","4","3","4","3","6","3","7","3","5","4","6","5","5","3","6","5","5","3","5","3","4","718768648436580352","张","423","Female","[""好她"",""坏我"",""坏她"",""好我""]","[""强她"",""弱我"",""弱她"",""强我""]","","","","","","","","yes","","","","","","","","","SRET","EW_formal","","key","j","16.68299099099091","960","536","朋友","顶事","Positive","ability","","","","","","","","","","",""
"732","","f","psychophysics","28","123396","0.0-7.0-3.0-0.14","3","3","4","3","2","4","3","2","4","4","4","0","0","-1","1","-1","-1","0","0","4","4","5","5","4","4","4","4","4","4","6","7","5","6","5","6","6","6","7","4","3","1","4","5","3","5","3","4","3","1","4","3","5","2","4","3","3","3","2","4","3","4","3","6","3","7","3","5","4","6","5","5","3","6","5","5","3","5","3","4","718768648436580352","张","423","Female","[""好她"",""坏我"",""坏她"",""好我""]","[""强她"",""弱我"",""弱她"",""强我""]","","","","","","","","no","","","","","","","","","SRET","EW_formal","","key","f","16.683456310679688","960","536","朋友","无知","Negative","ability","","","","","","","","","","",""
"637","","j","psychophysics","29","125036","0.0-7.0-3.0-0.15","3","3","4","3","2","4","3","2","4","4","4","0","0","-1","1","-1","-1","0","0","4","4","5","5","4","4","4","4","4","4","6","7","5","6","5","6","6","6","7","4","3","1","4","5","3","5","3","4","3","1","4","3","5","2","4","3","3","3","2","4","3","4","3","6","3","7","3","5","4","6","5","5","3","6","5","5","3","5","3","4","718768648436580352","张","423","Female","[""好她"",""坏我"",""坏她"",""好我""]","[""强她"",""弱我"",""弱她"",""强我""]","","","","","","","","yes","","","","","","","","","SRET","EW_formal","","key","j","16.683938775510185","960","536","自己","善心","Positive","morality","","","","","","","","","","",""
"1122","","j","psychophysics","30","127172","0.0-7.0-3.0-0.16","3","3","4","3","2","4","3","2","4","4","4","0","0","-1","1","-1","-1","0","0","4","4","5","5","4","4","4","4","4","4","6","7","5","6","5","6","6","6","7","4","3","1","4","5","3","5","3","4","3","1","4","3","5","2","4","3","3","3","2","4","3","4","3","6","3","7","3","5","4","6","5","5","3","6","5","5","3","5","3","4","718768648436580352","张","423","Female","[""好她"",""坏我"",""坏她"",""好我""]","[""强她"",""弱我"",""弱她"",""强我""]","","","","","","","","yes","","","","","","","","","SRET","EW_formal","","key","j","16.683314960629943","960","536","自己","扎实","Positive","ability","","","","","","","","","","",""
"691","","f","psychophysics","31","128877","0.0-7.0-3.0-0.17","3","3","4","3","2","4","3","2","4","4","4","0","0","-1","1","-1","-1","0","0","4","4","5","5","4","4","4","4","4","4","6","7","5","6","5","6","6","6","7","4","3","1","4","5","3","5","3","4","3","1","4","3","5","2","4","3","3","3","2","4","3","4","3","6","3","7","3","5","4","6","5","5","3","6","5","5","3","5","3","4","718768648436580352","张","423","Female","[""好她"",""坏我"",""坏她"",""好我""]","[""强她"",""弱我"",""弱她"",""强我""]","","","","","","","","no","","","","","","","","","SRET","EW_formal","","key","f","16.68397029702976","960","536","朋友","弱智","Negative","ability","","","","","","","","","","",""
"1282","","f","psychophysics","32","131164","0.0-7.0-3.0-0.18","3","3","4","3","2","4","3","2","4","4","4","0","0","-1","1","-1","-1","0","0","4","4","5","5","4","4","4","4","4","4","6","7","5","6","5","6","6","6","7","4","3","1","4","5","3","5","3","4","3","1","4","3","5","2","4","3","3","3","2","4","3","4","3","6","3","7","3","5","4","6","5","5","3","6","5","5","3","5","3","4","718768648436580352","张","423","Female","[""好她"",""坏我"",""坏她"",""好我""]","[""强她"",""弱我"",""弱她"",""强我""]","","","","","","","","no","","","","","","","","","SRET","EW_formal","","key","f","16.683316176470672","960","536","自己","无能","Negative","ability","","","","","","","","","","",""
"1338","","f","psychophysics","33","133509","0.0-7.0-3.0-0.19","3","3","4","3","2","4","3","2","4","4","4","0","0","-1","1","-1","-1","0","0","4","4","5","5","4","4","4","4","4","4","6","7","5","6","5","6","6","6","7","4","3","1","4","5","3","5","3","4","3","1","4","3","5","2","4","3","3","3","2","4","3","4","3","6","3","7","3","5","4","6","5","5","3","6","5","5","3","5","3","4","718768648436580352","张","423","Female","[""好她"",""坏我"",""坏她"",""好我""]","[""强她"",""弱我"",""弱她"",""强我""]","","","","","","","","no","","","","","","","","","SRET","EW_formal","","key","f","16.68349285714295","960","536","朋友","差生","Negative","ability","","","","","","","","","","",""
"861","","j","psychophysics","34","135372","0.0-7.0-3.0-0.20","3","3","4","3","2","4","3","2","4","4","4","0","0","-1","1","-1","-1","0","0","4","4","5","5","4","4","4","4","4","4","6","7","5","6","5","6","6","6","7","4","3","1","4","5","3","5","3","4","3","1","4","3","5","2","4","3","3","3","2","4","3","4","3","6","3","7","3","5","4","6","5","5","3","6","5","5","3","5","3","4","718768648436580352","张","423","Female","[""好她"",""坏我"",""坏她"",""好我""]","[""强她"",""弱我"",""弱她"",""强我""]","","","","","","","","yes","","","","","","","","","SRET","EW_formal","","key","j","16.6829272727273","960","536","朋友","依靠","Negative","ability","","","","","","","","","","",""
"1036","","f","psychophysics","35","137414","0.0-7.0-3.0-0.21","3","3","4","3","2","4","3","2","4","4","4","0","0","-1","1","-1","-1","0","0","4","4","5","5","4","4","4","4","4","4","6","7","5","6","5","6","6","6","7","4","3","1","4","5","3","5","3","4","3","1","4","3","5","2","4","3","3","3","2","4","3","4","3","6","3","7","3","5","4","6","5","5","3","6","5","5","3","5","3","4","718768648436580352","张","423","Female","[""好她"",""坏我"",""坏她"",""好我""]","[""强她"",""弱我"",""弱她"",""强我""]","","","","","","","","no","","","","","","","","","SRET","EW_formal","","key","f","16.68412295081958","960","536","朋友","小人","Negative","morality","","","","","","","","","","",""
"853","","j","psychophysics","36","139276","0.0-7.0-3.0-0.22","3","3","4","3","2","4","3","2","4","4","4","0","0","-1","1","-1","-1","0","0","4","4","5","5","4","4","4","4","4","4","6","7","5","6","5","6","6","6","7","4","3","1","4","5","3","5","3","4","3","1","4","3","5","2","4","3","3","3","2","4","3","4","3","6","3","7","3","5","4","6","5","5","3","6","5","5","3","5","3","4","718768648436580352","张","423","Female","[""好她"",""坏我"",""坏她"",""好我""]","[""强她"",""弱我"",""弱她"",""强我""]","","","","","","","","yes","","","","","","","","","SRET","EW_formal","","key","j","16.683000000000042","960","536","自己","努力","Positive","ability","","","","","","","","","","",""
"916","","f","psychophysics","37","141196","0.0-7.0-3.0-0.23","3","3","4","3","2","4","3","2","4","4","4","0","0","-1","1","-1","-1","0","0","4","4","5","5","4","4","4","4","4","4","6","7","5","6","5","6","6","6","7","4","3","1","4","5","3","5","3","4","3","1","4","3","5","2","4","3","3","3","2","4","3","4","3","6","3","7","3","5","4","6","5","5","3","6","5","5","3","5","3","4","718768648436580352","张","423","Female","[""好她"",""坏我"",""坏她"",""好我""]","[""强她"",""弱我"",""弱她"",""强我""]","","","","","","","","no","","","","","","","","","SRET","EW_formal","","key","f","16.68357017543856","960","536","朋友","拜金","Negative","morality","","","","","","","","","","",""
"828","","j","psychophysics","38","143028","0.0-7.0-3.0-0.24","3","3","4","3","2","4","3","2","4","4","4","0","0","-1","1","-1","-1","0","0","4","4","5","5","4","4","4","4","4","4","6","7","5","6","5","6","6","6","7","4","3","1","4","5","3","5","3","4","3","1","4","3","5","2","4","3","3","3","2","4","3","4","3","6","3","7","3","5","4","6","5","5","3","6","5","5","3","5","3","4","718768648436580352","张","423","Female","[""好她"",""坏我"",""坏她"",""好我""]","[""强她"",""弱我"",""弱她"",""强我""]","","","","","","","","yes","","","","","","","","","SRET","EW_formal","","key","j","16.683302752293407","960","536","自己","淡泊","Positive","morality","","","","","","","","","","",""
"1233","","f","psychophysics","39","145268","0.0-7.0-3.0-0.25","3","3","4","3","2","4","3","2","4","4","4","0","0","-1","1","-1","-1","0","0","4","4","5","5","4","4","4","4","4","4","6","7","5","6","5","6","6","6","7","4","3","1","4","5","3","5","3","4","3","1","4","3","5","2","4","3","3","3","2","4","3","4","3","6","3","7","3","5","4","6","5","5","3","6","5","5","3","5","3","4","718768648436580352","张","423","Female","[""好她"",""坏我"",""坏她"",""好我""]","[""强她"",""弱我"",""弱她"",""强我""]","","","","","","","","no","","","","","","","","","SRET","EW_formal","","key","f","16.68390225563912","960","536","自己","失信","Negative","morality","","","","","","","","","","",""
"758","","f","psychophysics","40","147028","0.0-7.0-3.0-0.26","3","3","4","3","2","4","3","2","4","4","4","0","0","-1","1","-1","-1","0","0","4","4","5","5","4","4","4","4","4","4","6","7","5","6","5","6","6","6","7","4","3","1","4","5","3","5","3","4","3","1","4","3","5","2","4","3","3","3","2","4","3","4","3","6","3","7","3","5","4","6","5","5","3","6","5","5","3","5","3","4","718768648436580352","张","423","Female","[""好她"",""坏我"",""坏她"",""好我""]","[""强她"",""弱我"",""弱她"",""强我""]","","","","","","","","no","","","","","","","","","SRET","EW_formal","","key","f","16.683342857143032","960","536","自己","贪污","Negative","morality","","","","","","","","","","",""
"717","","f","psychophysics","41","148756","0.0-7.0-3.0-0.27","3","3","4","3","2","4","3","2","4","4","4","0","0","-1","1","-1","-1","0","0","4","4","5","5","4","4","4","4","4","4","6","7","5","6","5","6","6","6","7","4","3","1","4","5","3","5","3","4","3","1","4","3","5","2","4","3","3","3","2","4","3","4","3","6","3","7","3","5","4","6","5","5","3","6","5","5","3","5","3","4","718768648436580352","张","423","Female","[""好她"",""坏我"",""坏她"",""好我""]","[""强她"",""弱我"",""弱她"",""强我""]","","","","","","","","no","","","","","","","","","SRET","EW_formal","","key","f","16.683676470588097","960","536","自己","低劣","Negative","morality","","","","","","","","","","",""
"1175","","j","psychophysics","42","150933","0.0-7.0-3.0-0.28","3","3","4","3","2","4","3","2","4","4","4","0","0","-1","1","-1","-1","0","0","4","4","5","5","4","4","4","4","4","4","6","7","5","6","5","6","6","6","7","4","3","1","4","5","3","5","3","4","3","1","4","3","5","2","4","3","3","3","2","4","3","4","3","6","3","7","3","5","4","6","5","5","3","6","5","5","3","5","3","4","718768648436580352","张","423","Female","[""好她"",""坏我"",""坏她"",""好我""]","[""强她"",""弱我"",""弱她"",""强我""]","","","","","","","","yes","","","","","","","","","SRET","EW_formal","","key","j","16.68368461538451","960","536","朋友","侠义","Positive","morality","","","","","","","","","","",""
"1254","","j","psychophysics","43","153198","0.0-7.0-3.0-0.29","3","3","4","3","2","4","3","2","4","4","4","0","0","-1","1","-1","-1","0","0","4","4","5","5","4","4","4","4","4","4","6","7","5","6","5","6","6","6","7","4","3","1","4","5","3","5","3","4","3","1","4","3","5","2","4","3","3","3","2","4","3","4","3","6","3","7","3","5","4","6","5","5","3","6","5","5","3","5","3","4","718768648436580352","张","423","Female","[""好她"",""坏我"",""坏她"",""好我""]","[""强她"",""弱我"",""弱她"",""强我""]","","","","","","","","yes","","","","","","","","","SRET","EW_formal","","key","j","16.683666666666763","960","536","自己","变通","Positive","ability","","","","","","","","","","",""
"811","","j","psychophysics","44","155013","0.0-7.0-3.0-0.30","3","3","4","3","2","4","3","2","4","4","4","0","0","-1","1","-1","-1","0","0","4","4","5","5","4","4","4","4","4","4","6","7","5","6","5","6","6","6","7","4","3","1","4","5","3","5","3","4","3","1","4","3","5","2","4","3","3","3","2","4","3","4","3","6","3","7","3","5","4","6","5","5","3","6","5","5","3","5","3","4","718768648436580352","张","423","Female","[""好她"",""坏我"",""坏她"",""好我""]","[""强她"",""弱我"",""弱她"",""强我""]","","","","","","","","yes","","","","","","","","","SRET","EW_formal","","key","j","16.682813084112027","960","536","朋友","勤奋","Positive","ability","","","","","","","","","","",""
"1253","","j","psychophysics","45","157269","0.0-7.0-3.0-0.31","3","3","4","3","2","4","3","2","4","4","4","0","0","-1","1","-1","-1","0","0","4","4","5","5","4","4","4","4","4","4","6","7","5","6","5","6","6","6","7","4","3","1","4","5","3","5","3","4","3","1","4","3","5","2","4","3","3","3","2","4","3","4","3","6","3","7","3","5","4","6","5","5","3","6","5","5","3","5","3","4","718768648436580352","张","423","Female","[""好她"",""坏我"",""坏她"",""好我""]","[""强她"",""弱我"",""弱她"",""强我""]","","","","","","","","yes","","","","","","","","","SRET","EW_formal","","key","j","16.68371851851849","960","536","自己","屈才","Negative","ability","","","","","","","","","","",""
"1017","","j","psychophysics","46","159292","0.0-7.0-3.0-0.32","3","3","4","3","2","4","3","2","4","4","4","0","0","-1","1","-1","-1","0","0","4","4","5","5","4","4","4","4","4","4","6","7","5","6","5","6","6","6","7","4","3","1","4","5","3","5","3","4","3","1","4","3","5","2","4","3","3","3","2","4","3","4","3","6","3","7","3","5","4","6","5","5","3","6","5","5","3","5","3","4","718768648436580352","张","423","Female","[""好她"",""坏我"",""坏她"",""好我""]","[""强她"",""弱我"",""弱她"",""强我""]","","","","","","","","yes","","","","","","","","","SRET","EW_formal","","key","j","16.68332500000009","960","536","朋友","果决","Positive","ability","","","","","","","","","","",""
"826","","f","psychophysics","47","161124","0.0-7.0-3.0-0.33","3","3","4","3","2","4","3","2","4","4","4","0","0","-1","1","-1","-1","0","0","4","4","5","5","4","4","4","4","4","4","6","7","5","6","5","6","6","6","7","4","3","1","4","5","3","5","3","4","3","1","4","3","5","2","4","3","3","3","2","4","3","4","3","6","3","7","3","5","4","6","5","5","3","6","5","5","3","5","3","4","718768648436580352","张","423","Female","[""好她"",""坏我"",""坏她"",""好我""]","[""强她"",""弱我"",""弱她"",""强我""]","","","","","","","","no","","","","","","","","","SRET","EW_formal","","key","f","16.68339449541276","960","536","朋友","迟钝","Negative","ability","","","","","","","","","","",""
"709","","f","psychophysics","48","162845","0.0-7.0-3.0-0.34","3","3","4","3","2","4","3","2","4","4","4","0","0","-1","1","-1","-1","0","0","4","4","5","5","4","4","4","4","4","4","6","7","5","6","5","6","6","6","7","4","3","1","4","5","3","5","3","4","3","1","4","3","5","2","4","3","3","3","2","4","3","4","3","6","3","7","3","5","4","6","5","5","3","6","5","5","3","5","3","4","718768648436580352","张","423","Female","[""好她"",""坏我"",""坏她"",""好我""]","[""强她"",""弱我"",""弱她"",""强我""]","","","","","","","","no","","","","","","","","","SRET","EW_formal","","key","f","16.682558823529263","960","536","朋友","歹毒","Negative","morality","","","","","","","","","","",""
"914","","f","psychophysics","49","164764","0.0-7.0-3.0-0.35","3","3","4","3","2","4","3","2","4","4","4","0","0","-1","1","-1","-1","0","0","4","4","5","5","4","4","4","4","4","4","6","7","5","6","5","6","6","6","7","4","3","1","4","5","3","5","3","4","3","1","4","3","5","2","4","3","3","3","2","4","3","4","3","6","3","7","3","5","4","6","5","5","3","6","5","5","3","5","3","4","718768648436580352","张","423","Female","[""好她"",""坏我"",""坏她"",""好我""]","[""强她"",""弱我"",""弱她"",""强我""]","","","","","","","","no","","","","","","","","","SRET","EW_formal","","key","f","16.683947368421062","960","536","朋友","腐败","Negative","morality","","","","","","","","","","",""
"737","","f","psychophysics","50","166510","0.0-7.0-3.0-0.36","3","3","4","3","2","4","3","2","4","4","4","0","0","-1","1","-1","-1","0","0","4","4","5","5","4","4","4","4","4","4","6","7","5","6","5","6","6","6","7","4","3","1","4","5","3","5","3","4","3","1","4","3","5","2","4","3","3","3","2","4","3","4","3","6","3","7","3","5","4","6","5","5","3","6","5","5","3","5","3","4","718768648436580352","张","423","Female","[""好她"",""坏我"",""坏她"",""好我""]","[""强她"",""弱我"",""弱她"",""强我""]","","","","","","","","no","","","","","","","","","SRET","EW_formal","","key","f","16.683586538461476","960","536","朋友","势利","Negative","morality","","","","","","","","","","",""
"650","","j","psychophysics","51","168173","0.0-7.0-3.0-0.37","3","3","4","3","2","4","3","2","4","4","4","0","0","-1","1","-1","-1","0","0","4","4","5","5","4","4","4","4","4","4","6","7","5","6","5","6","6","6","7","4","3","1","4","5","3","5","3","4","3","1","4","3","5","2","4","3","3","3","2","4","3","4","3","6","3","7","3","5","4","6","5","5","3","6","5","5","3","5","3","4","718768648436580352","张","423","Female","[""好她"",""坏我"",""坏她"",""好我""]","[""强她"",""弱我"",""弱她"",""强我""]","","","","","","","","yes","","","","","","","","","SRET","EW_formal","","key","j","16.683724489795967","960","536","朋友","诚信","Positive","morality","","","","","","","","","","",""
"747","","j","psychophysics","52","169925","0.0-7.0-3.0-0.38","3","3","4","3","2","4","3","2","4","4","4","0","0","-1","1","-1","-1","0","0","4","4","5","5","4","4","4","4","4","4","6","7","5","6","5","6","6","6","7","4","3","1","4","5","3","5","3","4","3","1","4","3","5","2","4","3","3","3","2","4","3","4","3","6","3","7","3","5","4","6","5","5","3","6","5","5","3","5","3","4","718768648436580352","张","423","Female","[""好她"",""坏我"",""坏她"",""好我""]","[""强她"",""弱我"",""弱她"",""强我""]","","","","","","","","yes","","","","","","","","","SRET","EW_formal","","key","j","16.683778846153963","960","536","朋友","业余","Negative","ability","","","","","","","","","","",""
"676","","j","psychophysics","53","171604","0.0-7.0-3.0-0.39","3","3","4","3","2","4","3","2","4","4","4","0","0","-1","1","-1","-1","0","0","4","4","5","5","4","4","4","4","4","4","6","7","5","6","5","6","6","6","7","4","3","1","4","5","3","5","3","4","3","1","4","3","5","2","4","3","3","3","2","4","3","4","3","6","3","7","3","5","4","6","5","5","3","6","5","5","3","5","3","4","718768648436580352","张","423","Female","[""好她"",""坏我"",""坏她"",""好我""]","[""强她"",""弱我"",""弱她"",""强我""]","","","","","","","","yes","","","","","","","","","SRET","EW_formal","","key","j","16.683859999999985","960","536","朋友","慷慨","Positive","morality","","","","","","","","","","",""
"662","","j","psychophysics","54","173276","0.0-7.0-3.0-0.40","3","3","4","3","2","4","3","2","4","4","4","0","0","-1","1","-1","-1","0","0","4","4","5","5","4","4","4","4","4","4","6","7","5","6","5","6","6","6","7","4","3","1","4","5","3","5","3","4","3","1","4","3","5","2","4","3","3","3","2","4","3","4","3","6","3","7","3","5","4","6","5","5","3","6","5","5","3","5","3","4","718768648436580352","张","423","Female","[""好她"",""坏我"",""坏她"",""好我""]","[""强她"",""弱我"",""弱她"",""强我""]","","","","","","","","yes","","","","","","","","","SRET","EW_formal","","key","j","16.683101010101087","960","536","朋友","肯干","Positive","ability","","","","","","","","","","",""
"658","","f","psychophysics","55","174940","0.0-7.0-3.0-0.41","3","3","4","3","2","4","3","2","4","4","4","0","0","-1","1","-1","-1","0","0","4","4","5","5","4","4","4","4","4","4","6","7","5","6","5","6","6","6","7","4","3","1","4","5","3","5","3","4","3","1","4","3","5","2","4","3","3","3","2","4","3","4","3","6","3","7","3","5","4","6","5","5","3","6","5","5","3","5","3","4","718768648436580352","张","423","Female","[""好她"",""坏我"",""坏她"",""好我""]","[""强她"",""弱我"",""弱她"",""强我""]","","","","","","","","no","","","","","","","","","SRET","EW_formal","","key","f","16.68355555555547","960","536","自己","罪恶","Negative","morality","","","","","","","","","","",""
"750","","j","psychophysics","56","176700","0.0-7.0-3.0-0.42","3","3","4","3","2","4","3","2","4","4","4","0","0","-1","1","-1","-1","0","0","4","4","5","5","4","4","4","4","4","4","6","7","5","6","5","6","6","6","7","4","3","1","4","5","3","5","3","4","3","1","4","3","5","2","4","3","3","3","2","4","3","4","3","6","3","7","3","5","4","6","5","5","3","6","5","5","3","5","3","4","718768648436580352","张","423","Female","[""好她"",""坏我"",""坏她"",""好我""]","[""强她"",""弱我"",""弱她"",""强我""]","","","","","","","","yes","","","","","","","","","SRET","EW_formal","","key","j","16.683798076922987","960","536","自己","周到","Positive","ability","","","","","","","","","","",""
"782","","f","psychophysics","57","178484","0.0-7.0-3.0-0.43","3","3","4","3","2","4","3","2","4","4","4","0","0","-1","1","-1","-1","0","0","4","4","5","5","4","4","4","4","4","4","6","7","5","6","5","6","6","6","7","4","3","1","4","5","3","5","3","4","3","1","4","3","5","2","4","3","3","3","2","4","3","4","3","6","3","7","3","5","4","6","5","5","3","6","5","5","3","5","3","4","718768648436580352","张","423","Female","[""好她"",""坏我"",""坏她"",""好我""]","[""强她"",""弱我"",""弱她"",""强我""]","","","","","","","","no","","","","","","","","","SRET","EW_formal","","key","f","16.68366037735843","960","536","自己","贪腐","Negative","morality","","","","","","","","","","",""
"765","","f","psychophysics","58","180253","0.0-7.0-3.0-0.44","3","3","4","3","2","4","3","2","4","4","4","0","0","-1","1","-1","-1","0","0","4","4","5","5","4","4","4","4","4","4","6","7","5","6","5","6","6","6","7","4","3","1","4","5","3","5","3","4","3","1","4","3","5","2","4","3","3","3","2","4","3","4","3","6","3","7","3","5","4","6","5","5","3","6","5","5","3","5","3","4","718768648436580352","张","423","Female","[""好她"",""坏我"",""坏她"",""好我""]","[""强她"",""弱我"",""弱她"",""强我""]","","","","","","","","no","","","","","","","","","SRET","EW_formal","","key","f","16.682866666666676","960","536","自己","混账","Negative","morality","","","","","","","","","","",""
"629","","j","psychophysics","59","181885","0.0-7.0-3.0-0.45","3","3","4","3","2","4","3","2","4","4","4","0","0","-1","1","-1","-1","0","0","4","4","5","5","4","4","4","4","4","4","6","7","5","6","5","6","6","6","7","4","3","1","4","5","3","5","3","4","3","1","4","3","5","2","4","3","3","3","2","4","3","4","3","6","3","7","3","5","4","6","5","5","3","6","5","5","3","5","3","4","718768648436580352","张","423","Female","[""好她"",""坏我"",""坏她"",""好我""]","[""强她"",""弱我"",""弱她"",""强我""]","","","","","","","","yes","","","","","","","","","SRET","EW_formal","","key","j","16.683587628866178","960","536","朋友","廉正","Positive","morality","","","","","","","","","","",""
"658","","f","psychophysics","60","183549","0.0-7.0-3.0-0.46","3","3","4","3","2","4","3","2","4","4","4","0","0","-1","1","-1","-1","0","0","4","4","5","5","4","4","4","4","4","4","6","7","5","6","5","6","6","6","7","4","3","1","4","5","3","5","3","4","3","1","4","3","5","2","4","3","3","3","2","4","3","4","3","6","3","7","3","5","4","6","5","5","3","6","5","5","3","5","3","4","718768648436580352","张","423","Female","[""好她"",""坏我"",""坏她"",""好我""]","[""强她"",""弱我"",""弱她"",""强我""]","","","","","","","","no","","","","","","","","","SRET","EW_formal","","key","f","16.68327272727273","960","536","朋友","无敌","Positive","ability","","","","","","","","","","",""
"741","","f","psychophysics","61","185300","0.0-7.0-3.0-0.47","3","3","4","3","2","4","3","2","4","4","4","0","0","-1","1","-1","-1","0","0","4","4","5","5","4","4","4","4","4","4","6","7","5","6","5","6","6","6","7","4","3","1","4","5","3","5","3","4","3","1","4","3","5","2","4","3","3","3","2","4","3","4","3","6","3","7","3","5","4","6","5","5","3","6","5","5","3","5","3","4","718768648436580352","张","423","Female","[""好她"",""坏我"",""坏她"",""好我""]","[""强她"",""弱我"",""弱她"",""强我""]","","","","","","","","no","","","","","","","","","SRET","EW_formal","","key","f","16.683057692307695","960","536","朋友","愚蠢","Negative","ability","","","","","","","","","","",""
"694","","j","psychophysics","62","187004","0.0-7.0-3.0-0.48","3","3","4","3","2","4","3","2","4","4","4","0","0","-1","1","-1","-1","0","0","4","4","5","5","4","4","4","4","4","4","6","7","5","6","5","6","6","6","7","4","3","1","4","5","3","5","3","4","3","1","4","3","5","2","4","3","3","3","2","4","3","4","3","6","3","7","3","5","4","6","5","5","3","6","5","5","3","5","3","4","718768648436580352","张","423","Female","[""好她"",""坏我"",""坏她"",""好我""]","[""强她"",""弱我"",""弱她"",""强我""]","","","","","","","","yes","","","","","","","","","SRET","EW_formal","","key","j","16.683475247524925","960","536","朋友","守法","Positive","morality","","","","","","","","","","",""
"648","","f","psychophysics","63","188661","0.0-7.0-3.0-0.49","3","3","4","3","2","4","3","2","4","4","4","0","0","-1","1","-1","-1","0","0","4","4","5","5","4","4","4","4","4","4","6","7","5","6","5","6","6","6","7","4","3","1","4","5","3","5","3","4","3","1","4","3","5","2","4","3","3","3","2","4","3","4","3","6","3","7","3","5","4","6","5","5","3","6","5","5","3","5","3","4","718768648436580352","张","423","Female","[""好她"",""坏我"",""坏她"",""好我""]","[""强她"",""弱我"",""弱她"",""强我""]","","","","","","","","no","","","","","","","","","SRET","EW_formal","","key","f","16.68434693877572","960","536","自己","无赖","Negative","morality","","","","","","","","","","",""
"644","","j","psychophysics","64","190308","0.0-7.0-3.0-0.50","3","3","4","3","2","4","3","2","4","4","4","0","0","-1","1","-1","-1","0","0","4","4","5","5","4","4","4","4","4","4","6","7","5","6","5","6","6","6","7","4","3","1","4","5","3","5","3","4","3","1","4","3","5","2","4","3","3","3","2","4","3","4","3","6","3","7","3","5","4","6","5","5","3","6","5","5","3","5","3","4","718768648436580352","张","423","Female","[""好她"",""坏我"",""坏她"",""好我""]","[""强她"",""弱我"",""弱她"",""强我""]","","","","","","","","yes","","","","","","","","","SRET","EW_formal","","key","j","16.683275510203888","960","536","自己","忠诚","Positive","morality","","","","","","","","","","",""
"673","","j","psychophysics","65","191988","0.0-7.0-3.0-0.51","3","3","4","3","2","4","3","2","4","4","4","0","0","-1","1","-1","-1","0","0","4","4","5","5","4","4","4","4","4","4","6","7","5","6","5","6","6","6","7","4","3","1","4","5","3","5","3","4","3","1","4","3","5","2","4","3","3","3","2","4","3","4","3","6","3","7","3","5","4","6","5","5","3","6","5","5","3","5","3","4","718768648436580352","张","423","Female","[""好她"",""坏我"",""坏她"",""好我""]","[""强她"",""弱我"",""弱她"",""强我""]","","","","","","","","yes","","","","","","","","","SRET","EW_formal","","key","j","16.682829999999957","960","536","朋友","智慧","Positive","ability","","","","","","","","","","",""
"763","","j","psychophysics","66","193764","0.0-7.0-3.0-0.52","3","3","4","3","2","4","3","2","4","4","4","0","0","-1","1","-1","-1","0","0","4","4","5","5","4","4","4","4","4","4","6","7","5","6","5","6","6","6","7","4","3","1","4","5","3","5","3","4","3","1","4","3","5","2","4","3","3","3","2","4","3","4","3","6","3","7","3","5","4","6","5","5","3","6","5","5","3","5","3","4","718768648436580352","张","423","Female","[""好她"",""坏我"",""坏她"",""好我""]","[""强她"",""弱我"",""弱她"",""强我""]","","","","","","","","yes","","","","","","","","","SRET","EW_formal","","key","j","16.68367619047612","960","536","自己","礼貌","Positive","morality","","","","","","","","","","",""
"636","","j","psychophysics","67","195405","0.0-7.0-3.0-0.53","3","3","4","3","2","4","3","2","4","4","4","0","0","-1","1","-1","-1","0","0","4","4","5","5","4","4","4","4","4","4","6","7","5","6","5","6","6","6","7","4","3","1","4","5","3","5","3","4","3","1","4","3","5","2","4","3","3","3","2","4","3","4","3","6","3","7","3","5","4","6","5","5","3","6","5","5","3","5","3","4","718768648436580352","张","423","Female","[""好她"",""坏我"",""坏她"",""好我""]","[""强她"",""弱我"",""弱她"",""强我""]","","","","","","","","yes","","","","","","","","","SRET","EW_formal","","key","j","16.683275510204187","960","536","朋友","孝顺","Positive","morality","","","","","","","","","","",""
"784","","j","psychophysics","68","197196","0.0-7.0-3.0-0.54","3","3","4","3","2","4","3","2","4","4","4","0","0","-1","1","-1","-1","0","0","4","4","5","5","4","4","4","4","4","4","6","7","5","6","5","6","6","6","7","4","3","1","4","5","3","5","3","4","3","1","4","3","5","2","4","3","3","3","2","4","3","4","3","6","3","7","3","5","4","6","5","5","3","6","5","5","3","5","3","4","718768648436580352","张","423","Female","[""好她"",""坏我"",""坏她"",""好我""]","[""强她"",""弱我"",""弱她"",""强我""]","","","","","","","","yes","","","","","","","","","SRET","EW_formal","","key","j","16.68239622641512","960","536","自己","厚道","Positive","morality","","","","","","","","","","",""
"623","","j","psychophysics","69","198829","0.0-7.0-3.0-0.55","3","3","4","3","2","4","3","2","4","4","4","0","0","-1","1","-1","-1","0","0","4","4","5","5","4","4","4","4","4","4","6","7","5","6","5","6","6","6","7","4","3","1","4","5","3","5","3","4","3","1","4","3","5","2","4","3","3","3","2","4","3","4","3","6","3","7","3","5","4","6","5","5","3","6","5","5","3","5","3","4","718768648436580352","张","423","Female","[""好她"",""坏我"",""坏她"",""好我""]","[""强她"",""弱我"",""弱她"",""强我""]","","","","","","","","yes","","","","","","","","","SRET","EW_formal","","key","j","16.68325773195859","960","536","朋友","仁厚","Positive","morality","","","","","","","","","","",""
"805","","f","psychophysics","70","200645","0.0-7.0-3.0-0.56","3","3","4","3","2","4","3","2","4","4","4","0","0","-1","1","-1","-1","0","0","4","4","5","5","4","4","4","4","4","4","6","7","5","6","5","6","6","6","7","4","3","1","4","5","3","5","3","4","3","1","4","3","5","2","4","3","3","3","2","4","3","4","3","6","3","7","3","5","4","6","5","5","3","6","5","5","3","5","3","4","718768648436580352","张","423","Female","[""好她"",""坏我"",""坏她"",""好我""]","[""强她"",""弱我"",""弱她"",""强我""]","","","","","","","","no","","","","","","","","","SRET","EW_formal","","key","f","16.68407407407412","960","536","自己","拖拉","Negative","ability","","","","","","","","","","",""
"666","","j","psychophysics","71","202317","0.0-7.0-3.0-0.57","3","3","4","3","2","4","3","2","4","4","4","0","0","-1","1","-1","-1","0","0","4","4","5","5","4","4","4","4","4","4","6","7","5","6","5","6","6","6","7","4","3","1","4","5","3","5","3","4","3","1","4","3","5","2","4","3","3","3","2","4","3","4","3","6","3","7","3","5","4","6","5","5","3","6","5","5","3","5","3","4","718768648436580352","张","423","Female","[""好她"",""坏我"",""坏她"",""好我""]","[""强她"",""弱我"",""弱她"",""强我""]","","","","","","","","yes","","","","","","","","","SRET","EW_formal","","key","j","16.68424242424233","960","536","朋友","上进","Positive","ability","","","","","","","","","","",""
"644","","j","psychophysics","72","203972","0.0-7.0-3.0-0.58","3","3","4","3","2","4","3","2","4","4","4","0","0","-1","1","-1","-1","0","0","4","4","5","5","4","4","4","4","4","4","6","7","5","6","5","6","6","6","7","4","3","1","4","5","3","5","3","4","3","1","4","3","5","2","4","3","3","3","2","4","3","4","3","6","3","7","3","5","4","6","5","5","3","6","5","5","3","5","3","4","718768648436580352","张","423","Female","[""好她"",""坏我"",""坏她"",""好我""]","[""强她"",""弱我"",""弱她"",""强我""]","","","","","","","","yes","","","","","","","","","SRET","EW_formal","","key","j","16.683591836734973","960","536","朋友","精干","Positive","ability","","","","","","","","","","",""
"905","","j","psychophysics","73","205885","0.0-7.0-3.0-0.59","3","3","4","3","2","4","3","2","4","4","4","0","0","-1","1","-1","-1","0","0","4","4","5","5","4","4","4","4","4","4","6","7","5","6","5","6","6","6","7","4","3","1","4","5","3","5","3","4","3","1","4","3","5","2","4","3","3","3","2","4","3","4","3","6","3","7","3","5","4","6","5","5","3","6","5","5","3","5","3","4","718768648436580352","张","423","Female","[""好她"",""坏我"",""坏她"",""好我""]","[""强她"",""弱我"",""弱她"",""强我""]","","","","","","","","yes","","","","","","","","","SRET","EW_formal","","key","j","16.683342105263268","960","536","自己","高洁","Positive","morality","","","","","","","","","","",""
"1092","","j","psychophysics","74","207981","0.0-7.0-3.0-0.60","3","3","4","3","2","4","3","2","4","4","4","0","0","-1","1","-1","-1","0","0","4","4","5","5","4","4","4","4","4","4","6","7","5","6","5","6","6","6","7","4","3","1","4","5","3","5","3","4","3","1","4","3","5","2","4","3","3","3","2","4","3","4","3","6","3","7","3","5","4","6","5","5","3","6","5","5","3","5","3","4","718768648436580352","张","423","Female","[""好她"",""坏我"",""坏她"",""好我""]","[""强她"",""弱我"",""弱她"",""强我""]","","","","","","","","yes","","","","","","","","","SRET","EW_formal","","key","j","16.68306451612889","960","536","朋友","清廉","Positive","morality","","","","","","","","","","",""
"717","","f","psychophysics","75","209700","0.0-7.0-3.0-0.61","3","3","4","3","2","4","3","2","4","4","4","0","0","-1","1","-1","-1","0","0","4","4","5","5","4","4","4","4","4","4","6","7","5","6","5","6","6","6","7","4","3","1","4","5","3","5","3","4","3","1","4","3","5","2","4","3","3","3","2","4","3","4","3","6","3","7","3","5","4","6","5","5","3","6","5","5","3","5","3","4","718768648436580352","张","423","Female","[""好她"",""坏我"",""坏她"",""好我""]","[""强她"",""弱我"",""弱她"",""强我""]","","","","","","","","no","","","","","","","","","SRET","EW_formal","","key","f","16.683196078431244","960","536","朋友","拖延","Negative","ability","","","","","","","","","","",""
"983","","j","psychophysics","76","211685","0.0-7.0-3.0-0.62","3","3","4","3","2","4","3","2","4","4","4","0","0","-1","1","-1","-1","0","0","4","4","5","5","4","4","4","4","4","4","6","7","5","6","5","6","6","6","7","4","3","1","4","5","3","5","3","4","3","1","4","3","5","2","4","3","3","3","2","4","3","4","3","6","3","7","3","5","4","6","5","5","3","6","5","5","3","5","3","4","718768648436580352","张","423","Female","[""好她"",""坏我"",""坏她"",""好我""]","[""强她"",""弱我"",""弱她"",""强我""]","","","","","","","","yes","","","","","","","","","SRET","EW_formal","","key","j","16.683398305084772","960","536","朋友","伪善","Negative","morality","","","","","","","","","","",""
"886","","j","psychophysics","77","213573","0.0-7.0-3.0-0.63","3","3","4","3","2","4","3","2","4","4","4","0","0","-1","1","-1","-1","0","0","4","4","5","5","4","4","4","4","4","4","6","7","5","6","5","6","6","6","7","4","3","1","4","5","3","5","3","4","3","1","4","3","5","2","4","3","3","3","2","4","3","4","3","6","3","7","3","5","4","6","5","5","3","6","5","5","3","5","3","4","718768648436580352","张","423","Female","[""好她"",""坏我"",""坏她"",""好我""]","[""强她"",""弱我"",""弱她"",""强我""]","","","","","","","","yes","","","","","","","","","SRET","EW_formal","","key","j","16.68340707964607","960","536","自己","刚正","Positive","morality","","","","","","","","","","",""
"681","","j","psychophysics","78","215260","0.0-7.0-3.0-0.64","3","3","4","3","2","4","3","2","4","4","4","0","0","-1","1","-1","-1","0","0","4","4","5","5","4","4","4","4","4","4","6","7","5","6","5","6","6","6","7","4","3","1","4","5","3","5","3","4","3","1","4","3","5","2","4","3","3","3","2","4","3","4","3","6","3","7","3","5","4","6","5","5","3","6","5","5","3","5","3","4","718768648436580352","张","423","Female","[""好她"",""坏我"",""坏她"",""好我""]","[""强她"",""弱我"",""弱她"",""强我""]","","","","","","","","yes","","","","","","","","","SRET","EW_formal","","key","j","16.68415000000008","960","536","自己","义气","Positive","morality","","","","","","","","","","",""
"819","","f","psychophysics","79","217094","0.0-7.0-3.0-0.65","3","3","4","3","2","4","3","2","4","4","4","0","0","-1","1","-1","-1","0","0","4","4","5","5","4","4","4","4","4","4","6","7","5","6","5","6","6","6","7","4","3","1","4","5","3","5","3","4","3","1","4","3","5","2","4","3","3","3","2","4","3","4","3","6","3","7","3","5","4","6","5","5","3","6","5","5","3","5","3","4","718768648436580352","张","423","Female","[""好她"",""坏我"",""坏她"",""好我""]","[""强她"",""弱我"",""弱她"",""强我""]","","","","","","","","no","","","","","","","","","SRET","EW_formal","","key","f","16.68321100917432","960","536","自己","恶劣","Negative","morality","","","","","","","","","","",""
"979","","f","psychophysics","80","219085","0.0-7.0-3.0-0.66","3","3","4","3","2","4","3","2","4","4","4","0","0","-1","1","-1","-1","0","0","4","4","5","5","4","4","4","4","4","4","6","7","5","6","5","6","6","6","7","4","3","1","4","5","3","5","3","4","3","1","4","3","5","2","4","3","3","3","2","4","3","4","3","6","3","7","3","5","4","6","5","5","3","6","5","5","3","5","3","4","718768648436580352","张","423","Female","[""好她"",""坏我"",""坏她"",""好我""]","[""强她"",""弱我"",""弱她"",""强我""]","","","","","","","","no","","","","","","","","","SRET","EW_formal","","key","f","16.68341525423738","960","536","自己","才尽","Negative","ability","","","","","","","","","","",""
"750","","f","psychophysics","81","220845","0.0-7.0-3.0-0.67","3","3","4","3","2","4","3","2","4","4","4","0","0","-1","1","-1","-1","0","0","4","4","5","5","4","4","4","4","4","4","6","7","5","6","5","6","6","6","7","4","3","1","4","5","3","5","3","4","3","1","4","3","5","2","4","3","3","3","2","4","3","4","3","6","3","7","3","5","4","6","5","5","3","6","5","5","3","5","3","4","718768648436580352","张","423","Female","[""好她"",""坏我"",""坏她"",""好我""]","[""强她"",""弱我"",""弱她"",""强我""]","","","","","","","","no","","","","","","","","","SRET","EW_formal","","key","f","16.68299038461555","960","536","自己","下流","Negative","morality","","","","","","","","","","",""
"1390","","f","psychophysics","82","223237","0.0-7.0-3.0-0.68","3","3","4","3","2","4","3","2","4","4","4","0","0","-1","1","-1","-1","0","0","4","4","5","5","4","4","4","4","4","4","6","7","5","6","5","6","6","6","7","4","3","1","4","5","3","5","3","4","3","1","4","3","5","2","4","3","3","3","2","4","3","4","3","6","3","7","3","5","4","6","5","5","3","6","5","5","3","5","3","4","718768648436580352","张","423","Female","[""好她"",""坏我"",""坏她"",""好我""]","[""强她"",""弱我"",""弱她"",""强我""]","","","","","","","","no","","","","","","","","","SRET","EW_formal","","key","f","16.68339160839165","960","536","朋友","背叛","Negative","morality","","","","","","","","","","",""
"716","","j","psychophysics","83","224965","0.0-7.0-3.0-0.69","3","3","4","3","2","4","3","2","4","4","4","0","0","-1","1","-1","-1","0","0","4","4","5","5","4","4","4","4","4","4","6","7","5","6","5","6","6","6","7","4","3","1","4","5","3","5","3","4","3","1","4","3","5","2","4","3","3","3","2","4","3","4","3","6","3","7","3","5","4","6","5","5","3","6","5","5","3","5","3","4","718768648436580352","张","423","Female","[""好她"",""坏我"",""坏她"",""好我""]","[""强她"",""弱我"",""弱她"",""强我""]","","","","","","","","yes","","","","","","","","","SRET","EW_formal","","key","j","16.6838137254903","960","536","自己","博识","Positive","ability","","","","","","","","","","",""
"805","","j","psychophysics","84","226772","0.0-7.0-3.0-0.70","3","3","4","3","2","4","3","2","4","4","4","0","0","-1","1","-1","-1","0","0","4","4","5","5","4","4","4","4","4","4","6","7","5","6","5","6","6","6","7","4","3","1","4","5","3","5","3","4","3","1","4","3","5","2","4","3","3","3","2","4","3","4","3","6","3","7","3","5","4","6","5","5","3","6","5","5","3","5","3","4","718768648436580352","张","423","Female","[""好她"",""坏我"",""坏她"",""好我""]","[""强她"",""弱我"",""弱她"",""强我""]","","","","","","","","yes","","","","","","","","","SRET","EW_formal","","key","j","16.684157407407366","960","536","朋友","奉献","Positive","morality","","","","","","","","","","",""
"675","","f","psychophysics","85","228461","0.0-7.0-3.0-0.71","3","3","4","3","2","4","3","2","4","4","4","0","0","-1","1","-1","-1","0","0","4","4","5","5","4","4","4","4","4","4","6","7","5","6","5","6","6","6","7","4","3","1","4","5","3","5","3","4","3","1","4","3","5","2","4","3","3","3","2","4","3","4","3","6","3","7","3","5","4","6","5","5","3","6","5","5","3","5","3","4","718768648436580352","张","423","Female","[""好她"",""坏我"",""坏她"",""好我""]","[""强她"",""弱我"",""弱她"",""强我""]","","","","","","","","no","","","","","","","","","SRET","EW_formal","","key","f","16.683610000000044","960","536","朋友","奸险","Negative","morality","","","","","","","","","","",""
"646","","f","psychophysics","86","230116","0.0-7.0-3.0-0.72","3","3","4","3","2","4","3","2","4","4","4","0","0","-1","1","-1","-1","0","0","4","4","5","5","4","4","4","4","4","4","6","7","5","6","5","6","6","6","7","4","3","1","4","5","3","5","3","4","3","1","4","3","5","2","4","3","3","3","2","4","3","4","3","6","3","7","3","5","4","6","5","5","3","6","5","5","3","5","3","4","718768648436580352","张","423","Female","[""好她"",""坏我"",""坏她"",""好我""]","[""强她"",""弱我"",""弱她"",""强我""]","","","","","","","","no","","","","","","","","","SRET","EW_formal","","key","f","16.68346938775521","960","536","朋友","不孝","Negative","morality","","","","","","","","","","",""
"610","","f","psychophysics","87","231733","0.0-7.0-3.0-0.73","3","3","4","3","2","4","3","2","4","4","4","0","0","-1","1","-1","-1","0","0","4","4","5","5","4","4","4","4","4","4","6","7","5","6","5","6","6","6","7","4","3","1","4","5","3","5","3","4","3","1","4","3","5","2","4","3","3","3","2","4","3","4","3","6","3","7","3","5","4","6","5","5","3","6","5","5","3","5","3","4","718768648436580352","张","423","Female","[""好她"",""坏我"",""坏她"",""好我""]","[""强她"",""弱我"",""弱她"",""强我""]","","","","","","","","no","","","","","","","","","SRET","EW_formal","","key","f","16.68328125000001","960","536","自己","无耻","Negative","morality","","","","","","","","","","",""
"825","","f","psychophysics","88","233565","0.0-7.0-3.0-0.74","3","3","4","3","2","4","3","2","4","4","4","0","0","-1","1","-1","-1","0","0","4","4","5","5","4","4","4","4","4","4","6","7","5","6","5","6","6","6","7","4","3","1","4","5","3","5","3","4","3","1","4","3","5","2","4","3","3","3","2","4","3","4","3","6","3","7","3","5","4","6","5","5","3","6","5","5","3","5","3","4","718768648436580352","张","423","Female","[""好她"",""坏我"",""坏她"",""好我""]","[""强她"",""弱我"",""弱她"",""强我""]","","","","","","","","no","","","","","","","","","SRET","EW_formal","","key","f","16.68281651376143","960","536","自己","独断","Negative","ability","","","","","","","","","","",""
"718","","j","psychophysics","89","235293","0.0-7.0-3.0-0.75","3","3","4","3","2","4","3","2","4","4","4","0","0","-1","1","-1","-1","0","0","4","4","5","5","4","4","4","4","4","4","6","7","5","6","5","6","6","6","7","4","3","1","4","5","3","5","3","4","3","1","4","3","5","2","4","3","3","3","2","4","3","4","3","6","3","7","3","5","4","6","5","5","3","6","5","5","3","5","3","4","718768648436580352","张","423","Female","[""好她"",""坏我"",""坏她"",""好我""]","[""强她"",""弱我"",""弱她"",""强我""]","","","","","","","","yes","","","","","","","","","SRET","EW_formal","","key","j","16.682901960784196","960","536","自己","细心","Positive","ability","","","","","","","","","","",""
"768","","f","psychophysics","90","237062","0.0-7.0-3.0-0.76","3","3","4","3","2","4","3","2","4","4","4","0","0","-1","1","-1","-1","0","0","4","4","5","5","4","4","4","4","4","4","6","7","5","6","5","6","6","6","7","4","3","1","4","5","3","5","3","4","3","1","4","3","5","2","4","3","3","3","2","4","3","4","3","6","3","7","3","5","4","6","5","5","3","6","5","5","3","5","3","4","718768648436580352","张","423","Female","[""好她"",""坏我"",""坏她"",""好我""]","[""强她"",""弱我"",""弱她"",""强我""]","","","","","","","","no","","","","","","","","","SRET","EW_formal","","key","f","16.683695238095243","960","536","自己","毛糙","Negative","ability","","","","","","","","","","",""
"1005","","j","psychophysics","91","239069","0.0-7.0-3.0-0.77","3","3","4","3","2","4","3","2","4","4","4","0","0","-1","1","-1","-1","0","0","4","4","5","5","4","4","4","4","4","4","6","7","5","6","5","6","6","6","7","4","3","1","4","5","3","5","3","4","3","1","4","3","5","2","4","3","3","3","2","4","3","4","3","6","3","7","3","5","4","6","5","5","3","6","5","5","3","5","3","4","718768648436580352","张","423","Female","[""好她"",""坏我"",""坏她"",""好我""]","[""强她"",""弱我"",""弱她"",""强我""]","","","","","","","","yes","","","","","","","","","SRET","EW_formal","","key","j","16.684000000000136","960","536","自己","果断","Positive","ability","","","","","","","","","","",""
"829","","j","psychophysics","92","240902","0.0-7.0-3.0-0.78","3","3","4","3","2","4","3","2","4","4","4","0","0","-1","1","-1","-1","0","0","4","4","5","5","4","4","4","4","4","4","6","7","5","6","5","6","6","6","7","4","3","1","4","5","3","5","3","4","3","1","4","3","5","2","4","3","3","3","2","4","3","4","3","6","3","7","3","5","4","6","5","5","3","6","5","5","3","5","3","4","718768648436580352","张","423","Female","[""好她"",""坏我"",""坏她"",""好我""]","[""强她"",""弱我"",""弱她"",""强我""]","","","","","","","","yes","","","","","","","","","SRET","EW_formal","","key","j","16.684697247706268","960","536","朋友","敬业","Positive","morality","","","","","","","","","","",""
"906","","j","psychophysics","93","242821","0.0-7.0-3.0-0.79","3","3","4","3","2","4","3","2","4","4","4","0","0","-1","1","-1","-1","0","0","4","4","5","5","4","4","4","4","4","4","6","7","5","6","5","6","6","6","7","4","3","1","4","5","3","5","3","4","3","1","4","3","5","2","4","3","3","3","2","4","3","4","3","6","3","7","3","5","4","6","5","5","3","6","5","5","3","5","3","4","718768648436580352","张","423","Female","[""好她"",""坏我"",""坏她"",""好我""]","[""强她"",""弱我"",""弱她"",""强我""]","","","","","","","","yes","","","","","","","","","SRET","EW_formal","","key","j","16.683219298245508","960","536","自己","娴熟","Positive","ability","","","","","","","","","","",""
"949","","j","psychophysics","94","244780","0.0-7.0-3.0-0.80","3","3","4","3","2","4","3","2","4","4","4","0","0","-1","1","-1","-1","0","0","4","4","5","5","4","4","4","4","4","4","6","7","5","6","5","6","6","6","7","4","3","1","4","5","3","5","3","4","3","1","4","3","5","2","4","3","3","3","2","4","3","4","3","6","3","7","3","5","4","6","5","5","3","6","5","5","3","5","3","4","718768648436580352","张","423","Female","[""好她"",""坏我"",""坏她"",""好我""]","[""强她"",""弱我"",""弱她"",""强我""]","","","","","","","","yes","","","","","","","","","SRET","EW_formal","","key","j","16.683146551724096","960","536","朋友","稳健","Positive","ability","","","","","","","","","","",""
"673","","j","psychophysics","95","246460","0.0-7.0-3.0-0.81","3","3","4","3","2","4","3","2","4","4","4","0","0","-1","1","-1","-1","0","0","4","4","5","5","4","4","4","4","4","4","6","7","5","6","5","6","6","6","7","4","3","1","4","5","3","5","3","4","3","1","4","3","5","2","4","3","3","3","2","4","3","4","3","6","3","7","3","5","4","6","5","5","3","6","5","5","3","5","3","4","718768648436580352","张","423","Female","[""好她"",""坏我"",""坏她"",""好我""]","[""强她"",""弱我"",""弱她"",""强我""]","","","","","","","","yes","","","","","","","","","SRET","EW_formal","","key","j","16.683239999999934","960","536","自己","专注","Positive","ability","","","","","","","","","","",""
"668","","f","psychophysics","96","248133","0.0-7.0-3.0-0.82","3","3","4","3","2","4","3","2","4","4","4","0","0","-1","1","-1","-1","0","0","4","4","5","5","4","4","4","4","4","4","6","7","5","6","5","6","6","6","7","4","3","1","4","5","3","5","3","4","3","1","4","3","5","2","4","3","3","3","2","4","3","4","3","6","3","7","3","5","4","6","5","5","3","6","5","5","3","5","3","4","718768648436580352","张","423","Female","[""好她"",""坏我"",""坏她"",""好我""]","[""强她"",""弱我"",""弱她"",""强我""]","","","","","","","","no","","","","","","","","","SRET","EW_formal","","key","f","16.68400000000015","960","536","朋友","盲目","Negative","ability","","","","","","","","","","",""
"769","","f","psychophysics","97","249910","0.0-7.0-3.0-0.83","3","3","4","3","2","4","3","2","4","4","4","0","0","-1","1","-1","-1","0","0","4","4","5","5","4","4","4","4","4","4","6","7","5","6","5","6","6","6","7","4","3","1","4","5","3","5","3","4","3","1","4","3","5","2","4","3","3","3","2","4","3","4","3","6","3","7","3","5","4","6","5","5","3","6","5","5","3","5","3","4","718768648436580352","张","423","Female","[""好她"",""坏我"",""坏她"",""好我""]","[""强她"",""弱我"",""弱她"",""强我""]","","","","","","","","no","","","","","","","","","SRET","EW_formal","","key","f","16.68316981132073","960","536","自己","拙笨","Negative","ability","","","","","","","","","","",""
"601","","f","psychophysics","98","251516","0.0-7.0-3.0-0.84","3","3","4","3","2","4","3","2","4","4","4","0","0","-1","1","-1","-1","0","0","4","4","5","5","4","4","4","4","4","4","6","7","5","6","5","6","6","6","7","4","3","1","4","5","3","5","3","4","3","1","4","3","5","2","4","3","3","3","2","4","3","4","3","6","3","7","3","5","4","6","5","5","3","6","5","5","3","5","3","4","718768648436580352","张","423","Female","[""好她"",""坏我"",""坏她"",""好我""]","[""强她"",""弱我"",""弱她"",""强我""]","","","","","","","","no","","","","","","","","","SRET","EW_formal","","key","f","16.683136842105426","960","536","朋友","低俗","Negative","morality","","","","","","","","","","",""
"782","","f","psychophysics","99","253308","0.0-7.0-3.0-0.85","3","3","4","3","2","4","3","2","4","4","4","0","0","-1","1","-1","-1","0","0","4","4","5","5","4","4","4","4","4","4","6","7","5","6","5","6","6","6","7","4","3","1","4","5","3","5","3","4","3","1","4","3","5","2","4","3","3","3","2","4","3","4","3","6","3","7","3","5","4","6","5","5","3","6","5","5","3","5","3","4","718768648436580352","张","423","Female","[""好她"",""坏我"",""坏她"",""好我""]","[""强她"",""弱我"",""弱她"",""强我""]","","","","","","","","no","","","","","","","","","SRET","EW_formal","","key","f","16.6836226415095","960","536","自己","缓慢","Negative","ability","","","","","","","","","","",""
"804","","j","psychophysics","100","255117","0.0-7.0-3.0-0.86","3","3","4","3","2","4","3","2","4","4","4","0","0","-1","1","-1","-1","0","0","4","4","5","5","4","4","4","4","4","4","6","7","5","6","5","6","6","6","7","4","3","1","4","5","3","5","3","4","3","1","4","3","5","2","4","3","3","3","2","4","3","4","3","6","3","7","3","5","4","6","5","5","3","6","5","5","3","5","3","4","718768648436580352","张","423","Female","[""好她"",""坏我"",""坏她"",""好我""]","[""强她"",""弱我"",""弱她"",""强我""]","","","","","","","","yes","","","","","","","","","SRET","EW_formal","","key","j","16.683157407407297","960","536","朋友","素养","Positive","morality","","","","","","","","","","",""
"724","","j","psychophysics","101","256852","0.0-7.0-3.0-0.87","3","3","4","3","2","4","3","2","4","4","4","0","0","-1","1","-1","-1","0","0","4","4","5","5","4","4","4","4","4","4","6","7","5","6","5","6","6","6","7","4","3","1","4","5","3","5","3","4","3","1","4","3","5","2","4","3","3","3","2","4","3","4","3","6","3","7","3","5","4","6","5","5","3","6","5","5","3","5","3","4","718768648436580352","张","423","Female","[""好她"",""坏我"",""坏她"",""好我""]","[""强她"",""弱我"",""弱她"",""强我""]","","","","","","","","yes","","","","","","","","","SRET","EW_formal","","key","j","16.68356310679618","960","536","自己","主见","Positive","ability","","","","","","","","","","",""
"8738","
    <p><div style='color:white;font-size:35px; line-height:20px;'>计算任务</div></p><br>
    <p><div style='color:red;font-size:25px; line-height:20px;'>接下来，您将看到一些四则运算题，<b>请从键盘选择 0-9 进行反应。</b></div></p>
    <p><div style='color:red;font-size:25px; line-height:20px;'>请尽可能快地进行计算，计算的速度和正确率将影响报酬的发放。</div></p>
    <p><div class='footer' style='color:white;font-size:25px; line-height:20px;'>如果对本实验还有不清楚之处，请立即向实验员咨询。</p><p style='color:white;font-size:25px; line-height:20px;'>如果您明白了规则：</p><p style='color:white;font-size:22px; line-height:20px;'>请按 继续 进入练习</p>
    </div>
    ","0","html-button-response","102","265591","0.0-7.0-4.0","3","3","4","3","2","4","3","2","4","4","4","0","0","-1","1","-1","-1","0","0","4","4","5","5","4","4","4","4","4","4","6","7","5","6","5","6","6","6","7","4","3","1","4","5","3","5","3","4","3","1","4","3","5","2","4","3","3","3","2","4","3","4","3","6","3","7","3","5","4","6","5","5","3","6","5","5","3","5","3","4","718768648436580352","张","423","Female","[""好她"",""坏我"",""坏她"",""好我""]","[""强她"",""弱我"",""弱她"",""强我""]","","","","","","","","","","","","","","","","","SRET_math","math_instructions","Tue Jan 02 2024 15:47:15 GMT+0800 (中国标准时间)","","","","","","","","","","","","","","","","","","","",""
"2251","","6","psychophysics","103","267844","0.0-7.0-5.0-0.0","3","3","4","3","2","4","3","2","4","4","4","0","0","-1","1","-1","-1","0","0","4","4","5","5","4","4","4","4","4","4","6","7","5","6","5","6","6","6","7","4","3","1","4","5","3","5","3","4","3","1","4","3","5","2","4","3","3","3","2","4","3","4","3","6","3","7","3","5","4","6","5","5","3","6","5","5","3","5","3","4","718768648436580352","张","423","Female","[""好她"",""坏我"",""坏她"",""好我""]","[""强她"",""弱我"",""弱她"",""强我""]","","","","","","","","6","","","","","","","","","SRET","SRET_math_calculate","","key","6","16.80743703703715","960","536","","","","","4+2= ?","6","1","","","","","","","",""
"1823","","8","psychophysics","104","269669","0.0-7.0-5.0-0.1","3","3","4","3","2","4","3","2","4","4","4","0","0","-1","1","-1","-1","0","0","4","4","5","5","4","4","4","4","4","4","6","7","5","6","5","6","6","6","7","4","3","1","4","5","3","5","3","4","3","1","4","3","5","2","4","3","3","3","2","4","3","4","3","6","3","7","3","5","4","6","5","5","3","6","5","5","3","5","3","4","718768648436580352","张","423","Female","[""好她"",""坏我"",""坏她"",""好我""]","[""强她"",""弱我"",""弱她"",""强我""]","","","","","","","","8","","","","","","","","","SRET","SRET_math_calculate","","key","8","16.683379629629567","960","536","","","","","1+7= ?","8","1","","","","","","","",""
"1806","","5","psychophysics","105","271476","0.0-7.0-5.0-0.2","3","3","4","3","2","4","3","2","4","4","4","0","0","-1","1","-1","-1","0","0","4","4","5","5","4","4","4","4","4","4","6","7","5","6","5","6","6","6","7","4","3","1","4","5","3","5","3","4","3","1","4","3","5","2","4","3","3","3","2","4","3","4","3","6","3","7","3","5","4","6","5","5","3","6","5","5","3","5","3","4","718768648436580352","张","423","Female","[""好她"",""坏我"",""坏她"",""好我""]","[""强她"",""弱我"",""弱她"",""强我""]","","","","","","","","5","","","","","","","","","SRET","SRET_math_calculate","","key","5","16.683654205607596","960","536","","","","","8-3= ? ","5","1","","","","","","","",""
"1743","","5","psychophysics","106","273221","0.0-7.0-5.0-0.3","3","3","4","3","2","4","3","2","4","4","4","0","0","-1","1","-1","-1","0","0","4","4","5","5","4","4","4","4","4","4","6","7","5","6","5","6","6","6","7","4","3","1","4","5","3","5","3","4","3","1","4","3","5","2","4","3","3","3","2","4","3","4","3","6","3","7","3","5","4","6","5","5","3","6","5","5","3","5","3","4","718768648436580352","张","423","Female","[""好她"",""坏我"",""坏她"",""好我""]","[""强她"",""弱我"",""弱她"",""强我""]","","","","","","","","5","","","","","","","","","SRET","SRET_math_calculate","","key","5","16.683576923076963","960","536","","","","","12-7= ?","5","1","","","","","","","",""
"1847","","3","psychophysics","107","275069","0.0-7.0-5.0-0.4","3","3","4","3","2","4","3","2","4","4","4","0","0","-1","1","-1","-1","0","0","4","4","5","5","4","4","4","4","4","4","6","7","5","6","5","6","6","6","7","4","3","1","4","5","3","5","3","4","3","1","4","3","5","2","4","3","3","3","2","4","3","4","3","6","3","7","3","5","4","6","5","5","3","6","5","5","3","5","3","4","718768648436580352","张","423","Female","[""好她"",""坏我"",""坏她"",""好我""]","[""强她"",""弱我"",""弱她"",""强我""]","","","","","","","","3","","","","","","","","","SRET","SRET_math_calculate","","key","3","16.68320909090901","960","536","","","","","2+1= ?","3","1","","","","","","","",""
"1831","","8","psychophysics","108","276901","0.0-7.0-5.0-0.5","3","3","4","3","2","4","3","2","4","4","4","0","0","-1","1","-1","-1","0","0","4","4","5","5","4","4","4","4","4","4","6","7","5","6","5","6","6","6","7","4","3","1","4","5","3","5","3","4","3","1","4","3","5","2","4","3","3","3","2","4","3","4","3","6","3","7","3","5","4","6","5","5","3","6","5","5","3","5","3","4","718768648436580352","张","423","Female","[""好她"",""坏我"",""坏她"",""好我""]","[""强她"",""弱我"",""弱她"",""强我""]","","","","","","","","8","","","","","","","","","SRET","SRET_math_calculate","","key","8","16.683314814814906","960","536","","","","","3+5= ?","8","1","","","","","","","",""
"1907","","2","psychophysics","109","278822","0.0-7.0-5.0-0.6","3","3","4","3","2","4","3","2","4","4","4","0","0","-1","1","-1","-1","0","0","4","4","5","5","4","4","4","4","4","4","6","7","5","6","5","6","6","6","7","4","3","1","4","5","3","5","3","4","3","1","4","3","5","2","4","3","3","3","2","4","3","4","3","6","3","7","3","5","4","6","5","5","3","6","5","5","3","5","3","4","718768648436580352","张","423","Female","[""好她"",""坏我"",""坏她"",""好我""]","[""强她"",""弱我"",""弱她"",""强我""]","","","","","","","","2","","","","","","","","","SRET","SRET_math_calculate","","key","2","16.683226086956488","960","536","","","","","81/9= ?","9","0","","","","","","","",""
"1846","","8","psychophysics","110","280669","0.0-7.0-5.0-0.7","3","3","4","3","2","4","3","2","4","4","4","0","0","-1","1","-1","-1","0","0","4","4","5","5","4","4","4","4","4","4","6","7","5","6","5","6","6","6","7","4","3","1","4","5","3","5","3","4","3","1","4","3","5","2","4","3","3","3","2","4","3","4","3","6","3","7","3","5","4","6","5","5","3","6","5","5","3","5","3","4","718768648436580352","张","423","Female","[""好她"",""坏我"",""坏她"",""好我""]","[""强她"",""弱我"",""弱她"",""强我""]","","","","","","","","8","","","","","","","","","SRET","SRET_math_calculate","","key","8","16.683431192660606","960","536","","","","","7+1= ?","8","1","","","","","","","",""
"1832","","9","psychophysics","111","282501","0.0-7.0-5.0-0.8","3","3","4","3","2","4","3","2","4","4","4","0","0","-1","1","-1","-1","0","0","4","4","5","5","4","4","4","4","4","4","6","7","5","6","5","6","6","6","7","4","3","1","4","5","3","5","3","4","3","1","4","3","5","2","4","3","3","3","2","4","3","4","3","6","3","7","3","5","4","6","5","5","3","6","5","5","3","5","3","4","718768648436580352","张","423","Female","[""好她"",""坏我"",""坏她"",""好我""]","[""强她"",""弱我"",""弱她"",""强我""]","","","","","","","","9","","","","","","","","","SRET","SRET_math_calculate","","key","9","16.683770642201992","960","536","","","","","5+4= ?","9","1","","","","","","","",""
"1710","","9","psychophysics","112","284213","0.0-7.0-5.0-0.9","3","3","4","3","2","4","3","2","4","4","4","0","0","-1","1","-1","-1","0","0","4","4","5","5","4","4","4","4","4","4","6","7","5","6","5","6","6","6","7","4","3","1","4","5","3","5","3","4","3","1","4","3","5","2","4","3","3","3","2","4","3","4","3","6","3","7","3","5","4","6","5","5","3","6","5","5","3","5","3","4","718768648436580352","张","423","Female","[""好她"",""坏我"",""坏她"",""好我""]","[""强她"",""弱我"",""弱她"",""强我""]","","","","","","","","9","","","","","","","","","SRET","SRET_math_calculate","","key","9","16.683637254901672","960","536","","","","","8+1= ?","9","1","","","","","","","",""
"1847","","8","psychophysics","113","286061","0.0-7.0-5.0-0.10","3","3","4","3","2","4","3","2","4","4","4","0","0","-1","1","-1","-1","0","0","4","4","5","5","4","4","4","4","4","4","6","7","5","6","5","6","6","6","7","4","3","1","4","5","3","5","3","4","3","1","4","3","5","2","4","3","3","3","2","4","3","4","3","6","3","7","3","5","4","6","5","5","3","6","5","5","3","5","3","4","718768648436580352","张","423","Female","[""好她"",""坏我"",""坏她"",""好我""]","[""强她"",""弱我"",""弱她"",""强我""]","","","","","","","","8","","","","","","","","","SRET","SRET_math_calculate","","key","8","16.68289908256922","960","536","","","","","6+2= ?","8","1","","","","","","","",""
"1950","","4","psychophysics","114","288014","0.0-7.0-5.0-0.11","3","3","4","3","2","4","3","2","4","4","4","0","0","-1","1","-1","-1","0","0","4","4","5","5","4","4","4","4","4","4","6","7","5","6","5","6","6","6","7","4","3","1","4","5","3","5","3","4","3","1","4","3","5","2","4","3","3","3","2","4","3","4","3","6","3","7","3","5","4","6","5","5","3","6","5","5","3","5","3","4","718768648436580352","张","423","Female","[""好她"",""坏我"",""坏她"",""好我""]","[""强她"",""弱我"",""弱她"",""强我""]","","","","","","","","4","","","","","","","","","SRET","SRET_math_calculate","","key","4","16.6833589743588","960","536","","","","","8/4= ?","2","0","","","","","","","",""
"1798","","2","psychophysics","115","289813","0.0-7.0-5.0-0.12","3","3","4","3","2","4","3","2","4","4","4","0","0","-1","1","-1","-1","0","0","4","4","5","5","4","4","4","4","4","4","6","7","5","6","5","6","6","6","7","4","3","1","4","5","3","5","3","4","3","1","4","3","5","2","4","3","3","3","2","4","3","4","3","6","3","7","3","5","4","6","5","5","3","6","5","5","3","5","3","4","718768648436580352","张","423","Female","[""好她"",""坏我"",""坏她"",""好我""]","[""强她"",""弱我"",""弱她"",""强我""]","","","","","","","","2","","","","","","","","","SRET","SRET_math_calculate","","key","2","16.683235849056697","960","536","","","","","22/11= ?","2","1","","","","","","","",""
"2089","","8","psychophysics","116","291902","0.0-7.0-5.0-0.13","3","3","4","3","2","4","3","2","4","4","4","0","0","-1","1","-1","-1","0","0","4","4","5","5","4","4","4","4","4","4","6","7","5","6","5","6","6","6","7","4","3","1","4","5","3","5","3","4","3","1","4","3","5","2","4","3","3","3","2","4","3","4","3","6","3","7","3","5","4","6","5","5","3","6","5","5","3","5","3","4","718768648436580352","张","423","Female","[""好她"",""坏我"",""坏她"",""好我""]","[""强她"",""弱我"",""弱她"",""强我""]","","","","","","","","8","","","","","","","","","SRET","SRET_math_calculate","","key","8","16.683695999999998","960","536","","","","","72/9= ?","8","1","","","","","","","",""
"1773","","9","psychophysics","117","293676","0.0-7.0-5.0-0.14","3","3","4","3","2","4","3","2","4","4","4","0","0","-1","1","-1","-1","0","0","4","4","5","5","4","4","4","4","4","4","6","7","5","6","5","6","6","6","7","4","3","1","4","5","3","5","3","4","3","1","4","3","5","2","4","3","3","3","2","4","3","4","3","6","3","7","3","5","4","6","5","5","3","6","5","5","3","5","3","4","718768648436580352","张","423","Female","[""好她"",""坏我"",""坏她"",""好我""]","[""强她"",""弱我"",""弱她"",""强我""]","","","","","","","","9","","","","","","","","","SRET","SRET_math_calculate","","key","9","16.68339999999984","960","536","","","","","4+5= ?","9","1","","","","","","","",""
"1991","","4","psychophysics","118","295669","0.0-7.0-5.0-0.15","3","3","4","3","2","4","3","2","4","4","4","0","0","-1","1","-1","-1","0","0","4","4","5","5","4","4","4","4","4","4","6","7","5","6","5","6","6","6","7","4","3","1","4","5","3","5","3","4","3","1","4","3","5","2","4","3","3","3","2","4","3","4","3","6","3","7","3","5","4","6","5","5","3","6","5","5","3","5","3","4","718768648436580352","张","423","Female","[""好她"",""坏我"",""坏她"",""好我""]","[""强她"",""弱我"",""弱她"",""强我""]","","","","","","","","4","","","","","","","","","SRET","SRET_math_calculate","","key","4","16.683728813559263","960","536","","","","","6/2= ?","3","0","","","","","","","",""
"1863","","8","psychophysics","119","297533","0.0-7.0-5.0-0.16","3","3","4","3","2","4","3","2","4","4","4","0","0","-1","1","-1","-1","0","0","4","4","5","5","4","4","4","4","4","4","6","7","5","6","5","6","6","6","7","4","3","1","4","5","3","5","3","4","3","1","4","3","5","2","4","3","3","3","2","4","3","4","3","6","3","7","3","5","4","6","5","5","3","6","5","5","3","5","3","4","718768648436580352","张","423","Female","[""好她"",""坏我"",""坏她"",""好我""]","[""强她"",""弱我"",""弱她"",""强我""]","","","","","","","","8","","","","","","","","","SRET","SRET_math_calculate","","key","8","16.68399099099108","960","536","","","","","4*2= ?","8","1","","","","","","","",""
"1759","","6","psychophysics","120","299293","0.0-7.0-5.0-0.17","3","3","4","3","2","4","3","2","4","4","4","0","0","-1","1","-1","-1","0","0","4","4","5","5","4","4","4","4","4","4","6","7","5","6","5","6","6","6","7","4","3","1","4","5","3","5","3","4","3","1","4","3","5","2","4","3","3","3","2","4","3","4","3","6","3","7","3","5","4","6","5","5","3","6","5","5","3","5","3","4","718768648436580352","张","423","Female","[""好她"",""坏我"",""坏她"",""好我""]","[""强她"",""弱我"",""弱她"",""强我""]","","","","","","","","6","","","","","","","","","SRET","SRET_math_calculate","","key","6","16.683409523809264","960","536","","","","","8-2= ?","6","1","","","","","","","",""
"6","","5","psychophysics","121","299301","0.0-7.0-5.0-0.18","3","3","4","3","2","4","3","2","4","4","4","0","0","-1","1","-1","-1","0","0","4","4","5","5","4","4","4","4","4","4","6","7","5","6","5","6","6","6","7","4","3","1","4","5","3","5","3","4","3","1","4","3","5","2","4","3","3","3","2","4","3","4","3","6","3","7","3","5","4","6","5","5","3","6","5","5","3","5","3","4","718768648436580352","张","423","Female","[""好她"",""坏我"",""坏她"",""好我""]","[""强她"",""弱我"",""弱她"",""强我""]","","","","","","","","5","","","","","","","","","SRET","SRET_math_calculate","","key","5","NaN","960","536","","","","","3+4= ?","7","0","","","","","","","",""
"1759","","5","psychophysics","122","301061","0.0-7.0-5.0-0.19","3","3","4","3","2","4","3","2","4","4","4","0","0","-1","1","-1","-1","0","0","4","4","5","5","4","4","4","4","4","4","6","7","5","6","5","6","6","6","7","4","3","1","4","5","3","5","3","4","3","1","4","3","5","2","4","3","3","3","2","4","3","4","3","6","3","7","3","5","4","6","5","5","3","6","5","5","3","5","3","4","718768648436580352","张","423","Female","[""好她"",""坏我"",""坏她"",""好我""]","[""强她"",""弱我"",""弱她"",""强我""]","","","","","","","","5","","","","","","","","","SRET","SRET_math_calculate","","key","5","16.68379047619057","960","536","","","","","9-4= ?","5","1","","","","","","","",""
"1974","","0","psychophysics","123","303037","0.0-7.0-5.0-0.20","3","3","4","3","2","4","3","2","4","4","4","0","0","-1","1","-1","-1","0","0","4","4","5","5","4","4","4","4","4","4","6","7","5","6","5","6","6","6","7","4","3","1","4","5","3","5","3","4","3","1","4","3","5","2","4","3","3","3","2","4","3","4","3","6","3","7","3","5","4","6","5","5","3","6","5","5","3","5","3","4","718768648436580352","张","423","Female","[""好她"",""坏我"",""坏她"",""好我""]","[""强她"",""弱我"",""弱她"",""强我""]","","","","","","","","0","","","","","","","","","SRET","SRET_math_calculate","","key","0","16.683709401709454","960","536","","","","","7*0= ?","0","1","","","","","","","",""
"1761","","5","psychophysics","124","304798","0.0-7.0-5.0-0.21","3","3","4","3","2","4","3","2","4","4","4","0","0","-1","1","-1","-1","0","0","4","4","5","5","4","4","4","4","4","4","6","7","5","6","5","6","6","6","7","4","3","1","4","5","3","5","3","4","3","1","4","3","5","2","4","3","3","3","2","4","3","4","3","6","3","7","3","5","4","6","5","5","3","6","5","5","3","5","3","4","718768648436580352","张","423","Female","[""好她"",""坏我"",""坏她"",""好我""]","[""强她"",""弱我"",""弱她"",""强我""]","","","","","","","","5","","","","","","","","","SRET","SRET_math_calculate","","key","5","16.683238095238007","960","536","","","","","3+2= ?","5","1","","","","","","","",""
"1906","","5","psychophysics","125","306717","0.0-7.0-5.0-0.22","3","3","4","3","2","4","3","2","4","4","4","0","0","-1","1","-1","-1","0","0","4","4","5","5","4","4","4","4","4","4","6","7","5","6","5","6","6","6","7","4","3","1","4","5","3","5","3","4","3","1","4","3","5","2","4","3","3","3","2","4","3","4","3","6","3","7","3","5","4","6","5","5","3","6","5","5","3","5","3","4","718768648436580352","张","423","Female","[""好她"",""坏我"",""坏她"",""好我""]","[""强她"",""弱我"",""弱她"",""强我""]","","","","","","","","5","","","","","","","","","SRET","SRET_math_calculate","","key","5","16.683035087719123","960","536","","","","","15-10= ?","5","1","","","","","","","",""
"1935","","5","psychophysics","126","308653","0.0-7.0-5.0-0.23","3","3","4","3","2","4","3","2","4","4","4","0","0","-1","1","-1","-1","0","0","4","4","5","5","4","4","4","4","4","4","6","7","5","6","5","6","6","6","7","4","3","1","4","5","3","5","3","4","3","1","4","3","5","2","4","3","3","3","2","4","3","4","3","6","3","7","3","5","4","6","5","5","3","6","5","5","3","5","3","4","718768648436580352","张","423","Female","[""好她"",""坏我"",""坏她"",""好我""]","[""强她"",""弱我"",""弱她"",""强我""]","","","","","","","","5","","","","","","","","","SRET","SRET_math_calculate","","key","5","16.68314782608675","960","536","","","","","16-11= ?","5","1","","","","","","","",""
"2007","","3","psychophysics","127","310661","0.0-7.0-5.0-0.24","3","3","4","3","2","4","3","2","4","4","4","0","0","-1","1","-1","-1","0","0","4","4","5","5","4","4","4","4","4","4","6","7","5","6","5","6","6","6","7","4","3","1","4","5","3","5","3","4","3","1","4","3","5","2","4","3","3","3","2","4","3","4","3","6","3","7","3","5","4","6","5","5","3","6","5","5","3","5","3","4","718768648436580352","张","423","Female","[""好她"",""坏我"",""坏她"",""好我""]","[""强她"",""弱我"",""弱她"",""强我""]","","","","","","","","3","","","","","","","","","SRET","SRET_math_calculate","","key","3","16.68364705882395","960","536","","","","","9/3= ?","3","1","","","","","","","",""
"1871","","5","psychophysics","128","312533","0.0-7.0-5.0-0.25","3","3","4","3","2","4","3","2","4","4","4","0","0","-1","1","-1","-1","0","0","4","4","5","5","4","4","4","4","4","4","6","7","5","6","5","6","6","6","7","4","3","1","4","5","3","5","3","4","3","1","4","3","5","2","4","3","3","3","2","4","3","4","3","6","3","7","3","5","4","6","5","5","3","6","5","5","3","5","3","4","718768648436580352","张","423","Female","[""好她"",""坏我"",""坏她"",""好我""]","[""强她"",""弱我"",""弱她"",""强我""]","","","","","","","","5","","","","","","","","","SRET","SRET_math_calculate","","key","5","16.683531531531298","960","536","","","","","5/1= ?","5","1","","","","","","","",""
"1807","","9","psychophysics","129","314341","0.0-7.0-5.0-0.26","3","3","4","3","2","4","3","2","4","4","4","0","0","-1","1","-1","-1","0","0","4","4","5","5","4","4","4","4","4","4","6","7","5","6","5","6","6","6","7","4","3","1","4","5","3","5","3","4","3","1","4","3","5","2","4","3","3","3","2","4","3","4","3","6","3","7","3","5","4","6","5","5","3","6","5","5","3","5","3","4","718768648436580352","张","423","Female","[""好她"",""坏我"",""坏她"",""好我""]","[""强她"",""弱我"",""弱她"",""强我""]","","","","","","","","9","","","","","","","","","SRET","SRET_math_calculate","","key","9","16.684009259259458","960","536","","","","","3*3= ?","9","1","","","","","","","",""
"2030","","2","psychophysics","130","316373","0.0-7.0-5.0-0.27","3","3","4","3","2","4","3","2","4","4","4","0","0","-1","1","-1","-1","0","0","4","4","5","5","4","4","4","4","4","4","6","7","5","6","5","6","6","6","7","4","3","1","4","5","3","5","3","4","3","1","4","3","5","2","4","3","3","3","2","4","3","4","3","6","3","7","3","5","4","6","5","5","3","6","5","5","3","5","3","4","718768648436580352","张","423","Female","[""好她"",""坏我"",""坏她"",""好我""]","[""强她"",""弱我"",""弱她"",""强我""]","","","","","","","","2","","","","","","","","","SRET","SRET_math_calculate","","key","2","16.68323333333295","960","536","","","","","19-17= ?","2","1","","","","","","","",""
"2039","","9","psychophysics","131","318413","0.0-7.0-5.0-0.28","3","3","4","3","2","4","3","2","4","4","4","0","0","-1","1","-1","-1","0","0","4","4","5","5","4","4","4","4","4","4","6","7","5","6","5","6","6","6","7","4","3","1","4","5","3","5","3","4","3","1","4","3","5","2","4","3","3","3","2","4","3","4","3","6","3","7","3","5","4","6","5","5","3","6","5","5","3","5","3","4","718768648436580352","张","423","Female","[""好她"",""坏我"",""坏她"",""好我""]","[""强她"",""弱我"",""弱她"",""强我""]","","","","","","","","9","","","","","","","","","SRET","SRET_math_calculate","","key","9","16.683172131147614","960","536","","","","","43-34= ?","9","1","","","","","","","",""
"1838","","0","psychophysics","132","320253","0.0-7.0-5.0-0.29","3","3","4","3","2","4","3","2","4","4","4","0","0","-1","1","-1","-1","0","0","4","4","5","5","4","4","4","4","4","4","6","7","5","6","5","6","6","6","7","4","3","1","4","5","3","5","3","4","3","1","4","3","5","2","4","3","3","3","2","4","3","4","3","6","3","7","3","5","4","6","5","5","3","6","5","5","3","5","3","4","718768648436580352","张","423","Female","[""好她"",""坏我"",""坏她"",""好我""]","[""强她"",""弱我"",""弱她"",""强我""]","","","","","","","","0","","","","","","","","","SRET","SRET_math_calculate","","key","0","16.683532110091253","960","536","","","","","12-12= ?","0","1","","","","","","","",""
"1831","","7","psychophysics","133","322085","0.0-7.0-5.0-0.30","3","3","4","3","2","4","3","2","4","4","4","0","0","-1","1","-1","-1","0","0","4","4","5","5","4","4","4","4","4","4","6","7","5","6","5","6","6","6","7","4","3","1","4","5","3","5","3","4","3","1","4","3","5","2","4","3","3","3","2","4","3","4","3","6","3","7","3","5","4","6","5","5","3","6","5","5","3","5","3","4","718768648436580352","张","423","Female","[""好她"",""坏我"",""坏她"",""好我""]","[""强她"",""弱我"",""弱她"",""强我""]","","","","","","","","7","","","","","","","","","SRET","SRET_math_calculate","","key","7","16.683678899082107","960","536","","","","","7*1=  ?","7","1","","","","","","","",""
"1903","","3","psychophysics","134","323989","0.0-7.0-5.0-0.31","3","3","4","3","2","4","3","2","4","4","4","0","0","-1","1","-1","-1","0","0","4","4","5","5","4","4","4","4","4","4","6","7","5","6","5","6","6","6","7","4","3","1","4","5","3","5","3","4","3","1","4","3","5","2","4","3","3","3","2","4","3","4","3","6","3","7","3","5","4","6","5","5","3","6","5","5","3","5","3","4","718768648436580352","张","423","Female","[""好她"",""坏我"",""坏她"",""好我""]","[""强她"",""弱我"",""弱她"",""强我""]","","","","","","","","3","","","","","","","","","SRET","SRET_math_calculate","","key","3","16.68377876106188","960","536","","","","","8-5= ?","3","1","","","","","","","",""
"2047","","8","psychophysics","135","326037","0.0-7.0-5.0-0.32","3","3","4","3","2","4","3","2","4","4","4","0","0","-1","1","-1","-1","0","0","4","4","5","5","4","4","4","4","4","4","6","7","5","6","5","6","6","6","7","4","3","1","4","5","3","5","3","4","3","1","4","3","5","2","4","3","3","3","2","4","3","4","3","6","3","7","3","5","4","6","5","5","3","6","5","5","3","5","3","4","718768648436580352","张","423","Female","[""好她"",""坏我"",""坏她"",""好我""]","[""强她"",""弱我"",""弱她"",""强我""]","","","","","","","","8","","","","","","","","","SRET","SRET_math_calculate","","key","8","16.68334426229522","960","536","","","","","56/7= ?","8","1","","","","","","","",""
"1880","","4","psychophysics","136","327918","0.0-7.0-5.0-0.33","3","3","4","3","2","4","3","2","4","4","4","0","0","-1","1","-1","-1","0","0","4","4","5","5","4","4","4","4","4","4","6","7","5","6","5","6","6","6","7","4","3","1","4","5","3","5","3","4","3","1","4","3","5","2","4","3","3","3","2","4","3","4","3","6","3","7","3","5","4","6","5","5","3","6","5","5","3","5","3","4","718768648436580352","张","423","Female","[""好她"",""坏我"",""坏她"",""好我""]","[""强她"",""弱我"",""弱她"",""强我""]","","","","","","","","4","","","","","","","","","SRET","SRET_math_calculate","","key","4","16.683585585585295","960","536","","","","","9-5= ?","4","1","","","","","","","",""
"2551","","7","psychophysics","137","330469","0.0-7.0-5.0-0.34","3","3","4","3","2","4","3","2","4","4","4","0","0","-1","1","-1","-1","0","0","4","4","5","5","4","4","4","4","4","4","6","7","5","6","5","6","6","6","7","4","3","1","4","5","3","5","3","4","3","1","4","3","5","2","4","3","3","3","2","4","3","4","3","6","3","7","3","5","4","6","5","5","3","6","5","5","3","5","3","4","718768648436580352","张","423","Female","[""好她"",""坏我"",""坏她"",""好我""]","[""强她"",""弱我"",""弱她"",""强我""]","","","","","","","","7","","","","","","","","","SRET","SRET_math_calculate","","key","7","16.68310526315786","960","536","","","","","49/7 = ?","7","1","","","","","","","",""
"2008","","8","psychophysics","138","332477","0.0-7.0-5.0-0.35","3","3","4","3","2","4","3","2","4","4","4","0","0","-1","1","-1","-1","0","0","4","4","5","5","4","4","4","4","4","4","6","7","5","6","5","6","6","6","7","4","3","1","4","5","3","5","3","4","3","1","4","3","5","2","4","3","3","3","2","4","3","4","3","6","3","7","3","5","4","6","5","5","3","6","5","5","3","5","3","4","718768648436580352","张","423","Female","[""好她"",""坏我"",""坏她"",""好我""]","[""强她"",""弱我"",""弱她"",""强我""]","","","","","","","","8","","","","","","","","","SRET","SRET_math_calculate","","key","8","16.68302499999991","960","536","","","","","50-42= ?","8","1","","","","","","","",""
"1927","","6","psychophysics","139","334405","0.0-7.0-5.0-0.36","3","3","4","3","2","4","3","2","4","4","4","0","0","-1","1","-1","-1","0","0","4","4","5","5","4","4","4","4","4","4","6","7","5","6","5","6","6","6","7","4","3","1","4","5","3","5","3","4","3","1","4","3","5","2","4","3","3","3","2","4","3","4","3","6","3","7","3","5","4","6","5","5","3","6","5","5","3","5","3","4","718768648436580352","张","423","Female","[""好她"",""坏我"",""坏她"",""好我""]","[""强她"",""弱我"",""弱她"",""强我""]","","","","","","","","6","","","","","","","","","SRET","SRET_math_calculate","","key","6","16.68310526315748","960","536","","","","","3*2= ?","6","1","","","","","","","",""
"1759","","5","psychophysics","140","336165","0.0-7.0-5.0-0.37","3","3","4","3","2","4","3","2","4","4","4","0","0","-1","1","-1","-1","0","0","4","4","5","5","4","4","4","4","4","4","6","7","5","6","5","6","6","6","7","4","3","1","4","5","3","5","3","4","3","1","4","3","5","2","4","3","3","3","2","4","3","4","3","6","3","7","3","5","4","6","5","5","3","6","5","5","3","5","3","4","718768648436580352","张","423","Female","[""好她"",""坏我"",""坏她"",""好我""]","[""强她"",""弱我"",""弱她"",""强我""]","","","","","","","","5","","","","","","","","","SRET","SRET_math_calculate","","key","5","16.68341904761924","960","536","","","","","3+1= ?","4","0","","","","","","","",""
"7","","4","psychophysics","141","336173","0.0-7.0-5.0-0.38","3","3","4","3","2","4","3","2","4","4","4","0","0","-1","1","-1","-1","0","0","4","4","5","5","4","4","4","4","4","4","6","7","5","6","5","6","6","6","7","4","3","1","4","5","3","5","3","4","3","1","4","3","5","2","4","3","3","3","2","4","3","4","3","6","3","7","3","5","4","6","5","5","3","6","5","5","3","5","3","4","718768648436580352","张","423","Female","[""好她"",""坏我"",""坏她"",""好我""]","[""强她"",""弱我"",""弱她"",""强我""]","","","","","","","","4","","","","","","","","","SRET","SRET_math_calculate","","key","4","NaN","960","536","","","","","4+1= ?","5","0","","","","","","","",""
