"rt","stimulus","response","trial_type","trial_index","time_elapsed","internal_node_id","swb_1","swb_2","swb_3","swb_4","swb_5","LOT_1","LOT_2","LOT_3","LOT_4","LOT_5","LOT_6","IPC_1","IPC_2","IPC_3","IPC_4","IPC_5","IPC_6","IPC_7","IPC_8","MorIden_1","MorIden_2","MorIden_3","MorIden_4","MorIden_5","MorIden_6","MorIden_7","MorIden_8","MorIden_9","MorIden_10","moralSeImag_1","moralSeImag_2","moralSeImag_3","moralSeImag_4","moralSeImag_5","moralSeImag_6","moralSeImag_7","moralSeImag_8","moralSeImag_9","sde_1","sde_2","sde_3","sde_4","sde_5","sde_6","sde_7","sde_8","sde_9","sde_10","trap2","sde_11","sde_12","sde_13","sde_14","sde_15","sde_16","sde_17","sde_18","sde_19","sde_20","IM_1","IM_2","IM_3","IM_4","IM_5","IM_6","IM_7","IM_8","IM_9","IM_10","IM_11","IM_12","IM_13","IM_14","IM_15","IM_16","IM_17","IM_18","IM_19","IM_20","subj_idx","friend_name","ParticipantID","Sex","Word","Word2","value","success","timeout","failed_images","failed_audio","failed_video","user_agent","responses","item_order","radio_event_ids","radio_event_times","key_event_times","mouse_event_times","straightlining","zigzagging","honeypot","view_history","response_type","key_press","avg_frame_time","center_x","center_y","correct_response","correct","identity","Image","word","condition","task_id","screen_id","time_stamp","person","valence","domain","math","status","duration","question_order","trap2_item"
"23000","
   <p><div style='color:white; font-size: 25px'>您好，欢迎参加本次实验。</div></p>
   <p><div style='color:white; font-size: 25px'>为充分保障您的权利，请确保您已经知晓并同意《参与实验同意书》以及《数据公开知情同意书》。</div></p>
   <p><div style='color:white; font-size: 25px'>如果您未见过上述内容，请咨询实验员。</div></p>
   <p style='color:white; font-size: 25px'>如果您选择继续实验，则表示您已经清楚两份知情同意书的内容并同意。</p>
   <p><div style = ""color: pink;font-size:30px;"">请确保您记得day0的实验编号，您将在本次实验输入该编号，若您忘记，请咨询实验员后作答。</div></p>
   <p><div style = ""color:lightblue;font-size:25px;"">请您尽可能认真地作答，我们将依据您在各问卷和按键任务中的作答质量发放报酬。</div></p>
   <p> <div style = ""color: green""><按空格键至下页></div> </p>
   "," ","html-keyboard-response","0","23003","0.0-0.0","3","3","3","3","3","4","4","4","4","4","4","1","1","1","1","1","1","1","1","4","4","4","4","4","4","4","4","4","4","6","6","6","6","5","4","4","5","5","5","3","5","3","5","3","5","3","5","3","1","3","3","5","3","5","3","5","3","5","3","2","3","5","6","2","6","5","6","2","6","6","2","6","5","5","5","5","3","3","5","718762010250051584","黄","235","Male","[""坏他"",""好我"",""好他"",""坏我""]","[""弱他"",""强我"",""强他"",""弱我""]","","","","","","","","","","","","","","","","","","","","","","","","","","","","","","","","","","","","","","",""
"","","","call-function","1","23003","0.0-1.0-0.0","3","3","3","3","3","4","4","4","4","4","4","1","1","1","1","1","1","1","1","4","4","4","4","4","4","4","4","4","4","6","6","6","6","5","4","4","5","5","5","3","5","3","5","3","5","3","5","3","1","3","3","5","3","5","3","5","3","5","3","2","3","5","6","2","6","5","6","2","6","6","2","6","5","5","5","5","3","3","5","718762010250051584","黄","235","Male","[""坏他"",""好我"",""好他"",""坏我""]","[""弱他"",""强我"",""强他"",""弱我""]","","","","","","","","","","","","","","","","","","","","","","","","","","","","","","","","","","","","","","",""
"34164","","[{""name"":""Sex"",""value"":""0""},{""name"":""friend_name"",""value"":""黄""},{""name"":""ParticipantID"",""value"":""235""}]","survey-html-form","2","57168","0.0-1.0-1.0","3","3","3","3","3","4","4","4","4","4","4","1","1","1","1","1","1","1","1","4","4","4","4","4","4","4","4","4","4","6","6","6","6","5","4","4","5","5","5","3","5","3","5","3","5","3","5","3","1","3","3","5","3","5","3","5","3","5","3","2","3","5","6","2","6","5","6","2","6","6","2","6","5","5","5","5","3","3","5","718762010250051584","黄","235","Male","[""坏他"",""好我"",""好他"",""坏我""]","[""弱他"",""强我"",""强他"",""弱我""]","","","","","","","","","","","","","","","","","","","","","","","","","","","","","","","","","","","","","","",""
"","","","preload","3","61670","0.0-2.0","3","3","3","3","3","4","4","4","4","4","4","1","1","1","1","1","1","1","1","4","4","4","4","4","4","4","4","4","4","6","6","6","6","5","4","4","5","5","5","3","5","3","5","3","5","3","5","3","1","3","3","5","3","5","3","5","3","5","3","2","3","5","6","2","6","5","6","2","6","6","2","6","5","5","5","5","3","3","5","718762010250051584","黄","235","Male","[""坏他"",""好我"",""好他"",""坏我""]","[""弱他"",""强我"",""强他"",""弱我""]","","true","false","[]","[]","[]","","","","","","","","","","","","","","","","","","","","","","","","","","","","","","","","",""
"","","","fullscreen","4","64125","0.0-3.0","3","3","3","3","3","4","4","4","4","4","4","1","1","1","1","1","1","1","1","4","4","4","4","4","4","4","4","4","4","6","6","6","6","5","4","4","5","5","5","3","5","3","5","3","5","3","5","3","1","3","3","5","3","5","3","5","3","5","3","2","3","5","6","2","6","5","6","2","6","6","2","6","5","5","5","5","3","3","5","718762010250051584","黄","235","Male","[""坏他"",""好我"",""好他"",""坏我""]","[""弱他"",""强我"",""强他"",""弱我""]","","true","","","","","{}","","","","","","","","","","","","","","","","","","","","","","","","","","","","","","","",""
"10626.600000143051","","{""Q01"":""3"",""Q02"":""3"",""Q03"":""3"",""Q04"":""3"",""Q05"":""3""}","survey-template","5","74753","0.0-4.0","3","3","3","3","3","4","4","4","4","4","4","1","1","1","1","1","1","1","1","4","4","4","4","4","4","4","4","4","4","6","6","6","6","5","4","4","5","5","5","3","5","3","5","3","5","3","5","3","1","3","3","5","3","5","3","5","3","5","3","2","3","5","6","2","6","5","6","2","6","6","2","6","5","5","5","5","3","3","5","718762010250051584","黄","235","Male","[""坏他"",""好我"",""好他"",""坏我""]","[""弱他"",""强我"",""强他"",""弱我""]","","","","","","","","{""Q01"":""3"",""Q02"":""3"",""Q03"":""3"",""Q04"":""3"",""Q05"":""3""}","[0,1,2,3,4]","[""Q01"",""Q02"",""Q03"",""Q04"",""Q05""]","[6482.100000143051,7194,8202,9234.100000143051,9641.799999952316]","[]","[6482.100000143051,7194,8202,8618,9234.100000143051,9641.799999952316,10625.900000095367]","1","0","0","","","","","","","","","","","","","","","","","","","","","","",""
"12331.700000047684","","{""Q01"":""4"",""Q02"":""4"",""Q03"":""4"",""Q04"":""4"",""Q05"":""4"",""Q06"":""4""}","survey-template","6","87088","0.0-5.0","3","3","3","3","3","4","4","4","4","4","4","1","1","1","1","1","1","1","1","4","4","4","4","4","4","4","4","4","4","6","6","6","6","5","4","4","5","5","5","3","5","3","5","3","5","3","5","3","1","3","3","5","3","5","3","5","3","5","3","2","3","5","6","2","6","5","6","2","6","6","2","6","5","5","5","5","3","3","5","718762010250051584","黄","235","Male","[""坏他"",""好我"",""好他"",""坏我""]","[""弱他"",""强我"",""强他"",""弱我""]","","","","","","","","{""Q01"":""4"",""Q02"":""4"",""Q03"":""4"",""Q04"":""4"",""Q05"":""4"",""Q06"":""4""}","[0,1,2,3,4,5]","[""Q01"",""Q02"",""Q03"",""Q04"",""Q05"",""Q06""]","[2099.800000190735,4163.600000143051,5635.400000095367,7219.700000047684,8651.600000143051,10651.600000143051]","[]","[2099.800000190735,4163.600000143051,5635.400000095367,7219.700000047684,8651.600000143051,10651.600000143051,12331.200000047684]","0.5","0","0","","","","","","","","","","","","","","","","","","","","","","",""
"11597.5","","{""Q01"":""1"",""Q02"":""1"",""Q03"":""1"",""Q04"":""1"",""Q05"":""1"",""Q06"":""1"",""Q07"":""1"",""Q08"":""1""}","survey-template","7","98689","0.0-6.0","3","3","3","3","3","4","4","4","4","4","4","1","1","1","1","1","1","1","1","4","4","4","4","4","4","4","4","4","4","6","6","6","6","5","4","4","5","5","5","3","5","3","5","3","5","3","5","3","1","3","3","5","3","5","3","5","3","5","3","2","3","5","6","2","6","5","6","2","6","6","2","6","5","5","5","5","3","3","5","718762010250051584","黄","235","Male","[""坏他"",""好我"",""好他"",""坏我""]","[""弱他"",""强我"",""强他"",""弱我""]","","","","","","","","{""Q01"":""1"",""Q02"":""1"",""Q03"":""1"",""Q04"":""1"",""Q05"":""1"",""Q06"":""1"",""Q07"":""1"",""Q08"":""1""}","[0,1,2,3,4,5,6,7]","[""Q01"",""Q02"",""Q03"",""Q04"",""Q05"",""Q06"",""Q07"",""Q08""]","[2356.7999999523163,4772.700000047684,5460.599999904633,6756.5,7948.5,8636.900000095367,10196.400000095367,10812.900000095367]","[]","[2356.7999999523163,4772.700000047684,5460.599999904633,6756.5,7948.5,8636.900000095367,10196.400000095367,10812.900000095367,11596.900000095367]","1","0","0","","","","","","","","","","","","","","","","","","","","","","",""
"14548","","","instructions","8","113240","0.0-7.0","3","3","3","3","3","4","4","4","4","4","4","1","1","1","1","1","1","1","1","4","4","4","4","4","4","4","4","4","4","6","6","6","6","5","4","4","5","5","5","3","5","3","5","3","5","3","5","3","1","3","3","5","3","5","3","5","3","5","3","2","3","5","6","2","6","5","6","2","6","6","2","6","5","5","5","5","3","3","5","718762010250051584","黄","235","Male","[""坏他"",""好我"",""好他"",""坏我""]","[""弱他"",""强我"",""强他"",""弱我""]","","","","","","","","","","","","","","","","","[{""page_index"":0,""viewing_time"":14548}]","","","","","","","","","","","","","","","","","","","","","",""
"36863","","","instructions","9","150103","0.0-8.0-0.0-0.0","3","3","3","3","3","4","4","4","4","4","4","1","1","1","1","1","1","1","1","4","4","4","4","4","4","4","4","4","4","6","6","6","6","5","4","4","5","5","5","3","5","3","5","3","5","3","5","3","1","3","3","5","3","5","3","5","3","5","3","2","3","5","6","2","6","5","6","2","6","6","2","6","5","5","5","5","3","3","5","718762010250051584","黄","235","Male","[""坏他"",""好我"",""好他"",""坏我""]","[""弱他"",""强我"",""强他"",""弱我""]","","","","","","","","","","","","","","","","","[{""page_index"":0,""viewing_time"":6631},{""page_index"":1,""viewing_time"":27096},{""page_index"":2,""viewing_time"":1504},{""page_index"":3,""viewing_time"":1632}]","","","","","","","","","","","","","","","","","","","","","",""
"790","","j","psychophysics","10","151896","0.0-8.0-0.0-1.0-0.0-0.0","3","3","3","3","3","4","4","4","4","4","4","1","1","1","1","1","1","1","1","4","4","4","4","4","4","4","4","4","4","6","6","6","6","5","4","4","5","5","5","3","5","3","5","3","5","3","5","3","1","3","3","5","3","5","3","5","3","5","3","2","3","5","6","2","6","5","6","2","6","6","2","6","5","5","5","5","3","3","5","718762010250051584","黄","235","Male","[""坏他"",""好我"",""好他"",""坏我""]","[""弱他"",""强我"",""强他"",""弱我""]","","","","","","","","match","","","","","","","","","","key","j","16.680188679245063","1280","716","f","false","nonmatch","img/hexagon.png","坏我","好我","prac_ALT2_moral","practice_moral","","","","","","","","",""
"null","<span style='color:red; font-size: 70px;'>错误! </span>","null","html-keyboard-response","11","152397","0.0-8.0-0.0-1.0-0.0-1.0","3","3","3","3","3","4","4","4","4","4","4","1","1","1","1","1","1","1","1","4","4","4","4","4","4","4","4","4","4","6","6","6","6","5","4","4","5","5","5","3","5","3","5","3","5","3","5","3","1","3","3","5","3","5","3","5","3","5","3","2","3","5","6","2","6","5","6","2","6","6","2","6","5","5","5","5","3","3","5","718762010250051584","黄","235","Male","[""坏他"",""好我"",""好他"",""坏我""]","[""弱他"",""强我"",""强他"",""弱我""]","","","","","","","","","","","","","","","","","","","","","","","","","","","","","","feedback_test","","","","","","","","",""
"1169","","f","psychophysics","12","154568","0.0-8.0-0.0-1.0-0.0-0.1","3","3","3","3","3","4","4","4","4","4","4","1","1","1","1","1","1","1","1","4","4","4","4","4","4","4","4","4","4","6","6","6","6","5","4","4","5","5","5","3","5","3","5","3","5","3","5","3","1","3","3","5","3","5","3","5","3","5","3","2","3","5","6","2","6","5","6","2","6","6","2","6","5","5","5","5","3","3","5","718762010250051584","黄","235","Male","[""坏他"",""好我"",""好他"",""坏我""]","[""弱他"",""强我"",""强他"",""弱我""]","","","","","","","","nonmatch","","","","","","","","","","key","f","16.683076923077056","1280","716","j","false","match","img/ellipse.png","坏他","坏他","prac_ALT2_moral","practice_moral","","","","","","","","",""
"null","<span style='color:red; font-size: 70px;'>错误! </span>","null","html-keyboard-response","13","155070","0.0-8.0-0.0-1.0-0.0-1.1","3","3","3","3","3","4","4","4","4","4","4","1","1","1","1","1","1","1","1","4","4","4","4","4","4","4","4","4","4","6","6","6","6","5","4","4","5","5","5","3","5","3","5","3","5","3","5","3","1","3","3","5","3","5","3","5","3","5","3","2","3","5","6","2","6","5","6","2","6","6","2","6","5","5","5","5","3","3","5","718762010250051584","黄","235","Male","[""坏他"",""好我"",""好他"",""坏我""]","[""弱他"",""强我"",""强他"",""弱我""]","","","","","","","","","","","","","","","","","","","","","","","","","","","","","","feedback_test","","","","","","","","",""
"801","","j","psychophysics","14","156872","0.0-8.0-0.0-1.0-0.0-0.2","3","3","3","3","3","4","4","4","4","4","4","1","1","1","1","1","1","1","1","4","4","4","4","4","4","4","4","4","4","6","6","6","6","5","4","4","5","5","5","3","5","3","5","3","5","3","5","3","1","3","3","5","3","5","3","5","3","5","3","2","3","5","6","2","6","5","6","2","6","6","2","6","5","5","5","5","3","3","5","718762010250051584","黄","235","Male","[""坏他"",""好我"",""好他"",""坏我""]","[""弱他"",""强我"",""强他"",""弱我""]","","","","","","","","match","","","","","","","","","","key","j","16.680373831775594","1280","716","j","true","match","img/ellipse.png","坏他","坏他","prac_ALT2_moral","practice_moral","","","","","","","","",""
"null","<span style='color:GreenYellow; font-size: 70px;'>正确! </span>","null","html-keyboard-response","15","157373","0.0-8.0-0.0-1.0-0.0-1.2","3","3","3","3","3","4","4","4","4","4","4","1","1","1","1","1","1","1","1","4","4","4","4","4","4","4","4","4","4","6","6","6","6","5","4","4","5","5","5","3","5","3","5","3","5","3","5","3","1","3","3","5","3","5","3","5","3","5","3","2","3","5","6","2","6","5","6","2","6","6","2","6","5","5","5","5","3","3","5","718762010250051584","黄","235","Male","[""坏他"",""好我"",""好他"",""坏我""]","[""弱他"",""强我"",""强他"",""弱我""]","","","","","","","","","","","","","","","","","","","","","","","","","","","","","","feedback_test","","","","","","","","",""
"866","","j","psychophysics","16","159240","0.0-8.0-0.0-1.0-0.0-0.3","3","3","3","3","3","4","4","4","4","4","4","1","1","1","1","1","1","1","1","4","4","4","4","4","4","4","4","4","4","6","6","6","6","5","4","4","5","5","5","3","5","3","5","3","5","3","5","3","1","3","3","5","3","5","3","5","3","5","3","2","3","5","6","2","6","5","6","2","6","6","2","6","5","5","5","5","3","3","5","718762010250051584","黄","235","Male","[""坏他"",""好我"",""好他"",""坏我""]","[""弱他"",""强我"",""强他"",""弱我""]","","","","","","","","match","","","","","","","","","","key","j","16.68288288288304","1280","716","f","false","nonmatch","img/square.png","好我","好他","prac_ALT2_moral","practice_moral","","","","","","","","",""
"null","<span style='color:red; font-size: 70px;'>错误! </span>","null","html-keyboard-response","17","159741","0.0-8.0-0.0-1.0-0.0-1.3","3","3","3","3","3","4","4","4","4","4","4","1","1","1","1","1","1","1","1","4","4","4","4","4","4","4","4","4","4","6","6","6","6","5","4","4","5","5","5","3","5","3","5","3","5","3","5","3","1","3","3","5","3","5","3","5","3","5","3","2","3","5","6","2","6","5","6","2","6","6","2","6","5","5","5","5","3","3","5","718762010250051584","黄","235","Male","[""坏他"",""好我"",""好他"",""坏我""]","[""弱他"",""强我"",""强他"",""弱我""]","","","","","","","","","","","","","","","","","","","","","","","","","","","","","","feedback_test","","","","","","","","",""
"906","","j","psychophysics","18","161648","0.0-8.0-0.0-1.0-0.0-0.4","3","3","3","3","3","4","4","4","4","4","4","1","1","1","1","1","1","1","1","4","4","4","4","4","4","4","4","4","4","6","6","6","6","5","4","4","5","5","5","3","5","3","5","3","5","3","5","3","1","3","3","5","3","5","3","5","3","5","3","2","3","5","6","2","6","5","6","2","6","6","2","6","5","5","5","5","3","3","5","718762010250051584","黄","235","Male","[""坏他"",""好我"",""好他"",""坏我""]","[""弱他"",""强我"",""强他"",""弱我""]","","","","","","","","match","","","","","","","","","","key","j","16.684070796460333","1280","716","j","true","match","img/trapezoid.png","坏我","坏我","prac_ALT2_moral","practice_moral","","","","","","","","",""
"null","<span style='color:GreenYellow; font-size: 70px;'>正确! </span>","null","html-keyboard-response","19","162149","0.0-8.0-0.0-1.0-0.0-1.4","3","3","3","3","3","4","4","4","4","4","4","1","1","1","1","1","1","1","1","4","4","4","4","4","4","4","4","4","4","6","6","6","6","5","4","4","5","5","5","3","5","3","5","3","5","3","5","3","1","3","3","5","3","5","3","5","3","5","3","2","3","5","6","2","6","5","6","2","6","6","2","6","5","5","5","5","3","3","5","718762010250051584","黄","235","Male","[""坏他"",""好我"",""好他"",""坏我""]","[""弱他"",""强我"",""强他"",""弱我""]","","","","","","","","","","","","","","","","","","","","","","","","","","","","","","feedback_test","","","","","","","","",""
"1066","","f","psychophysics","20","164216","0.0-8.0-0.0-1.0-0.0-0.5","3","3","3","3","3","4","4","4","4","4","4","1","1","1","1","1","1","1","1","4","4","4","4","4","4","4","4","4","4","6","6","6","6","5","4","4","5","5","5","3","5","3","5","3","5","3","5","3","1","3","3","5","3","5","3","5","3","5","3","2","3","5","6","2","6","5","6","2","6","6","2","6","5","5","5","5","3","3","5","718762010250051584","黄","235","Male","[""坏他"",""好我"",""好他"",""坏我""]","[""弱他"",""强我"",""强他"",""弱我""]","","","","","","","","nonmatch","","","","","","","","","","key","f","16.682926829268293","1280","716","j","false","match","img/square.png","好他","好他","prac_ALT2_moral","practice_moral","","","","","","","","",""
"null","<span style='color:red; font-size: 70px;'>错误! </span>","null","html-keyboard-response","21","164717","0.0-8.0-0.0-1.0-0.0-1.5","3","3","3","3","3","4","4","4","4","4","4","1","1","1","1","1","1","1","1","4","4","4","4","4","4","4","4","4","4","6","6","6","6","5","4","4","5","5","5","3","5","3","5","3","5","3","5","3","1","3","3","5","3","5","3","5","3","5","3","2","3","5","6","2","6","5","6","2","6","6","2","6","5","5","5","5","3","3","5","718762010250051584","黄","235","Male","[""坏他"",""好我"",""好他"",""坏我""]","[""弱他"",""强我"",""强他"",""弱我""]","","","","","","","","","","","","","","","","","","","","","","","","","","","","","","feedback_test","","","","","","","","",""
"1050","","f","psychophysics","22","166768","0.0-8.0-0.0-1.0-0.0-0.6","3","3","3","3","3","4","4","4","4","4","4","1","1","1","1","1","1","1","1","4","4","4","4","4","4","4","4","4","4","6","6","6","6","5","4","4","5","5","5","3","5","3","5","3","5","3","5","3","1","3","3","5","3","5","3","5","3","5","3","2","3","5","6","2","6","5","6","2","6","6","2","6","5","5","5","5","3","3","5","718762010250051584","黄","235","Male","[""坏他"",""好我"",""好他"",""坏我""]","[""弱他"",""强我"",""强他"",""弱我""]","","","","","","","","nonmatch","","","","","","","","","","key","f","16.683606557377","1280","716","f","true","nonmatch","img/trapezoid.png","坏他","坏我","prac_ALT2_moral","practice_moral","","","","","","","","",""
"null","<span style='color:GreenYellow; font-size: 70px;'>正确! </span>","null","html-keyboard-response","23","167269","0.0-8.0-0.0-1.0-0.0-1.6","3","3","3","3","3","4","4","4","4","4","4","1","1","1","1","1","1","1","1","4","4","4","4","4","4","4","4","4","4","6","6","6","6","5","4","4","5","5","5","3","5","3","5","3","5","3","5","3","1","3","3","5","3","5","3","5","3","5","3","2","3","5","6","2","6","5","6","2","6","6","2","6","5","5","5","5","3","3","5","718762010250051584","黄","235","Male","[""坏他"",""好我"",""好他"",""坏我""]","[""弱他"",""强我"",""强他"",""弱我""]","","","","","","","","","","","","","","","","","","","","","","","","","","","","","","feedback_test","","","","","","","","",""
"978","","j","psychophysics","24","169248","0.0-8.0-0.0-1.0-0.0-0.7","3","3","3","3","3","4","4","4","4","4","4","1","1","1","1","1","1","1","1","4","4","4","4","4","4","4","4","4","4","6","6","6","6","5","4","4","5","5","5","3","5","3","5","3","5","3","5","3","1","3","3","5","3","5","3","5","3","5","3","2","3","5","6","2","6","5","6","2","6","6","2","6","5","5","5","5","3","3","5","718762010250051584","黄","235","Male","[""坏他"",""好我"",""好他"",""坏我""]","[""弱他"",""强我"",""强他"",""弱我""]","","","","","","","","match","","","","","","","","","","key","j","16.683050847457675","1280","716","j","true","match","img/ellipse.png","坏他","坏他","prac_ALT2_moral","practice_moral","","","","","","","","",""
"null","<span style='color:GreenYellow; font-size: 70px;'>正确! </span>","null","html-keyboard-response","25","169749","0.0-8.0-0.0-1.0-0.0-1.7","3","3","3","3","3","4","4","4","4","4","4","1","1","1","1","1","1","1","1","4","4","4","4","4","4","4","4","4","4","6","6","6","6","5","4","4","5","5","5","3","5","3","5","3","5","3","5","3","1","3","3","5","3","5","3","5","3","5","3","2","3","5","6","2","6","5","6","2","6","6","2","6","5","5","5","5","3","3","5","718762010250051584","黄","235","Male","[""坏他"",""好我"",""好他"",""坏我""]","[""弱他"",""强我"",""强他"",""弱我""]","","","","","","","","","","","","","","","","","","","","","","","","","","","","","","feedback_test","","","","","","","","",""
"1136","","f","psychophysics","26","171888","0.0-8.0-0.0-1.0-0.0-0.8","3","3","3","3","3","4","4","4","4","4","4","1","1","1","1","1","1","1","1","4","4","4","4","4","4","4","4","4","4","6","6","6","6","5","4","4","5","5","5","3","5","3","5","3","5","3","5","3","1","3","3","5","3","5","3","5","3","5","3","2","3","5","6","2","6","5","6","2","6","6","2","6","5","5","5","5","3","3","5","718762010250051584","黄","235","Male","[""坏他"",""好我"",""好他"",""坏我""]","[""弱他"",""强我"",""强他"",""弱我""]","","","","","","","","nonmatch","","","","","","","","","","key","f","16.681889763779573","1280","716","f","true","nonmatch","img/trapezoid.png","好他","坏我","prac_ALT2_moral","practice_moral","","","","","","","","",""
"null","<span style='color:GreenYellow; font-size: 70px;'>正确! </span>","null","html-keyboard-response","27","172389","0.0-8.0-0.0-1.0-0.0-1.8","3","3","3","3","3","4","4","4","4","4","4","1","1","1","1","1","1","1","1","4","4","4","4","4","4","4","4","4","4","6","6","6","6","5","4","4","5","5","5","3","5","3","5","3","5","3","5","3","1","3","3","5","3","5","3","5","3","5","3","2","3","5","6","2","6","5","6","2","6","6","2","6","5","5","5","5","3","3","5","718762010250051584","黄","235","Male","[""坏他"",""好我"",""好他"",""坏我""]","[""弱他"",""强我"",""强他"",""弱我""]","","","","","","","","","","","","","","","","","","","","","","","","","","","","","","feedback_test","","","","","","","","",""
"978","","j","psychophysics","28","174368","0.0-8.0-0.0-1.0-0.0-0.9","3","3","3","3","3","4","4","4","4","4","4","1","1","1","1","1","1","1","1","4","4","4","4","4","4","4","4","4","4","6","6","6","6","5","4","4","5","5","5","3","5","3","5","3","5","3","5","3","1","3","3","5","3","5","3","5","3","5","3","2","3","5","6","2","6","5","6","2","6","6","2","6","5","5","5","5","3","3","5","718762010250051584","黄","235","Male","[""坏他"",""好我"",""好他"",""坏我""]","[""弱他"",""强我"",""强他"",""弱我""]","","","","","","","","match","","","","","","","","","","key","j","16.678813559321835","1280","716","j","true","match","img/trapezoid.png","坏我","坏我","prac_ALT2_moral","practice_moral","","","","","","","","",""
"null","<span style='color:GreenYellow; font-size: 70px;'>正确! </span>","null","html-keyboard-response","29","174878","0.0-8.0-0.0-1.0-0.0-1.9","3","3","3","3","3","4","4","4","4","4","4","1","1","1","1","1","1","1","1","4","4","4","4","4","4","4","4","4","4","6","6","6","6","5","4","4","5","5","5","3","5","3","5","3","5","3","5","3","1","3","3","5","3","5","3","5","3","5","3","2","3","5","6","2","6","5","6","2","6","6","2","6","5","5","5","5","3","3","5","718762010250051584","黄","235","Male","[""坏他"",""好我"",""好他"",""坏我""]","[""弱他"",""强我"",""强他"",""弱我""]","","","","","","","","","","","","","","","","","","","","","","","","","","","","","","feedback_test","","","","","","","","",""
"817","","f","psychophysics","30","176696","0.0-8.0-0.0-1.0-0.0-0.10","3","3","3","3","3","4","4","4","4","4","4","1","1","1","1","1","1","1","1","4","4","4","4","4","4","4","4","4","4","6","6","6","6","5","4","4","5","5","5","3","5","3","5","3","5","3","5","3","1","3","3","5","3","5","3","5","3","5","3","2","3","5","6","2","6","5","6","2","6","6","2","6","5","5","5","5","3","3","5","718762010250051584","黄","235","Male","[""坏他"",""好我"",""好他"",""坏我""]","[""弱他"",""强我"",""强他"",""弱我""]","","","","","","","","nonmatch","","","","","","","","","","key","f","16.680555555555557","1280","716","f","true","nonmatch","img/square.png","坏我","好他","prac_ALT2_moral","practice_moral","","","","","","","","",""
"null","<span style='color:GreenYellow; font-size: 70px;'>正确! </span>","null","html-keyboard-response","31","177197","0.0-8.0-0.0-1.0-0.0-1.10","3","3","3","3","3","4","4","4","4","4","4","1","1","1","1","1","1","1","1","4","4","4","4","4","4","4","4","4","4","6","6","6","6","5","4","4","5","5","5","3","5","3","5","3","5","3","5","3","1","3","3","5","3","5","3","5","3","5","3","2","3","5","6","2","6","5","6","2","6","6","2","6","5","5","5","5","3","3","5","718762010250051584","黄","235","Male","[""坏他"",""好我"",""好他"",""坏我""]","[""弱他"",""强我"",""强他"",""弱我""]","","","","","","","","","","","","","","","","","","","","","","","","","","","","","","feedback_test","","","","","","","","",""
"881","","f","psychophysics","32","179080","0.0-8.0-0.0-1.0-0.0-0.11","3","3","3","3","3","4","4","4","4","4","4","1","1","1","1","1","1","1","1","4","4","4","4","4","4","4","4","4","4","6","6","6","6","5","4","4","5","5","5","3","5","3","5","3","5","3","5","3","1","3","3","5","3","5","3","5","3","5","3","2","3","5","6","2","6","5","6","2","6","6","2","6","5","5","5","5","3","3","5","718762010250051584","黄","235","Male","[""坏他"",""好我"",""好他"",""坏我""]","[""弱他"",""强我"",""强他"",""弱我""]","","","","","","","","nonmatch","","","","","","","","","","key","f","16.683035714285715","1280","716","f","true","nonmatch","img/hexagon.png","坏他","好我","prac_ALT2_moral","practice_moral","","","","","","","","",""
"null","<span style='color:GreenYellow; font-size: 70px;'>正确! </span>","null","html-keyboard-response","33","179580","0.0-8.0-0.0-1.0-0.0-1.11","3","3","3","3","3","4","4","4","4","4","4","1","1","1","1","1","1","1","1","4","4","4","4","4","4","4","4","4","4","6","6","6","6","5","4","4","5","5","5","3","5","3","5","3","5","3","5","3","1","3","3","5","3","5","3","5","3","5","3","2","3","5","6","2","6","5","6","2","6","6","2","6","5","5","5","5","3","3","5","718762010250051584","黄","235","Male","[""坏他"",""好我"",""好他"",""坏我""]","[""弱他"",""强我"",""强他"",""弱我""]","","","","","","","","","","","","","","","","","","","","","","","","","","","","","","feedback_test","","","","","","","","",""
"1107","","f","psychophysics","34","181688","0.0-8.0-0.0-1.0-0.0-0.12","3","3","3","3","3","4","4","4","4","4","4","1","1","1","1","1","1","1","1","4","4","4","4","4","4","4","4","4","4","6","6","6","6","5","4","4","5","5","5","3","5","3","5","3","5","3","5","3","1","3","3","5","3","5","3","5","3","5","3","2","3","5","6","2","6","5","6","2","6","6","2","6","5","5","5","5","3","3","5","718762010250051584","黄","235","Male","[""坏他"",""好我"",""好他"",""坏我""]","[""弱他"",""强我"",""强他"",""弱我""]","","","","","","","","nonmatch","","","","","","","","","","key","f","16.682399999999905","1280","716","f","true","nonmatch","img/hexagon.png","好他","好我","prac_ALT2_moral","practice_moral","","","","","","","","",""
"null","<span style='color:GreenYellow; font-size: 70px;'>正确! </span>","null","html-keyboard-response","35","182189","0.0-8.0-0.0-1.0-0.0-1.12","3","3","3","3","3","4","4","4","4","4","4","1","1","1","1","1","1","1","1","4","4","4","4","4","4","4","4","4","4","6","6","6","6","5","4","4","5","5","5","3","5","3","5","3","5","3","5","3","1","3","3","5","3","5","3","5","3","5","3","2","3","5","6","2","6","5","6","2","6","6","2","6","5","5","5","5","3","3","5","718762010250051584","黄","235","Male","[""坏他"",""好我"",""好他"",""坏我""]","[""弱他"",""强我"",""强他"",""弱我""]","","","","","","","","","","","","","","","","","","","","","","","","","","","","","","feedback_test","","","","","","","","",""
"1081","","j","psychophysics","36","184272","0.0-8.0-0.0-1.0-0.0-0.13","3","3","3","3","3","4","4","4","4","4","4","1","1","1","1","1","1","1","1","4","4","4","4","4","4","4","4","4","4","6","6","6","6","5","4","4","5","5","5","3","5","3","5","3","5","3","5","3","1","3","3","5","3","5","3","5","3","5","3","2","3","5","6","2","6","5","6","2","6","6","2","6","5","5","5","5","3","3","5","718762010250051584","黄","235","Male","[""坏他"",""好我"",""好他"",""坏我""]","[""弱他"",""强我"",""强他"",""弱我""]","","","","","","","","match","","","","","","","","","","key","j","16.679674796748014","1280","716","j","true","match","img/trapezoid.png","坏我","坏我","prac_ALT2_moral","practice_moral","","","","","","","","",""
"null","<span style='color:GreenYellow; font-size: 70px;'>正确! </span>","null","html-keyboard-response","37","184774","0.0-8.0-0.0-1.0-0.0-1.13","3","3","3","3","3","4","4","4","4","4","4","1","1","1","1","1","1","1","1","4","4","4","4","4","4","4","4","4","4","6","6","6","6","5","4","4","5","5","5","3","5","3","5","3","5","3","5","3","1","3","3","5","3","5","3","5","3","5","3","2","3","5","6","2","6","5","6","2","6","6","2","6","5","5","5","5","3","3","5","718762010250051584","黄","235","Male","[""坏他"",""好我"",""好他"",""坏我""]","[""弱他"",""强我"",""强他"",""弱我""]","","","","","","","","","","","","","","","","","","","","","","","","","","","","","","feedback_test","","","","","","","","",""
"753","","f","psychophysics","38","186528","0.0-8.0-0.0-1.0-0.0-0.14","3","3","3","3","3","4","4","4","4","4","4","1","1","1","1","1","1","1","1","4","4","4","4","4","4","4","4","4","4","6","6","6","6","5","4","4","5","5","5","3","5","3","5","3","5","3","5","3","1","3","3","5","3","5","3","5","3","5","3","2","3","5","6","2","6","5","6","2","6","6","2","6","5","5","5","5","3","3","5","718762010250051584","黄","235","Male","[""坏他"",""好我"",""好他"",""坏我""]","[""弱他"",""强我"",""强他"",""弱我""]","","","","","","","","nonmatch","","","","","","","","","","key","f","16.68095238095238","1280","716","f","true","nonmatch","img/square.png","坏他","好他","prac_ALT2_moral","practice_moral","","","","","","","","",""
"null","<span style='color:GreenYellow; font-size: 70px;'>正确! </span>","null","html-keyboard-response","39","187029","0.0-8.0-0.0-1.0-0.0-1.14","3","3","3","3","3","4","4","4","4","4","4","1","1","1","1","1","1","1","1","4","4","4","4","4","4","4","4","4","4","6","6","6","6","5","4","4","5","5","5","3","5","3","5","3","5","3","5","3","1","3","3","5","3","5","3","5","3","5","3","2","3","5","6","2","6","5","6","2","6","6","2","6","5","5","5","5","3","3","5","718762010250051584","黄","235","Male","[""坏他"",""好我"",""好他"",""坏我""]","[""弱他"",""强我"",""强他"",""弱我""]","","","","","","","","","","","","","","","","","","","","","","","","","","","","","","feedback_test","","","","","","","","",""
"752","","j","psychophysics","40","188784","0.0-8.0-0.0-1.0-0.0-0.15","3","3","3","3","3","4","4","4","4","4","4","1","1","1","1","1","1","1","1","4","4","4","4","4","4","4","4","4","4","6","6","6","6","5","4","4","5","5","5","3","5","3","5","3","5","3","5","3","1","3","3","5","3","5","3","5","3","5","3","2","3","5","6","2","6","5","6","2","6","6","2","6","5","5","5","5","3","3","5","718762010250051584","黄","235","Male","[""坏他"",""好我"",""好他"",""坏我""]","[""弱他"",""强我"",""强他"",""弱我""]","","","","","","","","match","","","","","","","","","","key","j","16.683653846153902","1280","716","j","true","match","img/square.png","好他","好他","prac_ALT2_moral","practice_moral","","","","","","","","",""
"null","<span style='color:GreenYellow; font-size: 70px;'>正确! </span>","null","html-keyboard-response","41","189284","0.0-8.0-0.0-1.0-0.0-1.15","3","3","3","3","3","4","4","4","4","4","4","1","1","1","1","1","1","1","1","4","4","4","4","4","4","4","4","4","4","6","6","6","6","5","4","4","5","5","5","3","5","3","5","3","5","3","5","3","1","3","3","5","3","5","3","5","3","5","3","2","3","5","6","2","6","5","6","2","6","6","2","6","5","5","5","5","3","3","5","718762010250051584","黄","235","Male","[""坏他"",""好我"",""好他"",""坏我""]","[""弱他"",""强我"",""强他"",""弱我""]","","","","","","","","","","","","","","","","","","","","","","","","","","","","","","feedback_test","","","","","","","","",""
"611","","j","psychophysics","42","190896","0.0-8.0-0.0-1.0-0.0-0.16","3","3","3","3","3","4","4","4","4","4","4","1","1","1","1","1","1","1","1","4","4","4","4","4","4","4","4","4","4","6","6","6","6","5","4","4","5","5","5","3","5","3","5","3","5","3","5","3","1","3","3","5","3","5","3","5","3","5","3","2","3","5","6","2","6","5","6","2","6","6","2","6","5","5","5","5","3","3","5","718762010250051584","黄","235","Male","[""坏他"",""好我"",""好他"",""坏我""]","[""弱他"",""强我"",""强他"",""弱我""]","","","","","","","","match","","","","","","","","","","key","j","16.68105263157907","1280","716","j","true","match","img/square.png","好他","好他","prac_ALT2_moral","practice_moral","","","","","","","","",""
"null","<span style='color:GreenYellow; font-size: 70px;'>正确! </span>","null","html-keyboard-response","43","191398","0.0-8.0-0.0-1.0-0.0-1.16","3","3","3","3","3","4","4","4","4","4","4","1","1","1","1","1","1","1","1","4","4","4","4","4","4","4","4","4","4","6","6","6","6","5","4","4","5","5","5","3","5","3","5","3","5","3","5","3","1","3","3","5","3","5","3","5","3","5","3","2","3","5","6","2","6","5","6","2","6","6","2","6","5","5","5","5","3","3","5","718762010250051584","黄","235","Male","[""坏他"",""好我"",""好他"",""坏我""]","[""弱他"",""强我"",""强他"",""弱我""]","","","","","","","","","","","","","","","","","","","","","","","","","","","","","","feedback_test","","","","","","","","",""
"1121","","f","psychophysics","44","193520","0.0-8.0-0.0-1.0-0.0-0.17","3","3","3","3","3","4","4","4","4","4","4","1","1","1","1","1","1","1","1","4","4","4","4","4","4","4","4","4","4","6","6","6","6","5","4","4","5","5","5","3","5","3","5","3","5","3","5","3","1","3","3","5","3","5","3","5","3","5","3","2","3","5","6","2","6","5","6","2","6","6","2","6","5","5","5","5","3","3","5","718762010250051584","黄","235","Male","[""坏他"",""好我"",""好他"",""坏我""]","[""弱他"",""强我"",""强他"",""弱我""]","","","","","","","","nonmatch","","","","","","","","","","key","f","16.680158730158823","1280","716","f","true","nonmatch","img/ellipse.png","坏我","坏他","prac_ALT2_moral","practice_moral","","","","","","","","",""
"null","<span style='color:GreenYellow; font-size: 70px;'>正确! </span>","null","html-keyboard-response","45","194021","0.0-8.0-0.0-1.0-0.0-1.17","3","3","3","3","3","4","4","4","4","4","4","1","1","1","1","1","1","1","1","4","4","4","4","4","4","4","4","4","4","6","6","6","6","5","4","4","5","5","5","3","5","3","5","3","5","3","5","3","1","3","3","5","3","5","3","5","3","5","3","2","3","5","6","2","6","5","6","2","6","6","2","6","5","5","5","5","3","3","5","718762010250051584","黄","235","Male","[""坏他"",""好我"",""好他"",""坏我""]","[""弱他"",""强我"",""强他"",""弱我""]","","","","","","","","","","","","","","","","","","","","","","","","","","","","","","feedback_test","","","","","","","","",""
"698","","j","psychophysics","46","195720","0.0-8.0-0.0-1.0-0.0-0.18","3","3","3","3","3","4","4","4","4","4","4","1","1","1","1","1","1","1","1","4","4","4","4","4","4","4","4","4","4","6","6","6","6","5","4","4","5","5","5","3","5","3","5","3","5","3","5","3","1","3","3","5","3","5","3","5","3","5","3","2","3","5","6","2","6","5","6","2","6","6","2","6","5","5","5","5","3","3","5","718762010250051584","黄","235","Male","[""坏他"",""好我"",""好他"",""坏我""]","[""弱他"",""强我"",""强他"",""弱我""]","","","","","","","","match","","","","","","","","","","key","j","16.679207920792138","1280","716","f","false","nonmatch","img/trapezoid.png","好我","坏我","prac_ALT2_moral","practice_moral","","","","","","","","",""
"null","<span style='color:red; font-size: 70px;'>错误! </span>","null","html-keyboard-response","47","196220","0.0-8.0-0.0-1.0-0.0-1.18","3","3","3","3","3","4","4","4","4","4","4","1","1","1","1","1","1","1","1","4","4","4","4","4","4","4","4","4","4","6","6","6","6","5","4","4","5","5","5","3","5","3","5","3","5","3","5","3","1","3","3","5","3","5","3","5","3","5","3","2","3","5","6","2","6","5","6","2","6","6","2","6","5","5","5","5","3","3","5","718762010250051584","黄","235","Male","[""坏他"",""好我"",""好他"",""坏我""]","[""弱他"",""强我"",""强他"",""弱我""]","","","","","","","","","","","","","","","","","","","","","","","","","","","","","","feedback_test","","","","","","","","",""
"699","","j","psychophysics","48","197920","0.0-8.0-0.0-1.0-0.0-0.19","3","3","3","3","3","4","4","4","4","4","4","1","1","1","1","1","1","1","1","4","4","4","4","4","4","4","4","4","4","6","6","6","6","5","4","4","5","5","5","3","5","3","5","3","5","3","5","3","1","3","3","5","3","5","3","5","3","5","3","2","3","5","6","2","6","5","6","2","6","6","2","6","5","5","5","5","3","3","5","718762010250051584","黄","235","Male","[""坏他"",""好我"",""好他"",""坏我""]","[""弱他"",""强我"",""强他"",""弱我""]","","","","","","","","match","","","","","","","","","","key","j","16.682178217821725","1280","716","j","true","match","img/hexagon.png","好我","好我","prac_ALT2_moral","practice_moral","","","","","","","","",""
"null","<span style='color:GreenYellow; font-size: 70px;'>正确! </span>","null","html-keyboard-response","49","198421","0.0-8.0-0.0-1.0-0.0-1.19","3","3","3","3","3","4","4","4","4","4","4","1","1","1","1","1","1","1","1","4","4","4","4","4","4","4","4","4","4","6","6","6","6","5","4","4","5","5","5","3","5","3","5","3","5","3","5","3","1","3","3","5","3","5","3","5","3","5","3","2","3","5","6","2","6","5","6","2","6","6","2","6","5","5","5","5","3","3","5","718762010250051584","黄","235","Male","[""坏他"",""好我"",""好他"",""坏我""]","[""弱他"",""强我"",""强他"",""弱我""]","","","","","","","","","","","","","","","","","","","","","","","","","","","","","","feedback_test","","","","","","","","",""
"866","","j","psychophysics","50","200288","0.0-8.0-0.0-1.0-0.0-0.20","3","3","3","3","3","4","4","4","4","4","4","1","1","1","1","1","1","1","1","4","4","4","4","4","4","4","4","4","4","6","6","6","6","5","4","4","5","5","5","3","5","3","5","3","5","3","5","3","1","3","3","5","3","5","3","5","3","5","3","2","3","5","6","2","6","5","6","2","6","6","2","6","5","5","5","5","3","3","5","718762010250051584","黄","235","Male","[""坏他"",""好我"",""好他"",""坏我""]","[""弱他"",""强我"",""强他"",""弱我""]","","","","","","","","match","","","","","","","","","","key","j","16.680909090909037","1280","716","f","false","nonmatch","img/ellipse.png","好他","坏他","prac_ALT2_moral","practice_moral","","","","","","","","",""
"null","<span style='color:red; font-size: 70px;'>错误! </span>","null","html-keyboard-response","51","200788","0.0-8.0-0.0-1.0-0.0-1.20","3","3","3","3","3","4","4","4","4","4","4","1","1","1","1","1","1","1","1","4","4","4","4","4","4","4","4","4","4","6","6","6","6","5","4","4","5","5","5","3","5","3","5","3","5","3","5","3","1","3","3","5","3","5","3","5","3","5","3","2","3","5","6","2","6","5","6","2","6","6","2","6","5","5","5","5","3","3","5","718762010250051584","黄","235","Male","[""坏他"",""好我"",""好他"",""坏我""]","[""弱他"",""强我"",""强他"",""弱我""]","","","","","","","","","","","","","","","","","","","","","","","","","","","","","","feedback_test","","","","","","","","",""
"923","","f","psychophysics","52","202713","0.0-8.0-0.0-1.0-0.0-0.21","3","3","3","3","3","4","4","4","4","4","4","1","1","1","1","1","1","1","1","4","4","4","4","4","4","4","4","4","4","6","6","6","6","5","4","4","5","5","5","3","5","3","5","3","5","3","5","3","1","3","3","5","3","5","3","5","3","5","3","2","3","5","6","2","6","5","6","2","6","6","2","6","5","5","5","5","3","3","5","718762010250051584","黄","235","Male","[""坏他"",""好我"",""好他"",""坏我""]","[""弱他"",""强我"",""强他"",""弱我""]","","","","","","","","nonmatch","","","","","","","","","","key","f","16.682456140350777","1280","716","f","true","nonmatch","img/ellipse.png","好我","坏他","prac_ALT2_moral","practice_moral","","","","","","","","",""
"null","<span style='color:GreenYellow; font-size: 70px;'>正确! </span>","null","html-keyboard-response","53","203214","0.0-8.0-0.0-1.0-0.0-1.21","3","3","3","3","3","4","4","4","4","4","4","1","1","1","1","1","1","1","1","4","4","4","4","4","4","4","4","4","4","6","6","6","6","5","4","4","5","5","5","3","5","3","5","3","5","3","5","3","1","3","3","5","3","5","3","5","3","5","3","2","3","5","6","2","6","5","6","2","6","6","2","6","5","5","5","5","3","3","5","718762010250051584","黄","235","Male","[""坏他"",""好我"",""好他"",""坏我""]","[""弱他"",""强我"",""强他"",""弱我""]","","","","","","","","","","","","","","","","","","","","","","","","","","","","","","feedback_test","","","","","","","","",""
"1049","","j","psychophysics","54","205264","0.0-8.0-0.0-1.0-0.0-0.22","3","3","3","3","3","4","4","4","4","4","4","1","1","1","1","1","1","1","1","4","4","4","4","4","4","4","4","4","4","6","6","6","6","5","4","4","5","5","5","3","5","3","5","3","5","3","5","3","1","3","3","5","3","5","3","5","3","5","3","2","3","5","6","2","6","5","6","2","6","6","2","6","5","5","5","5","3","3","5","718762010250051584","黄","235","Male","[""坏他"",""好我"",""好他"",""坏我""]","[""弱他"",""强我"",""强他"",""弱我""]","","","","","","","","match","","","","","","","","","","key","j","16.683606557377","1280","716","j","true","match","img/hexagon.png","好我","好我","prac_ALT2_moral","practice_moral","","","","","","","","",""
"null","<span style='color:GreenYellow; font-size: 70px;'>正确! </span>","null","html-keyboard-response","55","205765","0.0-8.0-0.0-1.0-0.0-1.22","3","3","3","3","3","4","4","4","4","4","4","1","1","1","1","1","1","1","1","4","4","4","4","4","4","4","4","4","4","6","6","6","6","5","4","4","5","5","5","3","5","3","5","3","5","3","5","3","1","3","3","5","3","5","3","5","3","5","3","2","3","5","6","2","6","5","6","2","6","6","2","6","5","5","5","5","3","3","5","718762010250051584","黄","235","Male","[""坏他"",""好我"",""好他"",""坏我""]","[""弱他"",""强我"",""强他"",""弱我""]","","","","","","","","","","","","","","","","","","","","","","","","","","","","","","feedback_test","","","","","","","","",""
"770","","j","psychophysics","56","207536","0.0-8.0-0.0-1.0-0.0-0.23","3","3","3","3","3","4","4","4","4","4","4","1","1","1","1","1","1","1","1","4","4","4","4","4","4","4","4","4","4","6","6","6","6","5","4","4","5","5","5","3","5","3","5","3","5","3","5","3","1","3","3","5","3","5","3","5","3","5","3","2","3","5","6","2","6","5","6","2","6","6","2","6","5","5","5","5","3","3","5","718762010250051584","黄","235","Male","[""坏他"",""好我"",""好他"",""坏我""]","[""弱他"",""强我"",""强他"",""弱我""]","","","","","","","","match","","","","","","","","","","key","j","16.679999999999943","1280","716","j","true","match","img/hexagon.png","好我","好我","prac_ALT2_moral","practice_moral","","","","","","","","",""
"null","<span style='color:GreenYellow; font-size: 70px;'>正确! </span>","null","html-keyboard-response","57","208037","0.0-8.0-0.0-1.0-0.0-1.23","3","3","3","3","3","4","4","4","4","4","4","1","1","1","1","1","1","1","1","4","4","4","4","4","4","4","4","4","4","6","6","6","6","5","4","4","5","5","5","3","5","3","5","3","5","3","5","3","1","3","3","5","3","5","3","5","3","5","3","2","3","5","6","2","6","5","6","2","6","6","2","6","5","5","5","5","3","3","5","718762010250051584","黄","235","Male","[""坏他"",""好我"",""好他"",""坏我""]","[""弱他"",""强我"",""强他"",""弱我""]","","","","","","","","","","","","","","","","","","","","","","","","","","","","","","feedback_test","","","","","","","","",""
"866","","j","psychophysics","58","209904","0.0-8.0-0.0-1.0-0.0-0.24","3","3","3","3","3","4","4","4","4","4","4","1","1","1","1","1","1","1","1","4","4","4","4","4","4","4","4","4","4","6","6","6","6","5","4","4","5","5","5","3","5","3","5","3","5","3","5","3","1","3","3","5","3","5","3","5","3","5","3","2","3","5","6","2","6","5","6","2","6","6","2","6","5","5","5","5","3","3","5","718762010250051584","黄","235","Male","[""坏他"",""好我"",""好他"",""坏我""]","[""弱他"",""强我"",""强他"",""弱我""]","","","","","","","","match","","","","","","","","","","key","j","16.68378378378373","1280","716","j","true","match","img/ellipse.png","坏他","坏他","prac_ALT2_moral","practice_moral","","","","","","","","",""
"null","<span style='color:GreenYellow; font-size: 70px;'>正确! </span>","null","html-keyboard-response","59","210406","0.0-8.0-0.0-1.0-0.0-1.24","3","3","3","3","3","4","4","4","4","4","4","1","1","1","1","1","1","1","1","4","4","4","4","4","4","4","4","4","4","6","6","6","6","5","4","4","5","5","5","3","5","3","5","3","5","3","5","3","1","3","3","5","3","5","3","5","3","5","3","2","3","5","6","2","6","5","6","2","6","6","2","6","5","5","5","5","3","3","5","718762010250051584","黄","235","Male","[""坏他"",""好我"",""好他"",""坏我""]","[""弱他"",""强我"",""强他"",""弱我""]","","","","","","","","","","","","","","","","","","","","","","","","","","","","","","feedback_test","","","","","","","","",""
"1009","","f","psychophysics","60","212416","0.0-8.0-0.0-1.0-0.0-0.25","3","3","3","3","3","4","4","4","4","4","4","1","1","1","1","1","1","1","1","4","4","4","4","4","4","4","4","4","4","6","6","6","6","5","4","4","5","5","5","3","5","3","5","3","5","3","5","3","1","3","3","5","3","5","3","5","3","5","3","2","3","5","6","2","6","5","6","2","6","6","2","6","5","5","5","5","3","3","5","718762010250051584","黄","235","Male","[""坏他"",""好我"",""好他"",""坏我""]","[""弱他"",""强我"",""强他"",""弱我""]","","","","","","","","nonmatch","","","","","","","","","","key","f","16.680833333333187","1280","716","f","true","nonmatch","img/hexagon.png","坏他","好我","prac_ALT2_moral","practice_moral","","","","","","","","",""
"null","<span style='color:GreenYellow; font-size: 70px;'>正确! </span>","null","html-keyboard-response","61","212917","0.0-8.0-0.0-1.0-0.0-1.25","3","3","3","3","3","4","4","4","4","4","4","1","1","1","1","1","1","1","1","4","4","4","4","4","4","4","4","4","4","6","6","6","6","5","4","4","5","5","5","3","5","3","5","3","5","3","5","3","1","3","3","5","3","5","3","5","3","5","3","2","3","5","6","2","6","5","6","2","6","6","2","6","5","5","5","5","3","3","5","718762010250051584","黄","235","Male","[""坏他"",""好我"",""好他"",""坏我""]","[""弱他"",""强我"",""强他"",""弱我""]","","","","","","","","","","","","","","","","","","","","","","","","","","","","","","feedback_test","","","","","","","","",""
"937","","j","psychophysics","62","214856","0.0-8.0-0.0-1.0-0.0-0.26","3","3","3","3","3","4","4","4","4","4","4","1","1","1","1","1","1","1","1","4","4","4","4","4","4","4","4","4","4","6","6","6","6","5","4","4","5","5","5","3","5","3","5","3","5","3","5","3","1","3","3","5","3","5","3","5","3","5","3","2","3","5","6","2","6","5","6","2","6","6","2","6","5","5","5","5","3","3","5","718762010250051584","黄","235","Male","[""坏他"",""好我"",""好他"",""坏我""]","[""弱他"",""强我"",""强他"",""弱我""]","","","","","","","","match","","","","","","","","","","key","j","16.681739130434732","1280","716","j","true","match","img/hexagon.png","好我","好我","prac_ALT2_moral","practice_moral","","","","","","","","",""
"null","<span style='color:GreenYellow; font-size: 70px;'>正确! </span>","null","html-keyboard-response","63","215357","0.0-8.0-0.0-1.0-0.0-1.26","3","3","3","3","3","4","4","4","4","4","4","1","1","1","1","1","1","1","1","4","4","4","4","4","4","4","4","4","4","6","6","6","6","5","4","4","5","5","5","3","5","3","5","3","5","3","5","3","1","3","3","5","3","5","3","5","3","5","3","2","3","5","6","2","6","5","6","2","6","6","2","6","5","5","5","5","3","3","5","718762010250051584","黄","235","Male","[""坏他"",""好我"",""好他"",""坏我""]","[""弱他"",""强我"",""强他"",""弱我""]","","","","","","","","","","","","","","","","","","","","","","","","","","","","","","feedback_test","","","","","","","","",""
"994","","j","psychophysics","64","217352","0.0-8.0-0.0-1.0-0.0-0.27","3","3","3","3","3","4","4","4","4","4","4","1","1","1","1","1","1","1","1","4","4","4","4","4","4","4","4","4","4","6","6","6","6","5","4","4","5","5","5","3","5","3","5","3","5","3","5","3","1","3","3","5","3","5","3","5","3","5","3","2","3","5","6","2","6","5","6","2","6","6","2","6","5","5","5","5","3","3","5","718762010250051584","黄","235","Male","[""坏他"",""好我"",""好他"",""坏我""]","[""弱他"",""强我"",""强他"",""弱我""]","","","","","","","","match","","","","","","","","","","key","j","16.68220338983051","1280","716","j","true","match","img/ellipse.png","坏他","坏他","prac_ALT2_moral","practice_moral","","","","","","","","",""
"null","<span style='color:GreenYellow; font-size: 70px;'>正确! </span>","null","html-keyboard-response","65","217853","0.0-8.0-0.0-1.0-0.0-1.27","3","3","3","3","3","4","4","4","4","4","4","1","1","1","1","1","1","1","1","4","4","4","4","4","4","4","4","4","4","6","6","6","6","5","4","4","5","5","5","3","5","3","5","3","5","3","5","3","1","3","3","5","3","5","3","5","3","5","3","2","3","5","6","2","6","5","6","2","6","6","2","6","5","5","5","5","3","3","5","718762010250051584","黄","235","Male","[""坏他"",""好我"",""好他"",""坏我""]","[""弱他"",""强我"",""强他"",""弱我""]","","","","","","","","","","","","","","","","","","","","","","","","","","","","","","feedback_test","","","","","","","","",""
"906","","f","psychophysics","66","219760","0.0-8.0-0.0-1.0-0.0-0.28","3","3","3","3","3","4","4","4","4","4","4","1","1","1","1","1","1","1","1","4","4","4","4","4","4","4","4","4","4","6","6","6","6","5","4","4","5","5","5","3","5","3","5","3","5","3","5","3","1","3","3","5","3","5","3","5","3","5","3","2","3","5","6","2","6","5","6","2","6","6","2","6","5","5","5","5","3","3","5","718762010250051584","黄","235","Male","[""坏他"",""好我"",""好他"",""坏我""]","[""弱他"",""强我"",""强他"",""弱我""]","","","","","","","","nonmatch","","","","","","","","","","key","f","16.676106194690473","1280","716","f","true","nonmatch","img/square.png","坏他","好他","prac_ALT2_moral","practice_moral","","","","","","","","",""
"null","<span style='color:GreenYellow; font-size: 70px;'>正确! </span>","null","html-keyboard-response","67","220261","0.0-8.0-0.0-1.0-0.0-1.28","3","3","3","3","3","4","4","4","4","4","4","1","1","1","1","1","1","1","1","4","4","4","4","4","4","4","4","4","4","6","6","6","6","5","4","4","5","5","5","3","5","3","5","3","5","3","5","3","1","3","3","5","3","5","3","5","3","5","3","2","3","5","6","2","6","5","6","2","6","6","2","6","5","5","5","5","3","3","5","718762010250051584","黄","235","Male","[""坏他"",""好我"",""好他"",""坏我""]","[""弱他"",""强我"",""强他"",""弱我""]","","","","","","","","","","","","","","","","","","","","","","","","","","","","","","feedback_test","","","","","","","","",""
"850","","f","psychophysics","68","222112","0.0-8.0-0.0-1.0-0.0-0.29","3","3","3","3","3","4","4","4","4","4","4","1","1","1","1","1","1","1","1","4","4","4","4","4","4","4","4","4","4","6","6","6","6","5","4","4","5","5","5","3","5","3","5","3","5","3","5","3","1","3","3","5","3","5","3","5","3","5","3","2","3","5","6","2","6","5","6","2","6","6","2","6","5","5","5","5","3","3","5","718762010250051584","黄","235","Male","[""坏他"",""好我"",""好他"",""坏我""]","[""弱他"",""强我"",""强他"",""弱我""]","","","","","","","","nonmatch","","","","","","","","","","key","f","16.682727272727327","1280","716","f","true","nonmatch","img/trapezoid.png","好他","坏我","prac_ALT2_moral","practice_moral","","","","","","","","",""
"null","<span style='color:GreenYellow; font-size: 70px;'>正确! </span>","null","html-keyboard-response","69","222613","0.0-8.0-0.0-1.0-0.0-1.29","3","3","3","3","3","4","4","4","4","4","4","1","1","1","1","1","1","1","1","4","4","4","4","4","4","4","4","4","4","6","6","6","6","5","4","4","5","5","5","3","5","3","5","3","5","3","5","3","1","3","3","5","3","5","3","5","3","5","3","2","3","5","6","2","6","5","6","2","6","6","2","6","5","5","5","5","3","3","5","718762010250051584","黄","235","Male","[""坏他"",""好我"",""好他"",""坏我""]","[""弱他"",""强我"",""强他"",""弱我""]","","","","","","","","","","","","","","","","","","","","","","","","","","","","","","feedback_test","","","","","","","","",""
"1010","","j","psychophysics","70","224624","0.0-8.0-0.0-1.0-0.0-0.30","3","3","3","3","3","4","4","4","4","4","4","1","1","1","1","1","1","1","1","4","4","4","4","4","4","4","4","4","4","6","6","6","6","5","4","4","5","5","5","3","5","3","5","3","5","3","5","3","1","3","3","5","3","5","3","5","3","5","3","2","3","5","6","2","6","5","6","2","6","6","2","6","5","5","5","5","3","3","5","718762010250051584","黄","235","Male","[""坏他"",""好我"",""好他"",""坏我""]","[""弱他"",""强我"",""强他"",""弱我""]","","","","","","","","match","","","","","","","","","","key","j","16.67983193277306","1280","716","j","true","match","img/trapezoid.png","坏我","坏我","prac_ALT2_moral","practice_moral","","","","","","","","",""
"null","<span style='color:GreenYellow; font-size: 70px;'>正确! </span>","null","html-keyboard-response","71","225125","0.0-8.0-0.0-1.0-0.0-1.30","3","3","3","3","3","4","4","4","4","4","4","1","1","1","1","1","1","1","1","4","4","4","4","4","4","4","4","4","4","6","6","6","6","5","4","4","5","5","5","3","5","3","5","3","5","3","5","3","1","3","3","5","3","5","3","5","3","5","3","2","3","5","6","2","6","5","6","2","6","6","2","6","5","5","5","5","3","3","5","718762010250051584","黄","235","Male","[""坏他"",""好我"",""好他"",""坏我""]","[""弱他"",""强我"",""强他"",""弱我""]","","","","","","","","","","","","","","","","","","","","","","","","","","","","","","feedback_test","","","","","","","","",""
"970","","j","psychophysics","72","227096","0.0-8.0-0.0-1.0-0.0-0.31","3","3","3","3","3","4","4","4","4","4","4","1","1","1","1","1","1","1","1","4","4","4","4","4","4","4","4","4","4","6","6","6","6","5","4","4","5","5","5","3","5","3","5","3","5","3","5","3","1","3","3","5","3","5","3","5","3","5","3","2","3","5","6","2","6","5","6","2","6","6","2","6","5","5","5","5","3","3","5","718762010250051584","黄","235","Male","[""坏他"",""好我"",""好他"",""坏我""]","[""弱他"",""强我"",""强他"",""弱我""]","","","","","","","","match","","","","","","","","","","key","j","16.682905982905933","1280","716","j","true","match","img/square.png","好他","好他","prac_ALT2_moral","practice_moral","","","","","","","","",""
"null","<span style='color:GreenYellow; font-size: 70px;'>正确! </span>","null","html-keyboard-response","73","227597","0.0-8.0-0.0-1.0-0.0-1.31","3","3","3","3","3","4","4","4","4","4","4","1","1","1","1","1","1","1","1","4","4","4","4","4","4","4","4","4","4","6","6","6","6","5","4","4","5","5","5","3","5","3","5","3","5","3","5","3","1","3","3","5","3","5","3","5","3","5","3","2","3","5","6","2","6","5","6","2","6","6","2","6","5","5","5","5","3","3","5","718762010250051584","黄","235","Male","[""坏他"",""好我"",""好他"",""坏我""]","[""弱他"",""强我"",""强他"",""弱我""]","","","","","","","","","","","","","","","","","","","","","","","","","","","","","","feedback_test","","","","","","","","",""
"979","","f","psychophysics","74","229576","0.0-8.0-0.0-1.0-0.0-0.32","3","3","3","3","3","4","4","4","4","4","4","1","1","1","1","1","1","1","1","4","4","4","4","4","4","4","4","4","4","6","6","6","6","5","4","4","5","5","5","3","5","3","5","3","5","3","5","3","1","3","3","5","3","5","3","5","3","5","3","2","3","5","6","2","6","5","6","2","6","6","2","6","5","5","5","5","3","3","5","718762010250051584","黄","235","Male","[""坏他"",""好我"",""好他"",""坏我""]","[""弱他"",""强我"",""强他"",""弱我""]","","","","","","","","nonmatch","","","","","","","","","","key","f","16.682905982905933","1280","716","f","true","nonmatch","img/trapezoid.png","好我","坏我","prac_ALT2_moral","practice_moral","","","","","","","","",""
"null","<span style='color:GreenYellow; font-size: 70px;'>正确! </span>","null","html-keyboard-response","75","230077","0.0-8.0-0.0-1.0-0.0-1.32","3","3","3","3","3","4","4","4","4","4","4","1","1","1","1","1","1","1","1","4","4","4","4","4","4","4","4","4","4","6","6","6","6","5","4","4","5","5","5","3","5","3","5","3","5","3","5","3","1","3","3","5","3","5","3","5","3","5","3","2","3","5","6","2","6","5","6","2","6","6","2","6","5","5","5","5","3","3","5","718762010250051584","黄","235","Male","[""坏他"",""好我"",""好他"",""坏我""]","[""弱他"",""强我"",""强他"",""弱我""]","","","","","","","","","","","","","","","","","","","","","","","","","","","","","","feedback_test","","","","","","","","",""
"961","","j","psychophysics","76","232040","0.0-8.0-0.0-1.0-0.0-0.33","3","3","3","3","3","4","4","4","4","4","4","1","1","1","1","1","1","1","1","4","4","4","4","4","4","4","4","4","4","6","6","6","6","5","4","4","5","5","5","3","5","3","5","3","5","3","5","3","1","3","3","5","3","5","3","5","3","5","3","2","3","5","6","2","6","5","6","2","6","6","2","6","5","5","5","5","3","3","5","718762010250051584","黄","235","Male","[""坏他"",""好我"",""好他"",""坏我""]","[""弱他"",""强我"",""强他"",""弱我""]","","","","","","","","match","","","","","","","","","","key","j","16.68290598290618","1280","716","j","true","match","img/ellipse.png","坏他","坏他","prac_ALT2_moral","practice_moral","","","","","","","","",""
"null","<span style='color:GreenYellow; font-size: 70px;'>正确! </span>","null","html-keyboard-response","77","232541","0.0-8.0-0.0-1.0-0.0-1.33","3","3","3","3","3","4","4","4","4","4","4","1","1","1","1","1","1","1","1","4","4","4","4","4","4","4","4","4","4","6","6","6","6","5","4","4","5","5","5","3","5","3","5","3","5","3","5","3","1","3","3","5","3","5","3","5","3","5","3","2","3","5","6","2","6","5","6","2","6","6","2","6","5","5","5","5","3","3","5","718762010250051584","黄","235","Male","[""坏他"",""好我"",""好他"",""坏我""]","[""弱他"",""强我"",""强他"",""弱我""]","","","","","","","","","","","","","","","","","","","","","","","","","","","","","","feedback_test","","","","","","","","",""
"794","","j","psychophysics","78","234336","0.0-8.0-0.0-1.0-0.0-0.34","3","3","3","3","3","4","4","4","4","4","4","1","1","1","1","1","1","1","1","4","4","4","4","4","4","4","4","4","4","6","6","6","6","5","4","4","5","5","5","3","5","3","5","3","5","3","5","3","1","3","3","5","3","5","3","5","3","5","3","2","3","5","6","2","6","5","6","2","6","6","2","6","5","5","5","5","3","3","5","718762010250051584","黄","235","Male","[""坏他"",""好我"",""好他"",""坏我""]","[""弱他"",""强我"",""强他"",""弱我""]","","","","","","","","match","","","","","","","","","","key","j","16.683177570093513","1280","716","j","true","match","img/hexagon.png","好我","好我","prac_ALT2_moral","practice_moral","","","","","","","","",""
"null","<span style='color:GreenYellow; font-size: 70px;'>正确! </span>","null","html-keyboard-response","79","234837","0.0-8.0-0.0-1.0-0.0-1.34","3","3","3","3","3","4","4","4","4","4","4","1","1","1","1","1","1","1","1","4","4","4","4","4","4","4","4","4","4","6","6","6","6","5","4","4","5","5","5","3","5","3","5","3","5","3","5","3","1","3","3","5","3","5","3","5","3","5","3","2","3","5","6","2","6","5","6","2","6","6","2","6","5","5","5","5","3","3","5","718762010250051584","黄","235","Male","[""坏他"",""好我"",""好他"",""坏我""]","[""弱他"",""强我"",""强他"",""弱我""]","","","","","","","","","","","","","","","","","","","","","","","","","","","","","","feedback_test","","","","","","","","",""
"962","","j","psychophysics","80","236800","0.0-8.0-0.0-1.0-0.0-0.35","3","3","3","3","3","4","4","4","4","4","4","1","1","1","1","1","1","1","1","4","4","4","4","4","4","4","4","4","4","6","6","6","6","5","4","4","5","5","5","3","5","3","5","3","5","3","5","3","1","3","3","5","3","5","3","5","3","5","3","2","3","5","6","2","6","5","6","2","6","6","2","6","5","5","5","5","3","3","5","718762010250051584","黄","235","Male","[""坏他"",""好我"",""好他"",""坏我""]","[""弱他"",""强我"",""强他"",""弱我""]","","","","","","","","match","","","","","","","","","","key","j","16.679310344827737","1280","716","j","true","match","img/square.png","好他","好他","prac_ALT2_moral","practice_moral","","","","","","","","",""
"null","<span style='color:GreenYellow; font-size: 70px;'>正确! </span>","null","html-keyboard-response","81","237301","0.0-8.0-0.0-1.0-0.0-1.35","3","3","3","3","3","4","4","4","4","4","4","1","1","1","1","1","1","1","1","4","4","4","4","4","4","4","4","4","4","6","6","6","6","5","4","4","5","5","5","3","5","3","5","3","5","3","5","3","1","3","3","5","3","5","3","5","3","5","3","2","3","5","6","2","6","5","6","2","6","6","2","6","5","5","5","5","3","3","5","718762010250051584","黄","235","Male","[""坏他"",""好我"",""好他"",""坏我""]","[""弱他"",""强我"",""强他"",""弱我""]","","","","","","","","","","","","","","","","","","","","","","","","","","","","","","feedback_test","","","","","","","","",""
"922","","f","psychophysics","82","239224","0.0-8.0-0.0-1.0-0.0-0.36","3","3","3","3","3","4","4","4","4","4","4","1","1","1","1","1","1","1","1","4","4","4","4","4","4","4","4","4","4","6","6","6","6","5","4","4","5","5","5","3","5","3","5","3","5","3","5","3","1","3","3","5","3","5","3","5","3","5","3","2","3","5","6","2","6","5","6","2","6","6","2","6","5","5","5","5","3","3","5","718762010250051584","黄","235","Male","[""坏他"",""好我"",""好他"",""坏我""]","[""弱他"",""强我"",""强他"",""弱我""]","","","","","","","","nonmatch","","","","","","","","","","key","f","16.680701754386018","1280","716","f","true","nonmatch","img/square.png","坏我","好他","prac_ALT2_moral","practice_moral","","","","","","","","",""
"null","<span style='color:GreenYellow; font-size: 70px;'>正确! </span>","null","html-keyboard-response","83","239724","0.0-8.0-0.0-1.0-0.0-1.36","3","3","3","3","3","4","4","4","4","4","4","1","1","1","1","1","1","1","1","4","4","4","4","4","4","4","4","4","4","6","6","6","6","5","4","4","5","5","5","3","5","3","5","3","5","3","5","3","1","3","3","5","3","5","3","5","3","5","3","2","3","5","6","2","6","5","6","2","6","6","2","6","5","5","5","5","3","3","5","718762010250051584","黄","235","Male","[""坏他"",""好我"",""好他"",""坏我""]","[""弱他"",""强我"",""强他"",""弱我""]","","","","","","","","","","","","","","","","","","","","","","","","","","","","","","feedback_test","","","","","","","","",""
"938","","f","psychophysics","84","241664","0.0-8.0-0.0-1.0-0.0-0.37","3","3","3","3","3","4","4","4","4","4","4","1","1","1","1","1","1","1","1","4","4","4","4","4","4","4","4","4","4","6","6","6","6","5","4","4","5","5","5","3","5","3","5","3","5","3","5","3","1","3","3","5","3","5","3","5","3","5","3","2","3","5","6","2","6","5","6","2","6","6","2","6","5","5","5","5","3","3","5","718762010250051584","黄","235","Male","[""坏他"",""好我"",""好他"",""坏我""]","[""弱他"",""强我"",""强他"",""弱我""]","","","","","","","","nonmatch","","","","","","","","","","key","f","16.68086956521729","1280","716","f","true","nonmatch","img/ellipse.png","好我","坏他","prac_ALT2_moral","practice_moral","","","","","","","","",""
"null","<span style='color:GreenYellow; font-size: 70px;'>正确! </span>","null","html-keyboard-response","85","242165","0.0-8.0-0.0-1.0-0.0-1.37","3","3","3","3","3","4","4","4","4","4","4","1","1","1","1","1","1","1","1","4","4","4","4","4","4","4","4","4","4","6","6","6","6","5","4","4","5","5","5","3","5","3","5","3","5","3","5","3","1","3","3","5","3","5","3","5","3","5","3","2","3","5","6","2","6","5","6","2","6","6","2","6","5","5","5","5","3","3","5","718762010250051584","黄","235","Male","[""坏他"",""好我"",""好他"",""坏我""]","[""弱他"",""强我"",""强他"",""弱我""]","","","","","","","","","","","","","","","","","","","","","","","","","","","","","","feedback_test","","","","","","","","",""
"761","","f","psychophysics","86","243927","0.0-8.0-0.0-1.0-0.0-0.38","3","3","3","3","3","4","4","4","4","4","4","1","1","1","1","1","1","1","1","4","4","4","4","4","4","4","4","4","4","6","6","6","6","5","4","4","5","5","5","3","5","3","5","3","5","3","5","3","1","3","3","5","3","5","3","5","3","5","3","2","3","5","6","2","6","5","6","2","6","6","2","6","5","5","5","5","3","3","5","718762010250051584","黄","235","Male","[""坏他"",""好我"",""好他"",""坏我""]","[""弱他"",""强我"",""强他"",""弱我""]","","","","","","","","nonmatch","","","","","","","","","","key","f","16.68476190476185","1280","716","f","true","nonmatch","img/ellipse.png","坏我","坏他","prac_ALT2_moral","practice_moral","","","","","","","","",""
"null","<span style='color:GreenYellow; font-size: 70px;'>正确! </span>","null","html-keyboard-response","87","244441","0.0-8.0-0.0-1.0-0.0-1.38","3","3","3","3","3","4","4","4","4","4","4","1","1","1","1","1","1","1","1","4","4","4","4","4","4","4","4","4","4","6","6","6","6","5","4","4","5","5","5","3","5","3","5","3","5","3","5","3","1","3","3","5","3","5","3","5","3","5","3","2","3","5","6","2","6","5","6","2","6","6","2","6","5","5","5","5","3","3","5","718762010250051584","黄","235","Male","[""坏他"",""好我"",""好他"",""坏我""]","[""弱他"",""强我"",""强他"",""弱我""]","","","","","","","","","","","","","","","","","","","","","","","","","","","","","","feedback_test","","","","","","","","",""
"750","","j","psychophysics","88","246192","0.0-8.0-0.0-1.0-0.0-0.39","3","3","3","3","3","4","4","4","4","4","4","1","1","1","1","1","1","1","1","4","4","4","4","4","4","4","4","4","4","6","6","6","6","5","4","4","5","5","5","3","5","3","5","3","5","3","5","3","1","3","3","5","3","5","3","5","3","5","3","2","3","5","6","2","6","5","6","2","6","6","2","6","5","5","5","5","3","3","5","718762010250051584","黄","235","Male","[""坏他"",""好我"",""好他"",""坏我""]","[""弱他"",""强我"",""强他"",""弱我""]","","","","","","","","match","","","","","","","","","","key","j","16.682524271844546","1280","716","j","true","match","img/hexagon.png","好我","好我","prac_ALT2_moral","practice_moral","","","","","","","","",""
"null","<span style='color:GreenYellow; font-size: 70px;'>正确! </span>","null","html-keyboard-response","89","246692","0.0-8.0-0.0-1.0-0.0-1.39","3","3","3","3","3","4","4","4","4","4","4","1","1","1","1","1","1","1","1","4","4","4","4","4","4","4","4","4","4","6","6","6","6","5","4","4","5","5","5","3","5","3","5","3","5","3","5","3","1","3","3","5","3","5","3","5","3","5","3","2","3","5","6","2","6","5","6","2","6","6","2","6","5","5","5","5","3","3","5","718762010250051584","黄","235","Male","[""坏他"",""好我"",""好他"",""坏我""]","[""弱他"",""强我"",""强他"",""弱我""]","","","","","","","","","","","","","","","","","","","","","","","","","","","","","","feedback_test","","","","","","","","",""
"955","","j","psychophysics","90","248647","0.0-8.0-0.0-1.0-0.0-0.40","3","3","3","3","3","4","4","4","4","4","4","1","1","1","1","1","1","1","1","4","4","4","4","4","4","4","4","4","4","6","6","6","6","5","4","4","5","5","5","3","5","3","5","3","5","3","5","3","1","3","3","5","3","5","3","5","3","5","3","2","3","5","6","2","6","5","6","2","6","6","2","6","5","5","5","5","3","3","5","718762010250051584","黄","235","Male","[""坏他"",""好我"",""好他"",""坏我""]","[""弱他"",""强我"",""强他"",""弱我""]","","","","","","","","match","","","","","","","","","","key","j","16.679310344827737","1280","716","j","true","match","img/trapezoid.png","坏我","坏我","prac_ALT2_moral","practice_moral","","","","","","","","",""
"null","<span style='color:GreenYellow; font-size: 70px;'>正确! </span>","null","html-keyboard-response","91","249148","0.0-8.0-0.0-1.0-0.0-1.40","3","3","3","3","3","4","4","4","4","4","4","1","1","1","1","1","1","1","1","4","4","4","4","4","4","4","4","4","4","6","6","6","6","5","4","4","5","5","5","3","5","3","5","3","5","3","5","3","1","3","3","5","3","5","3","5","3","5","3","2","3","5","6","2","6","5","6","2","6","6","2","6","5","5","5","5","3","3","5","718762010250051584","黄","235","Male","[""坏他"",""好我"",""好他"",""坏我""]","[""弱他"",""强我"",""强他"",""弱我""]","","","","","","","","","","","","","","","","","","","","","","","","","","","","","","feedback_test","","","","","","","","",""
"931","","j","psychophysics","92","251080","0.0-8.0-0.0-1.0-0.0-0.41","3","3","3","3","3","4","4","4","4","4","4","1","1","1","1","1","1","1","1","4","4","4","4","4","4","4","4","4","4","6","6","6","6","5","4","4","5","5","5","3","5","3","5","3","5","3","5","3","1","3","3","5","3","5","3","5","3","5","3","2","3","5","6","2","6","5","6","2","6","6","2","6","5","5","5","5","3","3","5","718762010250051584","黄","235","Male","[""坏他"",""好我"",""好他"",""坏我""]","[""弱他"",""强我"",""强他"",""弱我""]","","","","","","","","match","","","","","","","","","","key","j","16.683333333333284","1280","716","j","true","match","img/trapezoid.png","坏我","坏我","prac_ALT2_moral","practice_moral","","","","","","","","",""
"null","<span style='color:GreenYellow; font-size: 70px;'>正确! </span>","null","html-keyboard-response","93","251581","0.0-8.0-0.0-1.0-0.0-1.41","3","3","3","3","3","4","4","4","4","4","4","1","1","1","1","1","1","1","1","4","4","4","4","4","4","4","4","4","4","6","6","6","6","5","4","4","5","5","5","3","5","3","5","3","5","3","5","3","1","3","3","5","3","5","3","5","3","5","3","2","3","5","6","2","6","5","6","2","6","6","2","6","5","5","5","5","3","3","5","718762010250051584","黄","235","Male","[""坏他"",""好我"",""好他"",""坏我""]","[""弱他"",""强我"",""强他"",""弱我""]","","","","","","","","","","","","","","","","","","","","","","","","","","","","","","feedback_test","","","","","","","","",""
"720","","j","psychophysics","94","253303","0.0-8.0-0.0-1.0-0.0-0.42","3","3","3","3","3","4","4","4","4","4","4","1","1","1","1","1","1","1","1","4","4","4","4","4","4","4","4","4","4","6","6","6","6","5","4","4","5","5","5","3","5","3","5","3","5","3","5","3","1","3","3","5","3","5","3","5","3","5","3","2","3","5","6","2","6","5","6","2","6","6","2","6","5","5","5","5","3","3","5","718762010250051584","黄","235","Male","[""坏他"",""好我"",""好他"",""坏我""]","[""弱他"",""强我"",""强他"",""弱我""]","","","","","","","","match","","","","","","","","","","key","j","16.67941176470577","1280","716","j","true","match","img/square.png","好他","好他","prac_ALT2_moral","practice_moral","","","","","","","","",""
"null","<span style='color:GreenYellow; font-size: 70px;'>正确! </span>","null","html-keyboard-response","95","253805","0.0-8.0-0.0-1.0-0.0-1.42","3","3","3","3","3","4","4","4","4","4","4","1","1","1","1","1","1","1","1","4","4","4","4","4","4","4","4","4","4","6","6","6","6","5","4","4","5","5","5","3","5","3","5","3","5","3","5","3","1","3","3","5","3","5","3","5","3","5","3","2","3","5","6","2","6","5","6","2","6","6","2","6","5","5","5","5","3","3","5","718762010250051584","黄","235","Male","[""坏他"",""好我"",""好他"",""坏我""]","[""弱他"",""强我"",""强他"",""弱我""]","","","","","","","","","","","","","","","","","","","","","","","","","","","","","","feedback_test","","","","","","","","",""
"1130","","f","psychophysics","96","255935","0.0-8.0-0.0-1.0-0.0-0.43","3","3","3","3","3","4","4","4","4","4","4","1","1","1","1","1","1","1","1","4","4","4","4","4","4","4","4","4","4","6","6","6","6","5","4","4","5","5","5","3","5","3","5","3","5","3","5","3","1","3","3","5","3","5","3","5","3","5","3","2","3","5","6","2","6","5","6","2","6","6","2","6","5","5","5","5","3","3","5","718762010250051584","黄","235","Male","[""坏他"",""好我"",""好他"",""坏我""]","[""弱他"",""强我"",""强他"",""弱我""]","","","","","","","","nonmatch","","","","","","","","","","key","f","16.680314960629648","1280","716","f","true","nonmatch","img/hexagon.png","好他","好我","prac_ALT2_moral","practice_moral","","","","","","","","",""
"null","<span style='color:GreenYellow; font-size: 70px;'>正确! </span>","null","html-keyboard-response","97","256446","0.0-8.0-0.0-1.0-0.0-1.43","3","3","3","3","3","4","4","4","4","4","4","1","1","1","1","1","1","1","1","4","4","4","4","4","4","4","4","4","4","6","6","6","6","5","4","4","5","5","5","3","5","3","5","3","5","3","5","3","1","3","3","5","3","5","3","5","3","5","3","2","3","5","6","2","6","5","6","2","6","6","2","6","5","5","5","5","3","3","5","718762010250051584","黄","235","Male","[""坏他"",""好我"",""好他"",""坏我""]","[""弱他"",""强我"",""强他"",""弱我""]","","","","","","","","","","","","","","","","","","","","","","","","","","","","","","feedback_test","","","","","","","","",""
"928","","f","psychophysics","98","258376","0.0-8.0-0.0-1.0-0.0-0.44","3","3","3","3","3","4","4","4","4","4","4","1","1","1","1","1","1","1","1","4","4","4","4","4","4","4","4","4","4","6","6","6","6","5","4","4","5","5","5","3","5","3","5","3","5","3","5","3","1","3","3","5","3","5","3","5","3","5","3","2","3","5","6","2","6","5","6","2","6","6","2","6","5","5","5","5","3","3","5","718762010250051584","黄","235","Male","[""坏他"",""好我"",""好他"",""坏我""]","[""弱他"",""强我"",""强他"",""弱我""]","","","","","","","","nonmatch","","","","","","","","","","key","f","16.681739130434984","1280","716","f","true","nonmatch","img/square.png","好我","好他","prac_ALT2_moral","practice_moral","","","","","","","","",""
"null","<span style='color:GreenYellow; font-size: 70px;'>正确! </span>","null","html-keyboard-response","99","258877","0.0-8.0-0.0-1.0-0.0-1.44","3","3","3","3","3","4","4","4","4","4","4","1","1","1","1","1","1","1","1","4","4","4","4","4","4","4","4","4","4","6","6","6","6","5","4","4","5","5","5","3","5","3","5","3","5","3","5","3","1","3","3","5","3","5","3","5","3","5","3","2","3","5","6","2","6","5","6","2","6","6","2","6","5","5","5","5","3","3","5","718762010250051584","黄","235","Male","[""坏他"",""好我"",""好他"",""坏我""]","[""弱他"",""强我"",""强他"",""弱我""]","","","","","","","","","","","","","","","","","","","","","","","","","","","","","","feedback_test","","","","","","","","",""
"1050","","f","psychophysics","100","260928","0.0-8.0-0.0-1.0-0.0-0.45","3","3","3","3","3","4","4","4","4","4","4","1","1","1","1","1","1","1","1","4","4","4","4","4","4","4","4","4","4","6","6","6","6","5","4","4","5","5","5","3","5","3","5","3","5","3","5","3","1","3","3","5","3","5","3","5","3","5","3","2","3","5","6","2","6","5","6","2","6","6","2","6","5","5","5","5","3","3","5","718762010250051584","黄","235","Male","[""坏他"",""好我"",""好他"",""坏我""]","[""弱他"",""强我"",""强他"",""弱我""]","","","","","","","","nonmatch","","","","","","","","","","key","f","16.681147540983417","1280","716","f","true","nonmatch","img/trapezoid.png","坏他","坏我","prac_ALT2_moral","practice_moral","","","","","","","","",""
"null","<span style='color:GreenYellow; font-size: 70px;'>正确! </span>","null","html-keyboard-response","101","261429","0.0-8.0-0.0-1.0-0.0-1.45","3","3","3","3","3","4","4","4","4","4","4","1","1","1","1","1","1","1","1","4","4","4","4","4","4","4","4","4","4","6","6","6","6","5","4","4","5","5","5","3","5","3","5","3","5","3","5","3","1","3","3","5","3","5","3","5","3","5","3","2","3","5","6","2","6","5","6","2","6","6","2","6","5","5","5","5","3","3","5","718762010250051584","黄","235","Male","[""坏他"",""好我"",""好他"",""坏我""]","[""弱他"",""强我"",""强他"",""弱我""]","","","","","","","","","","","","","","","","","","","","","","","","","","","","","","feedback_test","","","","","","","","",""
"689","","j","psychophysics","102","263120","0.0-8.0-0.0-1.0-0.0-0.46","3","3","3","3","3","4","4","4","4","4","4","1","1","1","1","1","1","1","1","4","4","4","4","4","4","4","4","4","4","6","6","6","6","5","4","4","5","5","5","3","5","3","5","3","5","3","5","3","1","3","3","5","3","5","3","5","3","5","3","2","3","5","6","2","6","5","6","2","6","6","2","6","5","5","5","5","3","3","5","718762010250051584","黄","235","Male","[""坏他"",""好我"",""好他"",""坏我""]","[""弱他"",""强我"",""强他"",""弱我""]","","","","","","","","match","","","","","","","","","","key","j","16.682000000000116","1280","716","f","false","nonmatch","img/ellipse.png","好他","坏他","prac_ALT2_moral","practice_moral","","","","","","","","",""
"null","<span style='color:red; font-size: 70px;'>错误! </span>","null","html-keyboard-response","103","263622","0.0-8.0-0.0-1.0-0.0-1.46","3","3","3","3","3","4","4","4","4","4","4","1","1","1","1","1","1","1","1","4","4","4","4","4","4","4","4","4","4","6","6","6","6","5","4","4","5","5","5","3","5","3","5","3","5","3","5","3","1","3","3","5","3","5","3","5","3","5","3","2","3","5","6","2","6","5","6","2","6","6","2","6","5","5","5","5","3","3","5","718762010250051584","黄","235","Male","[""坏他"",""好我"",""好他"",""坏我""]","[""弱他"",""强我"",""强他"",""弱我""]","","","","","","","","","","","","","","","","","","","","","","","","","","","","","","feedback_test","","","","","","","","",""
"1033","","f","psychophysics","104","265656","0.0-8.0-0.0-1.0-0.0-0.47","3","3","3","3","3","4","4","4","4","4","4","1","1","1","1","1","1","1","1","4","4","4","4","4","4","4","4","4","4","6","6","6","6","5","4","4","5","5","5","3","5","3","5","3","5","3","5","3","1","3","3","5","3","5","3","5","3","5","3","2","3","5","6","2","6","5","6","2","6","6","2","6","5","5","5","5","3","3","5","718762010250051584","黄","235","Male","[""坏他"",""好我"",""好他"",""坏我""]","[""弱他"",""强我"",""强他"",""弱我""]","","","","","","","","nonmatch","","","","","","","","","","key","f","16.68347107438026","1280","716","f","true","nonmatch","img/hexagon.png","坏我","好我","prac_ALT2_moral","practice_moral","","","","","","","","",""
"null","<span style='color:GreenYellow; font-size: 70px;'>正确! </span>","null","html-keyboard-response","105","266157","0.0-8.0-0.0-1.0-0.0-1.47","3","3","3","3","3","4","4","4","4","4","4","1","1","1","1","1","1","1","1","4","4","4","4","4","4","4","4","4","4","6","6","6","6","5","4","4","5","5","5","3","5","3","5","3","5","3","5","3","1","3","3","5","3","5","3","5","3","5","3","2","3","5","6","2","6","5","6","2","6","6","2","6","5","5","5","5","3","3","5","718762010250051584","黄","235","Male","[""坏他"",""好我"",""好他"",""坏我""]","[""弱他"",""强我"",""强他"",""弱我""]","","","","","","","","","","","","","","","","","","","","","","","","","","","","","","feedback_test","","","","","","","","",""
"12049","<style>.context{color:white; font-size: 35px; line-height:40px}</style>                            <div><p class='context'>您正确回答了85% 的试次。</p><p class='context'>您的平均反应时为921毫秒。</p><p class='context'>恭喜您完成练习。按空格键进入正式实验。</p><p class='footer' style='font-size: 35px; line-height:40px;'>请在进入正式实验实验之前将您的<span style='color: lightgreen;'>食指</span>放在电脑键盘的相应键位上进行按键。</p>"," ","html-keyboard-response","106","278208","0.0-8.0-0.0-2.0","3","3","3","3","3","4","4","4","4","4","4","1","1","1","1","1","1","1","1","4","4","4","4","4","4","4","4","4","4","6","6","6","6","5","4","4","5","5","5","3","5","3","5","3","5","3","5","3","1","3","3","5","3","5","3","5","3","5","3","2","3","5","6","2","6","5","6","2","6","6","2","6","5","5","5","5","3","3","5","718762010250051584","黄","235","Male","[""坏他"",""好我"",""好他"",""坏我""]","[""弱他"",""强我"",""强他"",""弱我""]","","","","","","","","","","","","","","","","","","","","","","","","","","","","","","","","","","","","","","",""
"741","
    <p style='color: white; font-size: 22px'>请您将手指放在按键上，准备进入正式的匹配任务。</p>
    <p> <div style = ""color: green""><按空格键进入下一阶段的匹配任务></div></p>
    "," ","html-keyboard-response","107","278952","0.0-8.0-0.0-3.0","3","3","3","3","3","4","4","4","4","4","4","1","1","1","1","1","1","1","1","4","4","4","4","4","4","4","4","4","4","6","6","6","6","5","4","4","5","5","5","3","5","3","5","3","5","3","5","3","1","3","3","5","3","5","3","5","3","5","3","2","3","5","6","2","6","5","6","2","6","6","2","6","5","5","5","5","3","3","5","718762010250051584","黄","235","Male","[""坏他"",""好我"",""好他"",""坏我""]","[""弱他"",""强我"",""强他"",""弱我""]","","","","","","","","","","","","","","","","","","","","","","","","","","","","","","","","","","","","","","",""
"991","","f","psychophysics","108","280944","0.0-8.0-0.0-4.0-0.0-0.0","3","3","3","3","3","4","4","4","4","4","4","1","1","1","1","1","1","1","1","4","4","4","4","4","4","4","4","4","4","6","6","6","6","5","4","4","5","5","5","3","5","3","5","3","5","3","5","3","1","3","3","5","3","5","3","5","3","5","3","2","3","5","6","2","6","5","6","2","6","6","2","6","5","5","5","5","3","3","5","718762010250051584","黄","235","Male","[""坏他"",""好我"",""好他"",""坏我""]","[""弱他"",""强我"",""强他"",""弱我""]","","","","","","","","nonmatch","","","","","","","","","","key","f","16.678813559321835","1280","716","f","true","nonmatch","img/trapezoid.png","好他","坏我","ALT2","moral","","","","","","","","",""
"null","<span style='color:GreenYellow; font-size: 70px;'>正确! </span>","null","html-keyboard-response","109","281445","0.0-8.0-0.0-4.0-0.0-1.0","3","3","3","3","3","4","4","4","4","4","4","1","1","1","1","1","1","1","1","4","4","4","4","4","4","4","4","4","4","6","6","6","6","5","4","4","5","5","5","3","5","3","5","3","5","3","5","3","1","3","3","5","3","5","3","5","3","5","3","2","3","5","6","2","6","5","6","2","6","6","2","6","5","5","5","5","3","3","5","718762010250051584","黄","235","Male","[""坏他"",""好我"",""好他"",""坏我""]","[""弱他"",""强我"",""强他"",""弱我""]","","","","","","","","","","","","","","","","","","","","","","","","","","","","","","feedback_test","","","","","","","","",""
"874","","j","psychophysics","110","283320","0.0-8.0-0.0-4.0-0.0-0.1","3","3","3","3","3","4","4","4","4","4","4","1","1","1","1","1","1","1","1","4","4","4","4","4","4","4","4","4","4","6","6","6","6","5","4","4","5","5","5","3","5","3","5","3","5","3","5","3","1","3","3","5","3","5","3","5","3","5","3","2","3","5","6","2","6","5","6","2","6","6","2","6","5","5","5","5","3","3","5","718762010250051584","黄","235","Male","[""坏他"",""好我"",""好他"",""坏我""]","[""弱他"",""强我"",""强他"",""弱我""]","","","","","","","","match","","","","","","","","","","key","j","16.681981981982087","1280","716","j","true","match","img/square.png","好他","好他","ALT2","moral","","","","","","","","",""
"null","<span style='color:GreenYellow; font-size: 70px;'>正确! </span>","null","html-keyboard-response","111","283821","0.0-8.0-0.0-4.0-0.0-1.1","3","3","3","3","3","4","4","4","4","4","4","1","1","1","1","1","1","1","1","4","4","4","4","4","4","4","4","4","4","6","6","6","6","5","4","4","5","5","5","3","5","3","5","3","5","3","5","3","1","3","3","5","3","5","3","5","3","5","3","2","3","5","6","2","6","5","6","2","6","6","2","6","5","5","5","5","3","3","5","718762010250051584","黄","235","Male","[""坏他"",""好我"",""好他"",""坏我""]","[""弱他"",""强我"",""强他"",""弱我""]","","","","","","","","","","","","","","","","","","","","","","","","","","","","","","feedback_test","","","","","","","","",""
"818","","f","psychophysics","112","285640","0.0-8.0-0.0-4.0-0.0-0.2","3","3","3","3","3","4","4","4","4","4","4","1","1","1","1","1","1","1","1","4","4","4","4","4","4","4","4","4","4","6","6","6","6","5","4","4","5","5","5","3","5","3","5","3","5","3","5","3","1","3","3","5","3","5","3","5","3","5","3","2","3","5","6","2","6","5","6","2","6","6","2","6","5","5","5","5","3","3","5","718762010250051584","黄","235","Male","[""坏他"",""好我"",""好他"",""坏我""]","[""弱他"",""强我"",""强他"",""弱我""]","","","","","","","","nonmatch","","","","","","","","","","key","f","16.684259259259473","1280","716","f","true","nonmatch","img/square.png","好我","好他","ALT2","moral","","","","","","","","",""
"null","<span style='color:GreenYellow; font-size: 70px;'>正确! </span>","null","html-keyboard-response","113","286141","0.0-8.0-0.0-4.0-0.0-1.2","3","3","3","3","3","4","4","4","4","4","4","1","1","1","1","1","1","1","1","4","4","4","4","4","4","4","4","4","4","6","6","6","6","5","4","4","5","5","5","3","5","3","5","3","5","3","5","3","1","3","3","5","3","5","3","5","3","5","3","2","3","5","6","2","6","5","6","2","6","6","2","6","5","5","5","5","3","3","5","718762010250051584","黄","235","Male","[""坏他"",""好我"",""好他"",""坏我""]","[""弱他"",""强我"",""强他"",""弱我""]","","","","","","","","","","","","","","","","","","","","","","","","","","","","","","feedback_test","","","","","","","","",""
"1171","","f","psychophysics","114","288312","0.0-8.0-0.0-4.0-0.0-0.3","3","3","3","3","3","4","4","4","4","4","4","1","1","1","1","1","1","1","1","4","4","4","4","4","4","4","4","4","4","6","6","6","6","5","4","4","5","5","5","3","5","3","5","3","5","3","5","3","1","3","3","5","3","5","3","5","3","5","3","2","3","5","6","2","6","5","6","2","6","6","2","6","5","5","5","5","3","3","5","718762010250051584","黄","235","Male","[""坏他"",""好我"",""好他"",""坏我""]","[""弱他"",""强我"",""强他"",""弱我""]","","","","","","","","nonmatch","","","","","","","","","","key","f","16.679844961240402","1280","716","f","true","nonmatch","img/hexagon.png","坏我","好我","ALT2","moral","","","","","","","","",""
"null","<span style='color:GreenYellow; font-size: 70px;'>正确! </span>","null","html-keyboard-response","115","288813","0.0-8.0-0.0-4.0-0.0-1.3","3","3","3","3","3","4","4","4","4","4","4","1","1","1","1","1","1","1","1","4","4","4","4","4","4","4","4","4","4","6","6","6","6","5","4","4","5","5","5","3","5","3","5","3","5","3","5","3","1","3","3","5","3","5","3","5","3","5","3","2","3","5","6","2","6","5","6","2","6","6","2","6","5","5","5","5","3","3","5","718762010250051584","黄","235","Male","[""坏他"",""好我"",""好他"",""坏我""]","[""弱他"",""强我"",""强他"",""弱我""]","","","","","","","","","","","","","","","","","","","","","","","","","","","","","","feedback_test","","","","","","","","",""
"1026","","j","psychophysics","116","290840","0.0-8.0-0.0-4.0-0.0-0.4","3","3","3","3","3","4","4","4","4","4","4","1","1","1","1","1","1","1","1","4","4","4","4","4","4","4","4","4","4","6","6","6","6","5","4","4","5","5","5","3","5","3","5","3","5","3","5","3","1","3","3","5","3","5","3","5","3","5","3","2","3","5","6","2","6","5","6","2","6","6","2","6","5","5","5","5","3","3","5","718762010250051584","黄","235","Male","[""坏他"",""好我"",""好他"",""坏我""]","[""弱他"",""强我"",""强他"",""弱我""]","","","","","","","","match","","","","","","","","","","key","j","16.682500000000193","1280","716","f","false","nonmatch","img/trapezoid.png","好我","坏我","ALT2","moral","","","","","","","","",""
"null","<span style='color:red; font-size: 70px;'>错误! </span>","null","html-keyboard-response","117","291341","0.0-8.0-0.0-4.0-0.0-1.4","3","3","3","3","3","4","4","4","4","4","4","1","1","1","1","1","1","1","1","4","4","4","4","4","4","4","4","4","4","6","6","6","6","5","4","4","5","5","5","3","5","3","5","3","5","3","5","3","1","3","3","5","3","5","3","5","3","5","3","2","3","5","6","2","6","5","6","2","6","6","2","6","5","5","5","5","3","3","5","718762010250051584","黄","235","Male","[""坏他"",""好我"",""好他"",""坏我""]","[""弱他"",""强我"",""强他"",""弱我""]","","","","","","","","","","","","","","","","","","","","","","","","","","","","","","feedback_test","","","","","","","","",""
"705","","j","psychophysics","118","293048","0.0-8.0-0.0-4.0-0.0-0.5","3","3","3","3","3","4","4","4","4","4","4","1","1","1","1","1","1","1","1","4","4","4","4","4","4","4","4","4","4","6","6","6","6","5","4","4","5","5","5","3","5","3","5","3","5","3","5","3","1","3","3","5","3","5","3","5","3","5","3","2","3","5","6","2","6","5","6","2","6","6","2","6","5","5","5","5","3","3","5","718762010250051584","黄","235","Male","[""坏他"",""好我"",""好他"",""坏我""]","[""弱他"",""强我"",""强他"",""弱我""]","","","","","","","","match","","","","","","","","","","key","j","16.681372549019606","1280","716","j","true","match","img/hexagon.png","好我","好我","ALT2","moral","","","","","","","","",""
"null","<span style='color:GreenYellow; font-size: 70px;'>正确! </span>","null","html-keyboard-response","119","293550","0.0-8.0-0.0-4.0-0.0-1.5","3","3","3","3","3","4","4","4","4","4","4","1","1","1","1","1","1","1","1","4","4","4","4","4","4","4","4","4","4","6","6","6","6","5","4","4","5","5","5","3","5","3","5","3","5","3","5","3","1","3","3","5","3","5","3","5","3","5","3","2","3","5","6","2","6","5","6","2","6","6","2","6","5","5","5","5","3","3","5","718762010250051584","黄","235","Male","[""坏他"",""好我"",""好他"",""坏我""]","[""弱他"",""强我"",""强他"",""弱我""]","","","","","","","","","","","","","","","","","","","","","","","","","","","","","","feedback_test","","","","","","","","",""
"856","","f","psychophysics","120","295408","0.0-8.0-0.0-4.0-0.0-0.6","3","3","3","3","3","4","4","4","4","4","4","1","1","1","1","1","1","1","1","4","4","4","4","4","4","4","4","4","4","6","6","6","6","5","4","4","5","5","5","3","5","3","5","3","5","3","5","3","1","3","3","5","3","5","3","5","3","5","3","2","3","5","6","2","6","5","6","2","6","6","2","6","5","5","5","5","3","3","5","718762010250051584","黄","235","Male","[""坏他"",""好我"",""好他"",""坏我""]","[""弱他"",""强我"",""强他"",""弱我""]","","","","","","","","nonmatch","","","","","","","","","","key","f","16.68272727272759","1280","716","j","false","match","img/trapezoid.png","坏我","坏我","ALT2","moral","","","","","","","","",""
"null","<span style='color:red; font-size: 70px;'>错误! </span>","null","html-keyboard-response","121","295909","0.0-8.0-0.0-4.0-0.0-1.6","3","3","3","3","3","4","4","4","4","4","4","1","1","1","1","1","1","1","1","4","4","4","4","4","4","4","4","4","4","6","6","6","6","5","4","4","5","5","5","3","5","3","5","3","5","3","5","3","1","3","3","5","3","5","3","5","3","5","3","2","3","5","6","2","6","5","6","2","6","6","2","6","5","5","5","5","3","3","5","718762010250051584","黄","235","Male","[""坏他"",""好我"",""好他"",""坏我""]","[""弱他"",""强我"",""强他"",""弱我""]","","","","","","","","","","","","","","","","","","","","","","","","","","","","","","feedback_test","","","","","","","","",""
"657","","j","psychophysics","122","297568","0.0-8.0-0.0-4.0-0.0-0.7","3","3","3","3","3","4","4","4","4","4","4","1","1","1","1","1","1","1","1","4","4","4","4","4","4","4","4","4","4","6","6","6","6","5","4","4","5","5","5","3","5","3","5","3","5","3","5","3","1","3","3","5","3","5","3","5","3","5","3","2","3","5","6","2","6","5","6","2","6","6","2","6","5","5","5","5","3","3","5","718762010250051584","黄","235","Male","[""坏他"",""好我"",""好他"",""坏我""]","[""弱他"",""强我"",""强他"",""弱我""]","","","","","","","","match","","","","","","","","","","key","j","16.68469387755138","1280","716","j","true","match","img/trapezoid.png","坏我","坏我","ALT2","moral","","","","","","","","",""
"null","<span style='color:GreenYellow; font-size: 70px;'>正确! </span>","null","html-keyboard-response","123","298069","0.0-8.0-0.0-4.0-0.0-1.7","3","3","3","3","3","4","4","4","4","4","4","1","1","1","1","1","1","1","1","4","4","4","4","4","4","4","4","4","4","6","6","6","6","5","4","4","5","5","5","3","5","3","5","3","5","3","5","3","1","3","3","5","3","5","3","5","3","5","3","2","3","5","6","2","6","5","6","2","6","6","2","6","5","5","5","5","3","3","5","718762010250051584","黄","235","Male","[""坏他"",""好我"",""好他"",""坏我""]","[""弱他"",""强我"",""强他"",""弱我""]","","","","","","","","","","","","","","","","","","","","","","","","","","","","","","feedback_test","","","","","","","","",""
"706","","j","psychophysics","124","299776","0.0-8.0-0.0-4.0-0.0-0.8","3","3","3","3","3","4","4","4","4","4","4","1","1","1","1","1","1","1","1","4","4","4","4","4","4","4","4","4","4","6","6","6","6","5","4","4","5","5","5","3","5","3","5","3","5","3","5","3","1","3","3","5","3","5","3","5","3","5","3","2","3","5","6","2","6","5","6","2","6","6","2","6","5","5","5","5","3","3","5","718762010250051584","黄","235","Male","[""坏他"",""好我"",""好他"",""坏我""]","[""弱他"",""强我"",""强他"",""弱我""]","","","","","","","","match","","","","","","","","","","key","j","16.68019801980152","1280","716","j","true","match","img/hexagon.png","好我","好我","ALT2","moral","","","","","","","","",""
"null","<span style='color:GreenYellow; font-size: 70px;'>正确! </span>","null","html-keyboard-response","125","300280","0.0-8.0-0.0-4.0-0.0-1.8","3","3","3","3","3","4","4","4","4","4","4","1","1","1","1","1","1","1","1","4","4","4","4","4","4","4","4","4","4","6","6","6","6","5","4","4","5","5","5","3","5","3","5","3","5","3","5","3","1","3","3","5","3","5","3","5","3","5","3","2","3","5","6","2","6","5","6","2","6","6","2","6","5","5","5","5","3","3","5","718762010250051584","黄","235","Male","[""坏他"",""好我"",""好他"",""坏我""]","[""弱他"",""强我"",""强他"",""弱我""]","","","","","","","","","","","","","","","","","","","","","","","","","","","","","","feedback_test","","","","","","","","",""
"919","","j","psychophysics","126","302200","0.0-8.0-0.0-4.0-0.0-0.9","3","3","3","3","3","4","4","4","4","4","4","1","1","1","1","1","1","1","1","4","4","4","4","4","4","4","4","4","4","6","6","6","6","5","4","4","5","5","5","3","5","3","5","3","5","3","5","3","1","3","3","5","3","5","3","5","3","5","3","2","3","5","6","2","6","5","6","2","6","6","2","6","5","5","5","5","3","3","5","718762010250051584","黄","235","Male","[""坏他"",""好我"",""好他"",""坏我""]","[""弱他"",""强我"",""强他"",""弱我""]","","","","","","","","match","","","","","","","","","","key","j","16.68421052631579","1280","716","j","true","match","img/square.png","好他","好他","ALT2","moral","","","","","","","","",""
"null","<span style='color:GreenYellow; font-size: 70px;'>正确! </span>","null","html-keyboard-response","127","302701","0.0-8.0-0.0-4.0-0.0-1.9","3","3","3","3","3","4","4","4","4","4","4","1","1","1","1","1","1","1","1","4","4","4","4","4","4","4","4","4","4","6","6","6","6","5","4","4","5","5","5","3","5","3","5","3","5","3","5","3","1","3","3","5","3","5","3","5","3","5","3","2","3","5","6","2","6","5","6","2","6","6","2","6","5","5","5","5","3","3","5","718762010250051584","黄","235","Male","[""坏他"",""好我"",""好他"",""坏我""]","[""弱他"",""强我"",""强他"",""弱我""]","","","","","","","","","","","","","","","","","","","","","","","","","","","","","","feedback_test","","","","","","","","",""
"1009","","j","psychophysics","128","304712","0.0-8.0-0.0-4.0-0.0-0.10","3","3","3","3","3","4","4","4","4","4","4","1","1","1","1","1","1","1","1","4","4","4","4","4","4","4","4","4","4","6","6","6","6","5","4","4","5","5","5","3","5","3","5","3","5","3","5","3","1","3","3","5","3","5","3","5","3","5","3","2","3","5","6","2","6","5","6","2","6","6","2","6","5","5","5","5","3","3","5","718762010250051584","黄","235","Male","[""坏他"",""好我"",""好他"",""坏我""]","[""弱他"",""强我"",""强他"",""弱我""]","","","","","","","","match","","","","","","","","","","key","j","16.683333333333334","1280","716","j","true","match","img/ellipse.png","坏他","坏他","ALT2","moral","","","","","","","","",""
"null","<span style='color:GreenYellow; font-size: 70px;'>正确! </span>","null","html-keyboard-response","129","305212","0.0-8.0-0.0-4.0-0.0-1.10","3","3","3","3","3","4","4","4","4","4","4","1","1","1","1","1","1","1","1","4","4","4","4","4","4","4","4","4","4","6","6","6","6","5","4","4","5","5","5","3","5","3","5","3","5","3","5","3","1","3","3","5","3","5","3","5","3","5","3","2","3","5","6","2","6","5","6","2","6","6","2","6","5","5","5","5","3","3","5","718762010250051584","黄","235","Male","[""坏他"",""好我"",""好他"",""坏我""]","[""弱他"",""强我"",""强他"",""弱我""]","","","","","","","","","","","","","","","","","","","","","","","","","","","","","","feedback_test","","","","","","","","",""
"946","","j","psychophysics","130","307160","0.0-8.0-0.0-4.0-0.0-0.11","3","3","3","3","3","4","4","4","4","4","4","1","1","1","1","1","1","1","1","4","4","4","4","4","4","4","4","4","4","6","6","6","6","5","4","4","5","5","5","3","5","3","5","3","5","3","5","3","1","3","3","5","3","5","3","5","3","5","3","2","3","5","6","2","6","5","6","2","6","6","2","6","5","5","5","5","3","3","5","718762010250051584","黄","235","Male","[""坏他"",""好我"",""好他"",""坏我""]","[""弱他"",""强我"",""强他"",""弱我""]","","","","","","","","match","","","","","","","","","","key","j","16.681896551723938","1280","716","f","false","nonmatch","img/square.png","坏他","好他","ALT2","moral","","","","","","","","",""
"null","<span style='color:red; font-size: 70px;'>错误! </span>","null","html-keyboard-response","131","307660","0.0-8.0-0.0-4.0-0.0-1.11","3","3","3","3","3","4","4","4","4","4","4","1","1","1","1","1","1","1","1","4","4","4","4","4","4","4","4","4","4","6","6","6","6","5","4","4","5","5","5","3","5","3","5","3","5","3","5","3","1","3","3","5","3","5","3","5","3","5","3","2","3","5","6","2","6","5","6","2","6","6","2","6","5","5","5","5","3","3","5","718762010250051584","黄","235","Male","[""坏他"",""好我"",""好他"",""坏我""]","[""弱他"",""强我"",""强他"",""弱我""]","","","","","","","","","","","","","","","","","","","","","","","","","","","","","","feedback_test","","","","","","","","",""
"null","","null","psychophysics","132","309864","0.0-8.0-0.0-4.0-0.0-0.12","3","3","3","3","3","4","4","4","4","4","4","1","1","1","1","1","1","1","1","4","4","4","4","4","4","4","4","4","4","6","6","6","6","5","4","4","5","5","5","3","5","3","5","3","5","3","5","3","1","3","3","5","3","5","3","5","3","5","3","2","3","5","6","2","6","5","6","2","6","6","2","6","5","5","5","5","3","3","5","718762010250051584","黄","235","Male","[""坏他"",""好我"",""好他"",""坏我""]","[""弱他"",""强我"",""强他"",""弱我""]","","","","","","","","null","","","","","","","","","","key","null","16.680152671755547","1280","716","j","false","match","img/trapezoid.png","坏我","坏我","ALT2","moral","","","","","","","","",""
"null","<span class='add_' style='color:yellow; font-size: 70px;'> 太慢! </span>","null","html-keyboard-response","133","310366","0.0-8.0-0.0-4.0-0.0-1.12","3","3","3","3","3","4","4","4","4","4","4","1","1","1","1","1","1","1","1","4","4","4","4","4","4","4","4","4","4","6","6","6","6","5","4","4","5","5","5","3","5","3","5","3","5","3","5","3","1","3","3","5","3","5","3","5","3","5","3","2","3","5","6","2","6","5","6","2","6","6","2","6","5","5","5","5","3","3","5","718762010250051584","黄","235","Male","[""坏他"",""好我"",""好他"",""坏我""]","[""弱他"",""强我"",""强他"",""弱我""]","","","","","","","","","","","","","","","","","","","","","","","","","","","","","","feedback_test","","","","","","","","",""
"969","","f","psychophysics","134","312335","0.0-8.0-0.0-4.0-0.0-0.13","3","3","3","3","3","4","4","4","4","4","4","1","1","1","1","1","1","1","1","4","4","4","4","4","4","4","4","4","4","6","6","6","6","5","4","4","5","5","5","3","5","3","5","3","5","3","5","3","1","3","3","5","3","5","3","5","3","5","3","2","3","5","6","2","6","5","6","2","6","6","2","6","5","5","5","5","3","3","5","718762010250051584","黄","235","Male","[""坏他"",""好我"",""好他"",""坏我""]","[""弱他"",""强我"",""强他"",""弱我""]","","","","","","","","nonmatch","","","","","","","","","","key","f","16.681196581196183","1280","716","f","true","nonmatch","img/hexagon.png","好他","好我","ALT2","moral","","","","","","","","",""
"null","<span style='color:GreenYellow; font-size: 70px;'>正确! </span>","null","html-keyboard-response","135","312836","0.0-8.0-0.0-4.0-0.0-1.13","3","3","3","3","3","4","4","4","4","4","4","1","1","1","1","1","1","1","1","4","4","4","4","4","4","4","4","4","4","6","6","6","6","5","4","4","5","5","5","3","5","3","5","3","5","3","5","3","1","3","3","5","3","5","3","5","3","5","3","2","3","5","6","2","6","5","6","2","6","6","2","6","5","5","5","5","3","3","5","718762010250051584","黄","235","Male","[""坏他"",""好我"",""好他"",""坏我""]","[""弱他"",""强我"",""强他"",""弱我""]","","","","","","","","","","","","","","","","","","","","","","","","","","","","","","feedback_test","","","","","","","","",""
"762","","j","psychophysics","136","314599","0.0-8.0-0.0-4.0-0.0-0.14","3","3","3","3","3","4","4","4","4","4","4","1","1","1","1","1","1","1","1","4","4","4","4","4","4","4","4","4","4","6","6","6","6","5","4","4","5","5","5","3","5","3","5","3","5","3","5","3","1","3","3","5","3","5","3","5","3","5","3","2","3","5","6","2","6","5","6","2","6","6","2","6","5","5","5","5","3","3","5","718762010250051584","黄","235","Male","[""坏他"",""好我"",""好他"",""坏我""]","[""弱他"",""强我"",""强他"",""弱我""]","","","","","","","","match","","","","","","","","","","key","j","16.68095238095238","1280","716","j","true","match","img/hexagon.png","好我","好我","ALT2","moral","","","","","","","","",""
"null","<span style='color:GreenYellow; font-size: 70px;'>正确! </span>","null","html-keyboard-response","137","315101","0.0-8.0-0.0-4.0-0.0-1.14","3","3","3","3","3","4","4","4","4","4","4","1","1","1","1","1","1","1","1","4","4","4","4","4","4","4","4","4","4","6","6","6","6","5","4","4","5","5","5","3","5","3","5","3","5","3","5","3","1","3","3","5","3","5","3","5","3","5","3","2","3","5","6","2","6","5","6","2","6","6","2","6","5","5","5","5","3","3","5","718762010250051584","黄","235","Male","[""坏他"",""好我"",""好他"",""坏我""]","[""弱他"",""强我"",""强他"",""弱我""]","","","","","","","","","","","","","","","","","","","","","","","","","","","","","","feedback_test","","","","","","","","",""
"794","","j","psychophysics","138","316896","0.0-8.0-0.0-4.0-0.0-0.15","3","3","3","3","3","4","4","4","4","4","4","1","1","1","1","1","1","1","1","4","4","4","4","4","4","4","4","4","4","6","6","6","6","5","4","4","5","5","5","3","5","3","5","3","5","3","5","3","1","3","3","5","3","5","3","5","3","5","3","2","3","5","6","2","6","5","6","2","6","6","2","6","5","5","5","5","3","3","5","718762010250051584","黄","235","Male","[""坏他"",""好我"",""好他"",""坏我""]","[""弱他"",""强我"",""强他"",""弱我""]","","","","","","","","match","","","","","","","","","","key","j","16.683962264150942","1280","716","j","true","match","img/ellipse.png","坏他","坏他","ALT2","moral","","","","","","","","",""
