"rt","stimulus","response","trial_type","trial_index","time_elapsed","internal_node_id","swb_1","swb_2","swb_3","swb_4","swb_5","LOT_1","LOT_2","LOT_3","LOT_4","LOT_5","LOT_6","IPC_1","IPC_2","IPC_3","IPC_4","IPC_5","IPC_6","IPC_7","IPC_8","MorIden_1","MorIden_2","MorIden_3","MorIden_4","MorIden_5","MorIden_6","MorIden_7","MorIden_8","MorIden_9","MorIden_10","moralSeImag_1","moralSeImag_2","moralSeImag_3","moralSeImag_4","moralSeImag_5","moralSeImag_6","moralSeImag_7","moralSeImag_8","moralSeImag_9","sde_1","sde_2","sde_3","sde_4","sde_5","sde_6","sde_7","sde_8","sde_9","sde_10","trap2","sde_11","sde_12","sde_13","sde_14","sde_15","sde_16","sde_17","sde_18","sde_19","sde_20","IM_1","IM_2","IM_3","IM_4","IM_5","IM_6","IM_7","IM_8","IM_9","IM_10","IM_11","IM_12","IM_13","IM_14","IM_15","IM_16","IM_17","IM_18","IM_19","IM_20","subj_idx","friend_name","ParticipantID","Sex","Word","Word2","value","success","timeout","failed_images","failed_audio","failed_video","user_agent","responses","item_order","radio_event_ids","radio_event_times","key_event_times","mouse_event_times","straightlining","zigzagging","honeypot","view_history","response_type","key_press","avg_frame_time","center_x","center_y","correct_response","correct","identity","Image","word","condition","task_id","screen_id","time_stamp","person","valence","domain","math","status","duration","question_order","trap2_item"
"3941","
   <p><div style='color:white; font-size: 25px'>您好，欢迎参加本次实验。</div></p>
   <p><div style='color:white; font-size: 25px'>为充分保障您的权利，请确保您已经知晓并同意《参与实验同意书》以及《数据公开知情同意书》。</div></p>
   <p><div style='color:white; font-size: 25px'>如果您未见过上述内容，请咨询实验员。</div></p>
   <p style='color:white; font-size: 25px'>如果您选择继续实验，则表示您已经清楚两份知情同意书的内容并同意。</p>
   <p><div style = ""color: pink;font-size:30px;"">请确保您记得day0的实验编号，您将在本次实验输入该编号，若您忘记，请咨询实验员后作答。</div></p>
   <p><div style = ""color:lightblue;font-size:25px;"">请您尽可能认真地作答，我们将依据您在各问卷和按键任务中的作答质量发放报酬。</div></p>
   <p> <div style = ""color: green""><按空格键至下页></div> </p>
   "," ","html-keyboard-response","0","3943","0.0-0.0","5","4","5","2","3","4","4","4","5","5","5","0","-1","1","1","0","0","2","0","4","3","5","3","2","5","4","4","4","5","5","6","6","8","7","7","6","5","7","5","2","3","4","5","3","6","6","5","3","1","4","3","5","2","4","3","5","2","5","5","3","4","2","3","3","5","2","5","1","5","5","4","3","2","3","3","2","5","3","3","787033502335111170","何","632","Male","[""坏我"",""好他"",""好我"",""坏他""]","[""弱我"",""强他"",""强我"",""弱他""]","","","","","","","","","","","","","","","","","","","","","","","","","","","","","","","","","","","","","","",""
"","","","call-function","1","3943","0.0-1.0-0.0","5","4","5","2","3","4","4","4","5","5","5","0","-1","1","1","0","0","2","0","4","3","5","3","2","5","4","4","4","5","5","6","6","8","7","7","6","5","7","5","2","3","4","5","3","6","6","5","3","1","4","3","5","2","4","3","5","2","5","5","3","4","2","3","3","5","2","5","1","5","5","4","3","2","3","3","2","5","3","3","787033502335111170","何","632","Male","[""坏我"",""好他"",""好我"",""坏他""]","[""弱我"",""强他"",""强我"",""弱他""]","","","","","","","","","","","","","","","","","","","","","","","","","","","","","","","","","","","","","","",""
"21019","","[{""name"":""Sex"",""value"":""0""},{""name"":""friend_name"",""value"":""何""},{""name"":""ParticipantID"",""value"":""632""}]","survey-html-form","2","24964","0.0-1.0-1.0","5","4","5","2","3","4","4","4","5","5","5","0","-1","1","1","0","0","2","0","4","3","5","3","2","5","4","4","4","5","5","6","6","8","7","7","6","5","7","5","2","3","4","5","3","6","6","5","3","1","4","3","5","2","4","3","5","2","5","5","3","4","2","3","3","5","2","5","1","5","5","4","3","2","3","3","2","5","3","3","787033502335111170","何","632","Male","[""坏我"",""好他"",""好我"",""坏他""]","[""弱我"",""强他"",""强我"",""弱他""]","","","","","","","","","","","","","","","","","","","","","","","","","","","","","","","","","","","","","","",""
"","","","preload","3","25608","0.0-2.0","5","4","5","2","3","4","4","4","5","5","5","0","-1","1","1","0","0","2","0","4","3","5","3","2","5","4","4","4","5","5","6","6","8","7","7","6","5","7","5","2","3","4","5","3","6","6","5","3","1","4","3","5","2","4","3","5","2","5","5","3","4","2","3","3","5","2","5","1","5","5","4","3","2","3","3","2","5","3","3","787033502335111170","何","632","Male","[""坏我"",""好他"",""好我"",""坏他""]","[""弱我"",""强他"",""强我"",""弱他""]","","true","false","[]","[]","[]","","","","","","","","","","","","","","","","","","","","","","","","","","","","","","","","",""
"","","","fullscreen","4","33802","0.0-3.0","5","4","5","2","3","4","4","4","5","5","5","0","-1","1","1","0","0","2","0","4","3","5","3","2","5","4","4","4","5","5","6","6","8","7","7","6","5","7","5","2","3","4","5","3","6","6","5","3","1","4","3","5","2","4","3","5","2","5","5","3","4","2","3","3","5","2","5","1","5","5","4","3","2","3","3","2","5","3","3","787033502335111170","何","632","Male","[""坏我"",""好他"",""好我"",""坏他""]","[""弱我"",""强他"",""强我"",""弱他""]","","true","","","","","","","","","","","","","","","","","","","","","","","","","","","","","","","","","","","","",""
"12220","","{""Q01"":""5"",""Q02"":""4"",""Q03"":""5"",""Q04"":""2"",""Q05"":""3""}","survey-template","5","46025","0.0-4.0","5","4","5","2","3","4","4","4","5","5","5","0","-1","1","1","0","0","2","0","4","3","5","3","2","5","4","4","4","5","5","6","6","8","7","7","6","5","7","5","2","3","4","5","3","6","6","5","3","1","4","3","5","2","4","3","5","2","5","5","3","4","2","3","3","5","2","5","1","5","5","4","3","2","3","3","2","5","3","3","787033502335111170","何","632","Male","[""坏我"",""好他"",""好我"",""坏他""]","[""弱我"",""强他"",""强我"",""弱他""]","","","","","","","","{""Q01"":""5"",""Q02"":""4"",""Q03"":""5"",""Q04"":""2"",""Q05"":""3""}","[0,1,2,3,4]","[""Q01"",""Q02"",""Q03"",""Q04"",""Q05""]","[4175,5082,6316,9480,10939]","[]","[3316,4175,5082,6316,9480,10939,12220]","0.4","0.75","0","","","","","","","","","","","","","","","","","","","","","","",""
"15139","","{""Q01"":""4"",""Q02"":""4"",""Q03"":""4"",""Q04"":""5"",""Q05"":""5"",""Q06"":""5""}","survey-template","6","61167","0.0-5.0","5","4","5","2","3","4","4","4","5","5","5","0","-1","1","1","0","0","2","0","4","3","5","3","2","5","4","4","4","5","5","6","6","8","7","7","6","5","7","5","2","3","4","5","3","6","6","5","3","1","4","3","5","2","4","3","5","2","5","5","3","4","2","3","3","5","2","5","1","5","5","4","3","2","3","3","2","5","3","3","787033502335111170","何","632","Male","[""坏我"",""好他"",""好我"",""坏他""]","[""弱我"",""强他"",""强我"",""弱他""]","","","","","","","","{""Q01"":""4"",""Q02"":""4"",""Q03"":""4"",""Q04"":""5"",""Q05"":""5"",""Q06"":""5""}","[0,1,2,3,4,5]","[""Q01"",""Q02"",""Q03"",""Q04"",""Q05"",""Q06""]","[2216,5209,6357,9005,9834,14172]","[]","[2216,5209,6357,9005,9834,12596,13652,14172,15139]","0.3333333333333333","0.2","0","","","","","","","","","","","","","","","","","","","","","","",""
"16695","","{""Q01"":""0"",""Q02"":""-1"",""Q03"":""1"",""Q04"":""1"",""Q05"":""0"",""Q06"":""0"",""Q07"":""2"",""Q08"":""0""}","survey-template","7","77864","0.0-6.0","5","4","5","2","3","4","4","4","5","5","5","0","-1","1","1","0","0","2","0","4","3","5","3","2","5","4","4","4","5","5","6","6","8","7","7","6","5","7","5","2","3","4","5","3","6","6","5","3","1","4","3","5","2","4","3","5","2","5","5","3","4","2","3","3","5","2","5","1","5","5","4","3","2","3","3","2","5","3","3","787033502335111170","何","632","Male","[""坏我"",""好他"",""好我"",""坏他""]","[""弱我"",""强他"",""强我"",""弱他""]","","","","","","","","{""Q01"":""0"",""Q02"":""-1"",""Q03"":""1"",""Q04"":""1"",""Q05"":""0"",""Q06"":""0"",""Q07"":""2"",""Q08"":""0""}","[0,1,2,3,4,5,6,7]","[""Q01"",""Q02"",""Q03"",""Q04"",""Q05"",""Q06"",""Q07"",""Q08""]","[2725,5138,7594,9016,10323,11153,14377,15906]","[]","[2725,5138,7594,9016,10323,11153,14377,15906,16695]","0.5","0.2857142857142857","0","","","","","","","","","","","","","","","","","","","","","","",""
"13216","","","instructions","8","91081","0.0-7.0","5","4","5","2","3","4","4","4","5","5","5","0","-1","1","1","0","0","2","0","4","3","5","3","2","5","4","4","4","5","5","6","6","8","7","7","6","5","7","5","2","3","4","5","3","6","6","5","3","1","4","3","5","2","4","3","5","2","5","5","3","4","2","3","3","5","2","5","1","5","5","4","3","2","3","3","2","5","3","3","787033502335111170","何","632","Male","[""坏我"",""好他"",""好我"",""坏他""]","[""弱我"",""强他"",""强我"",""弱他""]","","","","","","","","","","","","","","","","","[{""page_index"":0,""viewing_time"":13216}]","","","","","","","","","","","","","","","","","","","","","",""
"74761","","","instructions","9","165842","0.0-8.0-0.0-0.0","5","4","5","2","3","4","4","4","5","5","5","0","-1","1","1","0","0","2","0","4","3","5","3","2","5","4","4","4","5","5","6","6","8","7","7","6","5","7","5","2","3","4","5","3","6","6","5","3","1","4","3","5","2","4","3","5","2","5","5","3","4","2","3","3","5","2","5","1","5","5","4","3","2","3","3","2","5","3","3","787033502335111170","何","632","Male","[""坏我"",""好他"",""好我"",""坏他""]","[""弱我"",""强他"",""强我"",""弱他""]","","","","","","","","","","","","","","","","","[{""page_index"":0,""viewing_time"":13949},{""page_index"":1,""viewing_time"":37832},{""page_index"":2,""viewing_time"":4883},{""page_index"":3,""viewing_time"":2667},{""page_index"":2,""viewing_time"":1735},{""page_index"":1,""viewing_time"":10710},{""page_index"":2,""viewing_time"":1766},{""page_index"":3,""viewing_time"":1219}]","","","","","","","","","","","","","","","","","","","","","",""
"null","","null","psychophysics","10","168052","0.0-8.0-0.0-1.0-0.0-0.0","5","4","5","2","3","4","4","4","5","5","5","0","-1","1","1","0","0","2","0","4","3","5","3","2","5","4","4","4","5","5","6","6","8","7","7","6","5","7","5","2","3","4","5","3","6","6","5","3","1","4","3","5","2","4","3","5","2","5","5","3","4","2","3","3","5","2","5","1","5","5","4","3","2","3","3","2","5","3","3","787033502335111170","何","632","Male","[""坏我"",""好他"",""好我"",""坏他""]","[""弱我"",""强他"",""强我"",""弱他""]","","","","","","","","null","","","","","","","","","","key","null","16.66458015267174","640","356","j","false","nonmatch","img/pentagon.png","好他","坏他","prac_ALT2_moral","practice_moral","","","","","","","","",""
"null","<span class='add_' style='color:yellow; font-size: 70px;'> 太慢! </span>","null","html-keyboard-response","11","168567","0.0-8.0-0.0-1.0-0.0-1.0","5","4","5","2","3","4","4","4","5","5","5","0","-1","1","1","0","0","2","0","4","3","5","3","2","5","4","4","4","5","5","6","6","8","7","7","6","5","7","5","2","3","4","5","3","6","6","5","3","1","4","3","5","2","4","3","5","2","5","5","3","4","2","3","3","5","2","5","1","5","5","4","3","2","3","3","2","5","3","3","787033502335111170","何","632","Male","[""坏我"",""好他"",""好我"",""坏他""]","[""弱我"",""强他"",""强我"",""弱他""]","","","","","","","","","","","","","","","","","","","","","","","","","","","","","","feedback_test","","","","","","","","",""
"844","","j","psychophysics","12","170422","0.0-8.0-0.0-1.0-0.0-0.1","5","4","5","2","3","4","4","4","5","5","5","0","-1","1","1","0","0","2","0","4","3","5","3","2","5","4","4","4","5","5","6","6","8","7","7","6","5","7","5","2","3","4","5","3","6","6","5","3","1","4","3","5","2","4","3","5","2","5","5","3","4","2","3","3","5","2","5","1","5","5","4","3","2","3","3","2","5","3","3","787033502335111170","何","632","Male","[""坏我"",""好他"",""好我"",""坏他""]","[""弱我"",""强他"",""强我"",""弱他""]","","","","","","","","nonmatch","","","","","","","","","","key","j","16.664000000000073","640","356","j","true","nonmatch","img/triangle.png","坏我","好我","prac_ALT2_moral","practice_moral","","","","","","","","",""
"null","<span style='color:GreenYellow; font-size: 70px;'>正确! </span>","null","html-keyboard-response","13","170937","0.0-8.0-0.0-1.0-0.0-1.1","5","4","5","2","3","4","4","4","5","5","5","0","-1","1","1","0","0","2","0","4","3","5","3","2","5","4","4","4","5","5","6","6","8","7","7","6","5","7","5","2","3","4","5","3","6","6","5","3","1","4","3","5","2","4","3","5","2","5","5","3","4","2","3","3","5","2","5","1","5","5","4","3","2","3","3","2","5","3","3","787033502335111170","何","632","Male","[""坏我"",""好他"",""好我"",""坏他""]","[""弱我"",""强他"",""强我"",""弱他""]","","","","","","","","","","","","","","","","","","","","","","","","","","","","","","feedback_test","","","","","","","","",""
"943","","f","psychophysics","14","172896","0.0-8.0-0.0-1.0-0.0-0.2","5","4","5","2","3","4","4","4","5","5","5","0","-1","1","1","0","0","2","0","4","3","5","3","2","5","4","4","4","5","5","6","6","8","7","7","6","5","7","5","2","3","4","5","3","6","6","5","3","1","4","3","5","2","4","3","5","2","5","5","3","4","2","3","3","5","2","5","1","5","5","4","3","2","3","3","2","5","3","3","787033502335111170","何","632","Male","[""坏我"",""好他"",""好我"",""坏他""]","[""弱我"",""强他"",""强我"",""弱他""]","","","","","","","","match","","","","","","","","","","key","f","16.66448275862058","640","356","f","true","match","img/pentagon.png","坏他","坏他","prac_ALT2_moral","practice_moral","","","","","","","","",""
"null","<span style='color:GreenYellow; font-size: 70px;'>正确! </span>","null","html-keyboard-response","15","173409","0.0-8.0-0.0-1.0-0.0-1.2","5","4","5","2","3","4","4","4","5","5","5","0","-1","1","1","0","0","2","0","4","3","5","3","2","5","4","4","4","5","5","6","6","8","7","7","6","5","7","5","2","3","4","5","3","6","6","5","3","1","4","3","5","2","4","3","5","2","5","5","3","4","2","3","3","5","2","5","1","5","5","4","3","2","3","3","2","5","3","3","787033502335111170","何","632","Male","[""坏我"",""好他"",""好我"",""坏他""]","[""弱我"",""强他"",""强我"",""弱他""]","","","","","","","","","","","","","","","","","","","","","","","","","","","","","","feedback_test","","","","","","","","",""
"1030","","j","psychophysics","16","175441","0.0-8.0-0.0-1.0-0.0-0.3","5","4","5","2","3","4","4","4","5","5","5","0","-1","1","1","0","0","2","0","4","3","5","3","2","5","4","4","4","5","5","6","6","8","7","7","6","5","7","5","2","3","4","5","3","6","6","5","3","1","4","3","5","2","4","3","5","2","5","5","3","4","2","3","3","5","2","5","1","5","5","4","3","2","3","3","2","5","3","3","787033502335111170","何","632","Male","[""坏我"",""好他"",""好我"",""坏他""]","[""弱我"",""强他"",""强我"",""弱他""]","","","","","","","","nonmatch","","","","","","","","","","key","j","16.6613223140495","640","356","f","false","match","img/ellipse.png","坏我","坏我","prac_ALT2_moral","practice_moral","","","","","","","","",""
"null","<span style='color:red; font-size: 70px;'>错误! </span>","null","html-keyboard-response","17","176001","0.0-8.0-0.0-1.0-0.0-1.3","5","4","5","2","3","4","4","4","5","5","5","0","-1","1","1","0","0","2","0","4","3","5","3","2","5","4","4","4","5","5","6","6","8","7","7","6","5","7","5","2","3","4","5","3","6","6","5","3","1","4","3","5","2","4","3","5","2","5","5","3","4","2","3","3","5","2","5","1","5","5","4","3","2","3","3","2","5","3","3","787033502335111170","何","632","Male","[""坏我"",""好他"",""好我"",""坏他""]","[""弱我"",""强他"",""强我"",""弱他""]","","","","","","","","","","","","","","","","","","","","","","","","","","","","","","feedback_test","","","","","","","","",""
"1092","","j","psychophysics","18","178096","0.0-8.0-0.0-1.0-0.0-0.4","5","4","5","2","3","4","4","4","5","5","5","0","-1","1","1","0","0","2","0","4","3","5","3","2","5","4","4","4","5","5","6","6","8","7","7","6","5","7","5","2","3","4","5","3","6","6","5","3","1","4","3","5","2","4","3","5","2","5","5","3","4","2","3","3","5","2","5","1","5","5","4","3","2","3","3","2","5","3","3","787033502335111170","何","632","Male","[""坏我"",""好他"",""好我"",""坏他""]","[""弱我"",""强他"",""强我"",""弱他""]","","","","","","","","nonmatch","","","","","","","","","","key","j","16.663870967741993","640","356","f","false","match","img/square.png","好他","好他","prac_ALT2_moral","practice_moral","","","","","","","","",""
"null","<span style='color:red; font-size: 70px;'>错误! </span>","null","html-keyboard-response","19","178596","0.0-8.0-0.0-1.0-0.0-1.4","5","4","5","2","3","4","4","4","5","5","5","0","-1","1","1","0","0","2","0","4","3","5","3","2","5","4","4","4","5","5","6","6","8","7","7","6","5","7","5","2","3","4","5","3","6","6","5","3","1","4","3","5","2","4","3","5","2","5","5","3","4","2","3","3","5","2","5","1","5","5","4","3","2","3","3","2","5","3","3","787033502335111170","何","632","Male","[""坏我"",""好他"",""好我"",""坏他""]","[""弱我"",""强他"",""强我"",""弱他""]","","","","","","","","","","","","","","","","","","","","","","","","","","","","","","feedback_test","","","","","","","","",""
"702","","f","psychophysics","20","180313","0.0-8.0-0.0-1.0-0.0-0.5","5","4","5","2","3","4","4","4","5","5","5","0","-1","1","1","0","0","2","0","4","3","5","3","2","5","4","4","4","5","5","6","6","8","7","7","6","5","7","5","2","3","4","5","3","6","6","5","3","1","4","3","5","2","4","3","5","2","5","5","3","4","2","3","3","5","2","5","1","5","5","4","3","2","3","3","2","5","3","3","787033502335111170","何","632","Male","[""坏我"",""好他"",""好我"",""坏他""]","[""弱我"",""强他"",""强我"",""弱他""]","","","","","","","","match","","","","","","","","","","key","f","16.664509803921558","640","356","f","true","match","img/square.png","好他","好他","prac_ALT2_moral","practice_moral","","","","","","","","",""
"null","<span style='color:GreenYellow; font-size: 70px;'>正确! </span>","null","html-keyboard-response","21","180860","0.0-8.0-0.0-1.0-0.0-1.5","5","4","5","2","3","4","4","4","5","5","5","0","-1","1","1","0","0","2","0","4","3","5","3","2","5","4","4","4","5","5","6","6","8","7","7","6","5","7","5","2","3","4","5","3","6","6","5","3","1","4","3","5","2","4","3","5","2","5","5","3","4","2","3","3","5","2","5","1","5","5","4","3","2","3","3","2","5","3","3","787033502335111170","何","632","Male","[""坏我"",""好他"",""好我"",""坏他""]","[""弱我"",""强他"",""强我"",""弱他""]","","","","","","","","","","","","","","","","","","","","","","","","","","","","","","feedback_test","","","","","","","","",""
"621","","f","psychophysics","22","182494","0.0-8.0-0.0-1.0-0.0-0.6","5","4","5","2","3","4","4","4","5","5","5","0","-1","1","1","0","0","2","0","4","3","5","3","2","5","4","4","4","5","5","6","6","8","7","7","6","5","7","5","2","3","4","5","3","6","6","5","3","1","4","3","5","2","4","3","5","2","5","5","3","4","2","3","3","5","2","5","1","5","5","4","3","2","3","3","2","5","3","3","787033502335111170","何","632","Male","[""坏我"",""好他"",""好我"",""坏他""]","[""弱我"",""强他"",""强我"",""弱他""]","","","","","","","","match","","","","","","","","","","key","f","16.66432989690724","640","356","f","true","match","img/square.png","好他","好他","prac_ALT2_moral","practice_moral","","","","","","","","",""
"null","<span style='color:GreenYellow; font-size: 70px;'>正确! </span>","null","html-keyboard-response","23","182999","0.0-8.0-0.0-1.0-0.0-1.6","5","4","5","2","3","4","4","4","5","5","5","0","-1","1","1","0","0","2","0","4","3","5","3","2","5","4","4","4","5","5","6","6","8","7","7","6","5","7","5","2","3","4","5","3","6","6","5","3","1","4","3","5","2","4","3","5","2","5","5","3","4","2","3","3","5","2","5","1","5","5","4","3","2","3","3","2","5","3","3","787033502335111170","何","632","Male","[""坏我"",""好他"",""好我"",""坏他""]","[""弱我"",""强他"",""强我"",""弱他""]","","","","","","","","","","","","","","","","","","","","","","","","","","","","","","feedback_test","","","","","","","","",""
"628","","f","psychophysics","24","184642","0.0-8.0-0.0-1.0-0.0-0.7","5","4","5","2","3","4","4","4","5","5","5","0","-1","1","1","0","0","2","0","4","3","5","3","2","5","4","4","4","5","5","6","6","8","7","7","6","5","7","5","2","3","4","5","3","6","6","5","3","1","4","3","5","2","4","3","5","2","5","5","3","4","2","3","3","5","2","5","1","5","5","4","3","2","3","3","2","5","3","3","787033502335111170","何","632","Male","[""坏我"",""好他"",""好我"",""坏他""]","[""弱我"",""强他"",""强我"",""弱他""]","","","","","","","","match","","","","","","","","","","key","f","16.663092783504926","640","356","f","true","match","img/pentagon.png","坏他","坏他","prac_ALT2_moral","practice_moral","","","","","","","","",""
"null","<span style='color:GreenYellow; font-size: 70px;'>正确! </span>","null","html-keyboard-response","25","185154","0.0-8.0-0.0-1.0-0.0-1.7","5","4","5","2","3","4","4","4","5","5","5","0","-1","1","1","0","0","2","0","4","3","5","3","2","5","4","4","4","5","5","6","6","8","7","7","6","5","7","5","2","3","4","5","3","6","6","5","3","1","4","3","5","2","4","3","5","2","5","5","3","4","2","3","3","5","2","5","1","5","5","4","3","2","3","3","2","5","3","3","787033502335111170","何","632","Male","[""坏我"",""好他"",""好我"",""坏他""]","[""弱我"",""强他"",""强我"",""弱他""]","","","","","","","","","","","","","","","","","","","","","","","","","","","","","","feedback_test","","","","","","","","",""
"897","","f","psychophysics","26","187066","0.0-8.0-0.0-1.0-0.0-0.8","5","4","5","2","3","4","4","4","5","5","5","0","-1","1","1","0","0","2","0","4","3","5","3","2","5","4","4","4","5","5","6","6","8","7","7","6","5","7","5","2","3","4","5","3","6","6","5","3","1","4","3","5","2","4","3","5","2","5","5","3","4","2","3","3","5","2","5","1","5","5","4","3","2","3","3","2","5","3","3","787033502335111170","何","632","Male","[""坏我"",""好他"",""好我"",""坏他""]","[""弱我"",""强他"",""强我"",""弱他""]","","","","","","","","match","","","","","","","","","","key","f","16.664070796460248","640","356","j","false","nonmatch","img/pentagon.png","好我","坏他","prac_ALT2_moral","practice_moral","","","","","","","","",""
"null","<span style='color:red; font-size: 70px;'>错误! </span>","null","html-keyboard-response","27","187574","0.0-8.0-0.0-1.0-0.0-1.8","5","4","5","2","3","4","4","4","5","5","5","0","-1","1","1","0","0","2","0","4","3","5","3","2","5","4","4","4","5","5","6","6","8","7","7","6","5","7","5","2","3","4","5","3","6","6","5","3","1","4","3","5","2","4","3","5","2","5","5","3","4","2","3","3","5","2","5","1","5","5","4","3","2","3","3","2","5","3","3","787033502335111170","何","632","Male","[""坏我"",""好他"",""好我"",""坏他""]","[""弱我"",""强他"",""强我"",""弱他""]","","","","","","","","","","","","","","","","","","","","","","","","","","","","","","feedback_test","","","","","","","","",""
"752","","f","psychophysics","28","189326","0.0-8.0-0.0-1.0-0.0-0.9","5","4","5","2","3","4","4","4","5","5","5","0","-1","1","1","0","0","2","0","4","3","5","3","2","5","4","4","4","5","5","6","6","8","7","7","6","5","7","5","2","3","4","5","3","6","6","5","3","1","4","3","5","2","4","3","5","2","5","5","3","4","2","3","3","5","2","5","1","5","5","4","3","2","3","3","2","5","3","3","787033502335111170","何","632","Male","[""坏我"",""好他"",""好我"",""坏他""]","[""弱我"",""强他"",""强我"",""弱他""]","","","","","","","","match","","","","","","","","","","key","f","16.664230769230926","640","356","f","true","match","img/triangle.png","好我","好我","prac_ALT2_moral","practice_moral","","","","","","","","",""
"null","<span style='color:GreenYellow; font-size: 70px;'>正确! </span>","null","html-keyboard-response","29","189837","0.0-8.0-0.0-1.0-0.0-1.9","5","4","5","2","3","4","4","4","5","5","5","0","-1","1","1","0","0","2","0","4","3","5","3","2","5","4","4","4","5","5","6","6","8","7","7","6","5","7","5","2","3","4","5","3","6","6","5","3","1","4","3","5","2","4","3","5","2","5","5","3","4","2","3","3","5","2","5","1","5","5","4","3","2","3","3","2","5","3","3","787033502335111170","何","632","Male","[""坏我"",""好他"",""好我"",""坏他""]","[""弱我"",""强他"",""强我"",""弱他""]","","","","","","","","","","","","","","","","","","","","","","","","","","","","","","feedback_test","","","","","","","","",""
"683","","f","psychophysics","30","191523","0.0-8.0-0.0-1.0-0.0-0.10","5","4","5","2","3","4","4","4","5","5","5","0","-1","1","1","0","0","2","0","4","3","5","3","2","5","4","4","4","5","5","6","6","8","7","7","6","5","7","5","2","3","4","5","3","6","6","5","3","1","4","3","5","2","4","3","5","2","5","5","3","4","2","3","3","5","2","5","1","5","5","4","3","2","3","3","2","5","3","3","787033502335111170","何","632","Male","[""坏我"",""好他"",""好我"",""坏他""]","[""弱我"",""强他"",""强我"",""弱他""]","","","","","","","","match","","","","","","","","","","key","f","16.66399999999994","640","356","f","true","match","img/ellipse.png","坏我","坏我","prac_ALT2_moral","practice_moral","","","","","","","","",""
"null","<span style='color:GreenYellow; font-size: 70px;'>正确! </span>","null","html-keyboard-response","31","192024","0.0-8.0-0.0-1.0-0.0-1.10","5","4","5","2","3","4","4","4","5","5","5","0","-1","1","1","0","0","2","0","4","3","5","3","2","5","4","4","4","5","5","6","6","8","7","7","6","5","7","5","2","3","4","5","3","6","6","5","3","1","4","3","5","2","4","3","5","2","5","5","3","4","2","3","3","5","2","5","1","5","5","4","3","2","3","3","2","5","3","3","787033502335111170","何","632","Male","[""坏我"",""好他"",""好我"",""坏他""]","[""弱我"",""强他"",""强我"",""弱他""]","","","","","","","","","","","","","","","","","","","","","","","","","","","","","","feedback_test","","","","","","","","",""
"850","","j","psychophysics","32","193889","0.0-8.0-0.0-1.0-0.0-0.11","5","4","5","2","3","4","4","4","5","5","5","0","-1","1","1","0","0","2","0","4","3","5","3","2","5","4","4","4","5","5","6","6","8","7","7","6","5","7","5","2","3","4","5","3","6","6","5","3","1","4","3","5","2","4","3","5","2","5","5","3","4","2","3","3","5","2","5","1","5","5","4","3","2","3","3","2","5","3","3","787033502335111170","何","632","Male","[""坏我"",""好他"",""好我"",""坏他""]","[""弱我"",""强他"",""强我"",""弱他""]","","","","","","","","nonmatch","","","","","","","","","","key","j","16.587678571428373","640","356","j","true","nonmatch","img/square.png","坏他","好他","prac_ALT2_moral","practice_moral","","","","","","","","",""
"null","<span style='color:GreenYellow; font-size: 70px;'>正确! </span>","null","html-keyboard-response","33","194400","0.0-8.0-0.0-1.0-0.0-1.11","5","4","5","2","3","4","4","4","5","5","5","0","-1","1","1","0","0","2","0","4","3","5","3","2","5","4","4","4","5","5","6","6","8","7","7","6","5","7","5","2","3","4","5","3","6","6","5","3","1","4","3","5","2","4","3","5","2","5","5","3","4","2","3","3","5","2","5","1","5","5","4","3","2","3","3","2","5","3","3","787033502335111170","何","632","Male","[""坏我"",""好他"",""好我"",""坏他""]","[""弱我"",""强他"",""强我"",""弱他""]","","","","","","","","","","","","","","","","","","","","","","","","","","","","","","feedback_test","","","","","","","","",""
"856","","f","psychophysics","34","196258","0.0-8.0-0.0-1.0-0.0-0.12","5","4","5","2","3","4","4","4","5","5","5","0","-1","1","1","0","0","2","0","4","3","5","3","2","5","4","4","4","5","5","6","6","8","7","7","6","5","7","5","2","3","4","5","3","6","6","5","3","1","4","3","5","2","4","3","5","2","5","5","3","4","2","3","3","5","2","5","1","5","5","4","3","2","3","3","2","5","3","3","787033502335111170","何","632","Male","[""坏我"",""好他"",""好我"",""坏他""]","[""弱我"",""强他"",""强我"",""弱他""]","","","","","","","","match","","","","","","","","","","key","f","16.664181818181795","640","356","f","true","match","img/pentagon.png","坏他","坏他","prac_ALT2_moral","practice_moral","","","","","","","","",""
"null","<span style='color:GreenYellow; font-size: 70px;'>正确! </span>","null","html-keyboard-response","35","196771","0.0-8.0-0.0-1.0-0.0-1.12","5","4","5","2","3","4","4","4","5","5","5","0","-1","1","1","0","0","2","0","4","3","5","3","2","5","4","4","4","5","5","6","6","8","7","7","6","5","7","5","2","3","4","5","3","6","6","5","3","1","4","3","5","2","4","3","5","2","5","5","3","4","2","3","3","5","2","5","1","5","5","4","3","2","3","3","2","5","3","3","787033502335111170","何","632","Male","[""坏我"",""好他"",""好我"",""坏他""]","[""弱我"",""强他"",""强我"",""弱他""]","","","","","","","","","","","","","","","","","","","","","","","","","","","","","","feedback_test","","","","","","","","",""
"885","","j","psychophysics","36","198671","0.0-8.0-0.0-1.0-0.0-0.13","5","4","5","2","3","4","4","4","5","5","5","0","-1","1","1","0","0","2","0","4","3","5","3","2","5","4","4","4","5","5","6","6","8","7","7","6","5","7","5","2","3","4","5","3","6","6","5","3","1","4","3","5","2","4","3","5","2","5","5","3","4","2","3","3","5","2","5","1","5","5","4","3","2","3","3","2","5","3","3","787033502335111170","何","632","Male","[""坏我"",""好他"",""好我"",""坏他""]","[""弱我"",""强他"",""强我"",""弱他""]","","","","","","","","nonmatch","","","","","","","","","","key","j","16.66442477876095","640","356","j","true","nonmatch","img/ellipse.png","好他","坏我","prac_ALT2_moral","practice_moral","","","","","","","","",""
"null","<span style='color:GreenYellow; font-size: 70px;'>正确! </span>","null","html-keyboard-response","37","199180","0.0-8.0-0.0-1.0-0.0-1.13","5","4","5","2","3","4","4","4","5","5","5","0","-1","1","1","0","0","2","0","4","3","5","3","2","5","4","4","4","5","5","6","6","8","7","7","6","5","7","5","2","3","4","5","3","6","6","5","3","1","4","3","5","2","4","3","5","2","5","5","3","4","2","3","3","5","2","5","1","5","5","4","3","2","3","3","2","5","3","3","787033502335111170","何","632","Male","[""坏我"",""好他"",""好我"",""坏他""]","[""弱我"",""强他"",""强我"",""弱他""]","","","","","","","","","","","","","","","","","","","","","","","","","","","","","","feedback_test","","","","","","","","",""
"1011","","j","psychophysics","38","201284","0.0-8.0-0.0-1.0-0.0-0.14","5","4","5","2","3","4","4","4","5","5","5","0","-1","1","1","0","0","2","0","4","3","5","3","2","5","4","4","4","5","5","6","6","8","7","7","6","5","7","5","2","3","4","5","3","6","6","5","3","1","4","3","5","2","4","3","5","2","5","5","3","4","2","3","3","5","2","5","1","5","5","4","3","2","3","3","2","5","3","3","787033502335111170","何","632","Male","[""坏我"",""好他"",""好我"",""坏他""]","[""弱我"",""强他"",""强我"",""弱他""]","","","","","","","","nonmatch","","","","","","","","","","key","j","16.66447999999998","640","356","f","false","match","img/triangle.png","好我","好我","prac_ALT2_moral","practice_moral","","","","","","","","",""
"null","<span style='color:red; font-size: 70px;'>错误! </span>","null","html-keyboard-response","39","201790","0.0-8.0-0.0-1.0-0.0-1.14","5","4","5","2","3","4","4","4","5","5","5","0","-1","1","1","0","0","2","0","4","3","5","3","2","5","4","4","4","5","5","6","6","8","7","7","6","5","7","5","2","3","4","5","3","6","6","5","3","1","4","3","5","2","4","3","5","2","5","5","3","4","2","3","3","5","2","5","1","5","5","4","3","2","3","3","2","5","3","3","787033502335111170","何","632","Male","[""坏我"",""好他"",""好我"",""坏他""]","[""弱我"",""强他"",""强我"",""弱他""]","","","","","","","","","","","","","","","","","","","","","","","","","","","","","","feedback_test","","","","","","","","",""
"970","","j","psychophysics","40","203761","0.0-8.0-0.0-1.0-0.0-0.15","5","4","5","2","3","4","4","4","5","5","5","0","-1","1","1","0","0","2","0","4","3","5","3","2","5","4","4","4","5","5","6","6","8","7","7","6","5","7","5","2","3","4","5","3","6","6","5","3","1","4","3","5","2","4","3","5","2","5","5","3","4","2","3","3","5","2","5","1","5","5","4","3","2","3","3","2","5","3","3","787033502335111170","何","632","Male","[""坏我"",""好他"",""好我"",""坏他""]","[""弱我"",""强他"",""强我"",""弱他""]","","","","","","","","nonmatch","","","","","","","","","","key","j","16.663931623931564","640","356","j","true","nonmatch","img/triangle.png","好他","好我","prac_ALT2_moral","practice_moral","","","","","","","","",""
"null","<span style='color:GreenYellow; font-size: 70px;'>正确! </span>","null","html-keyboard-response","41","204270","0.0-8.0-0.0-1.0-0.0-1.15","5","4","5","2","3","4","4","4","5","5","5","0","-1","1","1","0","0","2","0","4","3","5","3","2","5","4","4","4","5","5","6","6","8","7","7","6","5","7","5","2","3","4","5","3","6","6","5","3","1","4","3","5","2","4","3","5","2","5","5","3","4","2","3","3","5","2","5","1","5","5","4","3","2","3","3","2","5","3","3","787033502335111170","何","632","Male","[""坏我"",""好他"",""好我"",""坏他""]","[""弱我"",""强他"",""强我"",""弱他""]","","","","","","","","","","","","","","","","","","","","","","","","","","","","","","feedback_test","","","","","","","","",""
"807","","j","psychophysics","42","206092","0.0-8.0-0.0-1.0-0.0-0.16","5","4","5","2","3","4","4","4","5","5","5","0","-1","1","1","0","0","2","0","4","3","5","3","2","5","4","4","4","5","5","6","6","8","7","7","6","5","7","5","2","3","4","5","3","6","6","5","3","1","4","3","5","2","4","3","5","2","5","5","3","4","2","3","3","5","2","5","1","5","5","4","3","2","3","3","2","5","3","3","787033502335111170","何","632","Male","[""坏我"",""好他"",""好我"",""坏他""]","[""弱我"",""强他"",""强我"",""弱他""]","","","","","","","","nonmatch","","","","","","","","","","key","j","16.664259259259172","640","356","f","false","match","img/triangle.png","好我","好我","prac_ALT2_moral","practice_moral","","","","","","","","",""
"null","<span style='color:red; font-size: 70px;'>错误! </span>","null","html-keyboard-response","43","206594","0.0-8.0-0.0-1.0-0.0-1.16","5","4","5","2","3","4","4","4","5","5","5","0","-1","1","1","0","0","2","0","4","3","5","3","2","5","4","4","4","5","5","6","6","8","7","7","6","5","7","5","2","3","4","5","3","6","6","5","3","1","4","3","5","2","4","3","5","2","5","5","3","4","2","3","3","5","2","5","1","5","5","4","3","2","3","3","2","5","3","3","787033502335111170","何","632","Male","[""坏我"",""好他"",""好我"",""坏他""]","[""弱我"",""强他"",""强我"",""弱他""]","","","","","","","","","","","","","","","","","","","","","","","","","","","","","","feedback_test","","","","","","","","",""
"705","","j","psychophysics","44","208302","0.0-8.0-0.0-1.0-0.0-0.17","5","4","5","2","3","4","4","4","5","5","5","0","-1","1","1","0","0","2","0","4","3","5","3","2","5","4","4","4","5","5","6","6","8","7","7","6","5","7","5","2","3","4","5","3","6","6","5","3","1","4","3","5","2","4","3","5","2","5","5","3","4","2","3","3","5","2","5","1","5","5","4","3","2","3","3","2","5","3","3","787033502335111170","何","632","Male","[""坏我"",""好他"",""好我"",""坏他""]","[""弱我"",""强他"",""强我"",""弱他""]","","","","","","","","nonmatch","","","","","","","","","","key","j","16.663725490195908","640","356","j","true","nonmatch","img/triangle.png","坏他","好我","prac_ALT2_moral","practice_moral","","","","","","","","",""
"null","<span style='color:GreenYellow; font-size: 70px;'>正确! </span>","null","html-keyboard-response","45","208818","0.0-8.0-0.0-1.0-0.0-1.17","5","4","5","2","3","4","4","4","5","5","5","0","-1","1","1","0","0","2","0","4","3","5","3","2","5","4","4","4","5","5","6","6","8","7","7","6","5","7","5","2","3","4","5","3","6","6","5","3","1","4","3","5","2","4","3","5","2","5","5","3","4","2","3","3","5","2","5","1","5","5","4","3","2","3","3","2","5","3","3","787033502335111170","何","632","Male","[""坏我"",""好他"",""好我"",""坏他""]","[""弱我"",""强他"",""强我"",""弱他""]","","","","","","","","","","","","","","","","","","","","","","","","","","","","","","feedback_test","","","","","","","","",""
"720","","j","psychophysics","46","210552","0.0-8.0-0.0-1.0-0.0-0.18","5","4","5","2","3","4","4","4","5","5","5","0","-1","1","1","0","0","2","0","4","3","5","3","2","5","4","4","4","5","5","6","6","8","7","7","6","5","7","5","2","3","4","5","3","6","6","5","3","1","4","3","5","2","4","3","5","2","5","5","3","4","2","3","3","5","2","5","1","5","5","4","3","2","3","3","2","5","3","3","787033502335111170","何","632","Male","[""坏我"",""好他"",""好我"",""坏他""]","[""弱我"",""强他"",""强我"",""弱他""]","","","","","","","","nonmatch","","","","","","","","","","key","j","16.6644660194175","640","356","j","true","nonmatch","img/ellipse.png","坏他","坏我","prac_ALT2_moral","practice_moral","","","","","","","","",""
"null","<span style='color:GreenYellow; font-size: 70px;'>正确! </span>","null","html-keyboard-response","47","211066","0.0-8.0-0.0-1.0-0.0-1.18","5","4","5","2","3","4","4","4","5","5","5","0","-1","1","1","0","0","2","0","4","3","5","3","2","5","4","4","4","5","5","6","6","8","7","7","6","5","7","5","2","3","4","5","3","6","6","5","3","1","4","3","5","2","4","3","5","2","5","5","3","4","2","3","3","5","2","5","1","5","5","4","3","2","3","3","2","5","3","3","787033502335111170","何","632","Male","[""坏我"",""好他"",""好我"",""坏他""]","[""弱我"",""强他"",""强我"",""弱他""]","","","","","","","","","","","","","","","","","","","","","","","","","","","","","","feedback_test","","","","","","","","",""
"759","","j","psychophysics","48","212840","0.0-8.0-0.0-1.0-0.0-0.19","5","4","5","2","3","4","4","4","5","5","5","0","-1","1","1","0","0","2","0","4","3","5","3","2","5","4","4","4","5","5","6","6","8","7","7","6","5","7","5","2","3","4","5","3","6","6","5","3","1","4","3","5","2","4","3","5","2","5","5","3","4","2","3","3","5","2","5","1","5","5","4","3","2","3","3","2","5","3","3","787033502335111170","何","632","Male","[""坏我"",""好他"",""好我"",""坏他""]","[""弱我"",""强他"",""强我"",""弱他""]","","","","","","","","nonmatch","","","","","","","","","","key","j","16.663428571428327","640","356","j","true","nonmatch","img/square.png","坏我","好他","prac_ALT2_moral","practice_moral","","","","","","","","",""
"null","<span style='color:GreenYellow; font-size: 70px;'>正确! </span>","null","html-keyboard-response","49","213347","0.0-8.0-0.0-1.0-0.0-1.19","5","4","5","2","3","4","4","4","5","5","5","0","-1","1","1","0","0","2","0","4","3","5","3","2","5","4","4","4","5","5","6","6","8","7","7","6","5","7","5","2","3","4","5","3","6","6","5","3","1","4","3","5","2","4","3","5","2","5","5","3","4","2","3","3","5","2","5","1","5","5","4","3","2","3","3","2","5","3","3","787033502335111170","何","632","Male","[""坏我"",""好他"",""好我"",""坏他""]","[""弱我"",""强他"",""强我"",""弱他""]","","","","","","","","","","","","","","","","","","","","","","","","","","","","","","feedback_test","","","","","","","","",""
"908","","j","psychophysics","50","215270","0.0-8.0-0.0-1.0-0.0-0.20","5","4","5","2","3","4","4","4","5","5","5","0","-1","1","1","0","0","2","0","4","3","5","3","2","5","4","4","4","5","5","6","6","8","7","7","6","5","7","5","2","3","4","5","3","6","6","5","3","1","4","3","5","2","4","3","5","2","5","5","3","4","2","3","3","5","2","5","1","5","5","4","3","2","3","3","2","5","3","3","787033502335111170","何","632","Male","[""坏我"",""好他"",""好我"",""坏他""]","[""弱我"",""强他"",""强我"",""弱他""]","","","","","","","","nonmatch","","","","","","","","","","key","j","16.664035087719146","640","356","j","true","nonmatch","img/square.png","好我","好他","prac_ALT2_moral","practice_moral","","","","","","","","",""
"null","<span style='color:GreenYellow; font-size: 70px;'>正确! </span>","null","html-keyboard-response","51","215785","0.0-8.0-0.0-1.0-0.0-1.20","5","4","5","2","3","4","4","4","5","5","5","0","-1","1","1","0","0","2","0","4","3","5","3","2","5","4","4","4","5","5","6","6","8","7","7","6","5","7","5","2","3","4","5","3","6","6","5","3","1","4","3","5","2","4","3","5","2","5","5","3","4","2","3","3","5","2","5","1","5","5","4","3","2","3","3","2","5","3","3","787033502335111170","何","632","Male","[""坏我"",""好他"",""好我"",""坏他""]","[""弱我"",""强他"",""强我"",""弱他""]","","","","","","","","","","","","","","","","","","","","","","","","","","","","","","feedback_test","","","","","","","","",""
"846","","j","psychophysics","52","217646","0.0-8.0-0.0-1.0-0.0-0.21","5","4","5","2","3","4","4","4","5","5","5","0","-1","1","1","0","0","2","0","4","3","5","3","2","5","4","4","4","5","5","6","6","8","7","7","6","5","7","5","2","3","4","5","3","6","6","5","3","1","4","3","5","2","4","3","5","2","5","5","3","4","2","3","3","5","2","5","1","5","5","4","3","2","3","3","2","5","3","3","787033502335111170","何","632","Male","[""坏我"",""好他"",""好我"",""坏他""]","[""弱我"",""强他"",""强我"",""弱他""]","","","","","","","","nonmatch","","","","","","","","","","key","j","16.664000000000073","640","356","j","true","nonmatch","img/pentagon.png","坏我","坏他","prac_ALT2_moral","practice_moral","","","","","","","","",""
"null","<span style='color:GreenYellow; font-size: 70px;'>正确! </span>","null","html-keyboard-response","53","218157","0.0-8.0-0.0-1.0-0.0-1.21","5","4","5","2","3","4","4","4","5","5","5","0","-1","1","1","0","0","2","0","4","3","5","3","2","5","4","4","4","5","5","6","6","8","7","7","6","5","7","5","2","3","4","5","3","6","6","5","3","1","4","3","5","2","4","3","5","2","5","5","3","4","2","3","3","5","2","5","1","5","5","4","3","2","3","3","2","5","3","3","787033502335111170","何","632","Male","[""坏我"",""好他"",""好我"",""坏他""]","[""弱我"",""强他"",""强我"",""弱他""]","","","","","","","","","","","","","","","","","","","","","","","","","","","","","","feedback_test","","","","","","","","",""
"875","","f","psychophysics","54","220033","0.0-8.0-0.0-1.0-0.0-0.22","5","4","5","2","3","4","4","4","5","5","5","0","-1","1","1","0","0","2","0","4","3","5","3","2","5","4","4","4","5","5","6","6","8","7","7","6","5","7","5","2","3","4","5","3","6","6","5","3","1","4","3","5","2","4","3","5","2","5","5","3","4","2","3","3","5","2","5","1","5","5","4","3","2","3","3","2","5","3","3","787033502335111170","何","632","Male","[""坏我"",""好他"",""好我"",""坏他""]","[""弱我"",""强他"",""强我"",""弱他""]","","","","","","","","match","","","","","","","","","","key","f","16.663928571428446","640","356","f","true","match","img/ellipse.png","坏我","坏我","prac_ALT2_moral","practice_moral","","","","","","","","",""
"null","<span style='color:GreenYellow; font-size: 70px;'>正确! </span>","null","html-keyboard-response","55","220545","0.0-8.0-0.0-1.0-0.0-1.22","5","4","5","2","3","4","4","4","5","5","5","0","-1","1","1","0","0","2","0","4","3","5","3","2","5","4","4","4","5","5","6","6","8","7","7","6","5","7","5","2","3","4","5","3","6","6","5","3","1","4","3","5","2","4","3","5","2","5","5","3","4","2","3","3","5","2","5","1","5","5","4","3","2","3","3","2","5","3","3","787033502335111170","何","632","Male","[""坏我"",""好他"",""好我"",""坏他""]","[""弱我"",""强他"",""强我"",""弱他""]","","","","","","","","","","","","","","","","","","","","","","","","","","","","","","feedback_test","","","","","","","","",""
"783","","j","psychophysics","56","222341","0.0-8.0-0.0-1.0-0.0-0.23","5","4","5","2","3","4","4","4","5","5","5","0","-1","1","1","0","0","2","0","4","3","5","3","2","5","4","4","4","5","5","6","6","8","7","7","6","5","7","5","2","3","4","5","3","6","6","5","3","1","4","3","5","2","4","3","5","2","5","5","3","4","2","3","3","5","2","5","1","5","5","4","3","2","3","3","2","5","3","3","787033502335111170","何","632","Male","[""坏我"",""好他"",""好我"",""坏他""]","[""弱我"",""强他"",""强我"",""弱他""]","","","","","","","","nonmatch","","","","","","","","","","key","j","16.660377358490567","640","356","j","true","nonmatch","img/ellipse.png","好我","坏我","prac_ALT2_moral","practice_moral","","","","","","","","",""
"null","<span style='color:GreenYellow; font-size: 70px;'>正确! </span>","null","html-keyboard-response","57","222845","0.0-8.0-0.0-1.0-0.0-1.23","5","4","5","2","3","4","4","4","5","5","5","0","-1","1","1","0","0","2","0","4","3","5","3","2","5","4","4","4","5","5","6","6","8","7","7","6","5","7","5","2","3","4","5","3","6","6","5","3","1","4","3","5","2","4","3","5","2","5","5","3","4","2","3","3","5","2","5","1","5","5","4","3","2","3","3","2","5","3","3","787033502335111170","何","632","Male","[""坏我"",""好他"",""好我"",""坏他""]","[""弱我"",""强他"",""强我"",""弱他""]","","","","","","","","","","","","","","","","","","","","","","","","","","","","","","feedback_test","","","","","","","","",""
"764","","j","psychophysics","58","224610","0.0-8.0-0.0-1.0-0.0-0.24","5","4","5","2","3","4","4","4","5","5","5","0","-1","1","1","0","0","2","0","4","3","5","3","2","5","4","4","4","5","5","6","6","8","7","7","6","5","7","5","2","3","4","5","3","6","6","5","3","1","4","3","5","2","4","3","5","2","5","5","3","4","2","3","3","5","2","5","1","5","5","4","3","2","3","3","2","5","3","3","787033502335111170","何","632","Male","[""坏我"",""好他"",""好我"",""坏他""]","[""弱我"",""强他"",""强我"",""弱他""]","","","","","","","","nonmatch","","","","","","","","","","key","j","16.66442307692285","640","356","j","true","nonmatch","img/triangle.png","坏他","好我","prac_ALT2_moral","practice_moral","","","","","","","","",""
"null","<span style='color:GreenYellow; font-size: 70px;'>正确! </span>","null","html-keyboard-response","59","225155","0.0-8.0-0.0-1.0-0.0-1.24","5","4","5","2","3","4","4","4","5","5","5","0","-1","1","1","0","0","2","0","4","3","5","3","2","5","4","4","4","5","5","6","6","8","7","7","6","5","7","5","2","3","4","5","3","6","6","5","3","1","4","3","5","2","4","3","5","2","5","5","3","4","2","3","3","5","2","5","1","5","5","4","3","2","3","3","2","5","3","3","787033502335111170","何","632","Male","[""坏我"",""好他"",""好我"",""坏他""]","[""弱我"",""强他"",""强我"",""弱他""]","","","","","","","","","","","","","","","","","","","","","","","","","","","","","","feedback_test","","","","","","","","",""
"718","","j","psychophysics","60","226888","0.0-8.0-0.0-1.0-0.0-0.25","5","4","5","2","3","4","4","4","5","5","5","0","-1","1","1","0","0","2","0","4","3","5","3","2","5","4","4","4","5","5","6","6","8","7","7","6","5","7","5","2","3","4","5","3","6","6","5","3","1","4","3","5","2","4","3","5","2","5","5","3","4","2","3","3","5","2","5","1","5","5","4","3","2","3","3","2","5","3","3","787033502335111170","何","632","Male","[""坏我"",""好他"",""好我"",""坏他""]","[""弱我"",""强他"",""强我"",""弱他""]","","","","","","","","nonmatch","","","","","","","","","","key","j","16.66427184466032","640","356","f","false","match","img/square.png","好他","好他","prac_ALT2_moral","practice_moral","","","","","","","","",""
"null","<span style='color:red; font-size: 70px;'>错误! </span>","null","html-keyboard-response","61","227403","0.0-8.0-0.0-1.0-0.0-1.25","5","4","5","2","3","4","4","4","5","5","5","0","-1","1","1","0","0","2","0","4","3","5","3","2","5","4","4","4","5","5","6","6","8","7","7","6","5","7","5","2","3","4","5","3","6","6","5","3","1","4","3","5","2","4","3","5","2","5","5","3","4","2","3","3","5","2","5","1","5","5","4","3","2","3","3","2","5","3","3","787033502335111170","何","632","Male","[""坏我"",""好他"",""好我"",""坏他""]","[""弱我"",""强他"",""强我"",""弱他""]","","","","","","","","","","","","","","","","","","","","","","","","","","","","","","feedback_test","","","","","","","","",""
"796","","j","psychophysics","62","229201","0.0-8.0-0.0-1.0-0.0-0.26","5","4","5","2","3","4","4","4","5","5","5","0","-1","1","1","0","0","2","0","4","3","5","3","2","5","4","4","4","5","5","6","6","8","7","7","6","5","7","5","2","3","4","5","3","6","6","5","3","1","4","3","5","2","4","3","5","2","5","5","3","4","2","3","3","5","2","5","1","5","5","4","3","2","3","3","2","5","3","3","787033502335111170","何","632","Male","[""坏我"",""好他"",""好我"",""坏他""]","[""弱我"",""强他"",""强我"",""弱他""]","","","","","","","","nonmatch","","","","","","","","","","key","j","16.66467289719649","640","356","j","true","nonmatch","img/square.png","坏他","好他","prac_ALT2_moral","practice_moral","","","","","","","","",""
"null","<span style='color:GreenYellow; font-size: 70px;'>正确! </span>","null","html-keyboard-response","63","229717","0.0-8.0-0.0-1.0-0.0-1.26","5","4","5","2","3","4","4","4","5","5","5","0","-1","1","1","0","0","2","0","4","3","5","3","2","5","4","4","4","5","5","6","6","8","7","7","6","5","7","5","2","3","4","5","3","6","6","5","3","1","4","3","5","2","4","3","5","2","5","5","3","4","2","3","3","5","2","5","1","5","5","4","3","2","3","3","2","5","3","3","787033502335111170","何","632","Male","[""坏我"",""好他"",""好我"",""坏他""]","[""弱我"",""强他"",""强我"",""弱他""]","","","","","","","","","","","","","","","","","","","","","","","","","","","","","","feedback_test","","","","","","","","",""
"648","","f","psychophysics","64","231393","0.0-8.0-0.0-1.0-0.0-0.27","5","4","5","2","3","4","4","4","5","5","5","0","-1","1","1","0","0","2","0","4","3","5","3","2","5","4","4","4","5","5","6","6","8","7","7","6","5","7","5","2","3","4","5","3","6","6","5","3","1","4","3","5","2","4","3","5","2","5","5","3","4","2","3","3","5","2","5","1","5","5","4","3","2","3","3","2","5","3","3","787033502335111170","何","632","Male","[""坏我"",""好他"",""好我"",""坏他""]","[""弱我"",""强他"",""强我"",""弱他""]","","","","","","","","match","","","","","","","","","","key","f","16.663232323232357","640","356","j","false","nonmatch","img/pentagon.png","好我","坏他","prac_ALT2_moral","practice_moral","","","","","","","","",""
"null","<span style='color:red; font-size: 70px;'>错误! </span>","null","html-keyboard-response","65","231919","0.0-8.0-0.0-1.0-0.0-1.27","5","4","5","2","3","4","4","4","5","5","5","0","-1","1","1","0","0","2","0","4","3","5","3","2","5","4","4","4","5","5","6","6","8","7","7","6","5","7","5","2","3","4","5","3","6","6","5","3","1","4","3","5","2","4","3","5","2","5","5","3","4","2","3","3","5","2","5","1","5","5","4","3","2","3","3","2","5","3","3","787033502335111170","何","632","Male","[""坏我"",""好他"",""好我"",""坏他""]","[""弱我"",""强他"",""强我"",""弱他""]","","","","","","","","","","","","","","","","","","","","","","","","","","","","","","feedback_test","","","","","","","","",""
"668","","f","psychophysics","66","233599","0.0-8.0-0.0-1.0-0.0-0.28","5","4","5","2","3","4","4","4","5","5","5","0","-1","1","1","0","0","2","0","4","3","5","3","2","5","4","4","4","5","5","6","6","8","7","7","6","5","7","5","2","3","4","5","3","6","6","5","3","1","4","3","5","2","4","3","5","2","5","5","3","4","2","3","3","5","2","5","1","5","5","4","3","2","3","3","2","5","3","3","787033502335111170","何","632","Male","[""坏我"",""好他"",""好我"",""坏他""]","[""弱我"",""强他"",""强我"",""弱他""]","","","","","","","","match","","","","","","","","","","key","f","16.663800000000048","640","356","f","true","match","img/triangle.png","好我","好我","prac_ALT2_moral","practice_moral","","","","","","","","",""
"null","<span style='color:GreenYellow; font-size: 70px;'>正确! </span>","null","html-keyboard-response","67","234100","0.0-8.0-0.0-1.0-0.0-1.28","5","4","5","2","3","4","4","4","5","5","5","0","-1","1","1","0","0","2","0","4","3","5","3","2","5","4","4","4","5","5","6","6","8","7","7","6","5","7","5","2","3","4","5","3","6","6","5","3","1","4","3","5","2","4","3","5","2","5","5","3","4","2","3","3","5","2","5","1","5","5","4","3","2","3","3","2","5","3","3","787033502335111170","何","632","Male","[""坏我"",""好他"",""好我"",""坏他""]","[""弱我"",""强他"",""强我"",""弱他""]","","","","","","","","","","","","","","","","","","","","","","","","","","","","","","feedback_test","","","","","","","","",""
"732","","j","psychophysics","68","235842","0.0-8.0-0.0-1.0-0.0-0.29","5","4","5","2","3","4","4","4","5","5","5","0","-1","1","1","0","0","2","0","4","3","5","3","2","5","4","4","4","5","5","6","6","8","7","7","6","5","7","5","2","3","4","5","3","6","6","5","3","1","4","3","5","2","4","3","5","2","5","5","3","4","2","3","3","5","2","5","1","5","5","4","3","2","3","3","2","5","3","3","787033502335111170","何","632","Male","[""坏我"",""好他"",""好我"",""坏他""]","[""弱我"",""强他"",""强我"",""弱他""]","","","","","","","","nonmatch","","","","","","","","","","key","j","16.663883495145676","640","356","j","true","nonmatch","img/ellipse.png","好他","坏我","prac_ALT2_moral","practice_moral","","","","","","","","",""
"null","<span style='color:GreenYellow; font-size: 70px;'>正确! </span>","null","html-keyboard-response","69","236344","0.0-8.0-0.0-1.0-0.0-1.29","5","4","5","2","3","4","4","4","5","5","5","0","-1","1","1","0","0","2","0","4","3","5","3","2","5","4","4","4","5","5","6","6","8","7","7","6","5","7","5","2","3","4","5","3","6","6","5","3","1","4","3","5","2","4","3","5","2","5","5","3","4","2","3","3","5","2","5","1","5","5","4","3","2","3","3","2","5","3","3","787033502335111170","何","632","Male","[""坏我"",""好他"",""好我"",""坏他""]","[""弱我"",""强他"",""强我"",""弱他""]","","","","","","","","","","","","","","","","","","","","","","","","","","","","","","feedback_test","","","","","","","","",""
"798","","f","psychophysics","70","238159","0.0-8.0-0.0-1.0-0.0-0.30","5","4","5","2","3","4","4","4","5","5","5","0","-1","1","1","0","0","2","0","4","3","5","3","2","5","4","4","4","5","5","6","6","8","7","7","6","5","7","5","2","3","4","5","3","6","6","5","3","1","4","3","5","2","4","3","5","2","5","5","3","4","2","3","3","5","2","5","1","5","5","4","3","2","3","3","2","5","3","3","787033502335111170","何","632","Male","[""坏我"",""好他"",""好我"",""坏他""]","[""弱我"",""强他"",""强我"",""弱他""]","","","","","","","","match","","","","","","","","","","key","f","16.664299065420714","640","356","f","true","match","img/pentagon.png","坏他","坏他","prac_ALT2_moral","practice_moral","","","","","","","","",""
"null","<span style='color:GreenYellow; font-size: 70px;'>正确! </span>","null","html-keyboard-response","71","238669","0.0-8.0-0.0-1.0-0.0-1.30","5","4","5","2","3","4","4","4","5","5","5","0","-1","1","1","0","0","2","0","4","3","5","3","2","5","4","4","4","5","5","6","6","8","7","7","6","5","7","5","2","3","4","5","3","6","6","5","3","1","4","3","5","2","4","3","5","2","5","5","3","4","2","3","3","5","2","5","1","5","5","4","3","2","3","3","2","5","3","3","787033502335111170","何","632","Male","[""坏我"",""好他"",""好我"",""坏他""]","[""弱我"",""强他"",""强我"",""弱他""]","","","","","","","","","","","","","","","","","","","","","","","","","","","","","","feedback_test","","","","","","","","",""
"727","","f","psychophysics","72","240410","0.0-8.0-0.0-1.0-0.0-0.31","5","4","5","2","3","4","4","4","5","5","5","0","-1","1","1","0","0","2","0","4","3","5","3","2","5","4","4","4","5","5","6","6","8","7","7","6","5","7","5","2","3","4","5","3","6","6","5","3","1","4","3","5","2","4","3","5","2","5","5","3","4","2","3","3","5","2","5","1","5","5","4","3","2","3","3","2","5","3","3","787033502335111170","何","632","Male","[""坏我"",""好他"",""好我"",""坏他""]","[""弱我"",""强他"",""强我"",""弱他""]","","","","","","","","match","","","","","","","","","","key","f","16.66407766990314","640","356","f","true","match","img/triangle.png","好我","好我","prac_ALT2_moral","practice_moral","","","","","","","","",""
"null","<span style='color:GreenYellow; font-size: 70px;'>正确! </span>","null","html-keyboard-response","73","240923","0.0-8.0-0.0-1.0-0.0-1.31","5","4","5","2","3","4","4","4","5","5","5","0","-1","1","1","0","0","2","0","4","3","5","3","2","5","4","4","4","5","5","6","6","8","7","7","6","5","7","5","2","3","4","5","3","6","6","5","3","1","4","3","5","2","4","3","5","2","5","5","3","4","2","3","3","5","2","5","1","5","5","4","3","2","3","3","2","5","3","3","787033502335111170","何","632","Male","[""坏我"",""好他"",""好我"",""坏他""]","[""弱我"",""强他"",""强我"",""弱他""]","","","","","","","","","","","","","","","","","","","","","","","","","","","","","","feedback_test","","","","","","","","",""
"668","","j","psychophysics","74","242685","0.0-8.0-0.0-1.0-0.0-0.32","5","4","5","2","3","4","4","4","5","5","5","0","-1","1","1","0","0","2","0","4","3","5","3","2","5","4","4","4","5","5","6","6","8","7","7","6","5","7","5","2","3","4","5","3","6","6","5","3","1","4","3","5","2","4","3","5","2","5","5","3","4","2","3","3","5","2","5","1","5","5","4","3","2","3","3","2","5","3","3","787033502335111170","何","632","Male","[""坏我"",""好他"",""好我"",""坏他""]","[""弱我"",""强他"",""强我"",""弱他""]","","","","","","","","nonmatch","","","","","","","","","","key","j","16.66361904761898","640","356","j","true","nonmatch","img/square.png","好我","好他","prac_ALT2_moral","practice_moral","","","","","","","","",""
"null","<span style='color:GreenYellow; font-size: 70px;'>正确! </span>","null","html-keyboard-response","75","243192","0.0-8.0-0.0-1.0-0.0-1.32","5","4","5","2","3","4","4","4","5","5","5","0","-1","1","1","0","0","2","0","4","3","5","3","2","5","4","4","4","5","5","6","6","8","7","7","6","5","7","5","2","3","4","5","3","6","6","5","3","1","4","3","5","2","4","3","5","2","5","5","3","4","2","3","3","5","2","5","1","5","5","4","3","2","3","3","2","5","3","3","787033502335111170","何","632","Male","[""坏我"",""好他"",""好我"",""坏他""]","[""弱我"",""强他"",""强我"",""弱他""]","","","","","","","","","","","","","","","","","","","","","","","","","","","","","","feedback_test","","","","","","","","",""
"933","","j","psychophysics","76","245141","0.0-8.0-0.0-1.0-0.0-0.33","5","4","5","2","3","4","4","4","5","5","5","0","-1","1","1","0","0","2","0","4","3","5","3","2","5","4","4","4","5","5","6","6","8","7","7","6","5","7","5","2","3","4","5","3","6","6","5","3","1","4","3","5","2","4","3","5","2","5","5","3","4","2","3","3","5","2","5","1","5","5","4","3","2","3","3","2","5","3","3","787033502335111170","何","632","Male","[""坏我"",""好他"",""好我"",""坏他""]","[""弱我"",""强他"",""强我"",""弱他""]","","","","","","","","nonmatch","","","","","","","","","","key","j","16.66434782608716","640","356","f","false","match","img/ellipse.png","坏我","坏我","prac_ALT2_moral","practice_moral","","","","","","","","",""
"null","<span style='color:red; font-size: 70px;'>错误! </span>","null","html-keyboard-response","77","245647","0.0-8.0-0.0-1.0-0.0-1.33","5","4","5","2","3","4","4","4","5","5","5","0","-1","1","1","0","0","2","0","4","3","5","3","2","5","4","4","4","5","5","6","6","8","7","7","6","5","7","5","2","3","4","5","3","6","6","5","3","1","4","3","5","2","4","3","5","2","5","5","3","4","2","3","3","5","2","5","1","5","5","4","3","2","3","3","2","5","3","3","787033502335111170","何","632","Male","[""坏我"",""好他"",""好我"",""坏他""]","[""弱我"",""强他"",""强我"",""弱他""]","","","","","","","","","","","","","","","","","","","","","","","","","","","","","","feedback_test","","","","","","","","",""
"776","","j","psychophysics","78","247435","0.0-8.0-0.0-1.0-0.0-0.34","5","4","5","2","3","4","4","4","5","5","5","0","-1","1","1","0","0","2","0","4","3","5","3","2","5","4","4","4","5","5","6","6","8","7","7","6","5","7","5","2","3","4","5","3","6","6","5","3","1","4","3","5","2","4","3","5","2","5","5","3","4","2","3","3","5","2","5","1","5","5","4","3","2","3","3","2","5","3","3","787033502335111170","何","632","Male","[""坏我"",""好他"",""好我"",""坏他""]","[""弱我"",""强他"",""强我"",""弱他""]","","","","","","","","nonmatch","","","","","","","","","","key","j","16.663207547169975","640","356","j","true","nonmatch","img/triangle.png","坏我","好我","prac_ALT2_moral","practice_moral","","","","","","","","",""
"null","<span style='color:GreenYellow; font-size: 70px;'>正确! </span>","null","html-keyboard-response","79","247950","0.0-8.0-0.0-1.0-0.0-1.34","5","4","5","2","3","4","4","4","5","5","5","0","-1","1","1","0","0","2","0","4","3","5","3","2","5","4","4","4","5","5","6","6","8","7","7","6","5","7","5","2","3","4","5","3","6","6","5","3","1","4","3","5","2","4","3","5","2","5","5","3","4","2","3","3","5","2","5","1","5","5","4","3","2","3","3","2","5","3","3","787033502335111170","何","632","Male","[""坏我"",""好他"",""好我"",""坏他""]","[""弱我"",""强他"",""强我"",""弱他""]","","","","","","","","","","","","","","","","","","","","","","","","","","","","","","feedback_test","","","","","","","","",""
"847","","j","psychophysics","80","249812","0.0-8.0-0.0-1.0-0.0-0.35","5","4","5","2","3","4","4","4","5","5","5","0","-1","1","1","0","0","2","0","4","3","5","3","2","5","4","4","4","5","5","6","6","8","7","7","6","5","7","5","2","3","4","5","3","6","6","5","3","1","4","3","5","2","4","3","5","2","5","5","3","4","2","3","3","5","2","5","1","5","5","4","3","2","3","3","2","5","3","3","787033502335111170","何","632","Male","[""坏我"",""好他"",""好我"",""坏他""]","[""弱我"",""强他"",""强我"",""弱他""]","","","","","","","","nonmatch","","","","","","","","","","key","j","16.58375000000004","640","356","f","false","match","img/square.png","好他","好他","prac_ALT2_moral","practice_moral","","","","","","","","",""
"null","<span style='color:red; font-size: 70px;'>错误! </span>","null","html-keyboard-response","81","250324","0.0-8.0-0.0-1.0-0.0-1.35","5","4","5","2","3","4","4","4","5","5","5","0","-1","1","1","0","0","2","0","4","3","5","3","2","5","4","4","4","5","5","6","6","8","7","7","6","5","7","5","2","3","4","5","3","6","6","5","3","1","4","3","5","2","4","3","5","2","5","5","3","4","2","3","3","5","2","5","1","5","5","4","3","2","3","3","2","5","3","3","787033502335111170","何","632","Male","[""坏我"",""好他"",""好我"",""坏他""]","[""弱我"",""强他"",""强我"",""弱他""]","","","","","","","","","","","","","","","","","","","","","","","","","","","","","","feedback_test","","","","","","","","",""
"800","","j","psychophysics","82","252129","0.0-8.0-0.0-1.0-0.0-0.36","5","4","5","2","3","4","4","4","5","5","5","0","-1","1","1","0","0","2","0","4","3","5","3","2","5","4","4","4","5","5","6","6","8","7","7","6","5","7","5","2","3","4","5","3","6","6","5","3","1","4","3","5","2","4","3","5","2","5","5","3","4","2","3","3","5","2","5","1","5","5","4","3","2","3","3","2","5","3","3","787033502335111170","何","632","Male","[""坏我"",""好他"",""好我"",""坏他""]","[""弱我"",""强他"",""强我"",""弱他""]","","","","","","","","nonmatch","","","","","","","","","","key","j","16.66444444444453","640","356","j","true","nonmatch","img/square.png","坏我","好他","prac_ALT2_moral","practice_moral","","","","","","","","",""
"null","<span style='color:GreenYellow; font-size: 70px;'>正确! </span>","null","html-keyboard-response","83","252638","0.0-8.0-0.0-1.0-0.0-1.36","5","4","5","2","3","4","4","4","5","5","5","0","-1","1","1","0","0","2","0","4","3","5","3","2","5","4","4","4","5","5","6","6","8","7","7","6","5","7","5","2","3","4","5","3","6","6","5","3","1","4","3","5","2","4","3","5","2","5","5","3","4","2","3","3","5","2","5","1","5","5","4","3","2","3","3","2","5","3","3","787033502335111170","何","632","Male","[""坏我"",""好他"",""好我"",""坏他""]","[""弱我"",""强他"",""强我"",""弱他""]","","","","","","","","","","","","","","","","","","","","","","","","","","","","","","feedback_test","","","","","","","","",""
"711","","f","psychophysics","84","254364","0.0-8.0-0.0-1.0-0.0-0.37","5","4","5","2","3","4","4","4","5","5","5","0","-1","1","1","0","0","2","0","4","3","5","3","2","5","4","4","4","5","5","6","6","8","7","7","6","5","7","5","2","3","4","5","3","6","6","5","3","1","4","3","5","2","4","3","5","2","5","5","3","4","2","3","3","5","2","5","1","5","5","4","3","2","3","3","2","5","3","3","787033502335111170","何","632","Male","[""坏我"",""好他"",""好我"",""坏他""]","[""弱我"",""强他"",""强我"",""弱他""]","","","","","","","","match","","","","","","","","","","key","f","16.664466019417215","640","356","f","true","match","img/ellipse.png","坏我","坏我","prac_ALT2_moral","practice_moral","","","","","","","","",""
"null","<span style='color:GreenYellow; font-size: 70px;'>正确! </span>","null","html-keyboard-response","85","254874","0.0-8.0-0.0-1.0-0.0-1.37","5","4","5","2","3","4","4","4","5","5","5","0","-1","1","1","0","0","2","0","4","3","5","3","2","5","4","4","4","5","5","6","6","8","7","7","6","5","7","5","2","3","4","5","3","6","6","5","3","1","4","3","5","2","4","3","5","2","5","5","3","4","2","3","3","5","2","5","1","5","5","4","3","2","3","3","2","5","3","3","787033502335111170","何","632","Male","[""坏我"",""好他"",""好我"",""坏他""]","[""弱我"",""强他"",""强我"",""弱他""]","","","","","","","","","","","","","","","","","","","","","","","","","","","","","","feedback_test","","","","","","","","",""
"753","","f","psychophysics","86","256644","0.0-8.0-0.0-1.0-0.0-0.38","5","4","5","2","3","4","4","4","5","5","5","0","-1","1","1","0","0","2","0","4","3","5","3","2","5","4","4","4","5","5","6","6","8","7","7","6","5","7","5","2","3","4","5","3","6","6","5","3","1","4","3","5","2","4","3","5","2","5","5","3","4","2","3","3","5","2","5","1","5","5","4","3","2","3","3","2","5","3","3","787033502335111170","何","632","Male","[""坏我"",""好他"",""好我"",""坏他""]","[""弱我"",""强他"",""强我"",""弱他""]","","","","","","","","match","","","","","","","","","","key","f","16.664190476190388","640","356","f","true","match","img/pentagon.png","坏他","坏他","prac_ALT2_moral","practice_moral","","","","","","","","",""
"null","<span style='color:GreenYellow; font-size: 70px;'>正确! </span>","null","html-keyboard-response","87","257202","0.0-8.0-0.0-1.0-0.0-1.38","5","4","5","2","3","4","4","4","5","5","5","0","-1","1","1","0","0","2","0","4","3","5","3","2","5","4","4","4","5","5","6","6","8","7","7","6","5","7","5","2","3","4","5","3","6","6","5","3","1","4","3","5","2","4","3","5","2","5","5","3","4","2","3","3","5","2","5","1","5","5","4","3","2","3","3","2","5","3","3","787033502335111170","何","632","Male","[""坏我"",""好他"",""好我"",""坏他""]","[""弱我"",""强他"",""强我"",""弱他""]","","","","","","","","","","","","","","","","","","","","","","","","","","","","","","feedback_test","","","","","","","","",""
"685","","j","psychophysics","88","258901","0.0-8.0-0.0-1.0-0.0-0.39","5","4","5","2","3","4","4","4","5","5","5","0","-1","1","1","0","0","2","0","4","3","5","3","2","5","4","4","4","5","5","6","6","8","7","7","6","5","7","5","2","3","4","5","3","6","6","5","3","1","4","3","5","2","4","3","5","2","5","5","3","4","2","3","3","5","2","5","1","5","5","4","3","2","3","3","2","5","3","3","787033502335111170","何","632","Male","[""坏我"",""好他"",""好我"",""坏他""]","[""弱我"",""强他"",""强我"",""弱他""]","","","","","","","","nonmatch","","","","","","","","","","key","j","16.664554455445497","640","356","j","true","nonmatch","img/pentagon.png","坏我","坏他","prac_ALT2_moral","practice_moral","","","","","","","","",""
"null","<span style='color:GreenYellow; font-size: 70px;'>正确! </span>","null","html-keyboard-response","89","259417","0.0-8.0-0.0-1.0-0.0-1.39","5","4","5","2","3","4","4","4","5","5","5","0","-1","1","1","0","0","2","0","4","3","5","3","2","5","4","4","4","5","5","6","6","8","7","7","6","5","7","5","2","3","4","5","3","6","6","5","3","1","4","3","5","2","4","3","5","2","5","5","3","4","2","3","3","5","2","5","1","5","5","4","3","2","3","3","2","5","3","3","787033502335111170","何","632","Male","[""坏我"",""好他"",""好我"",""坏他""]","[""弱我"",""强他"",""强我"",""弱他""]","","","","","","","","","","","","","","","","","","","","","","","","","","","","","","feedback_test","","","","","","","","",""
"677","","f","psychophysics","90","261105","0.0-8.0-0.0-1.0-0.0-0.40","5","4","5","2","3","4","4","4","5","5","5","0","-1","1","1","0","0","2","0","4","3","5","3","2","5","4","4","4","5","5","6","6","8","7","7","6","5","7","5","2","3","4","5","3","6","6","5","3","1","4","3","5","2","4","3","5","2","5","5","3","4","2","3","3","5","2","5","1","5","5","4","3","2","3","3","2","5","3","3","787033502335111170","何","632","Male","[""坏我"",""好他"",""好我"",""坏他""]","[""弱我"",""强他"",""强我"",""弱他""]","","","","","","","","match","","","","","","","","","","key","f","16.549306930693174","640","356","f","true","match","img/square.png","好他","好他","prac_ALT2_moral","practice_moral","","","","","","","","",""
"null","<span style='color:GreenYellow; font-size: 70px;'>正确! </span>","null","html-keyboard-response","91","261615","0.0-8.0-0.0-1.0-0.0-1.40","5","4","5","2","3","4","4","4","5","5","5","0","-1","1","1","0","0","2","0","4","3","5","3","2","5","4","4","4","5","5","6","6","8","7","7","6","5","7","5","2","3","4","5","3","6","6","5","3","1","4","3","5","2","4","3","5","2","5","5","3","4","2","3","3","5","2","5","1","5","5","4","3","2","3","3","2","5","3","3","787033502335111170","何","632","Male","[""坏我"",""好他"",""好我"",""坏他""]","[""弱我"",""强他"",""强我"",""弱他""]","","","","","","","","","","","","","","","","","","","","","","","","","","","","","","feedback_test","","","","","","","","",""
"802","","f","psychophysics","92","263419","0.0-8.0-0.0-1.0-0.0-0.41","5","4","5","2","3","4","4","4","5","5","5","0","-1","1","1","0","0","2","0","4","3","5","3","2","5","4","4","4","5","5","6","6","8","7","7","6","5","7","5","2","3","4","5","3","6","6","5","3","1","4","3","5","2","4","3","5","2","5","5","3","4","2","3","3","5","2","5","1","5","5","4","3","2","3","3","2","5","3","3","787033502335111170","何","632","Male","[""坏我"",""好他"",""好我"",""坏他""]","[""弱我"",""强他"",""强我"",""弱他""]","","","","","","","","match","","","","","","","","","","key","f","16.66429906542017","640","356","f","true","match","img/triangle.png","好我","好我","prac_ALT2_moral","practice_moral","","","","","","","","",""
"null","<span style='color:GreenYellow; font-size: 70px;'>正确! </span>","null","html-keyboard-response","93","263934","0.0-8.0-0.0-1.0-0.0-1.41","5","4","5","2","3","4","4","4","5","5","5","0","-1","1","1","0","0","2","0","4","3","5","3","2","5","4","4","4","5","5","6","6","8","7","7","6","5","7","5","2","3","4","5","3","6","6","5","3","1","4","3","5","2","4","3","5","2","5","5","3","4","2","3","3","5","2","5","1","5","5","4","3","2","3","3","2","5","3","3","787033502335111170","何","632","Male","[""坏我"",""好他"",""好我"",""坏他""]","[""弱我"",""强他"",""强我"",""弱他""]","","","","","","","","","","","","","","","","","","","","","","","","","","","","","","feedback_test","","","","","","","","",""
"655","","f","psychophysics","94","265600","0.0-8.0-0.0-1.0-0.0-0.42","5","4","5","2","3","4","4","4","5","5","5","0","-1","1","1","0","0","2","0","4","3","5","3","2","5","4","4","4","5","5","6","6","8","7","7","6","5","7","5","2","3","4","5","3","6","6","5","3","1","4","3","5","2","4","3","5","2","5","5","3","4","2","3","3","5","2","5","1","5","5","4","3","2","3","3","2","5","3","3","787033502335111170","何","632","Male","[""坏我"",""好他"",""好我"",""坏他""]","[""弱我"",""强他"",""强我"",""弱他""]","","","","","","","","match","","","","","","","","","","key","f","16.66444444444414","640","356","j","false","nonmatch","img/ellipse.png","坏他","坏我","prac_ALT2_moral","practice_moral","","","","","","","","",""
"null","<span style='color:red; font-size: 70px;'>错误! </span>","null","html-keyboard-response","95","266147","0.0-8.0-0.0-1.0-0.0-1.42","5","4","5","2","3","4","4","4","5","5","5","0","-1","1","1","0","0","2","0","4","3","5","3","2","5","4","4","4","5","5","6","6","8","7","7","6","5","7","5","2","3","4","5","3","6","6","5","3","1","4","3","5","2","4","3","5","2","5","5","3","4","2","3","3","5","2","5","1","5","5","4","3","2","3","3","2","5","3","3","787033502335111170","何","632","Male","[""坏我"",""好他"",""好我"",""坏他""]","[""弱我"",""强他"",""强我"",""弱他""]","","","","","","","","","","","","","","","","","","","","","","","","","","","","","","feedback_test","","","","","","","","",""
"747","","f","psychophysics","96","267909","0.0-8.0-0.0-1.0-0.0-0.43","5","4","5","2","3","4","4","4","5","5","5","0","-1","1","1","0","0","2","0","4","3","5","3","2","5","4","4","4","5","5","6","6","8","7","7","6","5","7","5","2","3","4","5","3","6","6","5","3","1","4","3","5","2","4","3","5","2","5","5","3","4","2","3","3","5","2","5","1","5","5","4","3","2","3","3","2","5","3","3","787033502335111170","何","632","Male","[""坏我"",""好他"",""好我"",""坏他""]","[""弱我"",""强他"",""强我"",""弱他""]","","","","","","","","match","","","","","","","","","","key","f","16.66361904761898","640","356","j","false","nonmatch","img/triangle.png","好他","好我","prac_ALT2_moral","practice_moral","","","","","","","","",""
"null","<span style='color:red; font-size: 70px;'>错误! </span>","null","html-keyboard-response","97","268410","0.0-8.0-0.0-1.0-0.0-1.43","5","4","5","2","3","4","4","4","5","5","5","0","-1","1","1","0","0","2","0","4","3","5","3","2","5","4","4","4","5","5","6","6","8","7","7","6","5","7","5","2","3","4","5","3","6","6","5","3","1","4","3","5","2","4","3","5","2","5","5","3","4","2","3","3","5","2","5","1","5","5","4","3","2","3","3","2","5","3","3","787033502335111170","何","632","Male","[""坏我"",""好他"",""好我"",""坏他""]","[""弱我"",""强他"",""强我"",""弱他""]","","","","","","","","","","","","","","","","","","","","","","","","","","","","","","feedback_test","","","","","","","","",""
"904","","f","psychophysics","98","270326","0.0-8.0-0.0-1.0-0.0-0.44","5","4","5","2","3","4","4","4","5","5","5","0","-1","1","1","0","0","2","0","4","3","5","3","2","5","4","4","4","5","5","6","6","8","7","7","6","5","7","5","2","3","4","5","3","6","6","5","3","1","4","3","5","2","4","3","5","2","5","5","3","4","2","3","3","5","2","5","1","5","5","4","3","2","3","3","2","5","3","3","787033502335111170","何","632","Male","[""坏我"",""好他"",""好我"",""坏他""]","[""弱我"",""强他"",""强我"",""弱他""]","","","","","","","","match","","","","","","","","","","key","f","16.605043478260505","640","356","j","false","nonmatch","img/pentagon.png","好他","坏他","prac_ALT2_moral","practice_moral","","","","","","","","",""
"null","<span style='color:red; font-size: 70px;'>错误! </span>","null","html-keyboard-response","99","270840","0.0-8.0-0.0-1.0-0.0-1.44","5","4","5","2","3","4","4","4","5","5","5","0","-1","1","1","0","0","2","0","4","3","5","3","2","5","4","4","4","5","5","6","6","8","7","7","6","5","7","5","2","3","4","5","3","6","6","5","3","1","4","3","5","2","4","3","5","2","5","5","3","4","2","3","3","5","2","5","1","5","5","4","3","2","3","3","2","5","3","3","787033502335111170","何","632","Male","[""坏我"",""好他"",""好我"",""坏他""]","[""弱我"",""强他"",""强我"",""弱他""]","","","","","","","","","","","","","","","","","","","","","","","","","","","","","","feedback_test","","","","","","","","",""
"782","","j","psychophysics","100","272635","0.0-8.0-0.0-1.0-0.0-0.45","5","4","5","2","3","4","4","4","5","5","5","0","-1","1","1","0","0","2","0","4","3","5","3","2","5","4","4","4","5","5","6","6","8","7","7","6","5","7","5","2","3","4","5","3","6","6","5","3","1","4","3","5","2","4","3","5","2","5","5","3","4","2","3","3","5","2","5","1","5","5","4","3","2","3","3","2","5","3","3","787033502335111170","何","632","Male","[""坏我"",""好他"",""好我"",""坏他""]","[""弱我"",""强他"",""强我"",""弱他""]","","","","","","","","nonmatch","","","","","","","","","","key","j","16.663018867924244","640","356","j","true","nonmatch","img/ellipse.png","好我","坏我","prac_ALT2_moral","practice_moral","","","","","","","","",""
"null","<span style='color:GreenYellow; font-size: 70px;'>正确! </span>","null","html-keyboard-response","101","273151","0.0-8.0-0.0-1.0-0.0-1.45","5","4","5","2","3","4","4","4","5","5","5","0","-1","1","1","0","0","2","0","4","3","5","3","2","5","4","4","4","5","5","6","6","8","7","7","6","5","7","5","2","3","4","5","3","6","6","5","3","1","4","3","5","2","4","3","5","2","5","5","3","4","2","3","3","5","2","5","1","5","5","4","3","2","3","3","2","5","3","3","787033502335111170","何","632","Male","[""坏我"",""好他"",""好我"",""坏他""]","[""弱我"",""强他"",""强我"",""弱他""]","","","","","","","","","","","","","","","","","","","","","","","","","","","","","","feedback_test","","","","","","","","",""
"787","","j","psychophysics","102","274942","0.0-8.0-0.0-1.0-0.0-0.46","5","4","5","2","3","4","4","4","5","5","5","0","-1","1","1","0","0","2","0","4","3","5","3","2","5","4","4","4","5","5","6","6","8","7","7","6","5","7","5","2","3","4","5","3","6","6","5","3","1","4","3","5","2","4","3","5","2","5","5","3","4","2","3","3","5","2","5","1","5","5","4","3","2","3","3","2","5","3","3","787033502335111170","何","632","Male","[""坏我"",""好他"",""好我"",""坏他""]","[""弱我"",""强他"",""强我"",""弱他""]","","","","","","","","nonmatch","","","","","","","","","","key","j","16.664485981308193","640","356","f","false","match","img/ellipse.png","坏我","坏我","prac_ALT2_moral","practice_moral","","","","","","","","",""
"null","<span style='color:red; font-size: 70px;'>错误! </span>","null","html-keyboard-response","103","275454","0.0-8.0-0.0-1.0-0.0-1.46","5","4","5","2","3","4","4","4","5","5","5","0","-1","1","1","0","0","2","0","4","3","5","3","2","5","4","4","4","5","5","6","6","8","7","7","6","5","7","5","2","3","4","5","3","6","6","5","3","1","4","3","5","2","4","3","5","2","5","5","3","4","2","3","3","5","2","5","1","5","5","4","3","2","3","3","2","5","3","3","787033502335111170","何","632","Male","[""坏我"",""好他"",""好我"",""坏他""]","[""弱我"",""强他"",""强我"",""弱他""]","","","","","","","","","","","","","","","","","","","","","","","","","","","","","","feedback_test","","","","","","","","",""
"786","","f","psychophysics","104","277314","0.0-8.0-0.0-1.0-0.0-0.47","5","4","5","2","3","4","4","4","5","5","5","0","-1","1","1","0","0","2","0","4","3","5","3","2","5","4","4","4","5","5","6","6","8","7","7","6","5","7","5","2","3","4","5","3","6","6","5","3","1","4","3","5","2","4","3","5","2","5","5","3","4","2","3","3","5","2","5","1","5","5","4","3","2","3","3","2","5","3","3","787033502335111170","何","632","Male","[""坏我"",""好他"",""好我"",""坏他""]","[""弱我"",""强他"",""强我"",""弱他""]","","","","","","","","match","","","","","","","","","","key","f","16.664324324324763","640","356","f","true","match","img/pentagon.png","坏他","坏他","prac_ALT2_moral","practice_moral","","","","","","","","",""
"null","<span style='color:GreenYellow; font-size: 70px;'>正确! </span>","null","html-keyboard-response","105","277825","0.0-8.0-0.0-1.0-0.0-1.47","5","4","5","2","3","4","4","4","5","5","5","0","-1","1","1","0","0","2","0","4","3","5","3","2","5","4","4","4","5","5","6","6","8","7","7","6","5","7","5","2","3","4","5","3","6","6","5","3","1","4","3","5","2","4","3","5","2","5","5","3","4","2","3","3","5","2","5","1","5","5","4","3","2","3","3","2","5","3","3","787033502335111170","何","632","Male","[""坏我"",""好他"",""好我"",""坏他""]","[""弱我"",""强他"",""强我"",""弱他""]","","","","","","","","","","","","","","","","","","","","","","","","","","","","","","feedback_test","","","","","","","","",""
"3472","<style>.context{color:white; font-size: 35px; line-height:40px}</style>                            <div><p class='context'>您正确回答了71% 的试次。</p><p class='context'>您的平均反应时为772毫秒。</p><p class='context'>恭喜您完成练习。按空格键进入正式实验。</p><p class='footer' style='font-size: 35px; line-height:40px;'>请在进入正式实验实验之前将您的<span style='color: lightgreen;'>食指</span>放在电脑键盘的相应键位上进行按键。</p>"," ","html-keyboard-response","106","281299","0.0-8.0-0.0-2.0","5","4","5","2","3","4","4","4","5","5","5","0","-1","1","1","0","0","2","0","4","3","5","3","2","5","4","4","4","5","5","6","6","8","7","7","6","5","7","5","2","3","4","5","3","6","6","5","3","1","4","3","5","2","4","3","5","2","5","5","3","4","2","3","3","5","2","5","1","5","5","4","3","2","3","3","2","5","3","3","787033502335111170","何","632","Male","[""坏我"",""好他"",""好我"",""坏他""]","[""弱我"",""强他"",""强我"",""弱他""]","","","","","","","","","","","","","","","","","","","","","","","","","","","","","","","","","","","","","","",""
"1197","
    <p style='color: white; font-size: 22px'>请您将手指放在按键上，准备进入正式的匹配任务。</p>
    <p> <div style = ""color: green""><按空格键进入下一阶段的匹配任务></div></p>
    "," ","html-keyboard-response","107","282497","0.0-8.0-0.0-3.0","5","4","5","2","3","4","4","4","5","5","5","0","-1","1","1","0","0","2","0","4","3","5","3","2","5","4","4","4","5","5","6","6","8","7","7","6","5","7","5","2","3","4","5","3","6","6","5","3","1","4","3","5","2","4","3","5","2","5","5","3","4","2","3","3","5","2","5","1","5","5","4","3","2","3","3","2","5","3","3","787033502335111170","何","632","Male","[""坏我"",""好他"",""好我"",""坏他""]","[""弱我"",""强他"",""强我"",""弱他""]","","","","","","","","","","","","","","","","","","","","","","","","","","","","","","","","","","","","","","",""
"573","","f","psychophysics","108","284084","0.0-8.0-0.0-4.0-0.0-0.0","5","4","5","2","3","4","4","4","5","5","5","0","-1","1","1","0","0","2","0","4","3","5","3","2","5","4","4","4","5","5","6","6","8","7","7","6","5","7","5","2","3","4","5","3","6","6","5","3","1","4","3","5","2","4","3","5","2","5","5","3","4","2","3","3","5","2","5","1","5","5","4","3","2","3","3","2","5","3","3","787033502335111170","何","632","Male","[""坏我"",""好他"",""好我"",""坏他""]","[""弱我"",""强他"",""强我"",""弱他""]","","","","","","","","match","","","","","","","","","","key","f","16.664468085106606","640","356","f","true","match","img/pentagon.png","坏他","坏他","ALT2","moral","","","","","","","","",""
"null","<span style='color:GreenYellow; font-size: 70px;'>正确! </span>","null","html-keyboard-response","109","284592","0.0-8.0-0.0-4.0-0.0-1.0","5","4","5","2","3","4","4","4","5","5","5","0","-1","1","1","0","0","2","0","4","3","5","3","2","5","4","4","4","5","5","6","6","8","7","7","6","5","7","5","2","3","4","5","3","6","6","5","3","1","4","3","5","2","4","3","5","2","5","5","3","4","2","3","3","5","2","5","1","5","5","4","3","2","3","3","2","5","3","3","787033502335111170","何","632","Male","[""坏我"",""好他"",""好我"",""坏他""]","[""弱我"",""强他"",""强我"",""弱他""]","","","","","","","","","","","","","","","","","","","","","","","","","","","","","","feedback_test","","","","","","","","",""
"852","","j","psychophysics","110","286454","0.0-8.0-0.0-4.0-0.0-0.1","5","4","5","2","3","4","4","4","5","5","5","0","-1","1","1","0","0","2","0","4","3","5","3","2","5","4","4","4","5","5","6","6","8","7","7","6","5","7","5","2","3","4","5","3","6","6","5","3","1","4","3","5","2","4","3","5","2","5","5","3","4","2","3","3","5","2","5","1","5","5","4","3","2","3","3","2","5","3","3","787033502335111170","何","632","Male","[""坏我"",""好他"",""好我"",""坏他""]","[""弱我"",""强他"",""强我"",""弱他""]","","","","","","","","nonmatch","","","","","","","","","","key","j","16.664363636363785","640","356","j","true","nonmatch","img/triangle.png","坏他","好我","ALT2","moral","","","","","","","","",""
"null","<span style='color:GreenYellow; font-size: 70px;'>正确! </span>","null","html-keyboard-response","111","286961","0.0-8.0-0.0-4.0-0.0-1.1","5","4","5","2","3","4","4","4","5","5","5","0","-1","1","1","0","0","2","0","4","3","5","3","2","5","4","4","4","5","5","6","6","8","7","7","6","5","7","5","2","3","4","5","3","6","6","5","3","1","4","3","5","2","4","3","5","2","5","5","3","4","2","3","3","5","2","5","1","5","5","4","3","2","3","3","2","5","3","3","787033502335111170","何","632","Male","[""坏我"",""好他"",""好我"",""坏他""]","[""弱我"",""强他"",""强我"",""弱他""]","","","","","","","","","","","","","","","","","","","","","","","","","","","","","","feedback_test","","","","","","","","",""
"784","","j","psychophysics","112","288757","0.0-8.0-0.0-4.0-0.0-0.2","5","4","5","2","3","4","4","4","5","5","5","0","-1","1","1","0","0","2","0","4","3","5","3","2","5","4","4","4","5","5","6","6","8","7","7","6","5","7","5","2","3","4","5","3","6","6","5","3","1","4","3","5","2","4","3","5","2","5","5","3","4","2","3","3","5","2","5","1","5","5","4","3","2","3","3","2","5","3","3","787033502335111170","何","632","Male","[""坏我"",""好他"",""好我"",""坏他""]","[""弱我"",""强他"",""强我"",""弱他""]","","","","","","","","nonmatch","","","","","","","","","","key","j","16.66467289719622","640","356","j","true","nonmatch","img/ellipse.png","坏他","坏我","ALT2","moral","","","","","","","","",""
"null","<span style='color:GreenYellow; font-size: 70px;'>正确! </span>","null","html-keyboard-response","113","289272","0.0-8.0-0.0-4.0-0.0-1.2","5","4","5","2","3","4","4","4","5","5","5","0","-1","1","1","0","0","2","0","4","3","5","3","2","5","4","4","4","5","5","6","6","8","7","7","6","5","7","5","2","3","4","5","3","6","6","5","3","1","4","3","5","2","4","3","5","2","5","5","3","4","2","3","3","5","2","5","1","5","5","4","3","2","3","3","2","5","3","3","787033502335111170","何","632","Male","[""坏我"",""好他"",""好我"",""坏他""]","[""弱我"",""强他"",""强我"",""弱他""]","","","","","","","","","","","","","","","","","","","","","","","","","","","","","","feedback_test","","","","","","","","",""
"728","","f","psychophysics","114","291014","0.0-8.0-0.0-4.0-0.0-0.3","5","4","5","2","3","4","4","4","5","5","5","0","-1","1","1","0","0","2","0","4","3","5","3","2","5","4","4","4","5","5","6","6","8","7","7","6","5","7","5","2","3","4","5","3","6","6","5","3","1","4","3","5","2","4","3","5","2","5","5","3","4","2","3","3","5","2","5","1","5","5","4","3","2","3","3","2","5","3","3","787033502335111170","何","632","Male","[""坏我"",""好他"",""好我"",""坏他""]","[""弱我"",""强他"",""强我"",""弱他""]","","","","","","","","match","","","","","","","","","","key","f","16.662330097087107","640","356","j","false","nonmatch","img/triangle.png","好他","好我","ALT2","moral","","","","","","","","",""
"null","<span style='color:red; font-size: 70px;'>错误! </span>","null","html-keyboard-response","115","291518","0.0-8.0-0.0-4.0-0.0-1.3","5","4","5","2","3","4","4","4","5","5","5","0","-1","1","1","0","0","2","0","4","3","5","3","2","5","4","4","4","5","5","6","6","8","7","7","6","5","7","5","2","3","4","5","3","6","6","5","3","1","4","3","5","2","4","3","5","2","5","5","3","4","2","3","3","5","2","5","1","5","5","4","3","2","3","3","2","5","3","3","787033502335111170","何","632","Male","[""坏我"",""好他"",""好我"",""坏他""]","[""弱我"",""强他"",""强我"",""弱他""]","","","","","","","","","","","","","","","","","","","","","","","","","","","","","","feedback_test","","","","","","","","",""
"700","","j","psychophysics","116","293224","0.0-8.0-0.0-4.0-0.0-0.4","5","4","5","2","3","4","4","4","5","5","5","0","-1","1","1","0","0","2","0","4","3","5","3","2","5","4","4","4","5","5","6","6","8","7","7","6","5","7","5","2","3","4","5","3","6","6","5","3","1","4","3","5","2","4","3","5","2","5","5","3","4","2","3","3","5","2","5","1","5","5","4","3","2","3","3","2","5","3","3","787033502335111170","何","632","Male","[""坏我"",""好他"",""好我"",""坏他""]","[""弱我"",""强他"",""强我"",""弱他""]","","","","","","","","nonmatch","","","","","","","","","","key","j","16.67156862745098","640","356","j","true","nonmatch","img/pentagon.png","好他","坏他","ALT2","moral","","","","","","","","",""
"null","<span style='color:GreenYellow; font-size: 70px;'>正确! </span>","null","html-keyboard-response","117","293726","0.0-8.0-0.0-4.0-0.0-1.4","5","4","5","2","3","4","4","4","5","5","5","0","-1","1","1","0","0","2","0","4","3","5","3","2","5","4","4","4","5","5","6","6","8","7","7","6","5","7","5","2","3","4","5","3","6","6","5","3","1","4","3","5","2","4","3","5","2","5","5","3","4","2","3","3","5","2","5","1","5","5","4","3","2","3","3","2","5","3","3","787033502335111170","何","632","Male","[""坏我"",""好他"",""好我"",""坏他""]","[""弱我"",""强他"",""强我"",""弱他""]","","","","","","","","","","","","","","","","","","","","","","","","","","","","","","feedback_test","","","","","","","","",""
"730","","f","psychophysics","118","295473","0.0-8.0-0.0-4.0-0.0-0.5","5","4","5","2","3","4","4","4","5","5","5","0","-1","1","1","0","0","2","0","4","3","5","3","2","5","4","4","4","5","5","6","6","8","7","7","6","5","7","5","2","3","4","5","3","6","6","5","3","1","4","3","5","2","4","3","5","2","5","5","3","4","2","3","3","5","2","5","1","5","5","4","3","2","3","3","2","5","3","3","787033502335111170","何","632","Male","[""坏我"",""好他"",""好我"",""坏他""]","[""弱我"",""强他"",""强我"",""弱他""]","","","","","","","","match","","","","","","","","","","key","f","16.664423076923413","640","356","f","true","match","img/square.png","好他","好他","ALT2","moral","","","","","","","","",""
"null","<span style='color:GreenYellow; font-size: 70px;'>正确! </span>","null","html-keyboard-response","119","295975","0.0-8.0-0.0-4.0-0.0-1.5","5","4","5","2","3","4","4","4","5","5","5","0","-1","1","1","0","0","2","0","4","3","5","3","2","5","4","4","4","5","5","6","6","8","7","7","6","5","7","5","2","3","4","5","3","6","6","5","3","1","4","3","5","2","4","3","5","2","5","5","3","4","2","3","3","5","2","5","1","5","5","4","3","2","3","3","2","5","3","3","787033502335111170","何","632","Male","[""坏我"",""好他"",""好我"",""坏他""]","[""弱我"",""强他"",""强我"",""弱他""]","","","","","","","","","","","","","","","","","","","","","","","","","","","","","","feedback_test","","","","","","","","",""
"680","","j","psychophysics","120","297668","0.0-8.0-0.0-4.0-0.0-0.6","5","4","5","2","3","4","4","4","5","5","5","0","-1","1","1","0","0","2","0","4","3","5","3","2","5","4","4","4","5","5","6","6","8","7","7","6","5","7","5","2","3","4","5","3","6","6","5","3","1","4","3","5","2","4","3","5","2","5","5","3","4","2","3","3","5","2","5","1","5","5","4","3","2","3","3","2","5","3","3","787033502335111170","何","632","Male","[""坏我"",""好他"",""好我"",""坏他""]","[""弱我"",""强他"",""强我"",""弱他""]","","","","","","","","nonmatch","","","","","","","","","","key","j","16.59821782178202","640","356","j","true","nonmatch","img/ellipse.png","好我","坏我","ALT2","moral","","","","","","","","",""
"null","<span style='color:GreenYellow; font-size: 70px;'>正确! </span>","null","html-keyboard-response","121","298178","0.0-8.0-0.0-4.0-0.0-1.6","5","4","5","2","3","4","4","4","5","5","5","0","-1","1","1","0","0","2","0","4","3","5","3","2","5","4","4","4","5","5","6","6","8","7","7","6","5","7","5","2","3","4","5","3","6","6","5","3","1","4","3","5","2","4","3","5","2","5","5","3","4","2","3","3","5","2","5","1","5","5","4","3","2","3","3","2","5","3","3","787033502335111170","何","632","Male","[""坏我"",""好他"",""好我"",""坏他""]","[""弱我"",""强他"",""强我"",""弱他""]","","","","","","","","","","","","","","","","","","","","","","","","","","","","","","feedback_test","","","","","","","","",""
"672","","f","psychophysics","122","299863","0.0-8.0-0.0-4.0-0.0-0.7","5","4","5","2","3","4","4","4","5","5","5","0","-1","1","1","0","0","2","0","4","3","5","3","2","5","4","4","4","5","5","6","6","8","7","7","6","5","7","5","2","3","4","5","3","6","6","5","3","1","4","3","5","2","4","3","5","2","5","5","3","4","2","3","3","5","2","5","1","5","5","4","3","2","3","3","2","5","3","3","787033502335111170","何","632","Male","[""坏我"",""好他"",""好我"",""坏他""]","[""弱我"",""强他"",""强我"",""弱他""]","","","","","","","","match","","","","","","","","","","key","f","16.55702970297039","640","356","f","true","match","img/ellipse.png","坏我","坏我","ALT2","moral","","","","","","","","",""
"null","<span style='color:GreenYellow; font-size: 70px;'>正确! </span>","null","html-keyboard-response","123","300393","0.0-8.0-0.0-4.0-0.0-1.7","5","4","5","2","3","4","4","4","5","5","5","0","-1","1","1","0","0","2","0","4","3","5","3","2","5","4","4","4","5","5","6","6","8","7","7","6","5","7","5","2","3","4","5","3","6","6","5","3","1","4","3","5","2","4","3","5","2","5","5","3","4","2","3","3","5","2","5","1","5","5","4","3","2","3","3","2","5","3","3","787033502335111170","何","632","Male","[""坏我"",""好他"",""好我"",""坏他""]","[""弱我"",""强他"",""强我"",""弱他""]","","","","","","","","","","","","","","","","","","","","","","","","","","","","","","feedback_test","","","","","","","","",""
"854","","f","psychophysics","124","302262","0.0-8.0-0.0-4.0-0.0-0.8","5","4","5","2","3","4","4","4","5","5","5","0","-1","1","1","0","0","2","0","4","3","5","3","2","5","4","4","4","5","5","6","6","8","7","7","6","5","7","5","2","3","4","5","3","6","6","5","3","1","4","3","5","2","4","3","5","2","5","5","3","4","2","3","3","5","2","5","1","5","5","4","3","2","3","3","2","5","3","3","787033502335111170","何","632","Male","[""坏我"",""好他"",""好我"",""坏他""]","[""弱我"",""强他"",""强我"",""弱他""]","","","","","","","","match","","","","","","","","","","key","f","16.573749999999563","640","356","f","true","match","img/square.png","好他","好他","ALT2","moral","","","","","","","","",""
"null","<span style='color:GreenYellow; font-size: 70px;'>正确! </span>","null","html-keyboard-response","125","302765","0.0-8.0-0.0-4.0-0.0-1.8","5","4","5","2","3","4","4","4","5","5","5","0","-1","1","1","0","0","2","0","4","3","5","3","2","5","4","4","4","5","5","6","6","8","7","7","6","5","7","5","2","3","4","5","3","6","6","5","3","1","4","3","5","2","4","3","5","2","5","5","3","4","2","3","3","5","2","5","1","5","5","4","3","2","3","3","2","5","3","3","787033502335111170","何","632","Male","[""坏我"",""好他"",""好我"",""坏他""]","[""弱我"",""强他"",""强我"",""弱他""]","","","","","","","","","","","","","","","","","","","","","","","","","","","","","","feedback_test","","","","","","","","",""
"647","","f","psychophysics","126","304460","0.0-8.0-0.0-4.0-0.0-0.9","5","4","5","2","3","4","4","4","5","5","5","0","-1","1","1","0","0","2","0","4","3","5","3","2","5","4","4","4","5","5","6","6","8","7","7","6","5","7","5","2","3","4","5","3","6","6","5","3","1","4","3","5","2","4","3","5","2","5","5","3","4","2","3","3","5","2","5","1","5","5","4","3","2","3","3","2","5","3","3","787033502335111170","何","632","Male","[""坏我"",""好他"",""好我"",""坏他""]","[""弱我"",""强他"",""强我"",""弱他""]","","","","","","","","match","","","","","","","","","","key","f","16.516078431372687","640","356","j","false","nonmatch","img/square.png","坏我","好他","ALT2","moral","","","","","","","","",""
"null","<span style='color:red; font-size: 70px;'>错误! </span>","null","html-keyboard-response","127","304968","0.0-8.0-0.0-4.0-0.0-1.9","5","4","5","2","3","4","4","4","5","5","5","0","-1","1","1","0","0","2","0","4","3","5","3","2","5","4","4","4","5","5","6","6","8","7","7","6","5","7","5","2","3","4","5","3","6","6","5","3","1","4","3","5","2","4","3","5","2","5","5","3","4","2","3","3","5","2","5","1","5","5","4","3","2","3","3","2","5","3","3","787033502335111170","何","632","Male","[""坏我"",""好他"",""好我"",""坏他""]","[""弱我"",""强他"",""强我"",""弱他""]","","","","","","","","","","","","","","","","","","","","","","","","","","","","","","feedback_test","","","","","","","","",""
"621","","f","psychophysics","128","306591","0.0-8.0-0.0-4.0-0.0-0.10","5","4","5","2","3","4","4","4","5","5","5","0","-1","1","1","0","0","2","0","4","3","5","3","2","5","4","4","4","5","5","6","6","8","7","7","6","5","7","5","2","3","4","5","3","6","6","5","3","1","4","3","5","2","4","3","5","2","5","5","3","4","2","3","3","5","2","5","1","5","5","4","3","2","3","3","2","5","3","3","787033502335111170","何","632","Male","[""坏我"",""好他"",""好我"",""坏他""]","[""弱我"",""强他"",""强我"",""弱他""]","","","","","","","","match","","","","","","","","","","key","f","16.66437500000029","640","356","f","true","match","img/pentagon.png","坏他","坏他","ALT2","moral","","","","","","","","",""
"null","<span style='color:GreenYellow; font-size: 70px;'>正确! </span>","null","html-keyboard-response","129","307097","0.0-8.0-0.0-4.0-0.0-1.10","5","4","5","2","3","4","4","4","5","5","5","0","-1","1","1","0","0","2","0","4","3","5","3","2","5","4","4","4","5","5","6","6","8","7","7","6","5","7","5","2","3","4","5","3","6","6","5","3","1","4","3","5","2","4","3","5","2","5","5","3","4","2","3","3","5","2","5","1","5","5","4","3","2","3","3","2","5","3","3","787033502335111170","何","632","Male","[""坏我"",""好他"",""好我"",""坏他""]","[""弱我"",""强他"",""强我"",""弱他""]","","","","","","","","","","","","","","","","","","","","","","","","","","","","","","feedback_test","","","","","","","","",""
"668","","f","psychophysics","130","308767","0.0-8.0-0.0-4.0-0.0-0.11","5","4","5","2","3","4","4","4","5","5","5","0","-1","1","1","0","0","2","0","4","3","5","3","2","5","4","4","4","5","5","6","6","8","7","7","6","5","7","5","2","3","4","5","3","6","6","5","3","1","4","3","5","2","4","3","5","2","5","5","3","4","2","3","3","5","2","5","1","5","5","4","3","2","3","3","2","5","3","3","787033502335111170","何","632","Male","[""坏我"",""好他"",""好我"",""坏他""]","[""弱我"",""强他"",""强我"",""弱他""]","","","","","","","","match","","","","","","","","","","key","f","16.664444444444726","640","356","j","false","nonmatch","img/triangle.png","坏我","好我","ALT2","moral","","","","","","","","",""
"null","<span style='color:red; font-size: 70px;'>错误! </span>","null","html-keyboard-response","131","309272","0.0-8.0-0.0-4.0-0.0-1.11","5","4","5","2","3","4","4","4","5","5","5","0","-1","1","1","0","0","2","0","4","3","5","3","2","5","4","4","4","5","5","6","6","8","7","7","6","5","7","5","2","3","4","5","3","6","6","5","3","1","4","3","5","2","4","3","5","2","5","5","3","4","2","3","3","5","2","5","1","5","5","4","3","2","3","3","2","5","3","3","787033502335111170","何","632","Male","[""坏我"",""好他"",""好我"",""坏他""]","[""弱我"",""强他"",""强我"",""弱他""]","","","","","","","","","","","","","","","","","","","","","","","","","","","","","","feedback_test","","","","","","","","",""
"710","","j","psychophysics","132","310999","0.0-8.0-0.0-4.0-0.0-0.12","5","4","5","2","3","4","4","4","5","5","5","0","-1","1","1","0","0","2","0","4","3","5","3","2","5","4","4","4","5","5","6","6","8","7","7","6","5","7","5","2","3","4","5","3","6","6","5","3","1","4","3","5","2","4","3","5","2","5","5","3","4","2","3","3","5","2","5","1","5","5","4","3","2","3","3","2","5","3","3","787033502335111170","何","632","Male","[""坏我"",""好他"",""好我"",""坏他""]","[""弱我"",""强他"",""强我"",""弱他""]","","","","","","","","nonmatch","","","","","","","","","","key","j","16.581359223301018","640","356","f","false","match","img/triangle.png","好我","好我","ALT2","moral","","","","","","","","",""
"null","<span style='color:red; font-size: 70px;'>错误! </span>","null","html-keyboard-response","133","311508","0.0-8.0-0.0-4.0-0.0-1.12","5","4","5","2","3","4","4","4","5","5","5","0","-1","1","1","0","0","2","0","4","3","5","3","2","5","4","4","4","5","5","6","6","8","7","7","6","5","7","5","2","3","4","5","3","6","6","5","3","1","4","3","5","2","4","3","5","2","5","5","3","4","2","3","3","5","2","5","1","5","5","4","3","2","3","3","2","5","3","3","787033502335111170","何","632","Male","[""坏我"",""好他"",""好我"",""坏他""]","[""弱我"",""强他"",""强我"",""弱他""]","","","","","","","","","","","","","","","","","","","","","","","","","","","","","","feedback_test","","","","","","","","",""
"550","","f","psychophysics","134","313073","0.0-8.0-0.0-4.0-0.0-0.13","5","4","5","2","3","4","4","4","5","5","5","0","-1","1","1","0","0","2","0","4","3","5","3","2","5","4","4","4","5","5","6","6","8","7","7","6","5","7","5","2","3","4","5","3","6","6","5","3","1","4","3","5","2","4","3","5","2","5","5","3","4","2","3","3","5","2","5","1","5","5","4","3","2","3","3","2","5","3","3","787033502335111170","何","632","Male","[""坏我"",""好他"",""好我"",""坏他""]","[""弱我"",""强他"",""强我"",""弱他""]","","","","","","","","match","","","","","","","","","","key","f","16.664086021505476","640","356","f","true","match","img/triangle.png","好我","好我","ALT2","moral","","","","","","","","",""
"null","<span style='color:GreenYellow; font-size: 70px;'>正确! </span>","null","html-keyboard-response","135","313586","0.0-8.0-0.0-4.0-0.0-1.13","5","4","5","2","3","4","4","4","5","5","5","0","-1","1","1","0","0","2","0","4","3","5","3","2","5","4","4","4","5","5","6","6","8","7","7","6","5","7","5","2","3","4","5","3","6","6","5","3","1","4","3","5","2","4","3","5","2","5","5","3","4","2","3","3","5","2","5","1","5","5","4","3","2","3","3","2","5","3","3","787033502335111170","何","632","Male","[""坏我"",""好他"",""好我"",""坏他""]","[""弱我"",""强他"",""强我"",""弱他""]","","","","","","","","","","","","","","","","","","","","","","","","","","","","","","feedback_test","","","","","","","","",""
"813","","f","psychophysics","136","315418","0.0-8.0-0.0-4.0-0.0-0.14","5","4","5","2","3","4","4","4","5","5","5","0","-1","1","1","0","0","2","0","4","3","5","3","2","5","4","4","4","5","5","6","6","8","7","7","6","5","7","5","2","3","4","5","3","6","6","5","3","1","4","3","5","2","4","3","5","2","5","5","3","4","2","3","3","5","2","5","1","5","5","4","3","2","3","3","2","5","3","3","787033502335111170","何","632","Male","[""坏我"",""好他"",""好我"",""坏他""]","[""弱我"",""强他"",""强我"",""弱他""]","","","","","","","","match","","","","","","","","","","key","f","16.664074074073817","640","356","j","false","nonmatch","img/pentagon.png","好我","坏他","ALT2","moral","","","","","","","","",""
"null","<span style='color:red; font-size: 70px;'>错误! </span>","null","html-keyboard-response","137","315933","0.0-8.0-0.0-4.0-0.0-1.14","5","4","5","2","3","4","4","4","5","5","5","0","-1","1","1","0","0","2","0","4","3","5","3","2","5","4","4","4","5","5","6","6","8","7","7","6","5","7","5","2","3","4","5","3","6","6","5","3","1","4","3","5","2","4","3","5","2","5","5","3","4","2","3","3","5","2","5","1","5","5","4","3","2","3","3","2","5","3","3","787033502335111170","何","632","Male","[""坏我"",""好他"",""好我"",""坏他""]","[""弱我"",""强他"",""强我"",""弱他""]","","","","","","","","","","","","","","","","","","","","","","","","","","","","","","feedback_test","","","","","","","","",""
"664","","f","psychophysics","138","317609","0.0-8.0-0.0-4.0-0.0-0.15","5","4","5","2","3","4","4","4","5","5","5","0","-1","1","1","0","0","2","0","4","3","5","3","2","5","4","4","4","5","5","6","6","8","7","7","6","5","7","5","2","3","4","5","3","6","6","5","3","1","4","3","5","2","4","3","5","2","5","5","3","4","2","3","3","5","2","5","1","5","5","4","3","2","3","3","2","5","3","3","787033502335111170","何","632","Male","[""坏我"",""好他"",""好我"",""坏他""]","[""弱我"",""强他"",""强我"",""弱他""]","","","","","","","","match","","","","","","","","","","key","f","16.66420000000042","640","356","f","true","match","img/ellipse.png","坏我","坏我","ALT2","moral","","","","","","","","",""
"null","<span style='color:GreenYellow; font-size: 70px;'>正确! </span>","null","html-keyboard-response","139","318118","0.0-8.0-0.0-4.0-0.0-1.15","5","4","5","2","3","4","4","4","5","5","5","0","-1","1","1","0","0","2","0","4","3","5","3","2","5","4","4","4","5","5","6","6","8","7","7","6","5","7","5","2","3","4","5","3","6","6","5","3","1","4","3","5","2","4","3","5","2","5","5","3","4","2","3","3","5","2","5","1","5","5","4","3","2","3","3","2","5","3","3","787033502335111170","何","632","Male","[""坏我"",""好他"",""好我"",""坏他""]","[""弱我"",""强他"",""强我"",""弱他""]","","","","","","","","","","","","","","","","","","","","","","","","","","","","","","feedback_test","","","","","","","","",""
