"rt","stimulus","response","trial_type","trial_index","time_elapsed","internal_node_id","swb_1","swb_2","swb_3","swb_4","swb_5","LOT_1","LOT_2","LOT_3","LOT_4","LOT_5","LOT_6","IPC_1","IPC_2","IPC_3","IPC_4","IPC_5","IPC_6","IPC_7","IPC_8","MorIden_1","MorIden_2","MorIden_3","MorIden_4","MorIden_5","MorIden_6","MorIden_7","MorIden_8","MorIden_9","MorIden_10","moralSeImag_1","moralSeImag_2","moralSeImag_3","moralSeImag_4","moralSeImag_5","moralSeImag_6","moralSeImag_7","moralSeImag_8","moralSeImag_9","sde_1","sde_2","sde_3","sde_4","sde_5","sde_6","sde_7","sde_8","sde_9","sde_10","trap2","sde_11","sde_12","sde_13","sde_14","sde_15","sde_16","sde_17","sde_18","sde_19","sde_20","IM_1","IM_2","IM_3","IM_4","IM_5","IM_6","IM_7","IM_8","IM_9","IM_10","IM_11","IM_12","IM_13","IM_14","IM_15","IM_16","IM_17","IM_18","IM_19","IM_20","subj_idx","friend_name","ParticipantID","Sex","Word","Word2","value","success","timeout","failed_images","failed_audio","failed_video","user_agent","responses","item_order","radio_event_ids","radio_event_times","key_event_times","mouse_event_times","straightlining","zigzagging","honeypot","view_history","response_type","key_press","avg_frame_time","center_x","center_y","correct_response","correct","identity","Image","word","condition","task_id","screen_id","time_stamp","person","valence","domain","math","status","duration","question_order","trap2_item"
"27559","
   <p><div style='color:white; font-size: 25px'>您好，欢迎参加本次实验。</div></p>
   <p><div style='color:white; font-size: 25px'>为充分保障您的权利，请确保您已经知晓并同意《参与实验同意书》以及《数据公开知情同意书》。</div></p>
   <p><div style='color:white; font-size: 25px'>如果您未见过上述内容，请咨询实验员。</div></p>
   <p style='color:white; font-size: 25px'>如果您选择继续实验，则表示您已经清楚两份知情同意书的内容并同意。</p>
   <p><div style = ""color: pink;font-size:30px;"">请确保您记得day0的实验编号，您将在本次实验输入该编号，若您忘记，请咨询实验员后作答。</div></p>
   <p><div style = ""color:lightblue;font-size:25px;"">请您尽可能认真地作答，我们将依据您在各问卷和按键任务中的作答质量发放报酬。</div></p>
   <p> <div style = ""color: green""><按空格键至下页></div> </p>
   "," ","html-keyboard-response","0","27563","0.0-0.0","5","4","5","2","2","2","4","4","4","2","5","1","0","-1","-2","0","1","1","2","5","4","5","4","4","3","4","4","5","4","3","4","5","7","2","3","5","7","5","5","5","2","5","5","3","2","2","7","3","1","3","2","3","6","5","5","3","6","5","5","3","3","3","2","3","6","5","5","6","7","7","3","7","5","2","5","3","6","3","3","781469725959131138","路","130","Female","[""坏我"",""坏她"",""好我"",""好她""]","[""弱我"",""弱她"",""强我"",""强她""]","","","","","","","","","","","","","","","","","","","","","","","","","","","","","","","","","","","","","","",""
"","","","call-function","1","27569","0.0-1.0-0.0","5","4","5","2","2","2","4","4","4","2","5","1","0","-1","-2","0","1","1","2","5","4","5","4","4","3","4","4","5","4","3","4","5","7","2","3","5","7","5","5","5","2","5","5","3","2","2","7","3","1","3","2","3","6","5","5","3","6","5","5","3","3","3","2","3","6","5","5","6","7","7","3","7","5","2","5","3","6","3","3","781469725959131138","路","130","Female","[""坏我"",""坏她"",""好我"",""好她""]","[""弱我"",""弱她"",""强我"",""强她""]","","","","","","","","","","","","","","","","","","","","","","","","","","","","","","","","","","","","","","",""
"26701","","[{""name"":""Sex"",""value"":""1""},{""name"":""friend_name"",""value"":""路""},{""name"":""ParticipantID"",""value"":""130""}]","survey-html-form","2","54271","0.0-1.0-1.0","5","4","5","2","2","2","4","4","4","2","5","1","0","-1","-2","0","1","1","2","5","4","5","4","4","3","4","4","5","4","3","4","5","7","2","3","5","7","5","5","5","2","5","5","3","2","2","7","3","1","3","2","3","6","5","5","3","6","5","5","3","3","3","2","3","6","5","5","6","7","7","3","7","5","2","5","3","6","3","3","781469725959131138","路","130","Female","[""坏我"",""坏她"",""好我"",""好她""]","[""弱我"",""弱她"",""强我"",""强她""]","","","","","","","","","","","","","","","","","","","","","","","","","","","","","","","","","","","","","","",""
"","","","preload","3","54825","0.0-2.0","5","4","5","2","2","2","4","4","4","2","5","1","0","-1","-2","0","1","1","2","5","4","5","4","4","3","4","4","5","4","3","4","5","7","2","3","5","7","5","5","5","2","5","5","3","2","2","7","3","1","3","2","3","6","5","5","3","6","5","5","3","3","3","2","3","6","5","5","6","7","7","3","7","5","2","5","3","6","3","3","781469725959131138","路","130","Female","[""坏我"",""坏她"",""好我"",""好她""]","[""弱我"",""弱她"",""强我"",""强她""]","","true","false","[]","[]","[]","","","","","","","","","","","","","","","","","","","","","","","","","","","","","","","","",""
"","","","fullscreen","4","59883","0.0-3.0","5","4","5","2","2","2","4","4","4","2","5","1","0","-1","-2","0","1","1","2","5","4","5","4","4","3","4","4","5","4","3","4","5","7","2","3","5","7","5","5","5","2","5","5","3","2","2","7","3","1","3","2","3","6","5","5","3","6","5","5","3","3","3","2","3","6","5","5","6","7","7","3","7","5","2","5","3","6","3","3","781469725959131138","路","130","Female","[""坏我"",""坏她"",""好我"",""好她""]","[""弱我"",""弱她"",""强我"",""强她""]","","true","","","","","{}","","","","","","","","","","","","","","","","","","","","","","","","","","","","","","","",""
"17210.100000023842","","{""Q01"":""5"",""Q02"":""4"",""Q03"":""5"",""Q04"":""2"",""Q05"":""2""}","survey-template","5","77096","0.0-4.0","5","4","5","2","2","2","4","4","4","2","5","1","0","-1","-2","0","1","1","2","5","4","5","4","4","3","4","4","5","4","3","4","5","7","2","3","5","7","5","5","5","2","5","5","3","2","2","7","3","1","3","2","3","6","5","5","3","6","5","5","3","3","3","2","3","6","5","5","6","7","7","3","7","5","2","5","3","6","3","3","781469725959131138","路","130","Female","[""坏我"",""坏她"",""好我"",""好她""]","[""弱我"",""弱她"",""强我"",""强她""]","","","","","","","","{""Q01"":""5"",""Q02"":""4"",""Q03"":""5"",""Q04"":""2"",""Q05"":""2""}","[0,1,2,3,4]","[""Q01"",""Q01"",""Q01"",""Q02"",""Q03"",""Q04"",""Q05""]","[4276,7518.100000023842,8129.900000035763,9170,10093.5,12660,15246.300000011921]","[]","[4276,5059.900000035763,6893.400000035763,7518.100000023842,8129.900000035763,9170,10093.5,12057.100000023842,12660,15246.300000011921,17208]","0.4","0.5","0","","","","","","","","","","","","","","","","","","","","","","",""
"46157.89999997616","","{""Q01"":""2"",""Q02"":""4"",""Q03"":""4"",""Q04"":""4"",""Q05"":""2"",""Q06"":""5""}","survey-template","6","123259","0.0-5.0","5","4","5","2","2","2","4","4","4","2","5","1","0","-1","-2","0","1","1","2","5","4","5","4","4","3","4","4","5","4","3","4","5","7","2","3","5","7","5","5","5","2","5","5","3","2","2","7","3","1","3","2","3","6","5","5","3","6","5","5","3","3","3","2","3","6","5","5","6","7","7","3","7","5","2","5","3","6","3","3","781469725959131138","路","130","Female","[""坏我"",""坏她"",""好我"",""好她""]","[""弱我"",""弱她"",""强我"",""强她""]","","","","","","","","{""Q01"":""2"",""Q02"":""4"",""Q03"":""4"",""Q04"":""4"",""Q05"":""2"",""Q06"":""5""}","[0,1,2,3,4,5]","[""Q01"",""Q02"",""Q03"",""Q03"",""Q04"",""Q05"",""Q06""]","[5267.100000023842,12709.399999976158,18846.19999998808,21134.399999976158,23174.399999976158,28532,33898]","[]","[5267.100000023842,12709.399999976158,14451.199999988079,18846.19999998808,21134.399999976158,22196.19999998808,22706.30000001192,23174.399999976158,27936.19999998808,28532,33898,46156.30000001192]","0.5","0.2","0","","","","","","","","","","","","","","","","","","","","","","",""
"35067","","{""Q01"":""1"",""Q02"":""0"",""Q03"":""-1"",""Q04"":""-2"",""Q05"":""0"",""Q06"":""1"",""Q07"":""1"",""Q08"":""2""}","survey-template","7","158331","0.0-6.0","5","4","5","2","2","2","4","4","4","2","5","1","0","-1","-2","0","1","1","2","5","4","5","4","4","3","4","4","5","4","3","4","5","7","2","3","5","7","5","5","5","2","5","5","3","2","2","7","3","1","3","2","3","6","5","5","3","6","5","5","3","3","3","2","3","6","5","5","6","7","7","3","7","5","2","5","3","6","3","3","781469725959131138","路","130","Female","[""坏我"",""坏她"",""好我"",""好她""]","[""弱我"",""弱她"",""强我"",""强她""]","","","","","","","","{""Q01"":""1"",""Q02"":""0"",""Q03"":""-1"",""Q04"":""-2"",""Q05"":""0"",""Q06"":""1"",""Q07"":""1"",""Q08"":""2""}","[0,1,2,3,4,5,6,7]","[""Q01"",""Q02"",""Q03"",""Q04"",""Q05"",""Q06"",""Q07"",""Q08""]","[5211.199999988079,9547.299999952316,13583,18796.899999976158,21835.899999976158,23456.899999976158,30417,32376.399999976158]","[]","[3943,5211.199999988079,9547.299999952316,13583,18796.899999976158,21835.899999976158,23456.899999976158,30417,32376.399999976158,35064.69999998808]","0.375","0.7142857142857143","0","","","","","","","","","","","","","","","","","","","","","","",""
"17167","","","instructions","8","175503","0.0-7.0","5","4","5","2","2","2","4","4","4","2","5","1","0","-1","-2","0","1","1","2","5","4","5","4","4","3","4","4","5","4","3","4","5","7","2","3","5","7","5","5","5","2","5","5","3","2","2","7","3","1","3","2","3","6","5","5","3","6","5","5","3","3","3","2","3","6","5","5","6","7","7","3","7","5","2","5","3","6","3","3","781469725959131138","路","130","Female","[""坏我"",""坏她"",""好我"",""好她""]","[""弱我"",""弱她"",""强我"",""强她""]","","","","","","","","","","","","","","","","","[{""page_index"":0,""viewing_time"":17167}]","","","","","","","","","","","","","","","","","","","","","",""
"98053","","","instructions","9","273558","0.0-8.0-0.0-0.0","5","4","5","2","2","2","4","4","4","2","5","1","0","-1","-2","0","1","1","2","5","4","5","4","4","3","4","4","5","4","3","4","5","7","2","3","5","7","5","5","5","2","5","5","3","2","2","7","3","1","3","2","3","6","5","5","3","6","5","5","3","3","3","2","3","6","5","5","6","7","7","3","7","5","2","5","3","6","3","3","781469725959131138","路","130","Female","[""坏我"",""坏她"",""好我"",""好她""]","[""弱我"",""弱她"",""强我"",""强她""]","","","","","","","","","","","","","","","","","[{""page_index"":0,""viewing_time"":15437},{""page_index"":1,""viewing_time"":70872},{""page_index"":2,""viewing_time"":5846},{""page_index"":3,""viewing_time"":5898}]","","","","","","","","","","","","","","","","","","","","","",""
"null","","null","psychophysics","10","275766","0.0-8.0-0.0-1.0-0.0-0.0","5","4","5","2","2","2","4","4","4","2","5","1","0","-1","-2","0","1","1","2","5","4","5","4","4","3","4","4","5","4","3","4","5","7","2","3","5","7","5","5","5","2","5","5","3","2","2","7","3","1","3","2","3","6","5","5","3","6","5","5","3","3","3","2","3","6","5","5","6","7","7","3","7","5","2","5","3","6","3","3","781469725959131138","路","130","Female","[""坏我"",""坏她"",""好我"",""好她""]","[""弱我"",""弱她"",""强我"",""强她""]","","","","","","","","null","","","","","","","","","","key","null","16.66641221374037","640","356","j","false","nonmatch","img/ellipse.png","好她","坏她","prac_ALT2_moral","practice_moral","","","","","","","","",""
"null","<span class='add_' style='color:yellow; font-size: 70px;'> 太慢! </span>","null","html-keyboard-response","11","276268","0.0-8.0-0.0-1.0-0.0-1.0","5","4","5","2","2","2","4","4","4","2","5","1","0","-1","-2","0","1","1","2","5","4","5","4","4","3","4","4","5","4","3","4","5","7","2","3","5","7","5","5","5","2","5","5","3","2","2","7","3","1","3","2","3","6","5","5","3","6","5","5","3","3","3","2","3","6","5","5","6","7","7","3","7","5","2","5","3","6","3","3","781469725959131138","路","130","Female","[""坏我"",""坏她"",""好我"",""好她""]","[""弱我"",""弱她"",""强我"",""强她""]","","","","","","","","","","","","","","","","","","","","","","","","","","","","","","feedback_test","","","","","","","","",""
"null","","null","psychophysics","12","278472","0.0-8.0-0.0-1.0-0.0-0.1","5","4","5","2","2","2","4","4","4","2","5","1","0","-1","-2","0","1","1","2","5","4","5","4","4","3","4","4","5","4","3","4","5","7","2","3","5","7","5","5","5","2","5","5","3","2","2","7","3","1","3","2","3","6","5","5","3","6","5","5","3","3","3","2","3","6","5","5","6","7","7","3","7","5","2","5","3","6","3","3","781469725959131138","路","130","Female","[""坏我"",""坏她"",""好我"",""好她""]","[""弱我"",""弱她"",""强我"",""强她""]","","","","","","","","null","","","","","","","","","","key","null","16.665648854961923","640","356","f","false","match","img/ellipse.png","坏她","坏她","prac_ALT2_moral","practice_moral","","","","","","","","",""
"null","<span class='add_' style='color:yellow; font-size: 70px;'> 太慢! </span>","null","html-keyboard-response","13","278973","0.0-8.0-0.0-1.0-0.0-1.1","5","4","5","2","2","2","4","4","4","2","5","1","0","-1","-2","0","1","1","2","5","4","5","4","4","3","4","4","5","4","3","4","5","7","2","3","5","7","5","5","5","2","5","5","3","2","2","7","3","1","3","2","3","6","5","5","3","6","5","5","3","3","3","2","3","6","5","5","6","7","7","3","7","5","2","5","3","6","3","3","781469725959131138","路","130","Female","[""坏我"",""坏她"",""好我"",""好她""]","[""弱我"",""弱她"",""强我"",""强她""]","","","","","","","","","","","","","","","","","","","","","","","","","","","","","","feedback_test","","","","","","","","",""
"1055","","f","psychophysics","14","281032","0.0-8.0-0.0-1.0-0.0-0.2","5","4","5","2","2","2","4","4","4","2","5","1","0","-1","-2","0","1","1","2","5","4","5","4","4","3","4","4","5","4","3","4","5","7","2","3","5","7","5","5","5","2","5","5","3","2","2","7","3","1","3","2","3","6","5","5","3","6","5","5","3","3","3","2","3","6","5","5","6","7","7","3","7","5","2","5","3","6","3","3","781469725959131138","路","130","Female","[""坏我"",""坏她"",""好我"",""好她""]","[""弱我"",""弱她"",""强我"",""强她""]","","","","","","","","match","","","","","","","","","","key","f","16.664754098360465","640","356","j","false","nonmatch","img/hexagon.png","好我","坏我","prac_ALT2_moral","practice_moral","","","","","","","","",""
"null","<span style='color:red; font-size: 70px;'>错误! </span>","null","html-keyboard-response","15","281534","0.0-8.0-0.0-1.0-0.0-1.2","5","4","5","2","2","2","4","4","4","2","5","1","0","-1","-2","0","1","1","2","5","4","5","4","4","3","4","4","5","4","3","4","5","7","2","3","5","7","5","5","5","2","5","5","3","2","2","7","3","1","3","2","3","6","5","5","3","6","5","5","3","3","3","2","3","6","5","5","6","7","7","3","7","5","2","5","3","6","3","3","781469725959131138","路","130","Female","[""坏我"",""坏她"",""好我"",""好她""]","[""弱我"",""弱她"",""强我"",""强她""]","","","","","","","","","","","","","","","","","","","","","","","","","","","","","","feedback_test","","","","","","","","",""
"null","","null","psychophysics","16","283743","0.0-8.0-0.0-1.0-0.0-0.3","5","4","5","2","2","2","4","4","4","2","5","1","0","-1","-2","0","1","1","2","5","4","5","4","4","3","4","4","5","4","3","4","5","7","2","3","5","7","5","5","5","2","5","5","3","2","2","7","3","1","3","2","3","6","5","5","3","6","5","5","3","3","3","2","3","6","5","5","6","7","7","3","7","5","2","5","3","6","3","3","781469725959131138","路","130","Female","[""坏我"",""坏她"",""好我"",""好她""]","[""弱我"",""弱她"",""强我"",""强她""]","","","","","","","","null","","","","","","","","","","key","null","16.663636363636186","640","356","f","false","match","img/hexagon.png","坏我","坏我","prac_ALT2_moral","practice_moral","","","","","","","","",""
"null","<span class='add_' style='color:yellow; font-size: 70px;'> 太慢! </span>","null","html-keyboard-response","17","284245","0.0-8.0-0.0-1.0-0.0-1.3","5","4","5","2","2","2","4","4","4","2","5","1","0","-1","-2","0","1","1","2","5","4","5","4","4","3","4","4","5","4","3","4","5","7","2","3","5","7","5","5","5","2","5","5","3","2","2","7","3","1","3","2","3","6","5","5","3","6","5","5","3","3","3","2","3","6","5","5","6","7","7","3","7","5","2","5","3","6","3","3","781469725959131138","路","130","Female","[""坏我"",""坏她"",""好我"",""好她""]","[""弱我"",""弱她"",""强我"",""强她""]","","","","","","","","","","","","","","","","","","","","","","","","","","","","","","feedback_test","","","","","","","","",""
"1020","","f","psychophysics","18","286268","0.0-8.0-0.0-1.0-0.0-0.4","5","4","5","2","2","2","4","4","4","2","5","1","0","-1","-2","0","1","1","2","5","4","5","4","4","3","4","4","5","4","3","4","5","7","2","3","5","7","5","5","5","2","5","5","3","2","2","7","3","1","3","2","3","6","5","5","3","6","5","5","3","3","3","2","3","6","5","5","6","7","7","3","7","5","2","5","3","6","3","3","781469725959131138","路","130","Female","[""坏我"",""坏她"",""好我"",""好她""]","[""弱我"",""弱她"",""强我"",""强她""]","","","","","","","","match","","","","","","","","","","key","f","16.665833333333044","640","356","f","true","match","img/hexagon.png","坏我","坏我","prac_ALT2_moral","practice_moral","","","","","","","","",""
"null","<span style='color:GreenYellow; font-size: 70px;'>正确! </span>","null","html-keyboard-response","19","286770","0.0-8.0-0.0-1.0-0.0-1.4","5","4","5","2","2","2","4","4","4","2","5","1","0","-1","-2","0","1","1","2","5","4","5","4","4","3","4","4","5","4","3","4","5","7","2","3","5","7","5","5","5","2","5","5","3","2","2","7","3","1","3","2","3","6","5","5","3","6","5","5","3","3","3","2","3","6","5","5","6","7","7","3","7","5","2","5","3","6","3","3","781469725959131138","路","130","Female","[""坏我"",""坏她"",""好我"",""好她""]","[""弱我"",""弱她"",""强我"",""强她""]","","","","","","","","","","","","","","","","","","","","","","","","","","","","","","feedback_test","","","","","","","","",""
"null","","null","psychophysics","20","288979","0.0-8.0-0.0-1.0-0.0-0.5","5","4","5","2","2","2","4","4","4","2","5","1","0","-1","-2","0","1","1","2","5","4","5","4","4","3","4","4","5","4","3","4","5","7","2","3","5","7","5","5","5","2","5","5","3","2","2","7","3","1","3","2","3","6","5","5","3","6","5","5","3","3","3","2","3","6","5","5","6","7","7","3","7","5","2","5","3","6","3","3","781469725959131138","路","130","Female","[""坏我"",""坏她"",""好我"",""好她""]","[""弱我"",""弱她"",""强我"",""强她""]","","","","","","","","null","","","","","","","","","","key","null","16.665648854961923","640","356","j","false","nonmatch","img/triangle.png","坏我","好我","prac_ALT2_moral","practice_moral","","","","","","","","",""
"null","<span class='add_' style='color:yellow; font-size: 70px;'> 太慢! </span>","null","html-keyboard-response","21","289480","0.0-8.0-0.0-1.0-0.0-1.5","5","4","5","2","2","2","4","4","4","2","5","1","0","-1","-2","0","1","1","2","5","4","5","4","4","3","4","4","5","4","3","4","5","7","2","3","5","7","5","5","5","2","5","5","3","2","2","7","3","1","3","2","3","6","5","5","3","6","5","5","3","3","3","2","3","6","5","5","6","7","7","3","7","5","2","5","3","6","3","3","781469725959131138","路","130","Female","[""坏我"",""坏她"",""好我"",""好她""]","[""弱我"",""弱她"",""强我"",""强她""]","","","","","","","","","","","","","","","","","","","","","","","","","","","","","","feedback_test","","","","","","","","",""
"null","","null","psychophysics","22","291688","0.0-8.0-0.0-1.0-0.0-0.6","5","4","5","2","2","2","4","4","4","2","5","1","0","-1","-2","0","1","1","2","5","4","5","4","4","3","4","4","5","4","3","4","5","7","2","3","5","7","5","5","5","2","5","5","3","2","2","7","3","1","3","2","3","6","5","5","3","6","5","5","3","3","3","2","3","6","5","5","6","7","7","3","7","5","2","5","3","6","3","3","781469725959131138","路","130","Female","[""坏我"",""坏她"",""好我"",""好她""]","[""弱我"",""弱她"",""强我"",""强她""]","","","","","","","","null","","","","","","","","","","key","null","16.66259541984724","640","356","f","false","match","img/square.png","好她","好她","prac_ALT2_moral","practice_moral","","","","","","","","",""
"null","<span class='add_' style='color:yellow; font-size: 70px;'> 太慢! </span>","null","html-keyboard-response","23","292191","0.0-8.0-0.0-1.0-0.0-1.6","5","4","5","2","2","2","4","4","4","2","5","1","0","-1","-2","0","1","1","2","5","4","5","4","4","3","4","4","5","4","3","4","5","7","2","3","5","7","5","5","5","2","5","5","3","2","2","7","3","1","3","2","3","6","5","5","3","6","5","5","3","3","3","2","3","6","5","5","6","7","7","3","7","5","2","5","3","6","3","3","781469725959131138","路","130","Female","[""坏我"",""坏她"",""好我"",""好她""]","[""弱我"",""弱她"",""强我"",""强她""]","","","","","","","","","","","","","","","","","","","","","","","","","","","","","","feedback_test","","","","","","","","",""
"903","","j","psychophysics","24","294097","0.0-8.0-0.0-1.0-0.0-0.7","5","4","5","2","2","2","4","4","4","2","5","1","0","-1","-2","0","1","1","2","5","4","5","4","4","3","4","4","5","4","3","4","5","7","2","3","5","7","5","5","5","2","5","5","3","2","2","7","3","1","3","2","3","6","5","5","3","6","5","5","3","3","3","2","3","6","5","5","6","7","7","3","7","5","2","5","3","6","3","3","781469725959131138","路","130","Female","[""坏我"",""坏她"",""好我"",""好她""]","[""弱我"",""弱她"",""强我"",""强她""]","","","","","","","","nonmatch","","","","","","","","","","key","j","16.66637168141634","640","356","j","true","nonmatch","img/hexagon.png","坏她","坏我","prac_ALT2_moral","practice_moral","","","","","","","","",""
"null","<span style='color:GreenYellow; font-size: 70px;'>正确! </span>","null","html-keyboard-response","25","294600","0.0-8.0-0.0-1.0-0.0-1.7","5","4","5","2","2","2","4","4","4","2","5","1","0","-1","-2","0","1","1","2","5","4","5","4","4","3","4","4","5","4","3","4","5","7","2","3","5","7","5","5","5","2","5","5","3","2","2","7","3","1","3","2","3","6","5","5","3","6","5","5","3","3","3","2","3","6","5","5","6","7","7","3","7","5","2","5","3","6","3","3","781469725959131138","路","130","Female","[""坏我"",""坏她"",""好我"",""好她""]","[""弱我"",""弱她"",""强我"",""强她""]","","","","","","","","","","","","","","","","","","","","","","","","","","","","","","feedback_test","","","","","","","","",""
"944","","f","psychophysics","26","296548","0.0-8.0-0.0-1.0-0.0-0.8","5","4","5","2","2","2","4","4","4","2","5","1","0","-1","-2","0","1","1","2","5","4","5","4","4","3","4","4","5","4","3","4","5","7","2","3","5","7","5","5","5","2","5","5","3","2","2","7","3","1","3","2","3","6","5","5","3","6","5","5","3","3","3","2","3","6","5","5","6","7","7","3","7","5","2","5","3","6","3","3","781469725959131138","路","130","Female","[""坏我"",""坏她"",""好我"",""好她""]","[""弱我"",""弱她"",""强我"",""强她""]","","","","","","","","match","","","","","","","","","","key","f","16.65739130434813","640","356","f","true","match","img/ellipse.png","坏她","坏她","prac_ALT2_moral","practice_moral","","","","","","","","",""
"null","<span style='color:GreenYellow; font-size: 70px;'>正确! </span>","null","html-keyboard-response","27","297050","0.0-8.0-0.0-1.0-0.0-1.8","5","4","5","2","2","2","4","4","4","2","5","1","0","-1","-2","0","1","1","2","5","4","5","4","4","3","4","4","5","4","3","4","5","7","2","3","5","7","5","5","5","2","5","5","3","2","2","7","3","1","3","2","3","6","5","5","3","6","5","5","3","3","3","2","3","6","5","5","6","7","7","3","7","5","2","5","3","6","3","3","781469725959131138","路","130","Female","[""坏我"",""坏她"",""好我"",""好她""]","[""弱我"",""弱她"",""强我"",""强她""]","","","","","","","","","","","","","","","","","","","","","","","","","","","","","","feedback_test","","","","","","","","",""
"792","","j","psychophysics","28","298846","0.0-8.0-0.0-1.0-0.0-0.9","5","4","5","2","2","2","4","4","4","2","5","1","0","-1","-2","0","1","1","2","5","4","5","4","4","3","4","4","5","4","3","4","5","7","2","3","5","7","5","5","5","2","5","5","3","2","2","7","3","1","3","2","3","6","5","5","3","6","5","5","3","3","3","2","3","6","5","5","6","7","7","3","7","5","2","5","3","6","3","3","781469725959131138","路","130","Female","[""坏我"",""坏她"",""好我"",""好她""]","[""弱我"",""弱她"",""强我"",""强她""]","","","","","","","","nonmatch","","","","","","","","","","key","j","16.66509433962264","640","356","j","true","nonmatch","img/ellipse.png","坏我","坏她","prac_ALT2_moral","practice_moral","","","","","","","","",""
"null","<span style='color:GreenYellow; font-size: 70px;'>正确! </span>","null","html-keyboard-response","29","299346","0.0-8.0-0.0-1.0-0.0-1.9","5","4","5","2","2","2","4","4","4","2","5","1","0","-1","-2","0","1","1","2","5","4","5","4","4","3","4","4","5","4","3","4","5","7","2","3","5","7","5","5","5","2","5","5","3","2","2","7","3","1","3","2","3","6","5","5","3","6","5","5","3","3","3","2","3","6","5","5","6","7","7","3","7","5","2","5","3","6","3","3","781469725959131138","路","130","Female","[""坏我"",""坏她"",""好我"",""好她""]","[""弱我"",""弱她"",""强我"",""强她""]","","","","","","","","","","","","","","","","","","","","","","","","","","","","","","feedback_test","","","","","","","","",""
"1116","","j","psychophysics","30","301465","0.0-8.0-0.0-1.0-0.0-0.10","5","4","5","2","2","2","4","4","4","2","5","1","0","-1","-2","0","1","1","2","5","4","5","4","4","3","4","4","5","4","3","4","5","7","2","3","5","7","5","5","5","2","5","5","3","2","2","7","3","1","3","2","3","6","5","5","3","6","5","5","3","3","3","2","3","6","5","5","6","7","7","3","7","5","2","5","3","6","3","3","781469725959131138","路","130","Female","[""坏我"",""坏她"",""好我"",""好她""]","[""弱我"",""弱她"",""强我"",""强她""]","","","","","","","","nonmatch","","","","","","","","","","key","j","16.665079365079272","640","356","f","false","match","img/triangle.png","好我","好我","prac_ALT2_moral","practice_moral","","","","","","","","",""
"null","<span style='color:red; font-size: 70px;'>错误! </span>","null","html-keyboard-response","31","301967","0.0-8.0-0.0-1.0-0.0-1.10","5","4","5","2","2","2","4","4","4","2","5","1","0","-1","-2","0","1","1","2","5","4","5","4","4","3","4","4","5","4","3","4","5","7","2","3","5","7","5","5","5","2","5","5","3","2","2","7","3","1","3","2","3","6","5","5","3","6","5","5","3","3","3","2","3","6","5","5","6","7","7","3","7","5","2","5","3","6","3","3","781469725959131138","路","130","Female","[""坏我"",""坏她"",""好我"",""好她""]","[""弱我"",""弱她"",""强我"",""强她""]","","","","","","","","","","","","","","","","","","","","","","","","","","","","","","feedback_test","","","","","","","","",""
"null","","null","psychophysics","32","304175","0.0-8.0-0.0-1.0-0.0-0.11","5","4","5","2","2","2","4","4","4","2","5","1","0","-1","-2","0","1","1","2","5","4","5","4","4","3","4","4","5","4","3","4","5","7","2","3","5","7","5","5","5","2","5","5","3","2","2","7","3","1","3","2","3","6","5","5","3","6","5","5","3","3","3","2","3","6","5","5","6","7","7","3","7","5","2","5","3","6","3","3","781469725959131138","路","130","Female","[""坏我"",""坏她"",""好我"",""好她""]","[""弱我"",""弱她"",""强我"",""强她""]","","","","","","","","null","","","","","","","","","","key","null","16.65648854961832","640","356","j","false","nonmatch","img/hexagon.png","好她","坏我","prac_ALT2_moral","practice_moral","","","","","","","","",""
"null","<span class='add_' style='color:yellow; font-size: 70px;'> 太慢! </span>","null","html-keyboard-response","33","304678","0.0-8.0-0.0-1.0-0.0-1.11","5","4","5","2","2","2","4","4","4","2","5","1","0","-1","-2","0","1","1","2","5","4","5","4","4","3","4","4","5","4","3","4","5","7","2","3","5","7","5","5","5","2","5","5","3","2","2","7","3","1","3","2","3","6","5","5","3","6","5","5","3","3","3","2","3","6","5","5","6","7","7","3","7","5","2","5","3","6","3","3","781469725959131138","路","130","Female","[""坏我"",""坏她"",""好我"",""好她""]","[""弱我"",""弱她"",""强我"",""强她""]","","","","","","","","","","","","","","","","","","","","","","","","","","","","","","feedback_test","","","","","","","","",""
"null","","null","psychophysics","34","306885","0.0-8.0-0.0-1.0-0.0-0.12","5","4","5","2","2","2","4","4","4","2","5","1","0","-1","-2","0","1","1","2","5","4","5","4","4","3","4","4","5","4","3","4","5","7","2","3","5","7","5","5","5","2","5","5","3","2","2","7","3","1","3","2","3","6","5","5","3","6","5","5","3","3","3","2","3","6","5","5","6","7","7","3","7","5","2","5","3","6","3","3","781469725959131138","路","130","Female","[""坏我"",""坏她"",""好我"",""好她""]","[""弱我"",""弱她"",""强我"",""强她""]","","","","","","","","null","","","","","","","","","","key","null","16.663636363636186","640","356","j","false","nonmatch","img/triangle.png","坏她","好我","prac_ALT2_moral","practice_moral","","","","","","","","",""
"null","<span class='add_' style='color:yellow; font-size: 70px;'> 太慢! </span>","null","html-keyboard-response","35","307388","0.0-8.0-0.0-1.0-0.0-1.12","5","4","5","2","2","2","4","4","4","2","5","1","0","-1","-2","0","1","1","2","5","4","5","4","4","3","4","4","5","4","3","4","5","7","2","3","5","7","5","5","5","2","5","5","3","2","2","7","3","1","3","2","3","6","5","5","3","6","5","5","3","3","3","2","3","6","5","5","6","7","7","3","7","5","2","5","3","6","3","3","781469725959131138","路","130","Female","[""坏我"",""坏她"",""好我"",""好她""]","[""弱我"",""弱她"",""强我"",""强她""]","","","","","","","","","","","","","","","","","","","","","","","","","","","","","","feedback_test","","","","","","","","",""
"null","","null","psychophysics","36","309594","0.0-8.0-0.0-1.0-0.0-0.13","5","4","5","2","2","2","4","4","4","2","5","1","0","-1","-2","0","1","1","2","5","4","5","4","4","3","4","4","5","4","3","4","5","7","2","3","5","7","5","5","5","2","5","5","3","2","2","7","3","1","3","2","3","6","5","5","3","6","5","5","3","3","3","2","3","6","5","5","6","7","7","3","7","5","2","5","3","6","3","3","781469725959131138","路","130","Female","[""坏我"",""坏她"",""好我"",""好她""]","[""弱我"",""弱她"",""强我"",""强她""]","","","","","","","","null","","","","","","","","","","key","null","16.666412213740813","640","356","f","false","match","img/triangle.png","好我","好我","prac_ALT2_moral","practice_moral","","","","","","","","",""
"null","<span class='add_' style='color:yellow; font-size: 70px;'> 太慢! </span>","null","html-keyboard-response","37","310096","0.0-8.0-0.0-1.0-0.0-1.13","5","4","5","2","2","2","4","4","4","2","5","1","0","-1","-2","0","1","1","2","5","4","5","4","4","3","4","4","5","4","3","4","5","7","2","3","5","7","5","5","5","2","5","5","3","2","2","7","3","1","3","2","3","6","5","5","3","6","5","5","3","3","3","2","3","6","5","5","6","7","7","3","7","5","2","5","3","6","3","3","781469725959131138","路","130","Female","[""坏我"",""坏她"",""好我"",""好她""]","[""弱我"",""弱她"",""强我"",""强她""]","","","","","","","","","","","","","","","","","","","","","","","","","","","","","","feedback_test","","","","","","","","",""
"null","","null","psychophysics","38","312303","0.0-8.0-0.0-1.0-0.0-0.14","5","4","5","2","2","2","4","4","4","2","5","1","0","-1","-2","0","1","1","2","5","4","5","4","4","3","4","4","5","4","3","4","5","7","2","3","5","7","5","5","5","2","5","5","3","2","2","7","3","1","3","2","3","6","5","5","3","6","5","5","3","3","3","2","3","6","5","5","6","7","7","3","7","5","2","5","3","6","3","3","781469725959131138","路","130","Female","[""坏我"",""坏她"",""好我"",""好她""]","[""弱我"",""弱她"",""强我"",""强她""]","","","","","","","","null","","","","","","","","","","key","null","16.66287878787879","640","356","j","false","nonmatch","img/square.png","坏我","好她","prac_ALT2_moral","practice_moral","","","","","","","","",""
"null","<span class='add_' style='color:yellow; font-size: 70px;'> 太慢! </span>","null","html-keyboard-response","39","312805","0.0-8.0-0.0-1.0-0.0-1.14","5","4","5","2","2","2","4","4","4","2","5","1","0","-1","-2","0","1","1","2","5","4","5","4","4","3","4","4","5","4","3","4","5","7","2","3","5","7","5","5","5","2","5","5","3","2","2","7","3","1","3","2","3","6","5","5","3","6","5","5","3","3","3","2","3","6","5","5","6","7","7","3","7","5","2","5","3","6","3","3","781469725959131138","路","130","Female","[""坏我"",""坏她"",""好我"",""好她""]","[""弱我"",""弱她"",""强我"",""强她""]","","","","","","","","","","","","","","","","","","","","","","","","","","","","","","feedback_test","","","","","","","","",""
"null","","null","psychophysics","40","315012","0.0-8.0-0.0-1.0-0.0-0.15","5","4","5","2","2","2","4","4","4","2","5","1","0","-1","-2","0","1","1","2","5","4","5","4","4","3","4","4","5","4","3","4","5","7","2","3","5","7","5","5","5","2","5","5","3","2","2","7","3","1","3","2","3","6","5","5","3","6","5","5","3","3","3","2","3","6","5","5","6","7","7","3","7","5","2","5","3","6","3","3","781469725959131138","路","130","Female","[""坏我"",""坏她"",""好我"",""好她""]","[""弱我"",""弱她"",""强我"",""强她""]","","","","","","","","null","","","","","","","","","","key","null","16.66488549618303","640","356","j","false","nonmatch","img/ellipse.png","好我","坏她","prac_ALT2_moral","practice_moral","","","","","","","","",""
"null","<span class='add_' style='color:yellow; font-size: 70px;'> 太慢! </span>","null","html-keyboard-response","41","315523","0.0-8.0-0.0-1.0-0.0-1.15","5","4","5","2","2","2","4","4","4","2","5","1","0","-1","-2","0","1","1","2","5","4","5","4","4","3","4","4","5","4","3","4","5","7","2","3","5","7","5","5","5","2","5","5","3","2","2","7","3","1","3","2","3","6","5","5","3","6","5","5","3","3","3","2","3","6","5","5","6","7","7","3","7","5","2","5","3","6","3","3","781469725959131138","路","130","Female","[""坏我"",""坏她"",""好我"",""好她""]","[""弱我"",""弱她"",""强我"",""强她""]","","","","","","","","","","","","","","","","","","","","","","","","","","","","","","feedback_test","","","","","","","","",""
"null","","null","psychophysics","42","317729","0.0-8.0-0.0-1.0-0.0-0.16","5","4","5","2","2","2","4","4","4","2","5","1","0","-1","-2","0","1","1","2","5","4","5","4","4","3","4","4","5","4","3","4","5","7","2","3","5","7","5","5","5","2","5","5","3","2","2","7","3","1","3","2","3","6","5","5","3","6","5","5","3","3","3","2","3","6","5","5","6","7","7","3","7","5","2","5","3","6","3","3","781469725959131138","路","130","Female","[""坏我"",""坏她"",""好我"",""好她""]","[""弱我"",""弱她"",""强我"",""强她""]","","","","","","","","null","","","","","","","","","","key","null","16.66641221374037","640","356","f","false","match","img/square.png","好她","好她","prac_ALT2_moral","practice_moral","","","","","","","","",""
"null","<span class='add_' style='color:yellow; font-size: 70px;'> 太慢! </span>","null","html-keyboard-response","43","318231","0.0-8.0-0.0-1.0-0.0-1.16","5","4","5","2","2","2","4","4","4","2","5","1","0","-1","-2","0","1","1","2","5","4","5","4","4","3","4","4","5","4","3","4","5","7","2","3","5","7","5","5","5","2","5","5","3","2","2","7","3","1","3","2","3","6","5","5","3","6","5","5","3","3","3","2","3","6","5","5","6","7","7","3","7","5","2","5","3","6","3","3","781469725959131138","路","130","Female","[""坏我"",""坏她"",""好我"",""好她""]","[""弱我"",""弱她"",""强我"",""强她""]","","","","","","","","","","","","","","","","","","","","","","","","","","","","","","feedback_test","","","","","","","","",""
"798","","f","psychophysics","44","320032","0.0-8.0-0.0-1.0-0.0-0.17","5","4","5","2","2","2","4","4","4","2","5","1","0","-1","-2","0","1","1","2","5","4","5","4","4","3","4","4","5","4","3","4","5","7","2","3","5","7","5","5","5","2","5","5","3","2","2","7","3","1","3","2","3","6","5","5","3","6","5","5","3","3","3","2","3","6","5","5","6","7","7","3","7","5","2","5","3","6","3","3","781469725959131138","路","130","Female","[""坏我"",""坏她"",""好我"",""好她""]","[""弱我"",""弱她"",""强我"",""强她""]","","","","","","","","match","","","","","","","","","","key","f","16.666981132075033","640","356","j","false","nonmatch","img/square.png","坏她","好她","prac_ALT2_moral","practice_moral","","","","","","","","",""
"null","<span style='color:red; font-size: 70px;'>错误! </span>","null","html-keyboard-response","45","320539","0.0-8.0-0.0-1.0-0.0-1.17","5","4","5","2","2","2","4","4","4","2","5","1","0","-1","-2","0","1","1","2","5","4","5","4","4","3","4","4","5","4","3","4","5","7","2","3","5","7","5","5","5","2","5","5","3","2","2","7","3","1","3","2","3","6","5","5","3","6","5","5","3","3","3","2","3","6","5","5","6","7","7","3","7","5","2","5","3","6","3","3","781469725959131138","路","130","Female","[""坏我"",""坏她"",""好我"",""好她""]","[""弱我"",""弱她"",""强我"",""强她""]","","","","","","","","","","","","","","","","","","","","","","","","","","","","","","feedback_test","","","","","","","","",""
"26","","j","psychophysics","46","321567","0.0-8.0-0.0-1.0-0.0-0.18","5","4","5","2","2","2","4","4","4","2","5","1","0","-1","-2","0","1","1","2","5","4","5","4","4","3","4","4","5","4","3","4","5","7","2","3","5","7","5","5","5","2","5","5","3","2","2","7","3","1","3","2","3","6","5","5","3","6","5","5","3","3","3","2","3","6","5","5","6","7","7","3","7","5","2","5","3","6","3","3","781469725959131138","路","130","Female","[""坏我"",""坏她"",""好我"",""好她""]","[""弱我"",""弱她"",""强我"",""强她""]","","","","","","","","nonmatch","","","","","","","","","","key","j","16.662295081967596","640","356","f","false","match","img/hexagon.png","坏我","坏我","prac_ALT2_moral","practice_moral","","","","","","","","",""
"null","<span style='color:yellow; font-size: 70px;'>过快! </span>","null","html-keyboard-response","47","322068","0.0-8.0-0.0-1.0-0.0-1.18","5","4","5","2","2","2","4","4","4","2","5","1","0","-1","-2","0","1","1","2","5","4","5","4","4","3","4","4","5","4","3","4","5","7","2","3","5","7","5","5","5","2","5","5","3","2","2","7","3","1","3","2","3","6","5","5","3","6","5","5","3","3","3","2","3","6","5","5","6","7","7","3","7","5","2","5","3","6","3","3","781469725959131138","路","130","Female","[""坏我"",""坏她"",""好我"",""好她""]","[""弱我"",""弱她"",""强我"",""强她""]","","","","","","","","","","","","","","","","","","","","","","","","","","","","","","feedback_test","","","","","","","","",""
"11","","j","psychophysics","48","323082","0.0-8.0-0.0-1.0-0.0-0.19","5","4","5","2","2","2","4","4","4","2","5","1","0","-1","-2","0","1","1","2","5","4","5","4","4","3","4","4","5","4","3","4","5","7","2","3","5","7","5","5","5","2","5","5","3","2","2","7","3","1","3","2","3","6","5","5","3","6","5","5","3","3","3","2","3","6","5","5","6","7","7","3","7","5","2","5","3","6","3","3","781469725959131138","路","130","Female","[""坏我"",""坏她"",""好我"",""好她""]","[""弱我"",""弱她"",""强我"",""强她""]","","","","","","","","nonmatch","","","","","","","","","","key","j","16.66333333333411","640","356","j","true","nonmatch","img/square.png","好我","好她","prac_ALT2_moral","practice_moral","","","","","","","","",""
"null","<span style='color:yellow; font-size: 70px;'>过快! </span>","null","html-keyboard-response","49","323584","0.0-8.0-0.0-1.0-0.0-1.19","5","4","5","2","2","2","4","4","4","2","5","1","0","-1","-2","0","1","1","2","5","4","5","4","4","3","4","4","5","4","3","4","5","7","2","3","5","7","5","5","5","2","5","5","3","2","2","7","3","1","3","2","3","6","5","5","3","6","5","5","3","3","3","2","3","6","5","5","6","7","7","3","7","5","2","5","3","6","3","3","781469725959131138","路","130","Female","[""坏我"",""坏她"",""好我"",""好她""]","[""弱我"",""弱她"",""强我"",""强她""]","","","","","","","","","","","","","","","","","","","","","","","","","","","","","","feedback_test","","","","","","","","",""
"634","","j","psychophysics","50","325220","0.0-8.0-0.0-1.0-0.0-0.20","5","4","5","2","2","2","4","4","4","2","5","1","0","-1","-2","0","1","1","2","5","4","5","4","4","3","4","4","5","4","3","4","5","7","2","3","5","7","5","5","5","2","5","5","3","2","2","7","3","1","3","2","3","6","5","5","3","6","5","5","3","3","3","2","3","6","5","5","6","7","7","3","7","5","2","5","3","6","3","3","781469725959131138","路","130","Female","[""坏我"",""坏她"",""好我"",""好她""]","[""弱我"",""弱她"",""强我"",""强她""]","","","","","","","","nonmatch","","","","","","","","","","key","j","16.66597938144306","640","356","j","true","nonmatch","img/triangle.png","好她","好我","prac_ALT2_moral","practice_moral","","","","","","","","",""
"null","<span style='color:GreenYellow; font-size: 70px;'>正确! </span>","null","html-keyboard-response","51","325722","0.0-8.0-0.0-1.0-0.0-1.20","5","4","5","2","2","2","4","4","4","2","5","1","0","-1","-2","0","1","1","2","5","4","5","4","4","3","4","4","5","4","3","4","5","7","2","3","5","7","5","5","5","2","5","5","3","2","2","7","3","1","3","2","3","6","5","5","3","6","5","5","3","3","3","2","3","6","5","5","6","7","7","3","7","5","2","5","3","6","3","3","781469725959131138","路","130","Female","[""坏我"",""坏她"",""好我"",""好她""]","[""弱我"",""弱她"",""强我"",""强她""]","","","","","","","","","","","","","","","","","","","","","","","","","","","","","","feedback_test","","","","","","","","",""
"852","","j","psychophysics","52","327577","0.0-8.0-0.0-1.0-0.0-0.21","5","4","5","2","2","2","4","4","4","2","5","1","0","-1","-2","0","1","1","2","5","4","5","4","4","3","4","4","5","4","3","4","5","7","2","3","5","7","5","5","5","2","5","5","3","2","2","7","3","1","3","2","3","6","5","5","3","6","5","5","3","3","3","2","3","6","5","5","6","7","7","3","7","5","2","5","3","6","3","3","781469725959131138","路","130","Female","[""坏我"",""坏她"",""好我"",""好她""]","[""弱我"",""弱她"",""强我"",""强她""]","","","","","","","","nonmatch","","","","","","","","","","key","j","16.667272727272938","640","356","f","false","match","img/triangle.png","好我","好我","prac_ALT2_moral","practice_moral","","","","","","","","",""
"null","<span style='color:red; font-size: 70px;'>错误! </span>","null","html-keyboard-response","53","328079","0.0-8.0-0.0-1.0-0.0-1.21","5","4","5","2","2","2","4","4","4","2","5","1","0","-1","-2","0","1","1","2","5","4","5","4","4","3","4","4","5","4","3","4","5","7","2","3","5","7","5","5","5","2","5","5","3","2","2","7","3","1","3","2","3","6","5","5","3","6","5","5","3","3","3","2","3","6","5","5","6","7","7","3","7","5","2","5","3","6","3","3","781469725959131138","路","130","Female","[""坏我"",""坏她"",""好我"",""好她""]","[""弱我"",""弱她"",""强我"",""强她""]","","","","","","","","","","","","","","","","","","","","","","","","","","","","","","feedback_test","","","","","","","","",""
"716","","f","psychophysics","54","329797","0.0-8.0-0.0-1.0-0.0-0.22","5","4","5","2","2","2","4","4","4","2","5","1","0","-1","-2","0","1","1","2","5","4","5","4","4","3","4","4","5","4","3","4","5","7","2","3","5","7","5","5","5","2","5","5","3","2","2","7","3","1","3","2","3","6","5","5","3","6","5","5","3","3","3","2","3","6","5","5","6","7","7","3","7","5","2","5","3","6","3","3","781469725959131138","路","130","Female","[""坏我"",""坏她"",""好我"",""好她""]","[""弱我"",""弱她"",""强我"",""强她""]","","","","","","","","match","","","","","","","","","","key","f","16.65294117647036","640","356","f","true","match","img/ellipse.png","坏她","坏她","prac_ALT2_moral","practice_moral","","","","","","","","",""
"null","<span style='color:GreenYellow; font-size: 70px;'>正确! </span>","null","html-keyboard-response","55","330299","0.0-8.0-0.0-1.0-0.0-1.22","5","4","5","2","2","2","4","4","4","2","5","1","0","-1","-2","0","1","1","2","5","4","5","4","4","3","4","4","5","4","3","4","5","7","2","3","5","7","5","5","5","2","5","5","3","2","2","7","3","1","3","2","3","6","5","5","3","6","5","5","3","3","3","2","3","6","5","5","6","7","7","3","7","5","2","5","3","6","3","3","781469725959131138","路","130","Female","[""坏我"",""坏她"",""好我"",""好她""]","[""弱我"",""弱她"",""强我"",""强她""]","","","","","","","","","","","","","","","","","","","","","","","","","","","","","","feedback_test","","","","","","","","",""
"399","","f","psychophysics","56","331700","0.0-8.0-0.0-1.0-0.0-0.23","5","4","5","2","2","2","4","4","4","2","5","1","0","-1","-2","0","1","1","2","5","4","5","4","4","3","4","4","5","4","3","4","5","7","2","3","5","7","5","5","5","2","5","5","3","2","2","7","3","1","3","2","3","6","5","5","3","6","5","5","3","3","3","2","3","6","5","5","6","7","7","3","7","5","2","5","3","6","3","3","781469725959131138","路","130","Female","[""坏我"",""坏她"",""好我"",""好她""]","[""弱我"",""弱她"",""强我"",""强她""]","","","","","","","","match","","","","","","","","","","key","f","16.66024096385528","640","356","f","true","match","img/square.png","好她","好她","prac_ALT2_moral","practice_moral","","","","","","","","",""
"null","<span style='color:GreenYellow; font-size: 70px;'>正确! </span>","null","html-keyboard-response","57","332201","0.0-8.0-0.0-1.0-0.0-1.23","5","4","5","2","2","2","4","4","4","2","5","1","0","-1","-2","0","1","1","2","5","4","5","4","4","3","4","4","5","4","3","4","5","7","2","3","5","7","5","5","5","2","5","5","3","2","2","7","3","1","3","2","3","6","5","5","3","6","5","5","3","3","3","2","3","6","5","5","6","7","7","3","7","5","2","5","3","6","3","3","781469725959131138","路","130","Female","[""坏我"",""坏她"",""好我"",""好她""]","[""弱我"",""弱她"",""强我"",""强她""]","","","","","","","","","","","","","","","","","","","","","","","","","","","","","","feedback_test","","","","","","","","",""
"385","","f","psychophysics","58","333589","0.0-8.0-0.0-1.0-0.0-0.24","5","4","5","2","2","2","4","4","4","2","5","1","0","-1","-2","0","1","1","2","5","4","5","4","4","3","4","4","5","4","3","4","5","7","2","3","5","7","5","5","5","2","5","5","3","2","2","7","3","1","3","2","3","6","5","5","3","6","5","5","3","3","3","2","3","6","5","5","6","7","7","3","7","5","2","5","3","6","3","3","781469725959131138","路","130","Female","[""坏我"",""坏她"",""好我"",""好她""]","[""弱我"",""弱她"",""强我"",""强她""]","","","","","","","","match","","","","","","","","","","key","f","16.66097560975624","640","356","j","false","nonmatch","img/square.png","坏她","好她","prac_ALT2_moral","practice_moral","","","","","","","","",""
"null","<span style='color:red; font-size: 70px;'>错误! </span>","null","html-keyboard-response","59","334091","0.0-8.0-0.0-1.0-0.0-1.24","5","4","5","2","2","2","4","4","4","2","5","1","0","-1","-2","0","1","1","2","5","4","5","4","4","3","4","4","5","4","3","4","5","7","2","3","5","7","5","5","5","2","5","5","3","2","2","7","3","1","3","2","3","6","5","5","3","6","5","5","3","3","3","2","3","6","5","5","6","7","7","3","7","5","2","5","3","6","3","3","781469725959131138","路","130","Female","[""坏我"",""坏她"",""好我"",""好她""]","[""弱我"",""弱她"",""强我"",""强她""]","","","","","","","","","","","","","","","","","","","","","","","","","","","","","","feedback_test","","","","","","","","",""
"266","","f","psychophysics","60","335359","0.0-8.0-0.0-1.0-0.0-0.25","5","4","5","2","2","2","4","4","4","2","5","1","0","-1","-2","0","1","1","2","5","4","5","4","4","3","4","4","5","4","3","4","5","7","2","3","5","7","5","5","5","2","5","5","3","2","2","7","3","1","3","2","3","6","5","5","3","6","5","5","3","3","3","2","3","6","5","5","6","7","7","3","7","5","2","5","3","6","3","3","781469725959131138","路","130","Female","[""坏我"",""坏她"",""好我"",""好她""]","[""弱我"",""弱她"",""强我"",""强她""]","","","","","","","","match","","","","","","","","","","key","f","16.662666666666823","640","356","j","false","nonmatch","img/ellipse.png","好我","坏她","prac_ALT2_moral","practice_moral","","","","","","","","",""
"null","<span style='color:red; font-size: 70px;'>错误! </span>","null","html-keyboard-response","61","335861","0.0-8.0-0.0-1.0-0.0-1.25","5","4","5","2","2","2","4","4","4","2","5","1","0","-1","-2","0","1","1","2","5","4","5","4","4","3","4","4","5","4","3","4","5","7","2","3","5","7","5","5","5","2","5","5","3","2","2","7","3","1","3","2","3","6","5","5","3","6","5","5","3","3","3","2","3","6","5","5","6","7","7","3","7","5","2","5","3","6","3","3","781469725959131138","路","130","Female","[""坏我"",""坏她"",""好我"",""好她""]","[""弱我"",""弱她"",""强我"",""强她""]","","","","","","","","","","","","","","","","","","","","","","","","","","","","","","feedback_test","","","","","","","","",""
"535","","j","psychophysics","62","337397","0.0-8.0-0.0-1.0-0.0-0.26","5","4","5","2","2","2","4","4","4","2","5","1","0","-1","-2","0","1","1","2","5","4","5","4","4","3","4","4","5","4","3","4","5","7","2","3","5","7","5","5","5","2","5","5","3","2","2","7","3","1","3","2","3","6","5","5","3","6","5","5","3","3","3","2","3","6","5","5","6","7","7","3","7","5","2","5","3","6","3","3","781469725959131138","路","130","Female","[""坏我"",""坏她"",""好我"",""好她""]","[""弱我"",""弱她"",""强我"",""强她""]","","","","","","","","nonmatch","","","","","","","","","","key","j","16.66373626373652","640","356","j","true","nonmatch","img/hexagon.png","好她","坏我","prac_ALT2_moral","practice_moral","","","","","","","","",""
"null","<span style='color:GreenYellow; font-size: 70px;'>正确! </span>","null","html-keyboard-response","63","337900","0.0-8.0-0.0-1.0-0.0-1.26","5","4","5","2","2","2","4","4","4","2","5","1","0","-1","-2","0","1","1","2","5","4","5","4","4","3","4","4","5","4","3","4","5","7","2","3","5","7","5","5","5","2","5","5","3","2","2","7","3","1","3","2","3","6","5","5","3","6","5","5","3","3","3","2","3","6","5","5","6","7","7","3","7","5","2","5","3","6","3","3","781469725959131138","路","130","Female","[""坏我"",""坏她"",""好我"",""好她""]","[""弱我"",""弱她"",""强我"",""强她""]","","","","","","","","","","","","","","","","","","","","","","","","","","","","","","feedback_test","","","","","","","","",""
"617","","j","psychophysics","64","339519","0.0-8.0-0.0-1.0-0.0-0.27","5","4","5","2","2","2","4","4","4","2","5","1","0","-1","-2","0","1","1","2","5","4","5","4","4","3","4","4","5","4","3","4","5","7","2","3","5","7","5","5","5","2","5","5","3","2","2","7","3","1","3","2","3","6","5","5","3","6","5","5","3","3","3","2","3","6","5","5","6","7","7","3","7","5","2","5","3","6","3","3","781469725959131138","路","130","Female","[""坏我"",""坏她"",""好我"",""好她""]","[""弱我"",""弱她"",""强我"",""强她""]","","","","","","","","nonmatch","","","","","","","","","","key","j","16.663541666666788","640","356","f","false","match","img/ellipse.png","坏她","坏她","prac_ALT2_moral","practice_moral","","","","","","","","",""
"null","<span style='color:red; font-size: 70px;'>错误! </span>","null","html-keyboard-response","65","340020","0.0-8.0-0.0-1.0-0.0-1.27","5","4","5","2","2","2","4","4","4","2","5","1","0","-1","-2","0","1","1","2","5","4","5","4","4","3","4","4","5","4","3","4","5","7","2","3","5","7","5","5","5","2","5","5","3","2","2","7","3","1","3","2","3","6","5","5","3","6","5","5","3","3","3","2","3","6","5","5","6","7","7","3","7","5","2","5","3","6","3","3","781469725959131138","路","130","Female","[""坏我"",""坏她"",""好我"",""好她""]","[""弱我"",""弱她"",""强我"",""强她""]","","","","","","","","","","","","","","","","","","","","","","","","","","","","","","feedback_test","","","","","","","","",""
"408","","j","psychophysics","66","341431","0.0-8.0-0.0-1.0-0.0-0.28","5","4","5","2","2","2","4","4","4","2","5","1","0","-1","-2","0","1","1","2","5","4","5","4","4","3","4","4","5","4","3","4","5","7","2","3","5","7","5","5","5","2","5","5","3","2","2","7","3","1","3","2","3","6","5","5","3","6","5","5","3","3","3","2","3","6","5","5","6","7","7","3","7","5","2","5","3","6","3","3","781469725959131138","路","130","Female","[""坏我"",""坏她"",""好我"",""好她""]","[""弱我"",""弱她"",""强我"",""强她""]","","","","","","","","nonmatch","","","","","","","","","","key","j","16.665476190475776","640","356","f","false","match","img/hexagon.png","坏我","坏我","prac_ALT2_moral","practice_moral","","","","","","","","",""
"null","<span style='color:red; font-size: 70px;'>错误! </span>","null","html-keyboard-response","67","341932","0.0-8.0-0.0-1.0-0.0-1.28","5","4","5","2","2","2","4","4","4","2","5","1","0","-1","-2","0","1","1","2","5","4","5","4","4","3","4","4","5","4","3","4","5","7","2","3","5","7","5","5","5","2","5","5","3","2","2","7","3","1","3","2","3","6","5","5","3","6","5","5","3","3","3","2","3","6","5","5","6","7","7","3","7","5","2","5","3","6","3","3","781469725959131138","路","130","Female","[""坏我"",""坏她"",""好我"",""好她""]","[""弱我"",""弱她"",""强我"",""强她""]","","","","","","","","","","","","","","","","","","","","","","","","","","","","","","feedback_test","","","","","","","","",""
"325","","j","psychophysics","68","343259","0.0-8.0-0.0-1.0-0.0-0.29","5","4","5","2","2","2","4","4","4","2","5","1","0","-1","-2","0","1","1","2","5","4","5","4","4","3","4","4","5","4","3","4","5","7","2","3","5","7","5","5","5","2","5","5","3","2","2","7","3","1","3","2","3","6","5","5","3","6","5","5","3","3","3","2","3","6","5","5","6","7","7","3","7","5","2","5","3","6","3","3","781469725959131138","路","130","Female","[""坏我"",""坏她"",""好我"",""好她""]","[""弱我"",""弱她"",""强我"",""强她""]","","","","","","","","nonmatch","","","","","","","","","","key","j","16.664556962025316","640","356","f","false","match","img/hexagon.png","坏我","坏我","prac_ALT2_moral","practice_moral","","","","","","","","",""
"null","<span style='color:red; font-size: 70px;'>错误! </span>","null","html-keyboard-response","69","343761","0.0-8.0-0.0-1.0-0.0-1.29","5","4","5","2","2","2","4","4","4","2","5","1","0","-1","-2","0","1","1","2","5","4","5","4","4","3","4","4","5","4","3","4","5","7","2","3","5","7","5","5","5","2","5","5","3","2","2","7","3","1","3","2","3","6","5","5","3","6","5","5","3","3","3","2","3","6","5","5","6","7","7","3","7","5","2","5","3","6","3","3","781469725959131138","路","130","Female","[""坏我"",""坏她"",""好我"",""好她""]","[""弱我"",""弱她"",""强我"",""强她""]","","","","","","","","","","","","","","","","","","","","","","","","","","","","","","feedback_test","","","","","","","","",""
"680","","j","psychophysics","70","345444","0.0-8.0-0.0-1.0-0.0-0.30","5","4","5","2","2","2","4","4","4","2","5","1","0","-1","-2","0","1","1","2","5","4","5","4","4","3","4","4","5","4","3","4","5","7","2","3","5","7","5","5","5","2","5","5","3","2","2","7","3","1","3","2","3","6","5","5","3","6","5","5","3","3","3","2","3","6","5","5","6","7","7","3","7","5","2","5","3","6","3","3","781469725959131138","路","130","Female","[""坏我"",""坏她"",""好我"",""好她""]","[""弱我"",""弱她"",""强我"",""强她""]","","","","","","","","nonmatch","","","","","","","","","","key","j","16.66399999999965","640","356","f","false","match","img/ellipse.png","坏她","坏她","prac_ALT2_moral","practice_moral","","","","","","","","",""
"null","<span style='color:red; font-size: 70px;'>错误! </span>","null","html-keyboard-response","71","345945","0.0-8.0-0.0-1.0-0.0-1.30","5","4","5","2","2","2","4","4","4","2","5","1","0","-1","-2","0","1","1","2","5","4","5","4","4","3","4","4","5","4","3","4","5","7","2","3","5","7","5","5","5","2","5","5","3","2","2","7","3","1","3","2","3","6","5","5","3","6","5","5","3","3","3","2","3","6","5","5","6","7","7","3","7","5","2","5","3","6","3","3","781469725959131138","路","130","Female","[""坏我"",""坏她"",""好我"",""好她""]","[""弱我"",""弱她"",""强我"",""强她""]","","","","","","","","","","","","","","","","","","","","","","","","","","","","","","feedback_test","","","","","","","","",""
"535","","f","psychophysics","72","347481","0.0-8.0-0.0-1.0-0.0-0.31","5","4","5","2","2","2","4","4","4","2","5","1","0","-1","-2","0","1","1","2","5","4","5","4","4","3","4","4","5","4","3","4","5","7","2","3","5","7","5","5","5","2","5","5","3","2","2","7","3","1","3","2","3","6","5","5","3","6","5","5","3","3","3","2","3","6","5","5","6","7","7","3","7","5","2","5","3","6","3","3","781469725959131138","路","130","Female","[""坏我"",""坏她"",""好我"",""好她""]","[""弱我"",""弱她"",""强我"",""强她""]","","","","","","","","match","","","","","","","","","","key","f","16.662637362637874","640","356","j","false","nonmatch","img/square.png","坏我","好她","prac_ALT2_moral","practice_moral","","","","","","","","",""
"null","<span style='color:red; font-size: 70px;'>错误! </span>","null","html-keyboard-response","73","347982","0.0-8.0-0.0-1.0-0.0-1.31","5","4","5","2","2","2","4","4","4","2","5","1","0","-1","-2","0","1","1","2","5","4","5","4","4","3","4","4","5","4","3","4","5","7","2","3","5","7","5","5","5","2","5","5","3","2","2","7","3","1","3","2","3","6","5","5","3","6","5","5","3","3","3","2","3","6","5","5","6","7","7","3","7","5","2","5","3","6","3","3","781469725959131138","路","130","Female","[""坏我"",""坏她"",""好我"",""好她""]","[""弱我"",""弱她"",""强我"",""强她""]","","","","","","","","","","","","","","","","","","","","","","","","","","","","","","feedback_test","","","","","","","","",""
"296","","j","psychophysics","74","349279","0.0-8.0-0.0-1.0-0.0-0.32","5","4","5","2","2","2","4","4","4","2","5","1","0","-1","-2","0","1","1","2","5","4","5","4","4","3","4","4","5","4","3","4","5","7","2","3","5","7","5","5","5","2","5","5","3","2","2","7","3","1","3","2","3","6","5","5","3","6","5","5","3","3","3","2","3","6","5","5","6","7","7","3","7","5","2","5","3","6","3","3","781469725959131138","路","130","Female","[""坏我"",""坏她"",""好我"",""好她""]","[""弱我"",""弱她"",""强我"",""强她""]","","","","","","","","nonmatch","","","","","","","","","","key","j","16.66363636363682","640","356","f","false","match","img/triangle.png","好我","好我","prac_ALT2_moral","practice_moral","","","","","","","","",""
"null","<span style='color:red; font-size: 70px;'>错误! </span>","null","html-keyboard-response","75","349780","0.0-8.0-0.0-1.0-0.0-1.32","5","4","5","2","2","2","4","4","4","2","5","1","0","-1","-2","0","1","1","2","5","4","5","4","4","3","4","4","5","4","3","4","5","7","2","3","5","7","5","5","5","2","5","5","3","2","2","7","3","1","3","2","3","6","5","5","3","6","5","5","3","3","3","2","3","6","5","5","6","7","7","3","7","5","2","5","3","6","3","3","781469725959131138","路","130","Female","[""坏我"",""坏她"",""好我"",""好她""]","[""弱我"",""弱她"",""强我"",""强她""]","","","","","","","","","","","","","","","","","","","","","","","","","","","","","","feedback_test","","","","","","","","",""
"657","","j","psychophysics","76","351439","0.0-8.0-0.0-1.0-0.0-0.33","5","4","5","2","2","2","4","4","4","2","5","1","0","-1","-2","0","1","1","2","5","4","5","4","4","3","4","4","5","4","3","4","5","7","2","3","5","7","5","5","5","2","5","5","3","2","2","7","3","1","3","2","3","6","5","5","3","6","5","5","3","3","3","2","3","6","5","5","6","7","7","3","7","5","2","5","3","6","3","3","781469725959131138","路","130","Female","[""坏我"",""坏她"",""好我"",""好她""]","[""弱我"",""弱她"",""强我"",""强她""]","","","","","","","","nonmatch","","","","","","","","","","key","j","16.66224489795942","640","356","f","false","match","img/triangle.png","好我","好我","prac_ALT2_moral","practice_moral","","","","","","","","",""
"null","<span style='color:red; font-size: 70px;'>错误! </span>","null","html-keyboard-response","77","351939","0.0-8.0-0.0-1.0-0.0-1.33","5","4","5","2","2","2","4","4","4","2","5","1","0","-1","-2","0","1","1","2","5","4","5","4","4","3","4","4","5","4","3","4","5","7","2","3","5","7","5","5","5","2","5","5","3","2","2","7","3","1","3","2","3","6","5","5","3","6","5","5","3","3","3","2","3","6","5","5","6","7","7","3","7","5","2","5","3","6","3","3","781469725959131138","路","130","Female","[""坏我"",""坏她"",""好我"",""好她""]","[""弱我"",""弱她"",""强我"",""强她""]","","","","","","","","","","","","","","","","","","","","","","","","","","","","","","feedback_test","","","","","","","","",""
"291","","j","psychophysics","78","353231","0.0-8.0-0.0-1.0-0.0-0.34","5","4","5","2","2","2","4","4","4","2","5","1","0","-1","-2","0","1","1","2","5","4","5","4","4","3","4","4","5","4","3","4","5","7","2","3","5","7","5","5","5","2","5","5","3","2","2","7","3","1","3","2","3","6","5","5","3","6","5","5","3","3","3","2","3","6","5","5","6","7","7","3","7","5","2","5","3","6","3","3","781469725959131138","路","130","Female","[""坏我"",""坏她"",""好我"",""好她""]","[""弱我"",""弱她"",""强我"",""强她""]","","","","","","","","nonmatch","","","","","","","","","","key","j","16.655263157895348","640","356","j","true","nonmatch","img/hexagon.png","坏她","坏我","prac_ALT2_moral","practice_moral","","","","","","","","",""
"null","<span style='color:GreenYellow; font-size: 70px;'>正确! </span>","null","html-keyboard-response","79","353733","0.0-8.0-0.0-1.0-0.0-1.34","5","4","5","2","2","2","4","4","4","2","5","1","0","-1","-2","0","1","1","2","5","4","5","4","4","3","4","4","5","4","3","4","5","7","2","3","5","7","5","5","5","2","5","5","3","2","2","7","3","1","3","2","3","6","5","5","3","6","5","5","3","3","3","2","3","6","5","5","6","7","7","3","7","5","2","5","3","6","3","3","781469725959131138","路","130","Female","[""坏我"",""坏她"",""好我"",""好她""]","[""弱我"",""弱她"",""强我"",""强她""]","","","","","","","","","","","","","","","","","","","","","","","","","","","","","","feedback_test","","","","","","","","",""
"296","","j","psychophysics","80","355030","0.0-8.0-0.0-1.0-0.0-0.35","5","4","5","2","2","2","4","4","4","2","5","1","0","-1","-2","0","1","1","2","5","4","5","4","4","3","4","4","5","4","3","4","5","7","2","3","5","7","5","5","5","2","5","5","3","2","2","7","3","1","3","2","3","6","5","5","3","6","5","5","3","3","3","2","3","6","5","5","6","7","7","3","7","5","2","5","3","6","3","3","781469725959131138","路","130","Female","[""坏我"",""坏她"",""好我"",""好她""]","[""弱我"",""弱她"",""强我"",""强她""]","","","","","","","","nonmatch","","","","","","","","","","key","j","16.659740259740108","640","356","j","true","nonmatch","img/triangle.png","坏她","好我","prac_ALT2_moral","practice_moral","","","","","","","","",""
"null","<span style='color:GreenYellow; font-size: 70px;'>正确! </span>","null","html-keyboard-response","81","355531","0.0-8.0-0.0-1.0-0.0-1.35","5","4","5","2","2","2","4","4","4","2","5","1","0","-1","-2","0","1","1","2","5","4","5","4","4","3","4","4","5","4","3","4","5","7","2","3","5","7","5","5","5","2","5","5","3","2","2","7","3","1","3","2","3","6","5","5","3","6","5","5","3","3","3","2","3","6","5","5","6","7","7","3","7","5","2","5","3","6","3","3","781469725959131138","路","130","Female","[""坏我"",""坏她"",""好我"",""好她""]","[""弱我"",""弱她"",""强我"",""强她""]","","","","","","","","","","","","","","","","","","","","","","","","","","","","","","feedback_test","","","","","","","","",""
"261","","f","psychophysics","82","356793","0.0-8.0-0.0-1.0-0.0-0.36","5","4","5","2","2","2","4","4","4","2","5","1","0","-1","-2","0","1","1","2","5","4","5","4","4","3","4","4","5","4","3","4","5","7","2","3","5","7","5","5","5","2","5","5","3","2","2","7","3","1","3","2","3","6","5","5","3","6","5","5","3","3","3","2","3","6","5","5","6","7","7","3","7","5","2","5","3","6","3","3","781469725959131138","路","130","Female","[""坏我"",""坏她"",""好我"",""好她""]","[""弱我"",""弱她"",""强我"",""强她""]","","","","","","","","match","","","","","","","","","","key","f","16.661333333333022","640","356","j","false","nonmatch","img/ellipse.png","坏我","坏她","prac_ALT2_moral","practice_moral","","","","","","","","",""
"null","<span style='color:red; font-size: 70px;'>错误! </span>","null","html-keyboard-response","83","357294","0.0-8.0-0.0-1.0-0.0-1.36","5","4","5","2","2","2","4","4","4","2","5","1","0","-1","-2","0","1","1","2","5","4","5","4","4","3","4","4","5","4","3","4","5","7","2","3","5","7","5","5","5","2","5","5","3","2","2","7","3","1","3","2","3","6","5","5","3","6","5","5","3","3","3","2","3","6","5","5","6","7","7","3","7","5","2","5","3","6","3","3","781469725959131138","路","130","Female","[""坏我"",""坏她"",""好我"",""好她""]","[""弱我"",""弱她"",""强我"",""强她""]","","","","","","","","","","","","","","","","","","","","","","","","","","","","","","feedback_test","","","","","","","","",""
"305","","j","psychophysics","84","358602","0.0-8.0-0.0-1.0-0.0-0.37","5","4","5","2","2","2","4","4","4","2","5","1","0","-1","-2","0","1","1","2","5","4","5","4","4","3","4","4","5","4","3","4","5","7","2","3","5","7","5","5","5","2","5","5","3","2","2","7","3","1","3","2","3","6","5","5","3","6","5","5","3","3","3","2","3","6","5","5","6","7","7","3","7","5","2","5","3","6","3","3","781469725959131138","路","130","Female","[""坏我"",""坏她"",""好我"",""好她""]","[""弱我"",""弱她"",""强我"",""强她""]","","","","","","","","nonmatch","","","","","","","","","","key","j","16.664935064935214","640","356","f","false","match","img/ellipse.png","坏她","坏她","prac_ALT2_moral","practice_moral","","","","","","","","",""
"null","<span style='color:red; font-size: 70px;'>错误! </span>","null","html-keyboard-response","85","359104","0.0-8.0-0.0-1.0-0.0-1.37","5","4","5","2","2","2","4","4","4","2","5","1","0","-1","-2","0","1","1","2","5","4","5","4","4","3","4","4","5","4","3","4","5","7","2","3","5","7","5","5","5","2","5","5","3","2","2","7","3","1","3","2","3","6","5","5","3","6","5","5","3","3","3","2","3","6","5","5","6","7","7","3","7","5","2","5","3","6","3","3","781469725959131138","路","130","Female","[""坏我"",""坏她"",""好我"",""好她""]","[""弱我"",""弱她"",""强我"",""强她""]","","","","","","","","","","","","","","","","","","","","","","","","","","","","","","feedback_test","","","","","","","","",""
"639","","j","psychophysics","86","360744","0.0-8.0-0.0-1.0-0.0-0.38","5","4","5","2","2","2","4","4","4","2","5","1","0","-1","-2","0","1","1","2","5","4","5","4","4","3","4","4","5","4","3","4","5","7","2","3","5","7","5","5","5","2","5","5","3","2","2","7","3","1","3","2","3","6","5","5","3","6","5","5","3","3","3","2","3","6","5","5","6","7","7","3","7","5","2","5","3","6","3","3","781469725959131138","路","130","Female","[""坏我"",""坏她"",""好我"",""好她""]","[""弱我"",""弱她"",""强我"",""强她""]","","","","","","","","nonmatch","","","","","","","","","","key","j","16.657731958762767","640","356","f","false","match","img/square.png","好她","好她","prac_ALT2_moral","practice_moral","","","","","","","","",""
"null","<span style='color:red; font-size: 70px;'>错误! </span>","null","html-keyboard-response","87","361245","0.0-8.0-0.0-1.0-0.0-1.38","5","4","5","2","2","2","4","4","4","2","5","1","0","-1","-2","0","1","1","2","5","4","5","4","4","3","4","4","5","4","3","4","5","7","2","3","5","7","5","5","5","2","5","5","3","2","2","7","3","1","3","2","3","6","5","5","3","6","5","5","3","3","3","2","3","6","5","5","6","7","7","3","7","5","2","5","3","6","3","3","781469725959131138","路","130","Female","[""坏我"",""坏她"",""好我"",""好她""]","[""弱我"",""弱她"",""强我"",""强她""]","","","","","","","","","","","","","","","","","","","","","","","","","","","","","","feedback_test","","","","","","","","",""
"464","","f","psychophysics","88","362711","0.0-8.0-0.0-1.0-0.0-0.39","5","4","5","2","2","2","4","4","4","2","5","1","0","-1","-2","0","1","1","2","5","4","5","4","4","3","4","4","5","4","3","4","5","7","2","3","5","7","5","5","5","2","5","5","3","2","2","7","3","1","3","2","3","6","5","5","3","6","5","5","3","3","3","2","3","6","5","5","6","7","7","3","7","5","2","5","3","6","3","3","781469725959131138","路","130","Female","[""坏我"",""坏她"",""好我"",""好她""]","[""弱我"",""弱她"",""强我"",""强她""]","","","","","","","","match","","","","","","","","","","key","f","16.66436781609249","640","356","f","true","match","img/triangle.png","好我","好我","prac_ALT2_moral","practice_moral","","","","","","","","",""
"null","<span style='color:GreenYellow; font-size: 70px;'>正确! </span>","null","html-keyboard-response","89","363211","0.0-8.0-0.0-1.0-0.0-1.39","5","4","5","2","2","2","4","4","4","2","5","1","0","-1","-2","0","1","1","2","5","4","5","4","4","3","4","4","5","4","3","4","5","7","2","3","5","7","5","5","5","2","5","5","3","2","2","7","3","1","3","2","3","6","5","5","3","6","5","5","3","3","3","2","3","6","5","5","6","7","7","3","7","5","2","5","3","6","3","3","781469725959131138","路","130","Female","[""坏我"",""坏她"",""好我"",""好她""]","[""弱我"",""弱她"",""强我"",""强她""]","","","","","","","","","","","","","","","","","","","","","","","","","","","","","","feedback_test","","","","","","","","",""
"314","","f","psychophysics","90","364527","0.0-8.0-0.0-1.0-0.0-0.40","5","4","5","2","2","2","4","4","4","2","5","1","0","-1","-2","0","1","1","2","5","4","5","4","4","3","4","4","5","4","3","4","5","7","2","3","5","7","5","5","5","2","5","5","3","2","2","7","3","1","3","2","3","6","5","5","3","6","5","5","3","3","3","2","3","6","5","5","6","7","7","3","7","5","2","5","3","6","3","3","781469725959131138","路","130","Female","[""坏我"",""坏她"",""好我"",""好她""]","[""弱我"",""弱她"",""强我"",""强她""]","","","","","","","","match","","","","","","","","","","key","f","16.664102564102414","640","356","f","true","match","img/hexagon.png","坏我","坏我","prac_ALT2_moral","practice_moral","","","","","","","","",""
"null","<span style='color:GreenYellow; font-size: 70px;'>正确! </span>","null","html-keyboard-response","91","365028","0.0-8.0-0.0-1.0-0.0-1.40","5","4","5","2","2","2","4","4","4","2","5","1","0","-1","-2","0","1","1","2","5","4","5","4","4","3","4","4","5","4","3","4","5","7","2","3","5","7","5","5","5","2","5","5","3","2","2","7","3","1","3","2","3","6","5","5","3","6","5","5","3","3","3","2","3","6","5","5","6","7","7","3","7","5","2","5","3","6","3","3","781469725959131138","路","130","Female","[""坏我"",""坏她"",""好我"",""好她""]","[""弱我"",""弱她"",""强我"",""强她""]","","","","","","","","","","","","","","","","","","","","","","","","","","","","","","feedback_test","","","","","","","","",""
"266","","f","psychophysics","92","366296","0.0-8.0-0.0-1.0-0.0-0.41","5","4","5","2","2","2","4","4","4","2","5","1","0","-1","-2","0","1","1","2","5","4","5","4","4","3","4","4","5","4","3","4","5","7","2","3","5","7","5","5","5","2","5","5","3","2","2","7","3","1","3","2","3","6","5","5","3","6","5","5","3","3","3","2","3","6","5","5","6","7","7","3","7","5","2","5","3","6","3","3","781469725959131138","路","130","Female","[""坏我"",""坏她"",""好我"",""好她""]","[""弱我"",""弱她"",""强我"",""强她""]","","","","","","","","match","","","","","","","","","","key","f","16.663999999999845","640","356","j","false","nonmatch","img/square.png","好我","好她","prac_ALT2_moral","practice_moral","","","","","","","","",""
"null","<span style='color:red; font-size: 70px;'>错误! </span>","null","html-keyboard-response","93","366798","0.0-8.0-0.0-1.0-0.0-1.41","5","4","5","2","2","2","4","4","4","2","5","1","0","-1","-2","0","1","1","2","5","4","5","4","4","3","4","4","5","4","3","4","5","7","2","3","5","7","5","5","5","2","5","5","3","2","2","7","3","1","3","2","3","6","5","5","3","6","5","5","3","3","3","2","3","6","5","5","6","7","7","3","7","5","2","5","3","6","3","3","781469725959131138","路","130","Female","[""坏我"",""坏她"",""好我"",""好她""]","[""弱我"",""弱她"",""强我"",""强她""]","","","","","","","","","","","","","","","","","","","","","","","","","","","","","","feedback_test","","","","","","","","",""
"248","","j","psychophysics","94","368047","0.0-8.0-0.0-1.0-0.0-0.42","5","4","5","2","2","2","4","4","4","2","5","1","0","-1","-2","0","1","1","2","5","4","5","4","4","3","4","4","5","4","3","4","5","7","2","3","5","7","5","5","5","2","5","5","3","2","2","7","3","1","3","2","3","6","5","5","3","6","5","5","3","3","3","2","3","6","5","5","6","7","7","3","7","5","2","5","3","6","3","3","781469725959131138","路","130","Female","[""坏我"",""坏她"",""好我"",""好她""]","[""弱我"",""弱她"",""强我"",""强她""]","","","","","","","","nonmatch","","","","","","","","","","key","j","16.664864864864235","640","356","j","true","nonmatch","img/hexagon.png","好我","坏我","prac_ALT2_moral","practice_moral","","","","","","","","",""
"null","<span style='color:GreenYellow; font-size: 70px;'>正确! </span>","null","html-keyboard-response","95","368548","0.0-8.0-0.0-1.0-0.0-1.42","5","4","5","2","2","2","4","4","4","2","5","1","0","-1","-2","0","1","1","2","5","4","5","4","4","3","4","4","5","4","3","4","5","7","2","3","5","7","5","5","5","2","5","5","3","2","2","7","3","1","3","2","3","6","5","5","3","6","5","5","3","3","3","2","3","6","5","5","6","7","7","3","7","5","2","5","3","6","3","3","781469725959131138","路","130","Female","[""坏我"",""坏她"",""好我"",""好她""]","[""弱我"",""弱她"",""强我"",""强她""]","","","","","","","","","","","","","","","","","","","","","","","","","","","","","","feedback_test","","","","","","","","",""
"290","","j","psychophysics","96","369839","0.0-8.0-0.0-1.0-0.0-0.43","5","4","5","2","2","2","4","4","4","2","5","1","0","-1","-2","0","1","1","2","5","4","5","4","4","3","4","4","5","4","3","4","5","7","2","3","5","7","5","5","5","2","5","5","3","2","2","7","3","1","3","2","3","6","5","5","3","6","5","5","3","3","3","2","3","6","5","5","6","7","7","3","7","5","2","5","3","6","3","3","781469725959131138","路","130","Female","[""坏我"",""坏她"",""好我"",""好她""]","[""弱我"",""弱她"",""强我"",""强她""]","","","","","","","","nonmatch","","","","","","","","","","key","j","16.661038961039264","640","356","f","false","match","img/square.png","好她","好她","prac_ALT2_moral","practice_moral","","","","","","","","",""
"null","<span style='color:red; font-size: 70px;'>错误! </span>","null","html-keyboard-response","97","370340","0.0-8.0-0.0-1.0-0.0-1.43","5","4","5","2","2","2","4","4","4","2","5","1","0","-1","-2","0","1","1","2","5","4","5","4","4","3","4","4","5","4","3","4","5","7","2","3","5","7","5","5","5","2","5","5","3","2","2","7","3","1","3","2","3","6","5","5","3","6","5","5","3","3","3","2","3","6","5","5","6","7","7","3","7","5","2","5","3","6","3","3","781469725959131138","路","130","Female","[""坏我"",""坏她"",""好我"",""好她""]","[""弱我"",""弱她"",""强我"",""强她""]","","","","","","","","","","","","","","","","","","","","","","","","","","","","","","feedback_test","","","","","","","","",""
"216","","j","psychophysics","98","371558","0.0-8.0-0.0-1.0-0.0-0.44","5","4","5","2","2","2","4","4","4","2","5","1","0","-1","-2","0","1","1","2","5","4","5","4","4","3","4","4","5","4","3","4","5","7","2","3","5","7","5","5","5","2","5","5","3","2","2","7","3","1","3","2","3","6","5","5","3","6","5","5","3","3","3","2","3","6","5","5","6","7","7","3","7","5","2","5","3","6","3","3","781469725959131138","路","130","Female","[""坏我"",""坏她"",""好我"",""好她""]","[""弱我"",""弱她"",""强我"",""强她""]","","","","","","","","nonmatch","","","","","","","","","","key","j","16.662499999999355","640","356","j","true","nonmatch","img/triangle.png","坏我","好我","prac_ALT2_moral","practice_moral","","","","","","","","",""
"null","<span style='color:GreenYellow; font-size: 70px;'>正确! </span>","null","html-keyboard-response","99","372060","0.0-8.0-0.0-1.0-0.0-1.44","5","4","5","2","2","2","4","4","4","2","5","1","0","-1","-2","0","1","1","2","5","4","5","4","4","3","4","4","5","4","3","4","5","7","2","3","5","7","5","5","5","2","5","5","3","2","2","7","3","1","3","2","3","6","5","5","3","6","5","5","3","3","3","2","3","6","5","5","6","7","7","3","7","5","2","5","3","6","3","3","781469725959131138","路","130","Female","[""坏我"",""坏她"",""好我"",""好她""]","[""弱我"",""弱她"",""强我"",""强她""]","","","","","","","","","","","","","","","","","","","","","","","","","","","","","","feedback_test","","","","","","","","",""
"297","","f","psychophysics","100","373358","0.0-8.0-0.0-1.0-0.0-0.45","5","4","5","2","2","2","4","4","4","2","5","1","0","-1","-2","0","1","1","2","5","4","5","4","4","3","4","4","5","4","3","4","5","7","2","3","5","7","5","5","5","2","5","5","3","2","2","7","3","1","3","2","3","6","5","5","3","6","5","5","3","3","3","2","3","6","5","5","6","7","7","3","7","5","2","5","3","6","3","3","781469725959131138","路","130","Female","[""坏我"",""坏她"",""好我"",""好她""]","[""弱我"",""弱她"",""强我"",""强她""]","","","","","","","","match","","","","","","","","","","key","f","16.66883116883117","640","356","f","true","match","img/square.png","好她","好她","prac_ALT2_moral","practice_moral","","","","","","","","",""
"null","<span style='color:GreenYellow; font-size: 70px;'>正确! </span>","null","html-keyboard-response","101","373860","0.0-8.0-0.0-1.0-0.0-1.45","5","4","5","2","2","2","4","4","4","2","5","1","0","-1","-2","0","1","1","2","5","4","5","4","4","3","4","4","5","4","3","4","5","7","2","3","5","7","5","5","5","2","5","5","3","2","2","7","3","1","3","2","3","6","5","5","3","6","5","5","3","3","3","2","3","6","5","5","6","7","7","3","7","5","2","5","3","6","3","3","781469725959131138","路","130","Female","[""坏我"",""坏她"",""好我"",""好她""]","[""弱我"",""弱她"",""强我"",""强她""]","","","","","","","","","","","","","","","","","","","","","","","","","","","","","","feedback_test","","","","","","","","",""
"250","","j","psychophysics","102","375113","0.0-8.0-0.0-1.0-0.0-0.46","5","4","5","2","2","2","4","4","4","2","5","1","0","-1","-2","0","1","1","2","5","4","5","4","4","3","4","4","5","4","3","4","5","7","2","3","5","7","5","5","5","2","5","5","3","2","2","7","3","1","3","2","3","6","5","5","3","6","5","5","3","3","3","2","3","6","5","5","6","7","7","3","7","5","2","5","3","6","3","3","781469725959131138","路","130","Female","[""坏我"",""坏她"",""好我"",""好她""]","[""弱我"",""弱她"",""强我"",""强她""]","","","","","","","","nonmatch","","","","","","","","","","key","j","16.667567567567882","640","356","j","true","nonmatch","img/triangle.png","好她","好我","prac_ALT2_moral","practice_moral","","","","","","","","",""
"null","<span style='color:GreenYellow; font-size: 70px;'>正确! </span>","null","html-keyboard-response","103","375615","0.0-8.0-0.0-1.0-0.0-1.46","5","4","5","2","2","2","4","4","4","2","5","1","0","-1","-2","0","1","1","2","5","4","5","4","4","3","4","4","5","4","3","4","5","7","2","3","5","7","5","5","5","2","5","5","3","2","2","7","3","1","3","2","3","6","5","5","3","6","5","5","3","3","3","2","3","6","5","5","6","7","7","3","7","5","2","5","3","6","3","3","781469725959131138","路","130","Female","[""坏我"",""坏她"",""好我"",""好她""]","[""弱我"",""弱她"",""强我"",""强她""]","","","","","","","","","","","","","","","","","","","","","","","","","","","","","","feedback_test","","","","","","","","",""
"299","","f","psychophysics","104","376918","0.0-8.0-0.0-1.0-0.0-0.47","5","4","5","2","2","2","4","4","4","2","5","1","0","-1","-2","0","1","1","2","5","4","5","4","4","3","4","4","5","4","3","4","5","7","2","3","5","7","5","5","5","2","5","5","3","2","2","7","3","1","3","2","3","6","5","5","3","6","5","5","3","3","3","2","3","6","5","5","6","7","7","3","7","5","2","5","3","6","3","3","781469725959131138","路","130","Female","[""坏我"",""坏她"",""好我"",""好她""]","[""弱我"",""弱她"",""强我"",""强她""]","","","","","","","","match","","","","","","","","","","key","f","16.659740259740108","640","356","j","false","nonmatch","img/ellipse.png","好她","坏她","prac_ALT2_moral","practice_moral","","","","","","","","",""
"null","<span style='color:red; font-size: 70px;'>错误! </span>","null","html-keyboard-response","105","377420","0.0-8.0-0.0-1.0-0.0-1.47","5","4","5","2","2","2","4","4","4","2","5","1","0","-1","-2","0","1","1","2","5","4","5","4","4","3","4","4","5","4","3","4","5","7","2","3","5","7","5","5","5","2","5","5","3","2","2","7","3","1","3","2","3","6","5","5","3","6","5","5","3","3","3","2","3","6","5","5","6","7","7","3","7","5","2","5","3","6","3","3","781469725959131138","路","130","Female","[""坏我"",""坏她"",""好我"",""好她""]","[""弱我"",""弱她"",""强我"",""强她""]","","","","","","","","","","","","","","","","","","","","","","","","","","","","","","feedback_test","","","","","","","","",""
"2618","<style>.context{color:white; font-size: 35px; line-height:40px}</style>                            <div><p class='context'>您正确回答了35% 的试次。</p><p class='context'>您的平均反应时为490毫秒。</p><p class='context'>按空格键继续。</p></div>"," ","html-keyboard-response","106","380045","0.0-8.0-0.0-1.0-1.0-0.0","5","4","5","2","2","2","4","4","4","2","5","1","0","-1","-2","0","1","1","2","5","4","5","4","4","3","4","4","5","4","3","4","5","7","2","3","5","7","5","5","5","2","5","5","3","2","2","7","3","1","3","2","3","6","5","5","3","6","5","5","3","3","3","2","3","6","5","5","6","7","7","3","7","5","2","5","3","6","3","3","781469725959131138","路","130","Female","[""坏我"",""坏她"",""好我"",""好她""]","[""弱我"",""弱她"",""强我"",""强她""]","","","","","","","","","","","","","","","","","","","","","","","","","","","","","","","","","","","","","","",""
"114361","","","instructions","107","494414","0.0-8.0-0.0-1.0-1.0-1.0","5","4","5","2","2","2","4","4","4","2","5","1","0","-1","-2","0","1","1","2","5","4","5","4","4","3","4","4","5","4","3","4","5","7","2","3","5","7","5","5","5","2","5","5","3","2","2","7","3","1","3","2","3","6","5","5","3","6","5","5","3","3","3","2","3","6","5","5","6","7","7","3","7","5","2","5","3","6","3","3","781469725959131138","路","130","Female","[""坏我"",""坏她"",""好我"",""好她""]","[""弱我"",""弱她"",""强我"",""强她""]","","","","","","","","","","","","","","","","","[{""page_index"":0,""viewing_time"":64982},{""page_index"":1,""viewing_time"":46589},{""page_index"":2,""viewing_time"":2790}]","","","","","","","","","","","","","","","","","","","","","",""
"564","","j","psychophysics","108","495982","0.0-8.0-0.0-1.1-0.1-0.48","5","4","5","2","2","2","4","4","4","2","5","1","0","-1","-2","0","1","1","2","5","4","5","4","4","3","4","4","5","4","3","4","5","7","2","3","5","7","5","5","5","2","5","5","3","2","2","7","3","1","3","2","3","6","5","5","3","6","5","5","3","3","3","2","3","6","5","5","6","7","7","3","7","5","2","5","3","6","3","3","781469725959131138","路","130","Female","[""坏我"",""坏她"",""好我"",""好她""]","[""弱我"",""弱她"",""强我"",""强她""]","","","","","","","","nonmatch","","","","","","","","","","key","j","16.664516129032133","640","356","f","false","match","img/square.png","好她","好她","prac_ALT2_moral","practice_moral","","","","","","","","",""
"null","<span style='color:red; font-size: 70px;'>错误! </span>","null","html-keyboard-response","109","496484","0.0-8.0-0.0-1.1-0.1-1.48","5","4","5","2","2","2","4","4","4","2","5","1","0","-1","-2","0","1","1","2","5","4","5","4","4","3","4","4","5","4","3","4","5","7","2","3","5","7","5","5","5","2","5","5","3","2","2","7","3","1","3","2","3","6","5","5","3","6","5","5","3","3","3","2","3","6","5","5","6","7","7","3","7","5","2","5","3","6","3","3","781469725959131138","路","130","Female","[""坏我"",""坏她"",""好我"",""好她""]","[""弱我"",""弱她"",""强我"",""强她""]","","","","","","","","","","","","","","","","","","","","","","","","","","","","","","feedback_test","","","","","","","","",""
"812","","f","psychophysics","110","498301","0.0-8.0-0.0-1.1-0.1-0.49","5","4","5","2","2","2","4","4","4","2","5","1","0","-1","-2","0","1","1","2","5","4","5","4","4","3","4","4","5","4","3","4","5","7","2","3","5","7","5","5","5","2","5","5","3","2","2","7","3","1","3","2","3","6","5","5","3","6","5","5","3","3","3","2","3","6","5","5","6","7","7","3","7","5","2","5","3","6","3","3","781469725959131138","路","130","Female","[""坏我"",""坏她"",""好我"",""好她""]","[""弱我"",""弱她"",""强我"",""强她""]","","","","","","","","match","","","","","","","","","","key","f","16.666666666666668","640","356","f","true","match","img/hexagon.png","坏我","坏我","prac_ALT2_moral","practice_moral","","","","","","","","",""
"null","<span style='color:GreenYellow; font-size: 70px;'>正确! </span>","null","html-keyboard-response","111","498803","0.0-8.0-0.0-1.1-0.1-1.49","5","4","5","2","2","2","4","4","4","2","5","1","0","-1","-2","0","1","1","2","5","4","5","4","4","3","4","4","5","4","3","4","5","7","2","3","5","7","5","5","5","2","5","5","3","2","2","7","3","1","3","2","3","6","5","5","3","6","5","5","3","3","3","2","3","6","5","5","6","7","7","3","7","5","2","5","3","6","3","3","781469725959131138","路","130","Female","[""坏我"",""坏她"",""好我"",""好她""]","[""弱我"",""弱她"",""强我"",""强她""]","","","","","","","","","","","","","","","","","","","","","","","","","","","","","","feedback_test","","","","","","","","",""
"580","","j","psychophysics","112","500386","0.0-8.0-0.0-1.1-0.1-0.50","5","4","5","2","2","2","4","4","4","2","5","1","0","-1","-2","0","1","1","2","5","4","5","4","4","3","4","4","5","4","3","4","5","7","2","3","5","7","5","5","5","2","5","5","3","2","2","7","3","1","3","2","3","6","5","5","3","6","5","5","3","3","3","2","3","6","5","5","6","7","7","3","7","5","2","5","3","6","3","3","781469725959131138","路","130","Female","[""坏我"",""坏她"",""好我"",""好她""]","[""弱我"",""弱她"",""强我"",""强她""]","","","","","","","","nonmatch","","","","","","","","","","key","j","16.667021276595868","640","356","j","true","nonmatch","img/hexagon.png","坏她","坏我","prac_ALT2_moral","practice_moral","","","","","","","","",""
"null","<span style='color:GreenYellow; font-size: 70px;'>正确! </span>","null","html-keyboard-response","113","500888","0.0-8.0-0.0-1.1-0.1-1.50","5","4","5","2","2","2","4","4","4","2","5","1","0","-1","-2","0","1","1","2","5","4","5","4","4","3","4","4","5","4","3","4","5","7","2","3","5","7","5","5","5","2","5","5","3","2","2","7","3","1","3","2","3","6","5","5","3","6","5","5","3","3","3","2","3","6","5","5","6","7","7","3","7","5","2","5","3","6","3","3","781469725959131138","路","130","Female","[""坏我"",""坏她"",""好我"",""好她""]","[""弱我"",""弱她"",""强我"",""强她""]","","","","","","","","","","","","","","","","","","","","","","","","","","","","","","feedback_test","","","","","","","","",""
"797","","j","psychophysics","114","502687","0.0-8.0-0.0-1.1-0.1-0.51","5","4","5","2","2","2","4","4","4","2","5","1","0","-1","-2","0","1","1","2","5","4","5","4","4","3","4","4","5","4","3","4","5","7","2","3","5","7","5","5","5","2","5","5","3","2","2","7","3","1","3","2","3","6","5","5","3","6","5","5","3","3","3","2","3","6","5","5","6","7","7","3","7","5","2","5","3","6","3","3","781469725959131138","路","130","Female","[""坏我"",""坏她"",""好我"",""好她""]","[""弱我"",""弱她"",""强我"",""强她""]","","","","","","","","nonmatch","","","","","","","","","","key","j","16.664485981308193","640","356","j","true","nonmatch","img/ellipse.png","好她","坏她","prac_ALT2_moral","practice_moral","","","","","","","","",""
"null","<span style='color:GreenYellow; font-size: 70px;'>正确! </span>","null","html-keyboard-response","115","503189","0.0-8.0-0.0-1.1-0.1-1.51","5","4","5","2","2","2","4","4","4","2","5","1","0","-1","-2","0","1","1","2","5","4","5","4","4","3","4","4","5","4","3","4","5","7","2","3","5","7","5","5","5","2","5","5","3","2","2","7","3","1","3","2","3","6","5","5","3","6","5","5","3","3","3","2","3","6","5","5","6","7","7","3","7","5","2","5","3","6","3","3","781469725959131138","路","130","Female","[""坏我"",""坏她"",""好我"",""好她""]","[""弱我"",""弱她"",""强我"",""强她""]","","","","","","","","","","","","","","","","","","","","","","","","","","","","","","feedback_test","","","","","","","","",""
"859","","j","psychophysics","116","505051","0.0-8.0-0.0-1.1-0.1-0.52","5","4","5","2","2","2","4","4","4","2","5","1","0","-1","-2","0","1","1","2","5","4","5","4","4","3","4","4","5","4","3","4","5","7","2","3","5","7","5","5","5","2","5","5","3","2","2","7","3","1","3","2","3","6","5","5","3","6","5","5","3","3","3","2","3","6","5","5","6","7","7","3","7","5","2","5","3","6","3","3","781469725959131138","路","130","Female","[""坏我"",""坏她"",""好我"",""好她""]","[""弱我"",""弱她"",""强我"",""强她""]","","","","","","","","nonmatch","","","","","","","","","","key","j","16.66396396396407","640","356","f","false","match","img/square.png","好她","好她","prac_ALT2_moral","practice_moral","","","","","","","","",""
"null","<span style='color:red; font-size: 70px;'>错误! </span>","null","html-keyboard-response","117","505553","0.0-8.0-0.0-1.1-0.1-1.52","5","4","5","2","2","2","4","4","4","2","5","1","0","-1","-2","0","1","1","2","5","4","5","4","4","3","4","4","5","4","3","4","5","7","2","3","5","7","5","5","5","2","5","5","3","2","2","7","3","1","3","2","3","6","5","5","3","6","5","5","3","3","3","2","3","6","5","5","6","7","7","3","7","5","2","5","3","6","3","3","781469725959131138","路","130","Female","[""坏我"",""坏她"",""好我"",""好她""]","[""弱我"",""弱她"",""强我"",""强她""]","","","","","","","","","","","","","","","","","","","","","","","","","","","","","","feedback_test","","","","","","","","",""
"878","","j","psychophysics","118","507434","0.0-8.0-0.0-1.1-0.1-0.53","5","4","5","2","2","2","4","4","4","2","5","1","0","-1","-2","0","1","1","2","5","4","5","4","4","3","4","4","5","4","3","4","5","7","2","3","5","7","5","5","5","2","5","5","3","2","2","7","3","1","3","2","3","6","5","5","3","6","5","5","3","3","3","2","3","6","5","5","6","7","7","3","7","5","2","5","3","6","3","3","781469725959131138","路","130","Female","[""坏我"",""坏她"",""好我"",""好她""]","[""弱我"",""弱她"",""强我"",""强她""]","","","","","","","","nonmatch","","","","","","","","","","key","j","16.663392857142753","640","356","j","true","nonmatch","img/triangle.png","坏她","好我","prac_ALT2_moral","practice_moral","","","","","","","","",""
"null","<span style='color:GreenYellow; font-size: 70px;'>正确! </span>","null","html-keyboard-response","119","507936","0.0-8.0-0.0-1.1-0.1-1.53","5","4","5","2","2","2","4","4","4","2","5","1","0","-1","-2","0","1","1","2","5","4","5","4","4","3","4","4","5","4","3","4","5","7","2","3","5","7","5","5","5","2","5","5","3","2","2","7","3","1","3","2","3","6","5","5","3","6","5","5","3","3","3","2","3","6","5","5","6","7","7","3","7","5","2","5","3","6","3","3","781469725959131138","路","130","Female","[""坏我"",""坏她"",""好我"",""好她""]","[""弱我"",""弱她"",""强我"",""强她""]","","","","","","","","","","","","","","","","","","","","","","","","","","","","","","feedback_test","","","","","","","","",""
"637","","f","psychophysics","120","509576","0.0-8.0-0.0-1.1-0.1-0.54","5","4","5","2","2","2","4","4","4","2","5","1","0","-1","-2","0","1","1","2","5","4","5","4","4","3","4","4","5","4","3","4","5","7","2","3","5","7","5","5","5","2","5","5","3","2","2","7","3","1","3","2","3","6","5","5","3","6","5","5","3","3","3","2","3","6","5","5","6","7","7","3","7","5","2","5","3","6","3","3","781469725959131138","路","130","Female","[""坏我"",""坏她"",""好我"",""好她""]","[""弱我"",""弱她"",""强我"",""强她""]","","","","","","","","match","","","","","","","","","","key","f","16.66701030927847","640","356","j","false","nonmatch","img/square.png","好我","好她","prac_ALT2_moral","practice_moral","","","","","","","","",""
"null","<span style='color:red; font-size: 70px;'>错误! </span>","null","html-keyboard-response","121","510088","0.0-8.0-0.0-1.1-0.1-1.54","5","4","5","2","2","2","4","4","4","2","5","1","0","-1","-2","0","1","1","2","5","4","5","4","4","3","4","4","5","4","3","4","5","7","2","3","5","7","5","5","5","2","5","5","3","2","2","7","3","1","3","2","3","6","5","5","3","6","5","5","3","3","3","2","3","6","5","5","6","7","7","3","7","5","2","5","3","6","3","3","781469725959131138","路","130","Female","[""坏我"",""坏她"",""好我"",""好她""]","[""弱我"",""弱她"",""强我"",""强她""]","","","","","","","","","","","","","","","","","","","","","","","","","","","","","","feedback_test","","","","","","","","",""
"438","","j","psychophysics","122","511528","0.0-8.0-0.0-1.1-0.1-0.55","5","4","5","2","2","2","4","4","4","2","5","1","0","-1","-2","0","1","1","2","5","4","5","4","4","3","4","4","5","4","3","4","5","7","2","3","5","7","5","5","5","2","5","5","3","2","2","7","3","1","3","2","3","6","5","5","3","6","5","5","3","3","3","2","3","6","5","5","6","7","7","3","7","5","2","5","3","6","3","3","781469725959131138","路","130","Female","[""坏我"",""坏她"",""好我"",""好她""]","[""弱我"",""弱她"",""强我"",""强她""]","","","","","","","","nonmatch","","","","","","","","","","key","j","16.661627906977014","640","356","j","true","nonmatch","img/hexagon.png","好我","坏我","prac_ALT2_moral","practice_moral","","","","","","","","",""
"null","<span style='color:GreenYellow; font-size: 70px;'>正确! </span>","null","html-keyboard-response","123","512030","0.0-8.0-0.0-1.1-0.1-1.55","5","4","5","2","2","2","4","4","4","2","5","1","0","-1","-2","0","1","1","2","5","4","5","4","4","3","4","4","5","4","3","4","5","7","2","3","5","7","5","5","5","2","5","5","3","2","2","7","3","1","3","2","3","6","5","5","3","6","5","5","3","3","3","2","3","6","5","5","6","7","7","3","7","5","2","5","3","6","3","3","781469725959131138","路","130","Female","[""坏我"",""坏她"",""好我"",""好她""]","[""弱我"",""弱她"",""强我"",""强她""]","","","","","","","","","","","","","","","","","","","","","","","","","","","","","","feedback_test","","","","","","","","",""
"465","","j","psychophysics","124","513498","0.0-8.0-0.0-1.1-0.1-0.56","5","4","5","2","2","2","4","4","4","2","5","1","0","-1","-2","0","1","1","2","5","4","5","4","4","3","4","4","5","4","3","4","5","7","2","3","5","7","5","5","5","2","5","5","3","2","2","7","3","1","3","2","3","6","5","5","3","6","5","5","3","3","3","2","3","6","5","5","6","7","7","3","7","5","2","5","3","6","3","3","781469725959131138","路","130","Female","[""坏我"",""坏她"",""好我"",""好她""]","[""弱我"",""弱她"",""强我"",""强她""]","","","","","","","","nonmatch","","","","","","","","","","key","j","16.666666666666668","640","356","j","true","nonmatch","img/hexagon.png","好她","坏我","prac_ALT2_moral","practice_moral","","","","","","","","",""
"null","<span style='color:GreenYellow; font-size: 70px;'>正确! </span>","null","html-keyboard-response","125","513999","0.0-8.0-0.0-1.1-0.1-1.56","5","4","5","2","2","2","4","4","4","2","5","1","0","-1","-2","0","1","1","2","5","4","5","4","4","3","4","4","5","4","3","4","5","7","2","3","5","7","5","5","5","2","5","5","3","2","2","7","3","1","3","2","3","6","5","5","3","6","5","5","3","3","3","2","3","6","5","5","6","7","7","3","7","5","2","5","3","6","3","3","781469725959131138","路","130","Female","[""坏我"",""坏她"",""好我"",""好她""]","[""弱我"",""弱她"",""强我"",""强她""]","","","","","","","","","","","","","","","","","","","","","","","","","","","","","","feedback_test","","","","","","","","",""
"480","","j","psychophysics","126","515483","0.0-8.0-0.0-1.1-0.1-0.57","5","4","5","2","2","2","4","4","4","2","5","1","0","-1","-2","0","1","1","2","5","4","5","4","4","3","4","4","5","4","3","4","5","7","2","3","5","7","5","5","5","2","5","5","3","2","2","7","3","1","3","2","3","6","5","5","3","6","5","5","3","3","3","2","3","6","5","5","6","7","7","3","7","5","2","5","3","6","3","3","781469725959131138","路","130","Female","[""坏我"",""坏她"",""好我"",""好她""]","[""弱我"",""弱她"",""强我"",""强她""]","","","","","","","","nonmatch","","","","","","","","","","key","j","16.667045454545587","640","356","j","true","nonmatch","img/square.png","坏她","好她","prac_ALT2_moral","practice_moral","","","","","","","","",""
"null","<span style='color:GreenYellow; font-size: 70px;'>正确! </span>","null","html-keyboard-response","127","515985","0.0-8.0-0.0-1.1-0.1-1.57","5","4","5","2","2","2","4","4","4","2","5","1","0","-1","-2","0","1","1","2","5","4","5","4","4","3","4","4","5","4","3","4","5","7","2","3","5","7","5","5","5","2","5","5","3","2","2","7","3","1","3","2","3","6","5","5","3","6","5","5","3","3","3","2","3","6","5","5","6","7","7","3","7","5","2","5","3","6","3","3","781469725959131138","路","130","Female","[""坏我"",""坏她"",""好我"",""好她""]","[""弱我"",""弱她"",""强我"",""强她""]","","","","","","","","","","","","","","","","","","","","","","","","","","","","","","feedback_test","","","","","","","","",""
"672","","j","psychophysics","128","517661","0.0-8.0-0.0-1.1-0.1-0.58","5","4","5","2","2","2","4","4","4","2","5","1","0","-1","-2","0","1","1","2","5","4","5","4","4","3","4","4","5","4","3","4","5","7","2","3","5","7","5","5","5","2","5","5","3","2","2","7","3","1","3","2","3","6","5","5","3","6","5","5","3","3","3","2","3","6","5","5","6","7","7","3","7","5","2","5","3","6","3","3","781469725959131138","路","130","Female","[""坏我"",""坏她"",""好我"",""好她""]","[""弱我"",""弱她"",""强我"",""强她""]","","","","","","","","nonmatch","","","","","","","","","","key","j","16.66","640","356","f","false","match","img/ellipse.png","坏她","坏她","prac_ALT2_moral","practice_moral","","","","","","","","",""
"null","<span style='color:red; font-size: 70px;'>错误! </span>","null","html-keyboard-response","129","518170","0.0-8.0-0.0-1.1-0.1-1.58","5","4","5","2","2","2","4","4","4","2","5","1","0","-1","-2","0","1","1","2","5","4","5","4","4","3","4","4","5","4","3","4","5","7","2","3","5","7","5","5","5","2","5","5","3","2","2","7","3","1","3","2","3","6","5","5","3","6","5","5","3","3","3","2","3","6","5","5","6","7","7","3","7","5","2","5","3","6","3","3","781469725959131138","路","130","Female","[""坏我"",""坏她"",""好我"",""好她""]","[""弱我"",""弱她"",""强我"",""强她""]","","","","","","","","","","","","","","","","","","","","","","","","","","","","","","feedback_test","","","","","","","","",""
"481","","j","psychophysics","130","519654","0.0-8.0-0.0-1.1-0.1-0.59","5","4","5","2","2","2","4","4","4","2","5","1","0","-1","-2","0","1","1","2","5","4","5","4","4","3","4","4","5","4","3","4","5","7","2","3","5","7","5","5","5","2","5","5","3","2","2","7","3","1","3","2","3","6","5","5","3","6","5","5","3","3","3","2","3","6","5","5","6","7","7","3","7","5","2","5","3","6","3","3","781469725959131138","路","130","Female","[""坏我"",""坏她"",""好我"",""好她""]","[""弱我"",""弱她"",""强我"",""强她""]","","","","","","","","nonmatch","","","","","","","","","","key","j","16.667045454545587","640","356","j","true","nonmatch","img/ellipse.png","坏我","坏她","prac_ALT2_moral","practice_moral","","","","","","","","",""
"null","<span style='color:GreenYellow; font-size: 70px;'>正确! </span>","null","html-keyboard-response","131","520156","0.0-8.0-0.0-1.1-0.1-1.59","5","4","5","2","2","2","4","4","4","2","5","1","0","-1","-2","0","1","1","2","5","4","5","4","4","3","4","4","5","4","3","4","5","7","2","3","5","7","5","5","5","2","5","5","3","2","2","7","3","1","3","2","3","6","5","5","3","6","5","5","3","3","3","2","3","6","5","5","6","7","7","3","7","5","2","5","3","6","3","3","781469725959131138","路","130","Female","[""坏我"",""坏她"",""好我"",""好她""]","[""弱我"",""弱她"",""强我"",""强她""]","","","","","","","","","","","","","","","","","","","","","","","","","","","","","","feedback_test","","","","","","","","",""
"744","","f","psychophysics","132","521902","0.0-8.0-0.0-1.1-0.1-0.60","5","4","5","2","2","2","4","4","4","2","5","1","0","-1","-2","0","1","1","2","5","4","5","4","4","3","4","4","5","4","3","4","5","7","2","3","5","7","5","5","5","2","5","5","3","2","2","7","3","1","3","2","3","6","5","5","3","6","5","5","3","3","3","2","3","6","5","5","6","7","7","3","7","5","2","5","3","6","3","3","781469725959131138","路","130","Female","[""坏我"",""坏她"",""好我"",""好她""]","[""弱我"",""弱她"",""强我"",""强她""]","","","","","","","","match","","","","","","","","","","key","f","16.66407766990314","640","356","j","false","nonmatch","img/triangle.png","好她","好我","prac_ALT2_moral","practice_moral","","","","","","","","",""
"null","<span style='color:red; font-size: 70px;'>错误! </span>","null","html-keyboard-response","133","522404","0.0-8.0-0.0-1.1-0.1-1.60","5","4","5","2","2","2","4","4","4","2","5","1","0","-1","-2","0","1","1","2","5","4","5","4","4","3","4","4","5","4","3","4","5","7","2","3","5","7","5","5","5","2","5","5","3","2","2","7","3","1","3","2","3","6","5","5","3","6","5","5","3","3","3","2","3","6","5","5","6","7","7","3","7","5","2","5","3","6","3","3","781469725959131138","路","130","Female","[""坏我"",""坏她"",""好我"",""好她""]","[""弱我"",""弱她"",""强我"",""强她""]","","","","","","","","","","","","","","","","","","","","","","","","","","","","","","feedback_test","","","","","","","","",""
"628","","f","psychophysics","134","524034","0.0-8.0-0.0-1.1-0.1-0.61","5","4","5","2","2","2","4","4","4","2","5","1","0","-1","-2","0","1","1","2","5","4","5","4","4","3","4","4","5","4","3","4","5","7","2","3","5","7","5","5","5","2","5","5","3","2","2","7","3","1","3","2","3","6","5","5","3","6","5","5","3","3","3","2","3","6","5","5","6","7","7","3","7","5","2","5","3","6","3","3","781469725959131138","路","130","Female","[""坏我"",""坏她"",""好我"",""好她""]","[""弱我"",""弱她"",""强我"",""强她""]","","","","","","","","match","","","","","","","","","","key","f","16.662886597938623","640","356","f","true","match","img/ellipse.png","坏她","坏她","prac_ALT2_moral","practice_moral","","","","","","","","",""
"null","<span style='color:GreenYellow; font-size: 70px;'>正确! </span>","null","html-keyboard-response","135","524535","0.0-8.0-0.0-1.1-0.1-1.61","5","4","5","2","2","2","4","4","4","2","5","1","0","-1","-2","0","1","1","2","5","4","5","4","4","3","4","4","5","4","3","4","5","7","2","3","5","7","5","5","5","2","5","5","3","2","2","7","3","1","3","2","3","6","5","5","3","6","5","5","3","3","3","2","3","6","5","5","6","7","7","3","7","5","2","5","3","6","3","3","781469725959131138","路","130","Female","[""坏我"",""坏她"",""好我"",""好她""]","[""弱我"",""弱她"",""强我"",""强她""]","","","","","","","","","","","","","","","","","","","","","","","","","","","","","","feedback_test","","","","","","","","",""
"676","","f","psychophysics","136","526215","0.0-8.0-0.0-1.1-0.1-0.62","5","4","5","2","2","2","4","4","4","2","5","1","0","-1","-2","0","1","1","2","5","4","5","4","4","3","4","4","5","4","3","4","5","7","2","3","5","7","5","5","5","2","5","5","3","2","2","7","3","1","3","2","3","6","5","5","3","6","5","5","3","3","3","2","3","6","5","5","6","7","7","3","7","5","2","5","3","6","3","3","781469725959131138","路","130","Female","[""坏我"",""坏她"",""好我"",""好她""]","[""弱我"",""弱她"",""强我"",""强她""]","","","","","","","","match","","","","","","","","","","key","f","16.6629999999993","640","356","f","true","match","img/ellipse.png","坏她","坏她","prac_ALT2_moral","practice_moral","","","","","","","","",""
"null","<span style='color:GreenYellow; font-size: 70px;'>正确! </span>","null","html-keyboard-response","137","526716","0.0-8.0-0.0-1.1-0.1-1.62","5","4","5","2","2","2","4","4","4","2","5","1","0","-1","-2","0","1","1","2","5","4","5","4","4","3","4","4","5","4","3","4","5","7","2","3","5","7","5","5","5","2","5","5","3","2","2","7","3","1","3","2","3","6","5","5","3","6","5","5","3","3","3","2","3","6","5","5","6","7","7","3","7","5","2","5","3","6","3","3","781469725959131138","路","130","Female","[""坏我"",""坏她"",""好我"",""好她""]","[""弱我"",""弱她"",""强我"",""强她""]","","","","","","","","","","","","","","","","","","","","","","","","","","","","","","feedback_test","","","","","","","","",""
