"rt","stimulus","response","trial_type","trial_index","time_elapsed","internal_node_id","swb_1","swb_2","swb_3","swb_4","swb_5","LOT_1","LOT_2","LOT_3","LOT_4","LOT_5","LOT_6","IPC_1","IPC_2","IPC_3","IPC_4","IPC_5","IPC_6","IPC_7","IPC_8","MorIden_1","MorIden_2","MorIden_3","MorIden_4","MorIden_5","MorIden_6","MorIden_7","MorIden_8","MorIden_9","MorIden_10","moralSeImag_1","moralSeImag_2","moralSeImag_3","moralSeImag_4","moralSeImag_5","moralSeImag_6","moralSeImag_7","moralSeImag_8","moralSeImag_9","sde_1","sde_2","sde_3","sde_4","sde_5","sde_6","sde_7","sde_8","sde_9","sde_10","trap2","sde_11","sde_12","sde_13","sde_14","sde_15","sde_16","sde_17","sde_18","sde_19","sde_20","IM_1","IM_2","IM_3","IM_4","IM_5","IM_6","IM_7","IM_8","IM_9","IM_10","IM_11","IM_12","IM_13","IM_14","IM_15","IM_16","IM_17","IM_18","IM_19","IM_20","subj_idx","friend_name","ParticipantID","Sex","Word","Word2","value","success","timeout","failed_images","failed_audio","failed_video","user_agent","responses","item_order","radio_event_ids","radio_event_times","key_event_times","mouse_event_times","straightlining","zigzagging","honeypot","view_history","response_type","key_press","avg_frame_time","center_x","center_y","correct_response","correct","identity","Image","word","condition","task_id","screen_id","time_stamp","person","valence","domain","math","status","duration","question_order","trap2_item"
"24705","
   <p><div style='color:white; font-size: 25px'>您好，欢迎参加本次实验。</div></p>
   <p><div style='color:white; font-size: 25px'>为充分保障您的权利，请确保您已经知晓并同意《参与实验同意书》以及《数据公开知情同意书》。</div></p>
   <p><div style='color:white; font-size: 25px'>如果您未见过上述内容，请咨询实验员。</div></p>
   <p style='color:white; font-size: 25px'>如果您选择继续实验，则表示您已经清楚两份知情同意书的内容并同意。</p>
   <p><div style = ""color: pink;font-size:30px;"">请确保您记得day0的实验编号，您将在本次实验输入该编号，若您忘记，请咨询实验员后作答。</div></p>
   <p><div style = ""color:lightblue;font-size:25px;"">请您尽可能认真地作答，我们将依据您在各问卷和按键任务中的作答质量发放报酬。</div></p>
   <p> <div style = ""color: green""><按空格键至下页></div> </p>
   "," ","html-keyboard-response","0","24708","0.0-0.0","7","7","7","7","1","5","2","5","5","5","5","-3","-2","-1","-3","-3","-1","-3","0","5","5","5","5","5","3","1","1","3","1","1","5","9","5","2","1","1","1","3","7","3","1","4","7","2","7","7","5","1","1","1","1","5","1","5","1","7","4","2","7","1","1","1","1","1","7","1","5","7","7","1","7","7","1","1","1","7","7","1","4","787084202704248834","秦","378","Male","[""坏他"",""好我"",""坏我"",""好他""]","[""弱他"",""强我"",""弱我"",""强他""]","","","","","","","","","","","","","","","","","","","","","","","","","","","","","","","","","","","","","","",""
"","","","call-function","1","24709","0.0-1.0-0.0","7","7","7","7","1","5","2","5","5","5","5","-3","-2","-1","-3","-3","-1","-3","0","5","5","5","5","5","3","1","1","3","1","1","5","9","5","2","1","1","1","3","7","3","1","4","7","2","7","7","5","1","1","1","1","5","1","5","1","7","4","2","7","1","1","1","1","1","7","1","5","7","7","1","7","7","1","1","1","7","7","1","4","787084202704248834","秦","378","Male","[""坏他"",""好我"",""坏我"",""好他""]","[""弱他"",""强我"",""弱我"",""强他""]","","","","","","","","","","","","","","","","","","","","","","","","","","","","","","","","","","","","","","",""
"21845","","[{""name"":""Sex"",""value"":""0""},{""name"":""friend_name"",""value"":""秦""},{""name"":""ParticipantID"",""value"":""378""}]","survey-html-form","2","46556","0.0-1.0-1.0","7","7","7","7","1","5","2","5","5","5","5","-3","-2","-1","-3","-3","-1","-3","0","5","5","5","5","5","3","1","1","3","1","1","5","9","5","2","1","1","1","3","7","3","1","4","7","2","7","7","5","1","1","1","1","5","1","5","1","7","4","2","7","1","1","1","1","1","7","1","5","7","7","1","7","7","1","1","1","7","7","1","4","787084202704248834","秦","378","Male","[""坏他"",""好我"",""坏我"",""好他""]","[""弱他"",""强我"",""弱我"",""强他""]","","","","","","","","","","","","","","","","","","","","","","","","","","","","","","","","","","","","","","",""
"","","","preload","3","47251","0.0-2.0","7","7","7","7","1","5","2","5","5","5","5","-3","-2","-1","-3","-3","-1","-3","0","5","5","5","5","5","3","1","1","3","1","1","5","9","5","2","1","1","1","3","7","3","1","4","7","2","7","7","5","1","1","1","1","5","1","5","1","7","4","2","7","1","1","1","1","1","7","1","5","7","7","1","7","7","1","1","1","7","7","1","4","787084202704248834","秦","378","Male","[""坏他"",""好我"",""坏我"",""好他""]","[""弱他"",""强我"",""弱我"",""强他""]","","true","false","[]","[]","[]","","","","","","","","","","","","","","","","","","","","","","","","","","","","","","","","",""
"","","","fullscreen","4","50022","0.0-3.0","7","7","7","7","1","5","2","5","5","5","5","-3","-2","-1","-3","-3","-1","-3","0","5","5","5","5","5","3","1","1","3","1","1","5","9","5","2","1","1","1","3","7","3","1","4","7","2","7","7","5","1","1","1","1","5","1","5","1","7","4","2","7","1","1","1","1","1","7","1","5","7","7","1","7","7","1","1","1","7","7","1","4","787084202704248834","秦","378","Male","[""坏他"",""好我"",""坏我"",""好他""]","[""弱他"",""强我"",""弱我"",""强他""]","","true","","","","","{}","","","","","","","","","","","","","","","","","","","","","","","","","","","","","","","",""
"19730","","{""Q01"":""7"",""Q02"":""7"",""Q03"":""7"",""Q04"":""7"",""Q05"":""1""}","survey-template","5","69755","0.0-4.0","7","7","7","7","1","5","2","5","5","5","5","-3","-2","-1","-3","-3","-1","-3","0","5","5","5","5","5","3","1","1","3","1","1","5","9","5","2","1","1","1","3","7","3","1","4","7","2","7","7","5","1","1","1","1","5","1","5","1","7","4","2","7","1","1","1","1","1","7","1","5","7","7","1","7","7","1","1","1","7","7","1","4","787084202704248834","秦","378","Male","[""坏他"",""好我"",""坏我"",""好他""]","[""弱他"",""强我"",""弱我"",""强他""]","","","","","","","","{""Q01"":""7"",""Q02"":""7"",""Q03"":""7"",""Q04"":""7"",""Q05"":""1""}","[0,1,2,3,4]","[""Q01"",""Q02"",""Q03"",""Q04"",""Q05""]","[7097.399999976158,8352.5,9280.700000047684,12105.5,17753.600000023842]","[]","[7097.399999976158,8352.5,9280.700000047684,12105.5,17753.600000023842,19729]","0.8","0.25","0","","","","","","","","","","","","","","","","","","","","","","",""
"21284.100000023842","","{""Q01"":""5"",""Q02"":""2"",""Q03"":""5"",""Q04"":""5"",""Q05"":""5"",""Q06"":""5""}","survey-template","6","91043","0.0-5.0","7","7","7","7","1","5","2","5","5","5","5","-3","-2","-1","-3","-3","-1","-3","0","5","5","5","5","5","3","1","1","3","1","1","5","9","5","2","1","1","1","3","7","3","1","4","7","2","7","7","5","1","1","1","1","5","1","5","1","7","4","2","7","1","1","1","1","1","7","1","5","7","7","1","7","7","1","1","1","7","7","1","4","787084202704248834","秦","378","Male","[""坏他"",""好我"",""坏我"",""好他""]","[""弱他"",""强我"",""弱我"",""强他""]","","","","","","","","{""Q01"":""5"",""Q02"":""2"",""Q03"":""5"",""Q04"":""5"",""Q05"":""5"",""Q06"":""5""}","[0,1,2,3,4,5]","[""Q01"",""Q02"",""Q03"",""Q04"",""Q05"",""Q06""]","[3909.100000023842,8692.400000095367,11324.300000071526,14963.400000095367,17277.700000047684,20068.5]","[]","[3909.100000023842,8692.400000095367,10996.700000047684,11324.300000071526,14963.400000095367,17277.700000047684,20068.5,21283.300000071526]","0.5","0.8","0","","","","","","","","","","","","","","","","","","","","","","",""
"43112.60000002384","","{""Q01"":""-3"",""Q02"":""-2"",""Q03"":""-1"",""Q04"":""-3"",""Q05"":""-3"",""Q06"":""-1"",""Q07"":""-3"",""Q08"":""0""}","survey-template","7","134158","0.0-6.0","7","7","7","7","1","5","2","5","5","5","5","-3","-2","-1","-3","-3","-1","-3","0","5","5","5","5","5","3","1","1","3","1","1","5","9","5","2","1","1","1","3","7","3","1","4","7","2","7","7","5","1","1","1","1","5","1","5","1","7","4","2","7","1","1","1","1","1","7","1","5","7","7","1","7","7","1","1","1","7","7","1","4","787084202704248834","秦","378","Male","[""坏他"",""好我"",""坏我"",""好他""]","[""弱他"",""强我"",""弱我"",""强他""]","","","","","","","","{""Q01"":""-3"",""Q02"":""-2"",""Q03"":""-1"",""Q04"":""-3"",""Q05"":""-3"",""Q06"":""-1"",""Q07"":""-3"",""Q08"":""0""}","[0,1,2,3,4,5,6,7]","[""Q01"",""Q02"",""Q02"",""Q02"",""Q03"",""Q04"",""Q05"",""Q06"",""Q07"",""Q08""]","[3501.100000023842,9084.300000071526,11004.5,16460.300000071526,21381.100000023842,24613.5,28607.900000095367,31284.5,37069,42318]","[]","[3501.100000023842,9084.300000071526,10397.700000047684,11004.5,16460.300000071526,21381.100000023842,24613.5,28607.900000095367,31284.5,37069,42318,43111.700000047684]","0.5","0.2857142857142857","0","","","","","","","","","","","","","","","","","","","","","","",""
"16313","","","instructions","8","150474","0.0-7.0","7","7","7","7","1","5","2","5","5","5","5","-3","-2","-1","-3","-3","-1","-3","0","5","5","5","5","5","3","1","1","3","1","1","5","9","5","2","1","1","1","3","7","3","1","4","7","2","7","7","5","1","1","1","1","5","1","5","1","7","4","2","7","1","1","1","1","1","7","1","5","7","7","1","7","7","1","1","1","7","7","1","4","787084202704248834","秦","378","Male","[""坏他"",""好我"",""坏我"",""好他""]","[""弱他"",""强我"",""弱我"",""强他""]","","","","","","","","","","","","","","","","","[{""page_index"":0,""viewing_time"":16313}]","","","","","","","","","","","","","","","","","","","","","",""
"135561","","","instructions","9","286036","0.0-8.0-0.0-0.0","7","7","7","7","1","5","2","5","5","5","5","-3","-2","-1","-3","-3","-1","-3","0","5","5","5","5","5","3","1","1","3","1","1","5","9","5","2","1","1","1","3","7","3","1","4","7","2","7","7","5","1","1","1","1","5","1","5","1","7","4","2","7","1","1","1","1","1","7","1","5","7","7","1","7","7","1","1","1","7","7","1","4","787084202704248834","秦","378","Male","[""坏他"",""好我"",""坏我"",""好他""]","[""弱他"",""强我"",""弱我"",""强他""]","","","","","","","","","","","","","","","","","[{""page_index"":0,""viewing_time"":13750},{""page_index"":1,""viewing_time"":116237},{""page_index"":2,""viewing_time"":3549},{""page_index"":3,""viewing_time"":2025}]","","","","","","","","","","","","","","","","","","","","","",""
"1098","","j","psychophysics","10","288139","0.0-8.0-0.0-1.0-0.0-0.0","7","7","7","7","1","5","2","5","5","5","5","-3","-2","-1","-3","-3","-1","-3","0","5","5","5","5","5","3","1","1","3","1","1","5","9","5","2","1","1","1","3","7","3","1","4","7","2","7","7","5","1","1","1","1","5","1","5","1","7","4","2","7","1","1","1","1","1","7","1","5","7","7","1","7","7","1","1","1","7","7","1","4","787084202704248834","秦","378","Male","[""坏他"",""好我"",""坏我"",""好他""]","[""弱他"",""强我"",""弱我"",""强他""]","","","","","","","","nonmatch","","","","","","","","","","key","j","16.655200000000185","768","428","f","false","match","img/circle.png","好他","好他","prac_ALT2_moral","practice_moral","","","","","","","","",""
"null","<span style='color:red; font-size: 70px;'>错误! </span>","null","html-keyboard-response","11","288642","0.0-8.0-0.0-1.0-0.0-1.0","7","7","7","7","1","5","2","5","5","5","5","-3","-2","-1","-3","-3","-1","-3","0","5","5","5","5","5","3","1","1","3","1","1","5","9","5","2","1","1","1","3","7","3","1","4","7","2","7","7","5","1","1","1","1","5","1","5","1","7","4","2","7","1","1","1","1","1","7","1","5","7","7","1","7","7","1","1","1","7","7","1","4","787084202704248834","秦","378","Male","[""坏他"",""好我"",""坏我"",""好他""]","[""弱他"",""强我"",""弱我"",""强他""]","","","","","","","","","","","","","","","","","","","","","","","","","","","","","","feedback_test","","","","","","","","",""
"867","","f","psychophysics","12","290510","0.0-8.0-0.0-1.0-0.0-0.1","7","7","7","7","1","5","2","5","5","5","5","-3","-2","-1","-3","-3","-1","-3","0","5","5","5","5","5","3","1","1","3","1","1","5","9","5","2","1","1","1","3","7","3","1","4","7","2","7","7","5","1","1","1","1","5","1","5","1","7","4","2","7","1","1","1","1","1","7","1","5","7","7","1","7","7","1","1","1","7","7","1","4","787084202704248834","秦","378","Male","[""坏他"",""好我"",""坏我"",""好他""]","[""弱他"",""强我"",""弱我"",""强他""]","","","","","","","","match","","","","","","","","","","key","f","16.659459459459566","768","428","f","true","match","img/trapezoid.png","坏他","坏他","prac_ALT2_moral","practice_moral","","","","","","","","",""
"null","<span style='color:GreenYellow; font-size: 70px;'>正确! </span>","null","html-keyboard-response","13","291011","0.0-8.0-0.0-1.0-0.0-1.1","7","7","7","7","1","5","2","5","5","5","5","-3","-2","-1","-3","-3","-1","-3","0","5","5","5","5","5","3","1","1","3","1","1","5","9","5","2","1","1","1","3","7","3","1","4","7","2","7","7","5","1","1","1","1","5","1","5","1","7","4","2","7","1","1","1","1","1","7","1","5","7","7","1","7","7","1","1","1","7","7","1","4","787084202704248834","秦","378","Male","[""坏他"",""好我"",""坏我"",""好他""]","[""弱他"",""强我"",""弱我"",""强他""]","","","","","","","","","","","","","","","","","","","","","","","","","","","","","","feedback_test","","","","","","","","",""
"null","","null","psychophysics","14","293214","0.0-8.0-0.0-1.0-0.0-0.2","7","7","7","7","1","5","2","5","5","5","5","-3","-2","-1","-3","-3","-1","-3","0","5","5","5","5","5","3","1","1","3","1","1","5","9","5","2","1","1","1","3","7","3","1","4","7","2","7","7","5","1","1","1","1","5","1","5","1","7","4","2","7","1","1","1","1","1","7","1","5","7","7","1","7","7","1","1","1","7","7","1","4","787084202704248834","秦","378","Male","[""坏他"",""好我"",""坏我"",""好他""]","[""弱他"",""强我"",""弱我"",""强他""]","","","","","","","","null","","","","","","","","","","key","null","16.65227272727299","768","428","j","false","nonmatch","img/square.png","好他","好我","prac_ALT2_moral","practice_moral","","","","","","","","",""
"null","<span class='add_' style='color:yellow; font-size: 70px;'> 太慢! </span>","null","html-keyboard-response","15","293715","0.0-8.0-0.0-1.0-0.0-1.2","7","7","7","7","1","5","2","5","5","5","5","-3","-2","-1","-3","-3","-1","-3","0","5","5","5","5","5","3","1","1","3","1","1","5","9","5","2","1","1","1","3","7","3","1","4","7","2","7","7","5","1","1","1","1","5","1","5","1","7","4","2","7","1","1","1","1","1","7","1","5","7","7","1","7","7","1","1","1","7","7","1","4","787084202704248834","秦","378","Male","[""坏他"",""好我"",""坏我"",""好他""]","[""弱他"",""强我"",""弱我"",""强他""]","","","","","","","","","","","","","","","","","","","","","","","","","","","","","","feedback_test","","","","","","","","",""
"869","","j","psychophysics","16","295585","0.0-8.0-0.0-1.0-0.0-0.3","7","7","7","7","1","5","2","5","5","5","5","-3","-2","-1","-3","-3","-1","-3","0","5","5","5","5","5","3","1","1","3","1","1","5","9","5","2","1","1","1","3","7","3","1","4","7","2","7","7","5","1","1","1","1","5","1","5","1","7","4","2","7","1","1","1","1","1","7","1","5","7","7","1","7","7","1","1","1","7","7","1","4","787084202704248834","秦","378","Male","[""坏他"",""好我"",""坏我"",""好他""]","[""弱他"",""强我"",""弱我"",""强他""]","","","","","","","","nonmatch","","","","","","","","","","key","j","16.64864864864865","768","428","j","true","nonmatch","img/square.png","坏他","好我","prac_ALT2_moral","practice_moral","","","","","","","","",""
"null","<span style='color:GreenYellow; font-size: 70px;'>正确! </span>","null","html-keyboard-response","17","296086","0.0-8.0-0.0-1.0-0.0-1.3","7","7","7","7","1","5","2","5","5","5","5","-3","-2","-1","-3","-3","-1","-3","0","5","5","5","5","5","3","1","1","3","1","1","5","9","5","2","1","1","1","3","7","3","1","4","7","2","7","7","5","1","1","1","1","5","1","5","1","7","4","2","7","1","1","1","1","1","7","1","5","7","7","1","7","7","1","1","1","7","7","1","4","787084202704248834","秦","378","Male","[""坏他"",""好我"",""坏我"",""好他""]","[""弱他"",""强我"",""弱我"",""强他""]","","","","","","","","","","","","","","","","","","","","","","","","","","","","","","feedback_test","","","","","","","","",""
"726","","f","psychophysics","18","297814","0.0-8.0-0.0-1.0-0.0-0.4","7","7","7","7","1","5","2","5","5","5","5","-3","-2","-1","-3","-3","-1","-3","0","5","5","5","5","5","3","1","1","3","1","1","5","9","5","2","1","1","1","3","7","3","1","4","7","2","7","7","5","1","1","1","1","5","1","5","1","7","4","2","7","1","1","1","1","1","7","1","5","7","7","1","7","7","1","1","1","7","7","1","4","787084202704248834","秦","378","Male","[""坏他"",""好我"",""坏我"",""好他""]","[""弱他"",""强我"",""弱我"",""强他""]","","","","","","","","match","","","","","","","","","","key","f","16.65242718446613","768","428","j","false","nonmatch","img/hexagon.png","好我","坏我","prac_ALT2_moral","practice_moral","","","","","","","","",""
"null","<span style='color:red; font-size: 70px;'>错误! </span>","null","html-keyboard-response","19","298329","0.0-8.0-0.0-1.0-0.0-1.4","7","7","7","7","1","5","2","5","5","5","5","-3","-2","-1","-3","-3","-1","-3","0","5","5","5","5","5","3","1","1","3","1","1","5","9","5","2","1","1","1","3","7","3","1","4","7","2","7","7","5","1","1","1","1","5","1","5","1","7","4","2","7","1","1","1","1","1","7","1","5","7","7","1","7","7","1","1","1","7","7","1","4","787084202704248834","秦","378","Male","[""坏他"",""好我"",""坏我"",""好他""]","[""弱他"",""强我"",""弱我"",""强他""]","","","","","","","","","","","","","","","","","","","","","","","","","","","","","","feedback_test","","","","","","","","",""
"856","","j","psychophysics","20","300187","0.0-8.0-0.0-1.0-0.0-0.5","7","7","7","7","1","5","2","5","5","5","5","-3","-2","-1","-3","-3","-1","-3","0","5","5","5","5","5","3","1","1","3","1","1","5","9","5","2","1","1","1","3","7","3","1","4","7","2","7","7","5","1","1","1","1","5","1","5","1","7","4","2","7","1","1","1","1","1","7","1","5","7","7","1","7","7","1","1","1","7","7","1","4","787084202704248834","秦","378","Male","[""坏他"",""好我"",""坏我"",""好他""]","[""弱他"",""强我"",""弱我"",""强他""]","","","","","","","","nonmatch","","","","","","","","","","key","j","16.647927927928304","768","428","j","true","nonmatch","img/trapezoid.png","好他","坏他","prac_ALT2_moral","practice_moral","","","","","","","","",""
"null","<span style='color:GreenYellow; font-size: 70px;'>正确! </span>","null","html-keyboard-response","21","300689","0.0-8.0-0.0-1.0-0.0-1.5","7","7","7","7","1","5","2","5","5","5","5","-3","-2","-1","-3","-3","-1","-3","0","5","5","5","5","5","3","1","1","3","1","1","5","9","5","2","1","1","1","3","7","3","1","4","7","2","7","7","5","1","1","1","1","5","1","5","1","7","4","2","7","1","1","1","1","1","7","1","5","7","7","1","7","7","1","1","1","7","7","1","4","787084202704248834","秦","378","Male","[""坏他"",""好我"",""坏我"",""好他""]","[""弱他"",""强我"",""弱我"",""强他""]","","","","","","","","","","","","","","","","","","","","","","","","","","","","","","feedback_test","","","","","","","","",""
"880","","j","psychophysics","22","302571","0.0-8.0-0.0-1.0-0.0-0.6","7","7","7","7","1","5","2","5","5","5","5","-3","-2","-1","-3","-3","-1","-3","0","5","5","5","5","5","3","1","1","3","1","1","5","9","5","2","1","1","1","3","7","3","1","4","7","2","7","7","5","1","1","1","1","5","1","5","1","7","4","2","7","1","1","1","1","1","7","1","5","7","7","1","7","7","1","1","1","7","7","1","4","787084202704248834","秦","378","Male","[""坏他"",""好我"",""坏我"",""好他""]","[""弱他"",""强我"",""弱我"",""强他""]","","","","","","","","nonmatch","","","","","","","","","","key","j","16.650892857143067","768","428","j","true","nonmatch","img/hexagon.png","好他","坏我","prac_ALT2_moral","practice_moral","","","","","","","","",""
"null","<span style='color:GreenYellow; font-size: 70px;'>正确! </span>","null","html-keyboard-response","23","303074","0.0-8.0-0.0-1.0-0.0-1.6","7","7","7","7","1","5","2","5","5","5","5","-3","-2","-1","-3","-3","-1","-3","0","5","5","5","5","5","3","1","1","3","1","1","5","9","5","2","1","1","1","3","7","3","1","4","7","2","7","7","5","1","1","1","1","5","1","5","1","7","4","2","7","1","1","1","1","1","7","1","5","7","7","1","7","7","1","1","1","7","7","1","4","787084202704248834","秦","378","Male","[""坏他"",""好我"",""坏我"",""好他""]","[""弱他"",""强我"",""弱我"",""强他""]","","","","","","","","","","","","","","","","","","","","","","","","","","","","","","feedback_test","","","","","","","","",""
"813","","j","psychophysics","24","304889","0.0-8.0-0.0-1.0-0.0-0.7","7","7","7","7","1","5","2","5","5","5","5","-3","-2","-1","-3","-3","-1","-3","0","5","5","5","5","5","3","1","1","3","1","1","5","9","5","2","1","1","1","3","7","3","1","4","7","2","7","7","5","1","1","1","1","5","1","5","1","7","4","2","7","1","1","1","1","1","7","1","5","7","7","1","7","7","1","1","1","7","7","1","4","787084202704248834","秦","378","Male","[""坏他"",""好我"",""坏我"",""好他""]","[""弱他"",""强我"",""弱我"",""强他""]","","","","","","","","nonmatch","","","","","","","","","","key","j","16.65833333333366","768","428","j","true","nonmatch","img/trapezoid.png","坏我","坏他","prac_ALT2_moral","practice_moral","","","","","","","","",""
"null","<span style='color:GreenYellow; font-size: 70px;'>正确! </span>","null","html-keyboard-response","25","305390","0.0-8.0-0.0-1.0-0.0-1.7","7","7","7","7","1","5","2","5","5","5","5","-3","-2","-1","-3","-3","-1","-3","0","5","5","5","5","5","3","1","1","3","1","1","5","9","5","2","1","1","1","3","7","3","1","4","7","2","7","7","5","1","1","1","1","5","1","5","1","7","4","2","7","1","1","1","1","1","7","1","5","7","7","1","7","7","1","1","1","7","7","1","4","787084202704248834","秦","378","Male","[""坏他"",""好我"",""坏我"",""好他""]","[""弱他"",""强我"",""弱我"",""强他""]","","","","","","","","","","","","","","","","","","","","","","","","","","","","","","feedback_test","","","","","","","","",""
"898","","f","psychophysics","26","307290","0.0-8.0-0.0-1.0-0.0-0.8","7","7","7","7","1","5","2","5","5","5","5","-3","-2","-1","-3","-3","-1","-3","0","5","5","5","5","5","3","1","1","3","1","1","5","9","5","2","1","1","1","3","7","3","1","4","7","2","7","7","5","1","1","1","1","5","1","5","1","7","4","2","7","1","1","1","1","1","7","1","5","7","7","1","7","7","1","1","1","7","7","1","4","787084202704248834","秦","378","Male","[""坏他"",""好我"",""坏我"",""好他""]","[""弱他"",""强我"",""弱我"",""强他""]","","","","","","","","match","","","","","","","","","","key","f","16.656637168141696","768","428","f","true","match","img/circle.png","好他","好他","prac_ALT2_moral","practice_moral","","","","","","","","",""
"null","<span style='color:GreenYellow; font-size: 70px;'>正确! </span>","null","html-keyboard-response","27","307791","0.0-8.0-0.0-1.0-0.0-1.8","7","7","7","7","1","5","2","5","5","5","5","-3","-2","-1","-3","-3","-1","-3","0","5","5","5","5","5","3","1","1","3","1","1","5","9","5","2","1","1","1","3","7","3","1","4","7","2","7","7","5","1","1","1","1","5","1","5","1","7","4","2","7","1","1","1","1","1","7","1","5","7","7","1","7","7","1","1","1","7","7","1","4","787084202704248834","秦","378","Male","[""坏他"",""好我"",""坏我"",""好他""]","[""弱他"",""强我"",""弱我"",""强他""]","","","","","","","","","","","","","","","","","","","","","","","","","","","","","","feedback_test","","","","","","","","",""
"786","","f","psychophysics","28","309578","0.0-8.0-0.0-1.0-0.0-0.9","7","7","7","7","1","5","2","5","5","5","5","-3","-2","-1","-3","-3","-1","-3","0","5","5","5","5","5","3","1","1","3","1","1","5","9","5","2","1","1","1","3","7","3","1","4","7","2","7","7","5","1","1","1","1","5","1","5","1","7","4","2","7","1","1","1","1","1","7","1","5","7","7","1","7","7","1","1","1","7","7","1","4","787084202704248834","秦","378","Male","[""坏他"",""好我"",""坏我"",""好他""]","[""弱他"",""强我"",""弱我"",""强他""]","","","","","","","","match","","","","","","","","","","key","f","16.650943396226417","768","428","j","false","nonmatch","img/square.png","坏我","好我","prac_ALT2_moral","practice_moral","","","","","","","","",""
"null","<span style='color:red; font-size: 70px;'>错误! </span>","null","html-keyboard-response","29","310078","0.0-8.0-0.0-1.0-0.0-1.9","7","7","7","7","1","5","2","5","5","5","5","-3","-2","-1","-3","-3","-1","-3","0","5","5","5","5","5","3","1","1","3","1","1","5","9","5","2","1","1","1","3","7","3","1","4","7","2","7","7","5","1","1","1","1","5","1","5","1","7","4","2","7","1","1","1","1","1","7","1","5","7","7","1","7","7","1","1","1","7","7","1","4","787084202704248834","秦","378","Male","[""坏他"",""好我"",""坏我"",""好他""]","[""弱他"",""强我"",""弱我"",""强他""]","","","","","","","","","","","","","","","","","","","","","","","","","","","","","","feedback_test","","","","","","","","",""
"813","","f","psychophysics","30","311893","0.0-8.0-0.0-1.0-0.0-0.10","7","7","7","7","1","5","2","5","5","5","5","-3","-2","-1","-3","-3","-1","-3","0","5","5","5","5","5","3","1","1","3","1","1","5","9","5","2","1","1","1","3","7","3","1","4","7","2","7","7","5","1","1","1","1","5","1","5","1","7","4","2","7","1","1","1","1","1","7","1","5","7","7","1","7","7","1","1","1","7","7","1","4","787084202704248834","秦","378","Male","[""坏他"",""好我"",""坏我"",""好他""]","[""弱他"",""强我"",""弱我"",""强他""]","","","","","","","","match","","","","","","","","","","key","f","16.65233644859802","768","428","j","false","nonmatch","img/circle.png","坏我","好他","prac_ALT2_moral","practice_moral","","","","","","","","",""
"null","<span style='color:red; font-size: 70px;'>错误! </span>","null","html-keyboard-response","31","312393","0.0-8.0-0.0-1.0-0.0-1.10","7","7","7","7","1","5","2","5","5","5","5","-3","-2","-1","-3","-3","-1","-3","0","5","5","5","5","5","3","1","1","3","1","1","5","9","5","2","1","1","1","3","7","3","1","4","7","2","7","7","5","1","1","1","1","5","1","5","1","7","4","2","7","1","1","1","1","1","7","1","5","7","7","1","7","7","1","1","1","7","7","1","4","787084202704248834","秦","378","Male","[""坏他"",""好我"",""坏我"",""好他""]","[""弱他"",""强我"",""弱我"",""强他""]","","","","","","","","","","","","","","","","","","","","","","","","","","","","","","feedback_test","","","","","","","","",""
"719","","f","psychophysics","32","314115","0.0-8.0-0.0-1.0-0.0-0.11","7","7","7","7","1","5","2","5","5","5","5","-3","-2","-1","-3","-3","-1","-3","0","5","5","5","5","5","3","1","1","3","1","1","5","9","5","2","1","1","1","3","7","3","1","4","7","2","7","7","5","1","1","1","1","5","1","5","1","7","4","2","7","1","1","1","1","1","7","1","5","7","7","1","7","7","1","1","1","7","7","1","4","787084202704248834","秦","378","Male","[""坏他"",""好我"",""坏我"",""好他""]","[""弱他"",""强我"",""弱我"",""强他""]","","","","","","","","match","","","","","","","","","","key","f","16.648039215686047","768","428","f","true","match","img/hexagon.png","坏我","坏我","prac_ALT2_moral","practice_moral","","","","","","","","",""
"null","<span style='color:GreenYellow; font-size: 70px;'>正确! </span>","null","html-keyboard-response","33","314616","0.0-8.0-0.0-1.0-0.0-1.11","7","7","7","7","1","5","2","5","5","5","5","-3","-2","-1","-3","-3","-1","-3","0","5","5","5","5","5","3","1","1","3","1","1","5","9","5","2","1","1","1","3","7","3","1","4","7","2","7","7","5","1","1","1","1","5","1","5","1","7","4","2","7","1","1","1","1","1","7","1","5","7","7","1","7","7","1","1","1","7","7","1","4","787084202704248834","秦","378","Male","[""坏他"",""好我"",""坏我"",""好他""]","[""弱他"",""强我"",""弱我"",""强他""]","","","","","","","","","","","","","","","","","","","","","","","","","","","","","","feedback_test","","","","","","","","",""
"717","","f","psychophysics","34","316334","0.0-8.0-0.0-1.0-0.0-0.12","7","7","7","7","1","5","2","5","5","5","5","-3","-2","-1","-3","-3","-1","-3","0","5","5","5","5","5","3","1","1","3","1","1","5","9","5","2","1","1","1","3","7","3","1","4","7","2","7","7","5","1","1","1","1","5","1","5","1","7","4","2","7","1","1","1","1","1","7","1","5","7","7","1","7","7","1","1","1","7","7","1","4","787084202704248834","秦","378","Male","[""坏他"",""好我"",""坏我"",""好他""]","[""弱他"",""强我"",""弱我"",""强他""]","","","","","","","","match","","","","","","","","","","key","f","16.655882352940836","768","428","f","true","match","img/square.png","好我","好我","prac_ALT2_moral","practice_moral","","","","","","","","",""
"null","<span style='color:GreenYellow; font-size: 70px;'>正确! </span>","null","html-keyboard-response","35","316836","0.0-8.0-0.0-1.0-0.0-1.12","7","7","7","7","1","5","2","5","5","5","5","-3","-2","-1","-3","-3","-1","-3","0","5","5","5","5","5","3","1","1","3","1","1","5","9","5","2","1","1","1","3","7","3","1","4","7","2","7","7","5","1","1","1","1","5","1","5","1","7","4","2","7","1","1","1","1","1","7","1","5","7","7","1","7","7","1","1","1","7","7","1","4","787084202704248834","秦","378","Male","[""坏他"",""好我"",""坏我"",""好他""]","[""弱他"",""强我"",""弱我"",""强他""]","","","","","","","","","","","","","","","","","","","","","","","","","","","","","","feedback_test","","","","","","","","",""
"678","","f","psychophysics","36","318515","0.0-8.0-0.0-1.0-0.0-0.13","7","7","7","7","1","5","2","5","5","5","5","-3","-2","-1","-3","-3","-1","-3","0","5","5","5","5","5","3","1","1","3","1","1","5","9","5","2","1","1","1","3","7","3","1","4","7","2","7","7","5","1","1","1","1","5","1","5","1","7","4","2","7","1","1","1","1","1","7","1","5","7","7","1","7","7","1","1","1","7","7","1","4","787084202704248834","秦","378","Male","[""坏他"",""好我"",""坏我"",""好他""]","[""弱他"",""强我"",""弱我"",""强他""]","","","","","","","","match","","","","","","","","","","key","f","16.66","768","428","j","false","nonmatch","img/hexagon.png","坏他","坏我","prac_ALT2_moral","practice_moral","","","","","","","","",""
"null","<span style='color:red; font-size: 70px;'>错误! </span>","null","html-keyboard-response","37","319016","0.0-8.0-0.0-1.0-0.0-1.13","7","7","7","7","1","5","2","5","5","5","5","-3","-2","-1","-3","-3","-1","-3","0","5","5","5","5","5","3","1","1","3","1","1","5","9","5","2","1","1","1","3","7","3","1","4","7","2","7","7","5","1","1","1","1","5","1","5","1","7","4","2","7","1","1","1","1","1","7","1","5","7","7","1","7","7","1","1","1","7","7","1","4","787084202704248834","秦","378","Male","[""坏他"",""好我"",""坏我"",""好他""]","[""弱他"",""强我"",""弱我"",""强他""]","","","","","","","","","","","","","","","","","","","","","","","","","","","","","","feedback_test","","","","","","","","",""
"987","","j","psychophysics","38","321004","0.0-8.0-0.0-1.0-0.0-0.14","7","7","7","7","1","5","2","5","5","5","5","-3","-2","-1","-3","-3","-1","-3","0","5","5","5","5","5","3","1","1","3","1","1","5","9","5","2","1","1","1","3","7","3","1","4","7","2","7","7","5","1","1","1","1","5","1","5","1","7","4","2","7","1","1","1","1","1","7","1","5","7","7","1","7","7","1","1","1","7","7","1","4","787084202704248834","秦","378","Male","[""坏他"",""好我"",""坏我"",""好他""]","[""弱他"",""强我"",""弱我"",""强他""]","","","","","","","","nonmatch","","","","","","","","","","key","j","16.65210084033594","768","428","f","false","match","img/trapezoid.png","坏他","坏他","prac_ALT2_moral","practice_moral","","","","","","","","",""
"null","<span style='color:red; font-size: 70px;'>错误! </span>","null","html-keyboard-response","39","321507","0.0-8.0-0.0-1.0-0.0-1.14","7","7","7","7","1","5","2","5","5","5","5","-3","-2","-1","-3","-3","-1","-3","0","5","5","5","5","5","3","1","1","3","1","1","5","9","5","2","1","1","1","3","7","3","1","4","7","2","7","7","5","1","1","1","1","5","1","5","1","7","4","2","7","1","1","1","1","1","7","1","5","7","7","1","7","7","1","1","1","7","7","1","4","787084202704248834","秦","378","Male","[""坏他"",""好我"",""坏我"",""好他""]","[""弱他"",""强我"",""弱我"",""强他""]","","","","","","","","","","","","","","","","","","","","","","","","","","","","","","feedback_test","","","","","","","","",""
"1194","","f","psychophysics","40","323702","0.0-8.0-0.0-1.0-0.0-0.15","7","7","7","7","1","5","2","5","5","5","5","-3","-2","-1","-3","-3","-1","-3","0","5","5","5","5","5","3","1","1","3","1","1","5","9","5","2","1","1","1","3","7","3","1","4","7","2","7","7","5","1","1","1","1","5","1","5","1","7","4","2","7","1","1","1","1","1","7","1","5","7","7","1","7","7","1","1","1","7","7","1","4","787084202704248834","秦","378","Male","[""坏他"",""好我"",""坏我"",""好他""]","[""弱他"",""强我"",""弱我"",""强他""]","","","","","","","","match","","","","","","","","","","key","f","16.649618320610955","768","428","j","false","nonmatch","img/circle.png","好我","好他","prac_ALT2_moral","practice_moral","","","","","","","","",""
"null","<span style='color:red; font-size: 70px;'>错误! </span>","null","html-keyboard-response","41","324206","0.0-8.0-0.0-1.0-0.0-1.15","7","7","7","7","1","5","2","5","5","5","5","-3","-2","-1","-3","-3","-1","-3","0","5","5","5","5","5","3","1","1","3","1","1","5","9","5","2","1","1","1","3","7","3","1","4","7","2","7","7","5","1","1","1","1","5","1","5","1","7","4","2","7","1","1","1","1","1","7","1","5","7","7","1","7","7","1","1","1","7","7","1","4","787084202704248834","秦","378","Male","[""坏他"",""好我"",""坏我"",""好他""]","[""弱他"",""强我"",""弱我"",""强他""]","","","","","","","","","","","","","","","","","","","","","","","","","","","","","","feedback_test","","","","","","","","",""
"777","","j","psychophysics","42","325985","0.0-8.0-0.0-1.0-0.0-0.16","7","7","7","7","1","5","2","5","5","5","5","-3","-2","-1","-3","-3","-1","-3","0","5","5","5","5","5","3","1","1","3","1","1","5","9","5","2","1","1","1","3","7","3","1","4","7","2","7","7","5","1","1","1","1","5","1","5","1","7","4","2","7","1","1","1","1","1","7","1","5","7","7","1","7","7","1","1","1","7","7","1","4","787084202704248834","秦","378","Male","[""坏他"",""好我"",""坏我"",""好他""]","[""弱他"",""强我"",""弱我"",""强他""]","","","","","","","","nonmatch","","","","","","","","","","key","j","16.657547169810883","768","428","j","true","nonmatch","img/circle.png","坏他","好他","prac_ALT2_moral","practice_moral","","","","","","","","",""
"null","<span style='color:GreenYellow; font-size: 70px;'>正确! </span>","null","html-keyboard-response","43","326487","0.0-8.0-0.0-1.0-0.0-1.16","7","7","7","7","1","5","2","5","5","5","5","-3","-2","-1","-3","-3","-1","-3","0","5","5","5","5","5","3","1","1","3","1","1","5","9","5","2","1","1","1","3","7","3","1","4","7","2","7","7","5","1","1","1","1","5","1","5","1","7","4","2","7","1","1","1","1","1","7","1","5","7","7","1","7","7","1","1","1","7","7","1","4","787084202704248834","秦","378","Male","[""坏他"",""好我"",""坏我"",""好他""]","[""弱他"",""强我"",""弱我"",""强他""]","","","","","","","","","","","","","","","","","","","","","","","","","","","","","","feedback_test","","","","","","","","",""
"1013","","f","psychophysics","44","328502","0.0-8.0-0.0-1.0-0.0-0.17","7","7","7","7","1","5","2","5","5","5","5","-3","-2","-1","-3","-3","-1","-3","0","5","5","5","5","5","3","1","1","3","1","1","5","9","5","2","1","1","1","3","7","3","1","4","7","2","7","7","5","1","1","1","1","5","1","5","1","7","4","2","7","1","1","1","1","1","7","1","5","7","7","1","7","7","1","1","1","7","7","1","4","787084202704248834","秦","378","Male","[""坏他"",""好我"",""坏我"",""好他""]","[""弱他"",""强我"",""弱我"",""强他""]","","","","","","","","match","","","","","","","","","","key","f","16.645000000000195","768","428","f","true","match","img/trapezoid.png","坏他","坏他","prac_ALT2_moral","practice_moral","","","","","","","","",""
"null","<span style='color:GreenYellow; font-size: 70px;'>正确! </span>","null","html-keyboard-response","45","329003","0.0-8.0-0.0-1.0-0.0-1.17","7","7","7","7","1","5","2","5","5","5","5","-3","-2","-1","-3","-3","-1","-3","0","5","5","5","5","5","3","1","1","3","1","1","5","9","5","2","1","1","1","3","7","3","1","4","7","2","7","7","5","1","1","1","1","5","1","5","1","7","4","2","7","1","1","1","1","1","7","1","5","7","7","1","7","7","1","1","1","7","7","1","4","787084202704248834","秦","378","Male","[""坏他"",""好我"",""坏我"",""好他""]","[""弱他"",""强我"",""弱我"",""强他""]","","","","","","","","","","","","","","","","","","","","","","","","","","","","","","feedback_test","","","","","","","","",""
"1027","","f","psychophysics","46","331032","0.0-8.0-0.0-1.0-0.0-0.18","7","7","7","7","1","5","2","5","5","5","5","-3","-2","-1","-3","-3","-1","-3","0","5","5","5","5","5","3","1","1","3","1","1","5","9","5","2","1","1","1","3","7","3","1","4","7","2","7","7","5","1","1","1","1","5","1","5","1","7","4","2","7","1","1","1","1","1","7","1","5","7","7","1","7","7","1","1","1","7","7","1","4","787084202704248834","秦","378","Male","[""坏他"",""好我"",""坏我"",""好他""]","[""弱他"",""强我"",""弱我"",""强他""]","","","","","","","","match","","","","","","","","","","key","f","16.65206611570219","768","428","f","true","match","img/hexagon.png","坏我","坏我","prac_ALT2_moral","practice_moral","","","","","","","","",""
"null","<span style='color:GreenYellow; font-size: 70px;'>正确! </span>","null","html-keyboard-response","47","331533","0.0-8.0-0.0-1.0-0.0-1.18","7","7","7","7","1","5","2","5","5","5","5","-3","-2","-1","-3","-3","-1","-3","0","5","5","5","5","5","3","1","1","3","1","1","5","9","5","2","1","1","1","3","7","3","1","4","7","2","7","7","5","1","1","1","1","5","1","5","1","7","4","2","7","1","1","1","1","1","7","1","5","7","7","1","7","7","1","1","1","7","7","1","4","787084202704248834","秦","378","Male","[""坏他"",""好我"",""坏我"",""好他""]","[""弱他"",""强我"",""弱我"",""强他""]","","","","","","","","","","","","","","","","","","","","","","","","","","","","","","feedback_test","","","","","","","","",""
"897","","f","psychophysics","48","333433","0.0-8.0-0.0-1.0-0.0-0.19","7","7","7","7","1","5","2","5","5","5","5","-3","-2","-1","-3","-3","-1","-3","0","5","5","5","5","5","3","1","1","3","1","1","5","9","5","2","1","1","1","3","7","3","1","4","7","2","7","7","5","1","1","1","1","5","1","5","1","7","4","2","7","1","1","1","1","1","7","1","5","7","7","1","7","7","1","1","1","7","7","1","4","787084202704248834","秦","378","Male","[""坏他"",""好我"",""坏我"",""好他""]","[""弱他"",""强我"",""弱我"",""强他""]","","","","","","","","match","","","","","","","","","","key","f","16.652212389380118","768","428","f","true","match","img/hexagon.png","坏我","坏我","prac_ALT2_moral","practice_moral","","","","","","","","",""
"null","<span style='color:GreenYellow; font-size: 70px;'>正确! </span>","null","html-keyboard-response","49","333934","0.0-8.0-0.0-1.0-0.0-1.19","7","7","7","7","1","5","2","5","5","5","5","-3","-2","-1","-3","-3","-1","-3","0","5","5","5","5","5","3","1","1","3","1","1","5","9","5","2","1","1","1","3","7","3","1","4","7","2","7","7","5","1","1","1","1","5","1","5","1","7","4","2","7","1","1","1","1","1","7","1","5","7","7","1","7","7","1","1","1","7","7","1","4","787084202704248834","秦","378","Male","[""坏他"",""好我"",""坏我"",""好他""]","[""弱他"",""强我"",""弱我"",""强他""]","","","","","","","","","","","","","","","","","","","","","","","","","","","","","","feedback_test","","","","","","","","",""
"null","","null","psychophysics","50","336140","0.0-8.0-0.0-1.0-0.0-0.20","7","7","7","7","1","5","2","5","5","5","5","-3","-2","-1","-3","-3","-1","-3","0","5","5","5","5","5","3","1","1","3","1","1","5","9","5","2","1","1","1","3","7","3","1","4","7","2","7","7","5","1","1","1","1","5","1","5","1","7","4","2","7","1","1","1","1","1","7","1","5","7","7","1","7","7","1","1","1","7","7","1","4","787084202704248834","秦","378","Male","[""坏他"",""好我"",""坏我"",""好他""]","[""弱他"",""强我"",""弱我"",""强他""]","","","","","","","","null","","","","","","","","","","key","null","16.65454545454563","768","428","f","false","match","img/circle.png","好他","好他","prac_ALT2_moral","practice_moral","","","","","","","","",""
"null","<span class='add_' style='color:yellow; font-size: 70px;'> 太慢! </span>","null","html-keyboard-response","51","336642","0.0-8.0-0.0-1.0-0.0-1.20","7","7","7","7","1","5","2","5","5","5","5","-3","-2","-1","-3","-3","-1","-3","0","5","5","5","5","5","3","1","1","3","1","1","5","9","5","2","1","1","1","3","7","3","1","4","7","2","7","7","5","1","1","1","1","5","1","5","1","7","4","2","7","1","1","1","1","1","7","1","5","7","7","1","7","7","1","1","1","7","7","1","4","787084202704248834","秦","378","Male","[""坏他"",""好我"",""坏我"",""好他""]","[""弱他"",""强我"",""弱我"",""强他""]","","","","","","","","","","","","","","","","","","","","","","","","","","","","","","feedback_test","","","","","","","","",""
"1110","","j","psychophysics","52","338754","0.0-8.0-0.0-1.0-0.0-0.21","7","7","7","7","1","5","2","5","5","5","5","-3","-2","-1","-3","-3","-1","-3","0","5","5","5","5","5","3","1","1","3","1","1","5","9","5","2","1","1","1","3","7","3","1","4","7","2","7","7","5","1","1","1","1","5","1","5","1","7","4","2","7","1","1","1","1","1","7","1","5","7","7","1","7","7","1","1","1","7","7","1","4","787084202704248834","秦","378","Male","[""坏他"",""好我"",""坏我"",""好他""]","[""弱他"",""强我"",""弱我"",""强他""]","","","","","","","","nonmatch","","","","","","","","","","key","j","16.654761904761905","768","428","j","true","nonmatch","img/trapezoid.png","好我","坏他","prac_ALT2_moral","practice_moral","","","","","","","","",""
"null","<span style='color:GreenYellow; font-size: 70px;'>正确! </span>","null","html-keyboard-response","53","339255","0.0-8.0-0.0-1.0-0.0-1.21","7","7","7","7","1","5","2","5","5","5","5","-3","-2","-1","-3","-3","-1","-3","0","5","5","5","5","5","3","1","1","3","1","1","5","9","5","2","1","1","1","3","7","3","1","4","7","2","7","7","5","1","1","1","1","5","1","5","1","7","4","2","7","1","1","1","1","1","7","1","5","7","7","1","7","7","1","1","1","7","7","1","4","787084202704248834","秦","378","Male","[""坏他"",""好我"",""坏我"",""好他""]","[""弱他"",""强我"",""弱我"",""强他""]","","","","","","","","","","","","","","","","","","","","","","","","","","","","","","feedback_test","","","","","","","","",""
"670","","f","psychophysics","54","340927","0.0-8.0-0.0-1.0-0.0-0.22","7","7","7","7","1","5","2","5","5","5","5","-3","-2","-1","-3","-3","-1","-3","0","5","5","5","5","5","3","1","1","3","1","1","5","9","5","2","1","1","1","3","7","3","1","4","7","2","7","7","5","1","1","1","1","5","1","5","1","7","4","2","7","1","1","1","1","1","7","1","5","7","7","1","7","7","1","1","1","7","7","1","4","787084202704248834","秦","378","Male","[""坏他"",""好我"",""坏我"",""好他""]","[""弱他"",""强我"",""弱我"",""强他""]","","","","","","","","match","","","","","","","","","","key","f","16.654545454545335","768","428","f","true","match","img/square.png","好我","好我","prac_ALT2_moral","practice_moral","","","","","","","","",""
"null","<span style='color:GreenYellow; font-size: 70px;'>正确! </span>","null","html-keyboard-response","55","341429","0.0-8.0-0.0-1.0-0.0-1.22","7","7","7","7","1","5","2","5","5","5","5","-3","-2","-1","-3","-3","-1","-3","0","5","5","5","5","5","3","1","1","3","1","1","5","9","5","2","1","1","1","3","7","3","1","4","7","2","7","7","5","1","1","1","1","5","1","5","1","7","4","2","7","1","1","1","1","1","7","1","5","7","7","1","7","7","1","1","1","7","7","1","4","787084202704248834","秦","378","Male","[""坏他"",""好我"",""坏我"",""好他""]","[""弱他"",""强我"",""弱我"",""强他""]","","","","","","","","","","","","","","","","","","","","","","","","","","","","","","feedback_test","","","","","","","","",""
"1096","","j","psychophysics","56","343530","0.0-8.0-0.0-1.0-0.0-0.23","7","7","7","7","1","5","2","5","5","5","5","-3","-2","-1","-3","-3","-1","-3","0","5","5","5","5","5","3","1","1","3","1","1","5","9","5","2","1","1","1","3","7","3","1","4","7","2","7","7","5","1","1","1","1","5","1","5","1","7","4","2","7","1","1","1","1","1","7","1","5","7","7","1","7","7","1","1","1","7","7","1","4","787084202704248834","秦","378","Male","[""坏他"",""好我"",""坏我"",""好他""]","[""弱他"",""强我"",""弱我"",""强他""]","","","","","","","","nonmatch","","","","","","","","","","key","j","16.651200000000188","768","428","f","false","match","img/square.png","好我","好我","prac_ALT2_moral","practice_moral","","","","","","","","",""
"null","<span style='color:red; font-size: 70px;'>错误! </span>","null","html-keyboard-response","57","344040","0.0-8.0-0.0-1.0-0.0-1.23","7","7","7","7","1","5","2","5","5","5","5","-3","-2","-1","-3","-3","-1","-3","0","5","5","5","5","5","3","1","1","3","1","1","5","9","5","2","1","1","1","3","7","3","1","4","7","2","7","7","5","1","1","1","1","5","1","5","1","7","4","2","7","1","1","1","1","1","7","1","5","7","7","1","7","7","1","1","1","7","7","1","4","787084202704248834","秦","378","Male","[""坏他"",""好我"",""坏我"",""好他""]","[""弱他"",""强我"",""弱我"",""强他""]","","","","","","","","","","","","","","","","","","","","","","","","","","","","","","feedback_test","","","","","","","","",""
"1039","","f","psychophysics","58","346083","0.0-8.0-0.0-1.0-0.0-0.24","7","7","7","7","1","5","2","5","5","5","5","-3","-2","-1","-3","-3","-1","-3","0","5","5","5","5","5","3","1","1","3","1","1","5","9","5","2","1","1","1","3","7","3","1","4","7","2","7","7","5","1","1","1","1","5","1","5","1","7","4","2","7","1","1","1","1","1","7","1","5","7","7","1","7","7","1","1","1","7","7","1","4","787084202704248834","秦","378","Male","[""坏他"",""好我"",""坏我"",""好他""]","[""弱他"",""强我"",""弱我"",""强他""]","","","","","","","","match","","","","","","","","","","key","f","16.651639344262296","768","428","j","false","nonmatch","img/square.png","好他","好我","prac_ALT2_moral","practice_moral","","","","","","","","",""
"null","<span style='color:red; font-size: 70px;'>错误! </span>","null","html-keyboard-response","59","346584","0.0-8.0-0.0-1.0-0.0-1.24","7","7","7","7","1","5","2","5","5","5","5","-3","-2","-1","-3","-3","-1","-3","0","5","5","5","5","5","3","1","1","3","1","1","5","9","5","2","1","1","1","3","7","3","1","4","7","2","7","7","5","1","1","1","1","5","1","5","1","7","4","2","7","1","1","1","1","1","7","1","5","7","7","1","7","7","1","1","1","7","7","1","4","787084202704248834","秦","378","Male","[""坏他"",""好我"",""坏我"",""好他""]","[""弱他"",""强我"",""弱我"",""强他""]","","","","","","","","","","","","","","","","","","","","","","","","","","","","","","feedback_test","","","","","","","","",""
"670","","f","psychophysics","60","348257","0.0-8.0-0.0-1.0-0.0-0.25","7","7","7","7","1","5","2","5","5","5","5","-3","-2","-1","-3","-3","-1","-3","0","5","5","5","5","5","3","1","1","3","1","1","5","9","5","2","1","1","1","3","7","3","1","4","7","2","7","7","5","1","1","1","1","5","1","5","1","7","4","2","7","1","1","1","1","1","7","1","5","7","7","1","7","7","1","1","1","7","7","1","4","787084202704248834","秦","378","Male","[""坏他"",""好我"",""坏我"",""好他""]","[""弱他"",""强我"",""弱我"",""强他""]","","","","","","","","match","","","","","","","","","","key","f","16.649494949494834","768","428","f","true","match","img/trapezoid.png","坏他","坏他","prac_ALT2_moral","practice_moral","","","","","","","","",""
"null","<span style='color:GreenYellow; font-size: 70px;'>正确! </span>","null","html-keyboard-response","61","348757","0.0-8.0-0.0-1.0-0.0-1.25","7","7","7","7","1","5","2","5","5","5","5","-3","-2","-1","-3","-3","-1","-3","0","5","5","5","5","5","3","1","1","3","1","1","5","9","5","2","1","1","1","3","7","3","1","4","7","2","7","7","5","1","1","1","1","5","1","5","1","7","4","2","7","1","1","1","1","1","7","1","5","7","7","1","7","7","1","1","1","7","7","1","4","787084202704248834","秦","378","Male","[""坏他"",""好我"",""坏我"",""好他""]","[""弱他"",""强我"",""弱我"",""强他""]","","","","","","","","","","","","","","","","","","","","","","","","","","","","","","feedback_test","","","","","","","","",""
"887","","f","psychophysics","62","350646","0.0-8.0-0.0-1.0-0.0-0.26","7","7","7","7","1","5","2","5","5","5","5","-3","-2","-1","-3","-3","-1","-3","0","5","5","5","5","5","3","1","1","3","1","1","5","9","5","2","1","1","1","3","7","3","1","4","7","2","7","7","5","1","1","1","1","5","1","5","1","7","4","2","7","1","1","1","1","1","7","1","5","7","7","1","7","7","1","1","1","7","7","1","4","787084202704248834","秦","378","Male","[""坏他"",""好我"",""坏我"",""好他""]","[""弱他"",""强我"",""弱我"",""强他""]","","","","","","","","match","","","","","","","","","","key","f","16.653097345133155","768","428","j","false","nonmatch","img/hexagon.png","好我","坏我","prac_ALT2_moral","practice_moral","","","","","","","","",""
"null","<span style='color:red; font-size: 70px;'>错误! </span>","null","html-keyboard-response","63","351150","0.0-8.0-0.0-1.0-0.0-1.26","7","7","7","7","1","5","2","5","5","5","5","-3","-2","-1","-3","-3","-1","-3","0","5","5","5","5","5","3","1","1","3","1","1","5","9","5","2","1","1","1","3","7","3","1","4","7","2","7","7","5","1","1","1","1","5","1","5","1","7","4","2","7","1","1","1","1","1","7","1","5","7","7","1","7","7","1","1","1","7","7","1","4","787084202704248834","秦","378","Male","[""坏他"",""好我"",""坏我"",""好他""]","[""弱他"",""强我"",""弱我"",""强他""]","","","","","","","","","","","","","","","","","","","","","","","","","","","","","","feedback_test","","","","","","","","",""
"null","","null","psychophysics","64","353354","0.0-8.0-0.0-1.0-0.0-0.27","7","7","7","7","1","5","2","5","5","5","5","-3","-2","-1","-3","-3","-1","-3","0","5","5","5","5","5","3","1","1","3","1","1","5","9","5","2","1","1","1","3","7","3","1","4","7","2","7","7","5","1","1","1","1","5","1","5","1","7","4","2","7","1","1","1","1","1","7","1","5","7","7","1","7","7","1","1","1","7","7","1","4","787084202704248834","秦","378","Male","[""坏他"",""好我"",""坏我"",""好他""]","[""弱他"",""强我"",""弱我"",""强他""]","","","","","","","","null","","","","","","","","","","key","null","16.651908396946297","768","428","j","false","nonmatch","img/hexagon.png","好他","坏我","prac_ALT2_moral","practice_moral","","","","","","","","",""
"null","<span class='add_' style='color:yellow; font-size: 70px;'> 太慢! </span>","null","html-keyboard-response","65","353855","0.0-8.0-0.0-1.0-0.0-1.27","7","7","7","7","1","5","2","5","5","5","5","-3","-2","-1","-3","-3","-1","-3","0","5","5","5","5","5","3","1","1","3","1","1","5","9","5","2","1","1","1","3","7","3","1","4","7","2","7","7","5","1","1","1","1","5","1","5","1","7","4","2","7","1","1","1","1","1","7","1","5","7","7","1","7","7","1","1","1","7","7","1","4","787084202704248834","秦","378","Male","[""坏他"",""好我"",""坏我"",""好他""]","[""弱他"",""强我"",""弱我"",""强他""]","","","","","","","","","","","","","","","","","","","","","","","","","","","","","","feedback_test","","","","","","","","",""
"942","","f","psychophysics","66","355799","0.0-8.0-0.0-1.0-0.0-0.28","7","7","7","7","1","5","2","5","5","5","5","-3","-2","-1","-3","-3","-1","-3","0","5","5","5","5","5","3","1","1","3","1","1","5","9","5","2","1","1","1","3","7","3","1","4","7","2","7","7","5","1","1","1","1","5","1","5","1","7","4","2","7","1","1","1","1","1","7","1","5","7","7","1","7","7","1","1","1","7","7","1","4","787084202704248834","秦","378","Male","[""坏他"",""好我"",""坏我"",""好他""]","[""弱他"",""强我"",""弱我"",""强他""]","","","","","","","","match","","","","","","","","","","key","f","16.656521739130437","768","428","j","false","nonmatch","img/trapezoid.png","好我","坏他","prac_ALT2_moral","practice_moral","","","","","","","","",""
"null","<span style='color:red; font-size: 70px;'>错误! </span>","null","html-keyboard-response","67","356301","0.0-8.0-0.0-1.0-0.0-1.28","7","7","7","7","1","5","2","5","5","5","5","-3","-2","-1","-3","-3","-1","-3","0","5","5","5","5","5","3","1","1","3","1","1","5","9","5","2","1","1","1","3","7","3","1","4","7","2","7","7","5","1","1","1","1","5","1","5","1","7","4","2","7","1","1","1","1","1","7","1","5","7","7","1","7","7","1","1","1","7","7","1","4","787084202704248834","秦","378","Male","[""坏他"",""好我"",""坏我"",""好他""]","[""弱他"",""强我"",""弱我"",""强他""]","","","","","","","","","","","","","","","","","","","","","","","","","","","","","","feedback_test","","","","","","","","",""
"null","","null","psychophysics","68","358504","0.0-8.0-0.0-1.0-0.0-0.29","7","7","7","7","1","5","2","5","5","5","5","-3","-2","-1","-3","-3","-1","-3","0","5","5","5","5","5","3","1","1","3","1","1","5","9","5","2","1","1","1","3","7","3","1","4","7","2","7","7","5","1","1","1","1","5","1","5","1","7","4","2","7","1","1","1","1","1","7","1","5","7","7","1","7","7","1","1","1","7","7","1","4","787084202704248834","秦","378","Male","[""坏他"",""好我"",""坏我"",""好他""]","[""弱他"",""强我"",""弱我"",""强他""]","","","","","","","","null","","","","","","","","","","key","null","16.641221374045802","768","428","f","false","match","img/hexagon.png","坏我","坏我","prac_ALT2_moral","practice_moral","","","","","","","","",""
"null","<span class='add_' style='color:yellow; font-size: 70px;'> 太慢! </span>","null","html-keyboard-response","69","359007","0.0-8.0-0.0-1.0-0.0-1.29","7","7","7","7","1","5","2","5","5","5","5","-3","-2","-1","-3","-3","-1","-3","0","5","5","5","5","5","3","1","1","3","1","1","5","9","5","2","1","1","1","3","7","3","1","4","7","2","7","7","5","1","1","1","1","5","1","5","1","7","4","2","7","1","1","1","1","1","7","1","5","7","7","1","7","7","1","1","1","7","7","1","4","787084202704248834","秦","378","Male","[""坏他"",""好我"",""坏我"",""好他""]","[""弱他"",""强我"",""弱我"",""强他""]","","","","","","","","","","","","","","","","","","","","","","","","","","","","","","feedback_test","","","","","","","","",""
"961","","f","psychophysics","70","360969","0.0-8.0-0.0-1.0-0.0-0.30","7","7","7","7","1","5","2","5","5","5","5","-3","-2","-1","-3","-3","-1","-3","0","5","5","5","5","5","3","1","1","3","1","1","5","9","5","2","1","1","1","3","7","3","1","4","7","2","7","7","5","1","1","1","1","5","1","5","1","7","4","2","7","1","1","1","1","1","7","1","5","7","7","1","7","7","1","1","1","7","7","1","4","787084202704248834","秦","378","Male","[""坏他"",""好我"",""坏我"",""好他""]","[""弱他"",""强我"",""弱我"",""强他""]","","","","","","","","match","","","","","","","","","","key","f","16.64957264957265","768","428","f","true","match","img/hexagon.png","坏我","坏我","prac_ALT2_moral","practice_moral","","","","","","","","",""
"null","<span style='color:GreenYellow; font-size: 70px;'>正确! </span>","null","html-keyboard-response","71","361485","0.0-8.0-0.0-1.0-0.0-1.30","7","7","7","7","1","5","2","5","5","5","5","-3","-2","-1","-3","-3","-1","-3","0","5","5","5","5","5","3","1","1","3","1","1","5","9","5","2","1","1","1","3","7","3","1","4","7","2","7","7","5","1","1","1","1","5","1","5","1","7","4","2","7","1","1","1","1","1","7","1","5","7","7","1","7","7","1","1","1","7","7","1","4","787084202704248834","秦","378","Male","[""坏他"",""好我"",""坏我"",""好他""]","[""弱他"",""强我"",""弱我"",""强他""]","","","","","","","","","","","","","","","","","","","","","","","","","","","","","","feedback_test","","","","","","","","",""
"1177","","j","psychophysics","72","363664","0.0-8.0-0.0-1.0-0.0-0.31","7","7","7","7","1","5","2","5","5","5","5","-3","-2","-1","-3","-3","-1","-3","0","5","5","5","5","5","3","1","1","3","1","1","5","9","5","2","1","1","1","3","7","3","1","4","7","2","7","7","5","1","1","1","1","5","1","5","1","7","4","2","7","1","1","1","1","1","7","1","5","7","7","1","7","7","1","1","1","7","7","1","4","787084202704248834","秦","378","Male","[""坏他"",""好我"",""坏我"",""好他""]","[""弱他"",""强我"",""弱我"",""强他""]","","","","","","","","nonmatch","","","","","","","","","","key","j","16.646153846153847","768","428","f","false","match","img/trapezoid.png","坏他","坏他","prac_ALT2_moral","practice_moral","","","","","","","","",""
"null","<span style='color:red; font-size: 70px;'>错误! </span>","null","html-keyboard-response","73","364165","0.0-8.0-0.0-1.0-0.0-1.31","7","7","7","7","1","5","2","5","5","5","5","-3","-2","-1","-3","-3","-1","-3","0","5","5","5","5","5","3","1","1","3","1","1","5","9","5","2","1","1","1","3","7","3","1","4","7","2","7","7","5","1","1","1","1","5","1","5","1","7","4","2","7","1","1","1","1","1","7","1","5","7","7","1","7","7","1","1","1","7","7","1","4","787084202704248834","秦","378","Male","[""坏他"",""好我"",""坏我"",""好他""]","[""弱他"",""强我"",""弱我"",""强他""]","","","","","","","","","","","","","","","","","","","","","","","","","","","","","","feedback_test","","","","","","","","",""
"971","","f","psychophysics","74","366138","0.0-8.0-0.0-1.0-0.0-0.32","7","7","7","7","1","5","2","5","5","5","5","-3","-2","-1","-3","-3","-1","-3","0","5","5","5","5","5","3","1","1","3","1","1","5","9","5","2","1","1","1","3","7","3","1","4","7","2","7","7","5","1","1","1","1","5","1","5","1","7","4","2","7","1","1","1","1","1","7","1","5","7","7","1","7","7","1","1","1","7","7","1","4","787084202704248834","秦","378","Male","[""坏他"",""好我"",""坏我"",""好他""]","[""弱他"",""强我"",""弱我"",""强他""]","","","","","","","","match","","","","","","","","","","key","f","16.647008547008646","768","428","f","true","match","img/square.png","好我","好我","prac_ALT2_moral","practice_moral","","","","","","","","",""
"null","<span style='color:GreenYellow; font-size: 70px;'>正确! </span>","null","html-keyboard-response","75","366653","0.0-8.0-0.0-1.0-0.0-1.32","7","7","7","7","1","5","2","5","5","5","5","-3","-2","-1","-3","-3","-1","-3","0","5","5","5","5","5","3","1","1","3","1","1","5","9","5","2","1","1","1","3","7","3","1","4","7","2","7","7","5","1","1","1","1","5","1","5","1","7","4","2","7","1","1","1","1","1","7","1","5","7","7","1","7","7","1","1","1","7","7","1","4","787084202704248834","秦","378","Male","[""坏他"",""好我"",""坏我"",""好他""]","[""弱他"",""强我"",""弱我"",""强他""]","","","","","","","","","","","","","","","","","","","","","","","","","","","","","","feedback_test","","","","","","","","",""
"null","","null","psychophysics","76","368856","0.0-8.0-0.0-1.0-0.0-0.33","7","7","7","7","1","5","2","5","5","5","5","-3","-2","-1","-3","-3","-1","-3","0","5","5","5","5","5","3","1","1","3","1","1","5","9","5","2","1","1","1","3","7","3","1","4","7","2","7","7","5","1","1","1","1","5","1","5","1","7","4","2","7","1","1","1","1","1","7","1","5","7","7","1","7","7","1","1","1","7","7","1","4","787084202704248834","秦","378","Male","[""坏他"",""好我"",""坏我"",""好他""]","[""弱他"",""强我"",""弱我"",""强他""]","","","","","","","","null","","","","","","","","","","key","null","16.65190839694674","768","428","f","false","match","img/hexagon.png","坏我","坏我","prac_ALT2_moral","practice_moral","","","","","","","","",""
"null","<span class='add_' style='color:yellow; font-size: 70px;'> 太慢! </span>","null","html-keyboard-response","77","369357","0.0-8.0-0.0-1.0-0.0-1.33","7","7","7","7","1","5","2","5","5","5","5","-3","-2","-1","-3","-3","-1","-3","0","5","5","5","5","5","3","1","1","3","1","1","5","9","5","2","1","1","1","3","7","3","1","4","7","2","7","7","5","1","1","1","1","5","1","5","1","7","4","2","7","1","1","1","1","1","7","1","5","7","7","1","7","7","1","1","1","7","7","1","4","787084202704248834","秦","378","Male","[""坏他"",""好我"",""坏我"",""好他""]","[""弱他"",""强我"",""弱我"",""强他""]","","","","","","","","","","","","","","","","","","","","","","","","","","","","","","feedback_test","","","","","","","","",""
"null","","null","psychophysics","78","371560","0.0-8.0-0.0-1.0-0.0-0.34","7","7","7","7","1","5","2","5","5","5","5","-3","-2","-1","-3","-3","-1","-3","0","5","5","5","5","5","3","1","1","3","1","1","5","9","5","2","1","1","1","3","7","3","1","4","7","2","7","7","5","1","1","1","1","5","1","5","1","7","4","2","7","1","1","1","1","1","7","1","5","7","7","1","7","7","1","1","1","7","7","1","4","787084202704248834","秦","378","Male","[""坏他"",""好我"",""坏我"",""好他""]","[""弱他"",""强我"",""弱我"",""强他""]","","","","","","","","null","","","","","","","","","","key","null","16.64732824427472","768","428","f","false","match","img/circle.png","好他","好他","prac_ALT2_moral","practice_moral","","","","","","","","",""
"null","<span class='add_' style='color:yellow; font-size: 70px;'> 太慢! </span>","null","html-keyboard-response","79","372061","0.0-8.0-0.0-1.0-0.0-1.34","7","7","7","7","1","5","2","5","5","5","5","-3","-2","-1","-3","-3","-1","-3","0","5","5","5","5","5","3","1","1","3","1","1","5","9","5","2","1","1","1","3","7","3","1","4","7","2","7","7","5","1","1","1","1","5","1","5","1","7","4","2","7","1","1","1","1","1","7","1","5","7","7","1","7","7","1","1","1","7","7","1","4","787084202704248834","秦","378","Male","[""坏他"",""好我"",""坏我"",""好他""]","[""弱他"",""强我"",""弱我"",""强他""]","","","","","","","","","","","","","","","","","","","","","","","","","","","","","","feedback_test","","","","","","","","",""
"1042","","f","psychophysics","80","374105","0.0-8.0-0.0-1.0-0.0-0.35","7","7","7","7","1","5","2","5","5","5","5","-3","-2","-1","-3","-3","-1","-3","0","5","5","5","5","5","3","1","1","3","1","1","5","9","5","2","1","1","1","3","7","3","1","4","7","2","7","7","5","1","1","1","1","5","1","5","1","7","4","2","7","1","1","1","1","1","7","1","5","7","7","1","7","7","1","1","1","7","7","1","4","787084202704248834","秦","378","Male","[""坏他"",""好我"",""坏我"",""好他""]","[""弱他"",""强我"",""弱我"",""强他""]","","","","","","","","match","","","","","","","","","","key","f","16.651639344262296","768","428","f","true","match","img/square.png","好我","好我","prac_ALT2_moral","practice_moral","","","","","","","","",""
"null","<span style='color:GreenYellow; font-size: 70px;'>正确! </span>","null","html-keyboard-response","81","374609","0.0-8.0-0.0-1.0-0.0-1.35","7","7","7","7","1","5","2","5","5","5","5","-3","-2","-1","-3","-3","-1","-3","0","5","5","5","5","5","3","1","1","3","1","1","5","9","5","2","1","1","1","3","7","3","1","4","7","2","7","7","5","1","1","1","1","5","1","5","1","7","4","2","7","1","1","1","1","1","7","1","5","7","7","1","7","7","1","1","1","7","7","1","4","787084202704248834","秦","378","Male","[""坏他"",""好我"",""坏我"",""好他""]","[""弱他"",""强我"",""弱我"",""强他""]","","","","","","","","","","","","","","","","","","","","","","","","","","","","","","feedback_test","","","","","","","","",""
"1193","","f","psychophysics","82","376803","0.0-8.0-0.0-1.0-0.0-0.36","7","7","7","7","1","5","2","5","5","5","5","-3","-2","-1","-3","-3","-1","-3","0","5","5","5","5","5","3","1","1","3","1","1","5","9","5","2","1","1","1","3","7","3","1","4","7","2","7","7","5","1","1","1","1","5","1","5","1","7","4","2","7","1","1","1","1","1","7","1","5","7","7","1","7","7","1","1","1","7","7","1","4","787084202704248834","秦","378","Male","[""坏他"",""好我"",""坏我"",""好他""]","[""弱他"",""强我"",""弱我"",""强他""]","","","","","","","","match","","","","","","","","","","key","f","16.65343511450364","768","428","j","false","nonmatch","img/trapezoid.png","好他","坏他","prac_ALT2_moral","practice_moral","","","","","","","","",""
"null","<span style='color:red; font-size: 70px;'>错误! </span>","null","html-keyboard-response","83","377305","0.0-8.0-0.0-1.0-0.0-1.36","7","7","7","7","1","5","2","5","5","5","5","-3","-2","-1","-3","-3","-1","-3","0","5","5","5","5","5","3","1","1","3","1","1","5","9","5","2","1","1","1","3","7","3","1","4","7","2","7","7","5","1","1","1","1","5","1","5","1","7","4","2","7","1","1","1","1","1","7","1","5","7","7","1","7","7","1","1","1","7","7","1","4","787084202704248834","秦","378","Male","[""坏他"",""好我"",""坏我"",""好他""]","[""弱他"",""强我"",""弱我"",""强他""]","","","","","","","","","","","","","","","","","","","","","","","","","","","","","","feedback_test","","","","","","","","",""
"965","","f","psychophysics","84","379271","0.0-8.0-0.0-1.0-0.0-0.37","7","7","7","7","1","5","2","5","5","5","5","-3","-2","-1","-3","-3","-1","-3","0","5","5","5","5","5","3","1","1","3","1","1","5","9","5","2","1","1","1","3","7","3","1","4","7","2","7","7","5","1","1","1","1","5","1","5","1","7","4","2","7","1","1","1","1","1","7","1","5","7","7","1","7","7","1","1","1","7","7","1","4","787084202704248834","秦","378","Male","[""坏他"",""好我"",""坏我"",""好他""]","[""弱他"",""强我"",""弱我"",""强他""]","","","","","","","","match","","","","","","","","","","key","f","16.648717948718147","768","428","f","true","match","img/circle.png","好他","好他","prac_ALT2_moral","practice_moral","","","","","","","","",""
"null","<span style='color:GreenYellow; font-size: 70px;'>正确! </span>","null","html-keyboard-response","85","379772","0.0-8.0-0.0-1.0-0.0-1.37","7","7","7","7","1","5","2","5","5","5","5","-3","-2","-1","-3","-3","-1","-3","0","5","5","5","5","5","3","1","1","3","1","1","5","9","5","2","1","1","1","3","7","3","1","4","7","2","7","7","5","1","1","1","1","5","1","5","1","7","4","2","7","1","1","1","1","1","7","1","5","7","7","1","7","7","1","1","1","7","7","1","4","787084202704248834","秦","378","Male","[""坏他"",""好我"",""坏我"",""好他""]","[""弱他"",""强我"",""弱我"",""强他""]","","","","","","","","","","","","","","","","","","","","","","","","","","","","","","feedback_test","","","","","","","","",""
"906","","f","psychophysics","86","381678","0.0-8.0-0.0-1.0-0.0-0.38","7","7","7","7","1","5","2","5","5","5","5","-3","-2","-1","-3","-3","-1","-3","0","5","5","5","5","5","3","1","1","3","1","1","5","9","5","2","1","1","1","3","7","3","1","4","7","2","7","7","5","1","1","1","1","5","1","5","1","7","4","2","7","1","1","1","1","1","7","1","5","7","7","1","7","7","1","1","1","7","7","1","4","787084202704248834","秦","378","Male","[""坏他"",""好我"",""坏我"",""好他""]","[""弱他"",""强我"",""弱我"",""强他""]","","","","","","","","match","","","","","","","","","","key","f","16.64724561403528","768","428","j","false","nonmatch","img/circle.png","坏我","好他","prac_ALT2_moral","practice_moral","","","","","","","","",""
"null","<span style='color:red; font-size: 70px;'>错误! </span>","null","html-keyboard-response","87","382195","0.0-8.0-0.0-1.0-0.0-1.38","7","7","7","7","1","5","2","5","5","5","5","-3","-2","-1","-3","-3","-1","-3","0","5","5","5","5","5","3","1","1","3","1","1","5","9","5","2","1","1","1","3","7","3","1","4","7","2","7","7","5","1","1","1","1","5","1","5","1","7","4","2","7","1","1","1","1","1","7","1","5","7","7","1","7","7","1","1","1","7","7","1","4","787084202704248834","秦","378","Male","[""坏他"",""好我"",""坏我"",""好他""]","[""弱他"",""强我"",""弱我"",""强他""]","","","","","","","","","","","","","","","","","","","","","","","","","","","","","","feedback_test","","","","","","","","",""
"940","","f","psychophysics","88","384136","0.0-8.0-0.0-1.0-0.0-0.39","7","7","7","7","1","5","2","5","5","5","5","-3","-2","-1","-3","-3","-1","-3","0","5","5","5","5","5","3","1","1","3","1","1","5","9","5","2","1","1","1","3","7","3","1","4","7","2","7","7","5","1","1","1","1","5","1","5","1","7","4","2","7","1","1","1","1","1","7","1","5","7","7","1","7","7","1","1","1","7","7","1","4","787084202704248834","秦","378","Male","[""坏他"",""好我"",""坏我"",""好他""]","[""弱他"",""强我"",""弱我"",""强他""]","","","","","","","","match","","","","","","","","","","key","f","16.653043478261175","768","428","j","false","nonmatch","img/hexagon.png","坏他","坏我","prac_ALT2_moral","practice_moral","","","","","","","","",""
"null","<span style='color:red; font-size: 70px;'>错误! </span>","null","html-keyboard-response","89","384637","0.0-8.0-0.0-1.0-0.0-1.39","7","7","7","7","1","5","2","5","5","5","5","-3","-2","-1","-3","-3","-1","-3","0","5","5","5","5","5","3","1","1","3","1","1","5","9","5","2","1","1","1","3","7","3","1","4","7","2","7","7","5","1","1","1","1","5","1","5","1","7","4","2","7","1","1","1","1","1","7","1","5","7","7","1","7","7","1","1","1","7","7","1","4","787084202704248834","秦","378","Male","[""坏他"",""好我"",""坏我"",""好他""]","[""弱他"",""强我"",""弱我"",""强他""]","","","","","","","","","","","","","","","","","","","","","","","","","","","","","","feedback_test","","","","","","","","",""
"782","","f","psychophysics","90","386422","0.0-8.0-0.0-1.0-0.0-0.40","7","7","7","7","1","5","2","5","5","5","5","-3","-2","-1","-3","-3","-1","-3","0","5","5","5","5","5","3","1","1","3","1","1","5","9","5","2","1","1","1","3","7","3","1","4","7","2","7","7","5","1","1","1","1","5","1","5","1","7","4","2","7","1","1","1","1","1","7","1","5","7","7","1","7","7","1","1","1","7","7","1","4","787084202704248834","秦","378","Male","[""坏他"",""好我"",""坏我"",""好他""]","[""弱他"",""强我"",""弱我"",""强他""]","","","","","","","","match","","","","","","","","","","key","f","16.65754716981143","768","428","f","true","match","img/square.png","好我","好我","prac_ALT2_moral","practice_moral","","","","","","","","",""
"null","<span style='color:GreenYellow; font-size: 70px;'>正确! </span>","null","html-keyboard-response","91","386923","0.0-8.0-0.0-1.0-0.0-1.40","7","7","7","7","1","5","2","5","5","5","5","-3","-2","-1","-3","-3","-1","-3","0","5","5","5","5","5","3","1","1","3","1","1","5","9","5","2","1","1","1","3","7","3","1","4","7","2","7","7","5","1","1","1","1","5","1","5","1","7","4","2","7","1","1","1","1","1","7","1","5","7","7","1","7","7","1","1","1","7","7","1","4","787084202704248834","秦","378","Male","[""坏他"",""好我"",""坏我"",""好他""]","[""弱他"",""强我"",""弱我"",""强他""]","","","","","","","","","","","","","","","","","","","","","","","","","","","","","","feedback_test","","","","","","","","",""
"863","","f","psychophysics","92","388787","0.0-8.0-0.0-1.0-0.0-0.41","7","7","7","7","1","5","2","5","5","5","5","-3","-2","-1","-3","-3","-1","-3","0","5","5","5","5","5","3","1","1","3","1","1","5","9","5","2","1","1","1","3","7","3","1","4","7","2","7","7","5","1","1","1","1","5","1","5","1","7","4","2","7","1","1","1","1","1","7","1","5","7","7","1","7","7","1","1","1","7","7","1","4","787084202704248834","秦","378","Male","[""坏他"",""好我"",""坏我"",""好他""]","[""弱他"",""强我"",""弱我"",""强他""]","","","","","","","","match","","","","","","","","","","key","f","16.65181818181829","768","428","f","true","match","img/circle.png","好他","好他","prac_ALT2_moral","practice_moral","","","","","","","","",""
"null","<span style='color:GreenYellow; font-size: 70px;'>正确! </span>","null","html-keyboard-response","93","389288","0.0-8.0-0.0-1.0-0.0-1.41","7","7","7","7","1","5","2","5","5","5","5","-3","-2","-1","-3","-3","-1","-3","0","5","5","5","5","5","3","1","1","3","1","1","5","9","5","2","1","1","1","3","7","3","1","4","7","2","7","7","5","1","1","1","1","5","1","5","1","7","4","2","7","1","1","1","1","1","7","1","5","7","7","1","7","7","1","1","1","7","7","1","4","787084202704248834","秦","378","Male","[""坏他"",""好我"",""坏我"",""好他""]","[""弱他"",""强我"",""弱我"",""强他""]","","","","","","","","","","","","","","","","","","","","","","","","","","","","","","feedback_test","","","","","","","","",""
"825","","f","psychophysics","94","391116","0.0-8.0-0.0-1.0-0.0-0.42","7","7","7","7","1","5","2","5","5","5","5","-3","-2","-1","-3","-3","-1","-3","0","5","5","5","5","5","3","1","1","3","1","1","5","9","5","2","1","1","1","3","7","3","1","4","7","2","7","7","5","1","1","1","1","5","1","5","1","7","4","2","7","1","1","1","1","1","7","1","5","7","7","1","7","7","1","1","1","7","7","1","4","787084202704248834","秦","378","Male","[""坏他"",""好我"",""坏我"",""好他""]","[""弱他"",""强我"",""弱我"",""强他""]","","","","","","","","match","","","","","","","","","","key","f","16.65185185185153","768","428","f","true","match","img/trapezoid.png","坏他","坏他","prac_ALT2_moral","practice_moral","","","","","","","","",""
"null","<span style='color:GreenYellow; font-size: 70px;'>正确! </span>","null","html-keyboard-response","95","391619","0.0-8.0-0.0-1.0-0.0-1.42","7","7","7","7","1","5","2","5","5","5","5","-3","-2","-1","-3","-3","-1","-3","0","5","5","5","5","5","3","1","1","3","1","1","5","9","5","2","1","1","1","3","7","3","1","4","7","2","7","7","5","1","1","1","1","5","1","5","1","7","4","2","7","1","1","1","1","1","7","1","5","7","7","1","7","7","1","1","1","7","7","1","4","787084202704248834","秦","378","Male","[""坏他"",""好我"",""坏我"",""好他""]","[""弱他"",""强我"",""弱我"",""强他""]","","","","","","","","","","","","","","","","","","","","","","","","","","","","","","feedback_test","","","","","","","","",""
"683","","f","psychophysics","96","393304","0.0-8.0-0.0-1.0-0.0-0.43","7","7","7","7","1","5","2","5","5","5","5","-3","-2","-1","-3","-3","-1","-3","0","5","5","5","5","5","3","1","1","3","1","1","5","9","5","2","1","1","1","3","7","3","1","4","7","2","7","7","5","1","1","1","1","5","1","5","1","7","4","2","7","1","1","1","1","1","7","1","5","7","7","1","7","7","1","1","1","7","7","1","4","787084202704248834","秦","378","Male","[""坏他"",""好我"",""坏我"",""好他""]","[""弱他"",""强我"",""弱我"",""强他""]","","","","","","","","match","","","","","","","","","","key","f","16.651000000000348","768","428","j","false","nonmatch","img/circle.png","好我","好他","prac_ALT2_moral","practice_moral","","","","","","","","",""
"null","<span style='color:red; font-size: 70px;'>错误! </span>","null","html-keyboard-response","97","393805","0.0-8.0-0.0-1.0-0.0-1.43","7","7","7","7","1","5","2","5","5","5","5","-3","-2","-1","-3","-3","-1","-3","0","5","5","5","5","5","3","1","1","3","1","1","5","9","5","2","1","1","1","3","7","3","1","4","7","2","7","7","5","1","1","1","1","5","1","5","1","7","4","2","7","1","1","1","1","1","7","1","5","7","7","1","7","7","1","1","1","7","7","1","4","787084202704248834","秦","378","Male","[""坏他"",""好我"",""坏我"",""好他""]","[""弱他"",""强我"",""弱我"",""强他""]","","","","","","","","","","","","","","","","","","","","","","","","","","","","","","feedback_test","","","","","","","","",""
"811","","f","psychophysics","98","395618","0.0-8.0-0.0-1.0-0.0-0.44","7","7","7","7","1","5","2","5","5","5","5","-3","-2","-1","-3","-3","-1","-3","0","5","5","5","5","5","3","1","1","3","1","1","5","9","5","2","1","1","1","3","7","3","1","4","7","2","7","7","5","1","1","1","1","5","1","5","1","7","4","2","7","1","1","1","1","1","7","1","5","7","7","1","7","7","1","1","1","7","7","1","4","787084202704248834","秦","378","Male","[""坏他"",""好我"",""坏我"",""好他""]","[""弱他"",""强我"",""弱我"",""强他""]","","","","","","","","match","","","","","","","","","","key","f","16.65462962962974","768","428","j","false","nonmatch","img/trapezoid.png","坏我","坏他","prac_ALT2_moral","practice_moral","","","","","","","","",""
"null","<span style='color:red; font-size: 70px;'>错误! </span>","null","html-keyboard-response","99","396120","0.0-8.0-0.0-1.0-0.0-1.44","7","7","7","7","1","5","2","5","5","5","5","-3","-2","-1","-3","-3","-1","-3","0","5","5","5","5","5","3","1","1","3","1","1","5","9","5","2","1","1","1","3","7","3","1","4","7","2","7","7","5","1","1","1","1","5","1","5","1","7","4","2","7","1","1","1","1","1","7","1","5","7","7","1","7","7","1","1","1","7","7","1","4","787084202704248834","秦","378","Male","[""坏他"",""好我"",""坏我"",""好他""]","[""弱他"",""强我"",""弱我"",""强他""]","","","","","","","","","","","","","","","","","","","","","","","","","","","","","","feedback_test","","","","","","","","",""
"799","","f","psychophysics","100","397921","0.0-8.0-0.0-1.0-0.0-0.45","7","7","7","7","1","5","2","5","5","5","5","-3","-2","-1","-3","-3","-1","-3","0","5","5","5","5","5","3","1","1","3","1","1","5","9","5","2","1","1","1","3","7","3","1","4","7","2","7","7","5","1","1","1","1","5","1","5","1","7","4","2","7","1","1","1","1","1","7","1","5","7","7","1","7","7","1","1","1","7","7","1","4","787084202704248834","秦","378","Male","[""坏他"",""好我"",""坏我"",""好他""]","[""弱他"",""强我"",""弱我"",""强他""]","","","","","","","","match","","","","","","","","","","key","f","16.64859813084134","768","428","j","false","nonmatch","img/square.png","坏他","好我","prac_ALT2_moral","practice_moral","","","","","","","","",""
"null","<span style='color:red; font-size: 70px;'>错误! </span>","null","html-keyboard-response","101","398422","0.0-8.0-0.0-1.0-0.0-1.45","7","7","7","7","1","5","2","5","5","5","5","-3","-2","-1","-3","-3","-1","-3","0","5","5","5","5","5","3","1","1","3","1","1","5","9","5","2","1","1","1","3","7","3","1","4","7","2","7","7","5","1","1","1","1","5","1","5","1","7","4","2","7","1","1","1","1","1","7","1","5","7","7","1","7","7","1","1","1","7","7","1","4","787084202704248834","秦","378","Male","[""坏他"",""好我"",""坏我"",""好他""]","[""弱他"",""强我"",""弱我"",""强他""]","","","","","","","","","","","","","","","","","","","","","","","","","","","","","","feedback_test","","","","","","","","",""
"839","","f","psychophysics","102","400263","0.0-8.0-0.0-1.0-0.0-0.46","7","7","7","7","1","5","2","5","5","5","5","-3","-2","-1","-3","-3","-1","-3","0","5","5","5","5","5","3","1","1","3","1","1","5","9","5","2","1","1","1","3","7","3","1","4","7","2","7","7","5","1","1","1","1","5","1","5","1","7","4","2","7","1","1","1","1","1","7","1","5","7","7","1","7","7","1","1","1","7","7","1","4","787084202704248834","秦","378","Male","[""坏他"",""好我"",""坏我"",""好他""]","[""弱他"",""强我"",""弱我"",""强他""]","","","","","","","","match","","","","","","","","","","key","f","16.65","768","428","j","false","nonmatch","img/square.png","坏我","好我","prac_ALT2_moral","practice_moral","","","","","","","","",""
"null","<span style='color:red; font-size: 70px;'>错误! </span>","null","html-keyboard-response","103","400763","0.0-8.0-0.0-1.0-0.0-1.46","7","7","7","7","1","5","2","5","5","5","5","-3","-2","-1","-3","-3","-1","-3","0","5","5","5","5","5","3","1","1","3","1","1","5","9","5","2","1","1","1","3","7","3","1","4","7","2","7","7","5","1","1","1","1","5","1","5","1","7","4","2","7","1","1","1","1","1","7","1","5","7","7","1","7","7","1","1","1","7","7","1","4","787084202704248834","秦","378","Male","[""坏他"",""好我"",""坏我"",""好他""]","[""弱他"",""强我"",""弱我"",""强他""]","","","","","","","","","","","","","","","","","","","","","","","","","","","","","","feedback_test","","","","","","","","",""
"810","","j","psychophysics","104","402576","0.0-8.0-0.0-1.0-0.0-0.47","7","7","7","7","1","5","2","5","5","5","5","-3","-2","-1","-3","-3","-1","-3","0","5","5","5","5","5","3","1","1","3","1","1","5","9","5","2","1","1","1","3","7","3","1","4","7","2","7","7","5","1","1","1","1","5","1","5","1","7","4","2","7","1","1","1","1","1","7","1","5","7","7","1","7","7","1","1","1","7","7","1","4","787084202704248834","秦","378","Male","[""坏他"",""好我"",""坏我"",""好他""]","[""弱他"",""强我"",""弱我"",""强他""]","","","","","","","","nonmatch","","","","","","","","","","key","j","16.64859813084134","768","428","j","true","nonmatch","img/circle.png","坏他","好他","prac_ALT2_moral","practice_moral","","","","","","","","",""
"null","<span style='color:GreenYellow; font-size: 70px;'>正确! </span>","null","html-keyboard-response","105","403077","0.0-8.0-0.0-1.0-0.0-1.47","7","7","7","7","1","5","2","5","5","5","5","-3","-2","-1","-3","-3","-1","-3","0","5","5","5","5","5","3","1","1","3","1","1","5","9","5","2","1","1","1","3","7","3","1","4","7","2","7","7","5","1","1","1","1","5","1","5","1","7","4","2","7","1","1","1","1","1","7","1","5","7","7","1","7","7","1","1","1","7","7","1","4","787084202704248834","秦","378","Male","[""坏他"",""好我"",""坏我"",""好他""]","[""弱他"",""强我"",""弱我"",""强他""]","","","","","","","","","","","","","","","","","","","","","","","","","","","","","","feedback_test","","","","","","","","",""
"2519","<style>.context{color:white; font-size: 35px; line-height:40px}</style>                            <div><p class='context'>您正确回答了48% 的试次。</p><p class='context'>您的平均反应时为870毫秒。</p><p class='context'>按空格键继续。</p></div>"," ","html-keyboard-response","106","405599","0.0-8.0-0.0-1.0-1.0-0.0","7","7","7","7","1","5","2","5","5","5","5","-3","-2","-1","-3","-3","-1","-3","0","5","5","5","5","5","3","1","1","3","1","1","5","9","5","2","1","1","1","3","7","3","1","4","7","2","7","7","5","1","1","1","1","5","1","5","1","7","4","2","7","1","1","1","1","1","7","1","5","7","7","1","7","7","1","1","1","7","7","1","4","787084202704248834","秦","378","Male","[""坏他"",""好我"",""坏我"",""好他""]","[""弱他"",""强我"",""弱我"",""强他""]","","","","","","","","","","","","","","","","","","","","","","","","","","","","","","","","","","","","","","",""
"21718","","","instructions","107","427318","0.0-8.0-0.0-1.0-1.0-1.0","7","7","7","7","1","5","2","5","5","5","5","-3","-2","-1","-3","-3","-1","-3","0","5","5","5","5","5","3","1","1","3","1","1","5","9","5","2","1","1","1","3","7","3","1","4","7","2","7","7","5","1","1","1","1","5","1","5","1","7","4","2","7","1","1","1","1","1","7","1","5","7","7","1","7","7","1","1","1","7","7","1","4","787084202704248834","秦","378","Male","[""坏他"",""好我"",""坏我"",""好他""]","[""弱他"",""强我"",""弱我"",""强他""]","","","","","","","","","","","","","","","","","[{""page_index"":0,""viewing_time"":3010},{""page_index"":1,""viewing_time"":14111},{""page_index"":2,""viewing_time"":4597}]","","","","","","","","","","","","","","","","","","","","","",""
"874","","j","psychophysics","108","429194","0.0-8.0-0.0-1.1-0.1-0.48","7","7","7","7","1","5","2","5","5","5","5","-3","-2","-1","-3","-3","-1","-3","0","5","5","5","5","5","3","1","1","3","1","1","5","9","5","2","1","1","1","3","7","3","1","4","7","2","7","7","5","1","1","1","1","5","1","5","1","7","4","2","7","1","1","1","1","1","7","1","5","7","7","1","7","7","1","1","1","7","7","1","4","787084202704248834","秦","378","Male","[""坏他"",""好我"",""坏我"",""好他""]","[""弱他"",""强我"",""弱我"",""强他""]","","","","","","","","nonmatch","","","","","","","","","","key","j","16.650450450450556","768","428","j","true","nonmatch","img/square.png","坏他","好我","prac_ALT2_moral","practice_moral","","","","","","","","",""
"null","<span style='color:GreenYellow; font-size: 70px;'>正确! </span>","null","html-keyboard-response","109","429696","0.0-8.0-0.0-1.1-0.1-1.48","7","7","7","7","1","5","2","5","5","5","5","-3","-2","-1","-3","-3","-1","-3","0","5","5","5","5","5","3","1","1","3","1","1","5","9","5","2","1","1","1","3","7","3","1","4","7","2","7","7","5","1","1","1","1","5","1","5","1","7","4","2","7","1","1","1","1","1","7","1","5","7","7","1","7","7","1","1","1","7","7","1","4","787084202704248834","秦","378","Male","[""坏他"",""好我"",""坏我"",""好他""]","[""弱他"",""强我"",""弱我"",""强他""]","","","","","","","","","","","","","","","","","","","","","","","","","","","","","","feedback_test","","","","","","","","",""
"965","","j","psychophysics","110","431662","0.0-8.0-0.0-1.1-0.1-0.49","7","7","7","7","1","5","2","5","5","5","5","-3","-2","-1","-3","-3","-1","-3","0","5","5","5","5","5","3","1","1","3","1","1","5","9","5","2","1","1","1","3","7","3","1","4","7","2","7","7","5","1","1","1","1","5","1","5","1","7","4","2","7","1","1","1","1","1","7","1","5","7","7","1","7","7","1","1","1","7","7","1","4","787084202704248834","秦","378","Male","[""坏他"",""好我"",""坏我"",""好他""]","[""弱他"",""强我"",""弱我"",""强他""]","","","","","","","","nonmatch","","","","","","","","","","key","j","16.652991452991653","768","428","f","false","match","img/hexagon.png","坏我","坏我","prac_ALT2_moral","practice_moral","","","","","","","","",""
"null","<span style='color:red; font-size: 70px;'>错误! </span>","null","html-keyboard-response","111","432163","0.0-8.0-0.0-1.1-0.1-1.49","7","7","7","7","1","5","2","5","5","5","5","-3","-2","-1","-3","-3","-1","-3","0","5","5","5","5","5","3","1","1","3","1","1","5","9","5","2","1","1","1","3","7","3","1","4","7","2","7","7","5","1","1","1","1","5","1","5","1","7","4","2","7","1","1","1","1","1","7","1","5","7","7","1","7","7","1","1","1","7","7","1","4","787084202704248834","秦","378","Male","[""坏他"",""好我"",""坏我"",""好他""]","[""弱他"",""强我"",""弱我"",""强他""]","","","","","","","","","","","","","","","","","","","","","","","","","","","","","","feedback_test","","","","","","","","",""
"856","","j","psychophysics","112","434021","0.0-8.0-0.0-1.1-0.1-0.50","7","7","7","7","1","5","2","5","5","5","5","-3","-2","-1","-3","-3","-1","-3","0","5","5","5","5","5","3","1","1","3","1","1","5","9","5","2","1","1","1","3","7","3","1","4","7","2","7","7","5","1","1","1","1","5","1","5","1","7","4","2","7","1","1","1","1","1","7","1","5","7","7","1","7","7","1","1","1","7","7","1","4","787084202704248834","秦","378","Male","[""坏他"",""好我"",""坏我"",""好他""]","[""弱他"",""强我"",""弱我"",""强他""]","","","","","","","","nonmatch","","","","","","","","","","key","j","16.649090909090592","768","428","j","true","nonmatch","img/trapezoid.png","好我","坏他","prac_ALT2_moral","practice_moral","","","","","","","","",""
"null","<span style='color:GreenYellow; font-size: 70px;'>正确! </span>","null","html-keyboard-response","113","434530","0.0-8.0-0.0-1.1-0.1-1.50","7","7","7","7","1","5","2","5","5","5","5","-3","-2","-1","-3","-3","-1","-3","0","5","5","5","5","5","3","1","1","3","1","1","5","9","5","2","1","1","1","3","7","3","1","4","7","2","7","7","5","1","1","1","1","5","1","5","1","7","4","2","7","1","1","1","1","1","7","1","5","7","7","1","7","7","1","1","1","7","7","1","4","787084202704248834","秦","378","Male","[""坏他"",""好我"",""坏我"",""好他""]","[""弱他"",""强我"",""弱我"",""强他""]","","","","","","","","","","","","","","","","","","","","","","","","","","","","","","feedback_test","","","","","","","","",""
"861","","f","psychophysics","114","436393","0.0-8.0-0.0-1.1-0.1-0.51","7","7","7","7","1","5","2","5","5","5","5","-3","-2","-1","-3","-3","-1","-3","0","5","5","5","5","5","3","1","1","3","1","1","5","9","5","2","1","1","1","3","7","3","1","4","7","2","7","7","5","1","1","1","1","5","1","5","1","7","4","2","7","1","1","1","1","1","7","1","5","7","7","1","7","7","1","1","1","7","7","1","4","787084202704248834","秦","378","Male","[""坏他"",""好我"",""坏我"",""好他""]","[""弱他"",""强我"",""弱我"",""强他""]","","","","","","","","match","","","","","","","","","","key","f","16.65","768","428","f","true","match","img/hexagon.png","坏我","坏我","prac_ALT2_moral","practice_moral","","","","","","","","",""
"null","<span style='color:GreenYellow; font-size: 70px;'>正确! </span>","null","html-keyboard-response","115","436894","0.0-8.0-0.0-1.1-0.1-1.51","7","7","7","7","1","5","2","5","5","5","5","-3","-2","-1","-3","-3","-1","-3","0","5","5","5","5","5","3","1","1","3","1","1","5","9","5","2","1","1","1","3","7","3","1","4","7","2","7","7","5","1","1","1","1","5","1","5","1","7","4","2","7","1","1","1","1","1","7","1","5","7","7","1","7","7","1","1","1","7","7","1","4","787084202704248834","秦","378","Male","[""坏他"",""好我"",""坏我"",""好他""]","[""弱他"",""强我"",""弱我"",""强他""]","","","","","","","","","","","","","","","","","","","","","","","","","","","","","","feedback_test","","","","","","","","",""
"645","","f","psychophysics","116","438541","0.0-8.0-0.0-1.1-0.1-0.52","7","7","7","7","1","5","2","5","5","5","5","-3","-2","-1","-3","-3","-1","-3","0","5","5","5","5","5","3","1","1","3","1","1","5","9","5","2","1","1","1","3","7","3","1","4","7","2","7","7","5","1","1","1","1","5","1","5","1","7","4","2","7","1","1","1","1","1","7","1","5","7","7","1","7","7","1","1","1","7","7","1","4","787084202704248834","秦","378","Male","[""坏他"",""好我"",""坏我"",""好他""]","[""弱他"",""强我"",""弱我"",""强他""]","","","","","","","","match","","","","","","","","","","key","f","16.657731958763367","768","428","f","true","match","img/circle.png","好他","好他","prac_ALT2_moral","practice_moral","","","","","","","","",""
"null","<span style='color:GreenYellow; font-size: 70px;'>正确! </span>","null","html-keyboard-response","117","439043","0.0-8.0-0.0-1.1-0.1-1.52","7","7","7","7","1","5","2","5","5","5","5","-3","-2","-1","-3","-3","-1","-3","0","5","5","5","5","5","3","1","1","3","1","1","5","9","5","2","1","1","1","3","7","3","1","4","7","2","7","7","5","1","1","1","1","5","1","5","1","7","4","2","7","1","1","1","1","1","7","1","5","7","7","1","7","7","1","1","1","7","7","1","4","787084202704248834","秦","378","Male","[""坏他"",""好我"",""坏我"",""好他""]","[""弱他"",""强我"",""弱我"",""强他""]","","","","","","","","","","","","","","","","","","","","","","","","","","","","","","feedback_test","","","","","","","","",""
"666","","f","psychophysics","118","440710","0.0-8.0-0.0-1.1-0.1-0.53","7","7","7","7","1","5","2","5","5","5","5","-3","-2","-1","-3","-3","-1","-3","0","5","5","5","5","5","3","1","1","3","1","1","5","9","5","2","1","1","1","3","7","3","1","4","7","2","7","7","5","1","1","1","1","5","1","5","1","7","4","2","7","1","1","1","1","1","7","1","5","7","7","1","7","7","1","1","1","7","7","1","4","787084202704248834","秦","378","Male","[""坏他"",""好我"",""坏我"",""好他""]","[""弱他"",""强我"",""弱我"",""强他""]","","","","","","","","match","","","","","","","","","","key","f","16.656565656565657","768","428","f","true","match","img/square.png","好我","好我","prac_ALT2_moral","practice_moral","","","","","","","","",""
"null","<span style='color:GreenYellow; font-size: 70px;'>正确! </span>","null","html-keyboard-response","119","441211","0.0-8.0-0.0-1.1-0.1-1.53","7","7","7","7","1","5","2","5","5","5","5","-3","-2","-1","-3","-3","-1","-3","0","5","5","5","5","5","3","1","1","3","1","1","5","9","5","2","1","1","1","3","7","3","1","4","7","2","7","7","5","1","1","1","1","5","1","5","1","7","4","2","7","1","1","1","1","1","7","1","5","7","7","1","7","7","1","1","1","7","7","1","4","787084202704248834","秦","378","Male","[""坏他"",""好我"",""坏我"",""好他""]","[""弱他"",""强我"",""弱我"",""强他""]","","","","","","","","","","","","","","","","","","","","","","","","","","","","","","feedback_test","","","","","","","","",""
"730","","f","psychophysics","120","442942","0.0-8.0-0.0-1.1-0.1-0.54","7","7","7","7","1","5","2","5","5","5","5","-3","-2","-1","-3","-3","-1","-3","0","5","5","5","5","5","3","1","1","3","1","1","5","9","5","2","1","1","1","3","7","3","1","4","7","2","7","7","5","1","1","1","1","5","1","5","1","7","4","2","7","1","1","1","1","1","7","1","5","7","7","1","7","7","1","1","1","7","7","1","4","787084202704248834","秦","378","Male","[""坏他"",""好我"",""坏我"",""好他""]","[""弱他"",""强我"",""弱我"",""强他""]","","","","","","","","match","","","","","","","","","","key","f","16.648543689320274","768","428","j","false","nonmatch","img/hexagon.png","坏他","坏我","prac_ALT2_moral","practice_moral","","","","","","","","",""
"null","<span style='color:red; font-size: 70px;'>错误! </span>","null","html-keyboard-response","121","443444","0.0-8.0-0.0-1.1-0.1-1.54","7","7","7","7","1","5","2","5","5","5","5","-3","-2","-1","-3","-3","-1","-3","0","5","5","5","5","5","3","1","1","3","1","1","5","9","5","2","1","1","1","3","7","3","1","4","7","2","7","7","5","1","1","1","1","5","1","5","1","7","4","2","7","1","1","1","1","1","7","1","5","7","7","1","7","7","1","1","1","7","7","1","4","787084202704248834","秦","378","Male","[""坏他"",""好我"",""坏我"",""好他""]","[""弱他"",""强我"",""弱我"",""强他""]","","","","","","","","","","","","","","","","","","","","","","","","","","","","","","feedback_test","","","","","","","","",""
"null","","null","psychophysics","122","445655","0.0-8.0-0.0-1.1-0.1-0.55","7","7","7","7","1","5","2","5","5","5","5","-3","-2","-1","-3","-3","-1","-3","0","5","5","5","5","5","3","1","1","3","1","1","5","9","5","2","1","1","1","3","7","3","1","4","7","2","7","7","5","1","1","1","1","5","1","5","1","7","4","2","7","1","1","1","1","1","7","1","5","7","7","1","7","7","1","1","1","7","7","1","4","787084202704248834","秦","378","Male","[""坏他"",""好我"",""坏我"",""好他""]","[""弱他"",""强我"",""弱我"",""强他""]","","","","","","","","null","","","","","","","","","","key","null","16.651022556391055","768","428","j","false","nonmatch","img/square.png","好他","好我","prac_ALT2_moral","practice_moral","","","","","","","","",""
"null","<span class='add_' style='color:yellow; font-size: 70px;'> 太慢! </span>","null","html-keyboard-response","123","446156","0.0-8.0-0.0-1.1-0.1-1.55","7","7","7","7","1","5","2","5","5","5","5","-3","-2","-1","-3","-3","-1","-3","0","5","5","5","5","5","3","1","1","3","1","1","5","9","5","2","1","1","1","3","7","3","1","4","7","2","7","7","5","1","1","1","1","5","1","5","1","7","4","2","7","1","1","1","1","1","7","1","5","7","7","1","7","7","1","1","1","7","7","1","4","787084202704248834","秦","378","Male","[""坏他"",""好我"",""坏我"",""好他""]","[""弱他"",""强我"",""弱我"",""强他""]","","","","","","","","","","","","","","","","","","","","","","","","","","","","","","feedback_test","","","","","","","","",""
"606","","f","psychophysics","124","447764","0.0-8.0-0.0-1.1-0.1-0.56","7","7","7","7","1","5","2","5","5","5","5","-3","-2","-1","-3","-3","-1","-3","0","5","5","5","5","5","3","1","1","3","1","1","5","9","5","2","1","1","1","3","7","3","1","4","7","2","7","7","5","1","1","1","1","5","1","5","1","7","4","2","7","1","1","1","1","1","7","1","5","7","7","1","7","7","1","1","1","7","7","1","4","787084202704248834","秦","378","Male","[""坏他"",""好我"",""坏我"",""好他""]","[""弱他"",""强我"",""弱我"",""强他""]","","","","","","","","match","","","","","","","","","","key","f","16.65368421052607","768","428","f","true","match","img/square.png","好我","好我","prac_ALT2_moral","practice_moral","","","","","","","","",""
"null","<span style='color:GreenYellow; font-size: 70px;'>正确! </span>","null","html-keyboard-response","125","448265","0.0-8.0-0.0-1.1-0.1-1.56","7","7","7","7","1","5","2","5","5","5","5","-3","-2","-1","-3","-3","-1","-3","0","5","5","5","5","5","3","1","1","3","1","1","5","9","5","2","1","1","1","3","7","3","1","4","7","2","7","7","5","1","1","1","1","5","1","5","1","7","4","2","7","1","1","1","1","1","7","1","5","7","7","1","7","7","1","1","1","7","7","1","4","787084202704248834","秦","378","Male","[""坏他"",""好我"",""坏我"",""好他""]","[""弱他"",""强我"",""弱我"",""强他""]","","","","","","","","","","","","","","","","","","","","","","","","","","","","","","feedback_test","","","","","","","","",""
"912","","f","psychophysics","126","450178","0.0-8.0-0.0-1.1-0.1-0.57","7","7","7","7","1","5","2","5","5","5","5","-3","-2","-1","-3","-3","-1","-3","0","5","5","5","5","5","3","1","1","3","1","1","5","9","5","2","1","1","1","3","7","3","1","4","7","2","7","7","5","1","1","1","1","5","1","5","1","7","4","2","7","1","1","1","1","1","7","1","5","7","7","1","7","7","1","1","1","7","7","1","4","787084202704248834","秦","378","Male","[""坏他"",""好我"",""坏我"",""好他""]","[""弱他"",""强我"",""弱我"",""强他""]","","","","","","","","match","","","","","","","","","","key","f","16.650442477876105","768","428","j","false","nonmatch","img/trapezoid.png","好他","坏他","prac_ALT2_moral","practice_moral","","","","","","","","",""
"null","<span style='color:red; font-size: 70px;'>错误! </span>","null","html-keyboard-response","127","450687","0.0-8.0-0.0-1.1-0.1-1.57","7","7","7","7","1","5","2","5","5","5","5","-3","-2","-1","-3","-3","-1","-3","0","5","5","5","5","5","3","1","1","3","1","1","5","9","5","2","1","1","1","3","7","3","1","4","7","2","7","7","5","1","1","1","1","5","1","5","1","7","4","2","7","1","1","1","1","1","7","1","5","7","7","1","7","7","1","1","1","7","7","1","4","787084202704248834","秦","378","Male","[""坏他"",""好我"",""坏我"",""好他""]","[""弱他"",""强我"",""弱我"",""强他""]","","","","","","","","","","","","","","","","","","","","","","","","","","","","","","feedback_test","","","","","","","","",""
"435","","f","psychophysics","128","452124","0.0-8.0-0.0-1.1-0.1-0.58","7","7","7","7","1","5","2","5","5","5","5","-3","-2","-1","-3","-3","-1","-3","0","5","5","5","5","5","3","1","1","3","1","1","5","9","5","2","1","1","1","3","7","3","1","4","7","2","7","7","5","1","1","1","1","5","1","5","1","7","4","2","7","1","1","1","1","1","7","1","5","7","7","1","7","7","1","1","1","7","7","1","4","787084202704248834","秦","378","Male","[""坏他"",""好我"",""坏我"",""好他""]","[""弱他"",""强我"",""弱我"",""强他""]","","","","","","","","match","","","","","","","","","","key","f","16.644705882352802","768","428","f","true","match","img/trapezoid.png","坏他","坏他","prac_ALT2_moral","practice_moral","","","","","","","","",""
"null","<span style='color:GreenYellow; font-size: 70px;'>正确! </span>","null","html-keyboard-response","129","452630","0.0-8.0-0.0-1.1-0.1-1.58","7","7","7","7","1","5","2","5","5","5","5","-3","-2","-1","-3","-3","-1","-3","0","5","5","5","5","5","3","1","1","3","1","1","5","9","5","2","1","1","1","3","7","3","1","4","7","2","7","7","5","1","1","1","1","5","1","5","1","7","4","2","7","1","1","1","1","1","7","1","5","7","7","1","7","7","1","1","1","7","7","1","4","787084202704248834","秦","378","Male","[""坏他"",""好我"",""坏我"",""好他""]","[""弱他"",""强我"",""弱我"",""强他""]","","","","","","","","","","","","","","","","","","","","","","","","","","","","","","feedback_test","","","","","","","","",""
"532","","f","psychophysics","130","454164","0.0-8.0-0.0-1.1-0.1-0.59","7","7","7","7","1","5","2","5","5","5","5","-3","-2","-1","-3","-3","-1","-3","0","5","5","5","5","5","3","1","1","3","1","1","5","9","5","2","1","1","1","3","7","3","1","4","7","2","7","7","5","1","1","1","1","5","1","5","1","7","4","2","7","1","1","1","1","1","7","1","5","7","7","1","7","7","1","1","1","7","7","1","4","787084202704248834","秦","378","Male","[""坏他"",""好我"",""坏我"",""好他""]","[""弱他"",""强我"",""弱我"",""强他""]","","","","","","","","match","","","","","","","","","","key","f","16.647252747252363","768","428","j","false","nonmatch","img/square.png","坏我","好我","prac_ALT2_moral","practice_moral","","","","","","","","",""
"null","<span style='color:red; font-size: 70px;'>错误! </span>","null","html-keyboard-response","131","454664","0.0-8.0-0.0-1.1-0.1-1.59","7","7","7","7","1","5","2","5","5","5","5","-3","-2","-1","-3","-3","-1","-3","0","5","5","5","5","5","3","1","1","3","1","1","5","9","5","2","1","1","1","3","7","3","1","4","7","2","7","7","5","1","1","1","1","5","1","5","1","7","4","2","7","1","1","1","1","1","7","1","5","7","7","1","7","7","1","1","1","7","7","1","4","787084202704248834","秦","378","Male","[""坏他"",""好我"",""坏我"",""好他""]","[""弱他"",""强我"",""弱我"",""强他""]","","","","","","","","","","","","","","","","","","","","","","","","","","","","","","feedback_test","","","","","","","","",""
"635","","j","psychophysics","132","456301","0.0-8.0-0.0-1.1-0.1-0.60","7","7","7","7","1","5","2","5","5","5","5","-3","-2","-1","-3","-3","-1","-3","0","5","5","5","5","5","3","1","1","3","1","1","5","9","5","2","1","1","1","3","7","3","1","4","7","2","7","7","5","1","1","1","1","5","1","5","1","7","4","2","7","1","1","1","1","1","7","1","5","7","7","1","7","7","1","1","1","7","7","1","4","787084202704248834","秦","378","Male","[""坏他"",""好我"",""坏我"",""好他""]","[""弱他"",""强我"",""弱我"",""强他""]","","","","","","","","nonmatch","","","","","","","","","","key","j","16.64742268041225","768","428","f","false","match","img/trapezoid.png","坏他","坏他","prac_ALT2_moral","practice_moral","","","","","","","","",""
"null","<span style='color:red; font-size: 70px;'>错误! </span>","null","html-keyboard-response","133","456803","0.0-8.0-0.0-1.1-0.1-1.60","7","7","7","7","1","5","2","5","5","5","5","-3","-2","-1","-3","-3","-1","-3","0","5","5","5","5","5","3","1","1","3","1","1","5","9","5","2","1","1","1","3","7","3","1","4","7","2","7","7","5","1","1","1","1","5","1","5","1","7","4","2","7","1","1","1","1","1","7","1","5","7","7","1","7","7","1","1","1","7","7","1","4","787084202704248834","秦","378","Male","[""坏他"",""好我"",""坏我"",""好他""]","[""弱他"",""强我"",""弱我"",""强他""]","","","","","","","","","","","","","","","","","","","","","","","","","","","","","","feedback_test","","","","","","","","",""
"665","","f","psychophysics","134","458468","0.0-8.0-0.0-1.1-0.1-0.61","7","7","7","7","1","5","2","5","5","5","5","-3","-2","-1","-3","-3","-1","-3","0","5","5","5","5","5","3","1","1","3","1","1","5","9","5","2","1","1","1","3","7","3","1","4","7","2","7","7","5","1","1","1","1","5","1","5","1","7","4","2","7","1","1","1","1","1","7","1","5","7","7","1","7","7","1","1","1","7","7","1","4","787084202704248834","秦","378","Male","[""坏他"",""好我"",""坏我"",""好他""]","[""弱他"",""强我"",""弱我"",""强他""]","","","","","","","","match","","","","","","","","","","key","f","16.65353535353547","768","428","j","false","nonmatch","img/circle.png","好我","好他","prac_ALT2_moral","practice_moral","","","","","","","","",""
"null","<span style='color:red; font-size: 70px;'>错误! </span>","null","html-keyboard-response","135","458970","0.0-8.0-0.0-1.1-0.1-1.61","7","7","7","7","1","5","2","5","5","5","5","-3","-2","-1","-3","-3","-1","-3","0","5","5","5","5","5","3","1","1","3","1","1","5","9","5","2","1","1","1","3","7","3","1","4","7","2","7","7","5","1","1","1","1","5","1","5","1","7","4","2","7","1","1","1","1","1","7","1","5","7","7","1","7","7","1","1","1","7","7","1","4","787084202704248834","秦","378","Male","[""坏他"",""好我"",""坏我"",""好他""]","[""弱他"",""强我"",""弱我"",""强他""]","","","","","","","","","","","","","","","","","","","","","","","","","","","","","","feedback_test","","","","","","","","",""
"860","","j","psychophysics","136","460832","0.0-8.0-0.0-1.1-0.1-0.62","7","7","7","7","1","5","2","5","5","5","5","-3","-2","-1","-3","-3","-1","-3","0","5","5","5","5","5","3","1","1","3","1","1","5","9","5","2","1","1","1","3","7","3","1","4","7","2","7","7","5","1","1","1","1","5","1","5","1","7","4","2","7","1","1","1","1","1","7","1","5","7","7","1","7","7","1","1","1","7","7","1","4","787084202704248834","秦","378","Male","[""坏他"",""好我"",""坏我"",""好他""]","[""弱他"",""强我"",""弱我"",""强他""]","","","","","","","","nonmatch","","","","","","","","","","key","j","16.653153153153152","768","428","f","false","match","img/circle.png","好他","好他","prac_ALT2_moral","practice_moral","","","","","","","","",""
"null","<span style='color:red; font-size: 70px;'>错误! </span>","null","html-keyboard-response","137","461333","0.0-8.0-0.0-1.1-0.1-1.62","7","7","7","7","1","5","2","5","5","5","5","-3","-2","-1","-3","-3","-1","-3","0","5","5","5","5","5","3","1","1","3","1","1","5","9","5","2","1","1","1","3","7","3","1","4","7","2","7","7","5","1","1","1","1","5","1","5","1","7","4","2","7","1","1","1","1","1","7","1","5","7","7","1","7","7","1","1","1","7","7","1","4","787084202704248834","秦","378","Male","[""坏他"",""好我"",""坏我"",""好他""]","[""弱他"",""强我"",""弱我"",""强他""]","","","","","","","","","","","","","","","","","","","","","","","","","","","","","","feedback_test","","","","","","","","",""
