"rt","stimulus","response","trial_type","trial_index","time_elapsed","internal_node_id","swb_1","swb_2","swb_3","swb_4","swb_5","LOT_1","LOT_2","LOT_3","LOT_4","LOT_5","LOT_6","IPC_1","IPC_2","IPC_3","IPC_4","IPC_5","IPC_6","IPC_7","IPC_8","MorIden_1","MorIden_2","MorIden_3","MorIden_4","MorIden_5","MorIden_6","MorIden_7","MorIden_8","MorIden_9","MorIden_10","moralSeImag_1","moralSeImag_2","moralSeImag_3","moralSeImag_4","moralSeImag_5","moralSeImag_6","moralSeImag_7","moralSeImag_8","moralSeImag_9","sde_1","sde_2","sde_3","sde_4","sde_5","sde_6","sde_7","sde_8","sde_9","sde_10","trap2","sde_11","sde_12","sde_13","sde_14","sde_15","sde_16","sde_17","sde_18","sde_19","sde_20","IM_1","IM_2","IM_3","IM_4","IM_5","IM_6","IM_7","IM_8","IM_9","IM_10","IM_11","IM_12","IM_13","IM_14","IM_15","IM_16","IM_17","IM_18","IM_19","IM_20","subj_idx","friend_name","ParticipantID","Sex","Word","Word2","value","success","timeout","failed_images","failed_audio","failed_video","user_agent","responses","item_order","radio_event_ids","radio_event_times","key_event_times","mouse_event_times","straightlining","zigzagging","honeypot","view_history","response_type","key_press","avg_frame_time","center_x","center_y","correct_response","correct","identity","Image","word","condition","task_id","screen_id","time_stamp","person","valence","domain","math","status","duration","question_order","trap2_item"
"127992","
   <p><div style='color:white; font-size: 25px'>您好，欢迎参加本次实验。</div></p>
   <p><div style='color:white; font-size: 25px'>为充分保障您的权利，请确保您已经知晓并同意《参与实验同意书》以及《数据公开知情同意书》。</div></p>
   <p><div style='color:white; font-size: 25px'>如果您未见过上述内容，请咨询实验员。</div></p>
   <p style='color:white; font-size: 25px'>如果您选择继续实验，则表示您已经清楚两份知情同意书的内容并同意。</p>
   <p><div style = ""color: pink;font-size:30px;"">请确保您记得day0的实验编号，您将在本次实验输入该编号，若您忘记，请咨询实验员后作答。</div></p>
   <p><div style = ""color:lightblue;font-size:25px;"">请您尽可能认真地作答，我们将依据您在各问卷和按键任务中的作答质量发放报酬。</div></p>
   <p> <div style = ""color: green""><按空格键至下页></div> </p>
   "," ","html-keyboard-response","0","127994","0.0-0.0","5","6","5","5","2","4","4","4","4","5","4","1","-3","1","0","1","0","1","1","4","4","5","4","4","4","5","4","5","5","6","6","4","4","2","6","7","6","8","5","5","3","3","6","2","7","1","6","5","1","3","2","6","1","3","2","5","7","5","2","2","2","2","2","1","5","2","5","5","6","5","2","3","6","1","6","6","7","3","3","766374165644316674","应","15","Female","[""好她"",""坏我"",""坏她"",""好我""]","[""强她"",""弱我"",""弱她"",""强我""]","","","","","","","","","","","","","","","","","","","","","","","","","","","","","","","","","","","","","","",""
"","","","call-function","1","127995","0.0-1.0-0.0","5","6","5","5","2","4","4","4","4","5","4","1","-3","1","0","1","0","1","1","4","4","5","4","4","4","5","4","5","5","6","6","4","4","2","6","7","6","8","5","5","3","3","6","2","7","1","6","5","1","3","2","6","1","3","2","5","7","5","2","2","2","2","2","1","5","2","5","5","6","5","2","3","6","1","6","6","7","3","3","766374165644316674","应","15","Female","[""好她"",""坏我"",""坏她"",""好我""]","[""强她"",""弱我"",""弱她"",""强我""]","","","","","","","","","","","","","","","","","","","","","","","","","","","","","","","","","","","","","","",""
"10862","","[{""name"":""Sex"",""value"":""1""},{""name"":""friend_name"",""value"":""应""},{""name"":""ParticipantID"",""value"":""15""}]","survey-html-form","2","138857","0.0-1.0-1.0","5","6","5","5","2","4","4","4","4","5","4","1","-3","1","0","1","0","1","1","4","4","5","4","4","4","5","4","5","5","6","6","4","4","2","6","7","6","8","5","5","3","3","6","2","7","1","6","5","1","3","2","6","1","3","2","5","7","5","2","2","2","2","2","1","5","2","5","5","6","5","2","3","6","1","6","6","7","3","3","766374165644316674","应","15","Female","[""好她"",""坏我"",""坏她"",""好我""]","[""强她"",""弱我"",""弱她"",""强我""]","","","","","","","","","","","","","","","","","","","","","","","","","","","","","","","","","","","","","","",""
"","","","preload","3","139056","0.0-2.0","5","6","5","5","2","4","4","4","4","5","4","1","-3","1","0","1","0","1","1","4","4","5","4","4","4","5","4","5","5","6","6","4","4","2","6","7","6","8","5","5","3","3","6","2","7","1","6","5","1","3","2","6","1","3","2","5","7","5","2","2","2","2","2","1","5","2","5","5","6","5","2","3","6","1","6","6","7","3","3","766374165644316674","应","15","Female","[""好她"",""坏我"",""坏她"",""好我""]","[""强她"",""弱我"",""弱她"",""强我""]","","true","false","[]","[]","[]","","","","","","","","","","","","","","","","","","","","","","","","","","","","","","","","",""
"","","","fullscreen","4","178686","0.0-3.0","5","6","5","5","2","4","4","4","4","5","4","1","-3","1","0","1","0","1","1","4","4","5","4","4","4","5","4","5","5","6","6","4","4","2","6","7","6","8","5","5","3","3","6","2","7","1","6","5","1","3","2","6","1","3","2","5","7","5","2","2","2","2","2","1","5","2","5","5","6","5","2","3","6","1","6","6","7","3","3","766374165644316674","应","15","Female","[""好她"",""坏我"",""坏她"",""好我""]","[""强她"",""弱我"",""弱她"",""强我""]","","true","","","","","{}","","","","","","","","","","","","","","","","","","","","","","","","","","","","","","","",""
"55247.69999998808","","{""Q01"":""5"",""Q02"":""6"",""Q03"":""5"",""Q04"":""5"",""Q05"":""2""}","survey-template","5","233936","0.0-4.0","5","6","5","5","2","4","4","4","4","5","4","1","-3","1","0","1","0","1","1","4","4","5","4","4","4","5","4","5","5","6","6","4","4","2","6","7","6","8","5","5","3","3","6","2","7","1","6","5","1","3","2","6","1","3","2","5","7","5","2","2","2","2","2","1","5","2","5","5","6","5","2","3","6","1","6","6","7","3","3","766374165644316674","应","15","Female","[""好她"",""坏我"",""坏她"",""好我""]","[""强她"",""弱我"",""弱她"",""强我""]","","","","","","","","{""Q01"":""5"",""Q02"":""6"",""Q03"":""5"",""Q04"":""5"",""Q05"":""2""}","[0,1,2,3,4]","[""Q02"",""Q01"",""Q03"",""Q04"",""Q04"",""Q04"",""Q05""]","[4779.0999999940395,5646.5999999940395,6674.800000011921,8484.90000000596,12588.90000000596,13951.300000011921,16121.09999999404]","[]","[3101.4000000059605,4124.4000000059605,4779.0999999940395,5646.5999999940395,6674.800000011921,8484.90000000596,12588.90000000596,13951.300000011921,16121.09999999404,55246.80000001192]","0.6","0.5","0","","","","","","","","","","","","","","","","","","","","","","",""
"53924.19999998808","","{""Q01"":""4"",""Q02"":""4"",""Q03"":""4"",""Q04"":""4"",""Q05"":""5"",""Q06"":""4""}","survey-template","6","287864","0.0-5.0","5","6","5","5","2","4","4","4","4","5","4","1","-3","1","0","1","0","1","1","4","4","5","4","4","4","5","4","5","5","6","6","4","4","2","6","7","6","8","5","5","3","3","6","2","7","1","6","5","1","3","2","6","1","3","2","5","7","5","2","2","2","2","2","1","5","2","5","5","6","5","2","3","6","1","6","6","7","3","3","766374165644316674","应","15","Female","[""好她"",""坏我"",""坏她"",""好我""]","[""强她"",""弱我"",""弱她"",""强我""]","","","","","","","","{""Q01"":""4"",""Q02"":""4"",""Q03"":""4"",""Q04"":""4"",""Q05"":""5"",""Q06"":""4""}","[0,1,2,3,4,5]","[""Q01"",""Q02"",""Q02"",""Q03"",""Q02"",""Q03"",""Q03"",""Q04"",""Q02"",""Q05"",""Q06""]","[2439.5999999940395,3393.399999976158,6697.399999976158,15629.799999982119,16475.29999998212,28859.79999998212,34594.39999997616,42571.89999997616,48257.69999998808,51211.59999999404,53042.29999998212]","[]","[2439.5999999940395,3393.399999976158,4357.299999982119,5105.5999999940395,6697.399999976158,13547.299999982119,15629.799999982119,16475.29999998212,28317.59999999404,28859.79999998212,34594.39999997616,42571.89999997616,48257.69999998808,51211.59999999404,53042.29999998212,53923.59999999404]","0.5","0.2","0","","","","","","","","","","","","","","","","","","","","","","",""
"20384.79999998212","","{""Q01"":""1"",""Q02"":""-3"",""Q03"":""1"",""Q04"":""0"",""Q05"":""1"",""Q06"":""0"",""Q07"":""1"",""Q08"":""1""}","survey-template","7","308251","0.0-6.0","5","6","5","5","2","4","4","4","4","5","4","1","-3","1","0","1","0","1","1","4","4","5","4","4","4","5","4","5","5","6","6","4","4","2","6","7","6","8","5","5","3","3","6","2","7","1","6","5","1","3","2","6","1","3","2","5","7","5","2","2","2","2","2","1","5","2","5","5","6","5","2","3","6","1","6","6","7","3","3","766374165644316674","应","15","Female","[""好她"",""坏我"",""坏她"",""好我""]","[""强她"",""弱我"",""弱她"",""强我""]","","","","","","","","{""Q01"":""1"",""Q02"":""-3"",""Q03"":""1"",""Q04"":""0"",""Q05"":""1"",""Q06"":""0"",""Q07"":""1"",""Q08"":""1""}","[0,1,2,3,4,5,6,7]","[""Q01"",""Q02"",""Q03"",""Q04"",""Q05"",""Q06"",""Q07"",""Q08""]","[1625,3664.399999976158,8163.199999988079,8894.5,10207.199999988079,11726.899999976158,13730.59999999404,19118.5]","[]","[1625,3094.399999976158,3664.399999976158,5640.699999988079,6302.399999976158,7632.5,8163.199999988079,8894.5,10207.199999988079,11726.899999976158,13730.59999999404,19118.5,20384.09999999404]","0.625","0.5714285714285714","0","","","","","","","","","","","","","","","","","","","","","","",""
"61151","","","instructions","8","369405","0.0-7.0","5","6","5","5","2","4","4","4","4","5","4","1","-3","1","0","1","0","1","1","4","4","5","4","4","4","5","4","5","5","6","6","4","4","2","6","7","6","8","5","5","3","3","6","2","7","1","6","5","1","3","2","6","1","3","2","5","7","5","2","2","2","2","2","1","5","2","5","5","6","5","2","3","6","1","6","6","7","3","3","766374165644316674","应","15","Female","[""好她"",""坏我"",""坏她"",""好我""]","[""强她"",""弱我"",""弱她"",""强我""]","","","","","","","","","","","","","","","","","[{""page_index"":0,""viewing_time"":61151}]","","","","","","","","","","","","","","","","","","","","","",""
"114991","","","instructions","9","484396","0.0-8.0-0.0-0.0","5","6","5","5","2","4","4","4","4","5","4","1","-3","1","0","1","0","1","1","4","4","5","4","4","4","5","4","5","5","6","6","4","4","2","6","7","6","8","5","5","3","3","6","2","7","1","6","5","1","3","2","6","1","3","2","5","7","5","2","2","2","2","2","1","5","2","5","5","6","5","2","3","6","1","6","6","7","3","3","766374165644316674","应","15","Female","[""好她"",""坏我"",""坏她"",""好我""]","[""强她"",""弱我"",""弱她"",""强我""]","","","","","","","","","","","","","","","","","[{""page_index"":0,""viewing_time"":59777},{""page_index"":1,""viewing_time"":50665},{""page_index"":2,""viewing_time"":2303},{""page_index"":3,""viewing_time"":2245}]","","","","","","","","","","","","","","","","","","","","","",""
"779","","f","psychophysics","10","486178","0.0-8.0-0.0-1.0-0.0-0.0","5","6","5","5","2","4","4","4","4","5","4","1","-3","1","0","1","0","1","1","4","4","5","4","4","4","5","4","5","5","6","6","4","4","2","6","7","6","8","5","5","3","3","6","2","7","1","6","5","1","3","2","6","1","3","2","5","7","5","2","2","2","2","2","1","5","2","5","5","6","5","2","3","6","1","6","6","7","3","3","766374165644316674","应","15","Female","[""好她"",""坏我"",""坏她"",""好我""]","[""强她"",""弱我"",""弱她"",""强我""]","","","","","","","","nonmatch","","","","","","","","","","key","f","16.664150943395896","747.8345776424576","416.9343220484498","f","true","nonmatch","img/triangle.png","坏她","好她","prac_ALT2_moral","practice_moral","","","","","","","","",""
"null","<span style='color:GreenYellow; font-size: 70px;'>正确! </span>","null","html-keyboard-response","11","486686","0.0-8.0-0.0-1.0-0.0-1.0","5","6","5","5","2","4","4","4","4","5","4","1","-3","1","0","1","0","1","1","4","4","5","4","4","4","5","4","5","5","6","6","4","4","2","6","7","6","8","5","5","3","3","6","2","7","1","6","5","1","3","2","6","1","3","2","5","7","5","2","2","2","2","2","1","5","2","5","5","6","5","2","3","6","1","6","6","7","3","3","766374165644316674","应","15","Female","[""好她"",""坏我"",""坏她"",""好我""]","[""强她"",""弱我"",""弱她"",""强我""]","","","","","","","","","","","","","","","","","","","","","","","","","","","","","","feedback_test","","","","","","","","",""
"875","","j","psychophysics","12","488563","0.0-8.0-0.0-1.0-0.0-0.1","5","6","5","5","2","4","4","4","4","5","4","1","-3","1","0","1","0","1","1","4","4","5","4","4","4","5","4","5","5","6","6","4","4","2","6","7","6","8","5","5","3","3","6","2","7","1","6","5","1","3","2","6","1","3","2","5","7","5","2","2","2","2","2","1","5","2","5","5","6","5","2","3","6","1","6","6","7","3","3","766374165644316674","应","15","Female","[""好她"",""坏我"",""坏她"",""好我""]","[""强她"",""弱我"",""弱她"",""强我""]","","","","","","","","match","","","","","","","","","","key","j","16.663963963963546","747.8345776424576","416.9343220484498","f","false","nonmatch","img/ellipse.png","好我","坏我","prac_ALT2_moral","practice_moral","","","","","","","","",""
"null","<span style='color:red; font-size: 70px;'>错误! </span>","null","html-keyboard-response","13","489063","0.0-8.0-0.0-1.0-0.0-1.1","5","6","5","5","2","4","4","4","4","5","4","1","-3","1","0","1","0","1","1","4","4","5","4","4","4","5","4","5","5","6","6","4","4","2","6","7","6","8","5","5","3","3","6","2","7","1","6","5","1","3","2","6","1","3","2","5","7","5","2","2","2","2","2","1","5","2","5","5","6","5","2","3","6","1","6","6","7","3","3","766374165644316674","应","15","Female","[""好她"",""坏我"",""坏她"",""好我""]","[""强她"",""弱我"",""弱她"",""强我""]","","","","","","","","","","","","","","","","","","","","","","","","","","","","","","feedback_test","","","","","","","","",""
"null","","null","psychophysics","14","491266","0.0-8.0-0.0-1.0-0.0-0.2","5","6","5","5","2","4","4","4","4","5","4","1","-3","1","0","1","0","1","1","4","4","5","4","4","4","5","4","5","5","6","6","4","4","2","6","7","6","8","5","5","3","3","6","2","7","1","6","5","1","3","2","6","1","3","2","5","7","5","2","2","2","2","2","1","5","2","5","5","6","5","2","3","6","1","6","6","7","3","3","766374165644316674","应","15","Female","[""好她"",""坏我"",""坏她"",""好我""]","[""强她"",""弱我"",""弱她"",""强我""]","","","","","","","","null","","","","","","","","","","key","null","16.66488549618303","747.8345776424576","416.9343220484498","f","false","nonmatch","img/hexagon.png","好她","坏她","prac_ALT2_moral","practice_moral","","","","","","","","",""
"null","<span class='add_' style='color:yellow; font-size: 70px;'> 太慢! </span>","null","html-keyboard-response","15","491767","0.0-8.0-0.0-1.0-0.0-1.2","5","6","5","5","2","4","4","4","4","5","4","1","-3","1","0","1","0","1","1","4","4","5","4","4","4","5","4","5","5","6","6","4","4","2","6","7","6","8","5","5","3","3","6","2","7","1","6","5","1","3","2","6","1","3","2","5","7","5","2","2","2","2","2","1","5","2","5","5","6","5","2","3","6","1","6","6","7","3","3","766374165644316674","应","15","Female","[""好她"",""坏我"",""坏她"",""好我""]","[""强她"",""弱我"",""弱她"",""强我""]","","","","","","","","","","","","","","","","","","","","","","","","","","","","","","feedback_test","","","","","","","","",""
"829","","f","psychophysics","16","493597","0.0-8.0-0.0-1.0-0.0-0.3","5","6","5","5","2","4","4","4","4","5","4","1","-3","1","0","1","0","1","1","4","4","5","4","4","4","5","4","5","5","6","6","4","4","2","6","7","6","8","5","5","3","3","6","2","7","1","6","5","1","3","2","6","1","3","2","5","7","5","2","2","2","2","2","1","5","2","5","5","6","5","2","3","6","1","6","6","7","3","3","766374165644316674","应","15","Female","[""好她"",""坏我"",""坏她"",""好我""]","[""强她"",""弱我"",""弱她"",""强我""]","","","","","","","","nonmatch","","","","","","","","","","key","f","16.665137614678898","747.8345776424576","416.9343220484498","j","false","match","img/hexagon.png","坏她","坏她","prac_ALT2_moral","practice_moral","","","","","","","","",""
"null","<span style='color:red; font-size: 70px;'>错误! </span>","null","html-keyboard-response","17","494098","0.0-8.0-0.0-1.0-0.0-1.3","5","6","5","5","2","4","4","4","4","5","4","1","-3","1","0","1","0","1","1","4","4","5","4","4","4","5","4","5","5","6","6","4","4","2","6","7","6","8","5","5","3","3","6","2","7","1","6","5","1","3","2","6","1","3","2","5","7","5","2","2","2","2","2","1","5","2","5","5","6","5","2","3","6","1","6","6","7","3","3","766374165644316674","应","15","Female","[""好她"",""坏我"",""坏她"",""好我""]","[""强她"",""弱我"",""弱她"",""强我""]","","","","","","","","","","","","","","","","","","","","","","","","","","","","","","feedback_test","","","","","","","","",""
"1015","","f","psychophysics","18","496114","0.0-8.0-0.0-1.0-0.0-0.4","5","6","5","5","2","4","4","4","4","5","4","1","-3","1","0","1","0","1","1","4","4","5","4","4","4","5","4","5","5","6","6","4","4","2","6","7","6","8","5","5","3","3","6","2","7","1","6","5","1","3","2","6","1","3","2","5","7","5","2","2","2","2","2","1","5","2","5","5","6","5","2","3","6","1","6","6","7","3","3","766374165644316674","应","15","Female","[""好她"",""坏我"",""坏她"",""好我""]","[""强她"",""弱我"",""弱她"",""强我""]","","","","","","","","nonmatch","","","","","","","","","","key","f","16.665833333333527","747.8345776424576","416.9343220484498","j","false","match","img/triangle.png","好她","好她","prac_ALT2_moral","practice_moral","","","","","","","","",""
"null","<span style='color:red; font-size: 70px;'>错误! </span>","null","html-keyboard-response","19","496616","0.0-8.0-0.0-1.0-0.0-1.4","5","6","5","5","2","4","4","4","4","5","4","1","-3","1","0","1","0","1","1","4","4","5","4","4","4","5","4","5","5","6","6","4","4","2","6","7","6","8","5","5","3","3","6","2","7","1","6","5","1","3","2","6","1","3","2","5","7","5","2","2","2","2","2","1","5","2","5","5","6","5","2","3","6","1","6","6","7","3","3","766374165644316674","应","15","Female","[""好她"",""坏我"",""坏她"",""好我""]","[""强她"",""弱我"",""弱她"",""强我""]","","","","","","","","","","","","","","","","","","","","","","","","","","","","","","feedback_test","","","","","","","","",""
"null","","null","psychophysics","20","498818","0.0-8.0-0.0-1.0-0.0-0.5","5","6","5","5","2","4","4","4","4","5","4","1","-3","1","0","1","0","1","1","4","4","5","4","4","4","5","4","5","5","6","6","4","4","2","6","7","6","8","5","5","3","3","6","2","7","1","6","5","1","3","2","6","1","3","2","5","7","5","2","2","2","2","2","1","5","2","5","5","6","5","2","3","6","1","6","6","7","3","3","766374165644316674","应","15","Female","[""好她"",""坏我"",""坏她"",""好我""]","[""强她"",""弱我"",""弱她"",""强我""]","","","","","","","","null","","","","","","","","","","key","null","16.664393939394028","747.8345776424576","416.9343220484498","f","false","nonmatch","img/triangle.png","坏我","好她","prac_ALT2_moral","practice_moral","","","","","","","","",""
"null","<span class='add_' style='color:yellow; font-size: 70px;'> 太慢! </span>","null","html-keyboard-response","21","499319","0.0-8.0-0.0-1.0-0.0-1.5","5","6","5","5","2","4","4","4","4","5","4","1","-3","1","0","1","0","1","1","4","4","5","4","4","4","5","4","5","5","6","6","4","4","2","6","7","6","8","5","5","3","3","6","2","7","1","6","5","1","3","2","6","1","3","2","5","7","5","2","2","2","2","2","1","5","2","5","5","6","5","2","3","6","1","6","6","7","3","3","766374165644316674","应","15","Female","[""好她"",""坏我"",""坏她"",""好我""]","[""强她"",""弱我"",""弱她"",""强我""]","","","","","","","","","","","","","","","","","","","","","","","","","","","","","","feedback_test","","","","","","","","",""
"830","","f","psychophysics","22","501151","0.0-8.0-0.0-1.0-0.0-0.6","5","6","5","5","2","4","4","4","4","5","4","1","-3","1","0","1","0","1","1","4","4","5","4","4","4","5","4","5","5","6","6","4","4","2","6","7","6","8","5","5","3","3","6","2","7","1","6","5","1","3","2","6","1","3","2","5","7","5","2","2","2","2","2","1","5","2","5","5","6","5","2","3","6","1","6","6","7","3","3","766374165644316674","应","15","Female","[""好她"",""坏我"",""坏她"",""好我""]","[""强她"",""弱我"",""弱她"",""强我""]","","","","","","","","nonmatch","","","","","","","","","","key","f","16.662962962963288","747.8345776424576","416.9343220484498","f","true","nonmatch","img/square.png","坏她","好我","prac_ALT2_moral","practice_moral","","","","","","","","",""
"null","<span style='color:GreenYellow; font-size: 70px;'>正确! </span>","null","html-keyboard-response","23","501652","0.0-8.0-0.0-1.0-0.0-1.6","5","6","5","5","2","4","4","4","4","5","4","1","-3","1","0","1","0","1","1","4","4","5","4","4","4","5","4","5","5","6","6","4","4","2","6","7","6","8","5","5","3","3","6","2","7","1","6","5","1","3","2","6","1","3","2","5","7","5","2","2","2","2","2","1","5","2","5","5","6","5","2","3","6","1","6","6","7","3","3","766374165644316674","应","15","Female","[""好她"",""坏我"",""坏她"",""好我""]","[""强她"",""弱我"",""弱她"",""强我""]","","","","","","","","","","","","","","","","","","","","","","","","","","","","","","feedback_test","","","","","","","","",""
"762","","f","psychophysics","24","503415","0.0-8.0-0.0-1.0-0.0-0.7","5","6","5","5","2","4","4","4","4","5","4","1","-3","1","0","1","0","1","1","4","4","5","4","4","4","5","4","5","5","6","6","4","4","2","6","7","6","8","5","5","3","3","6","2","7","1","6","5","1","3","2","6","1","3","2","5","7","5","2","2","2","2","2","1","5","2","5","5","6","5","2","3","6","1","6","6","7","3","3","766374165644316674","应","15","Female","[""好她"",""坏我"",""坏她"",""好我""]","[""强她"",""弱我"",""弱她"",""强我""]","","","","","","","","nonmatch","","","","","","","","","","key","f","16.66346153846154","747.8345776424576","416.9343220484498","j","false","match","img/hexagon.png","坏她","坏她","prac_ALT2_moral","practice_moral","","","","","","","","",""
"null","<span style='color:red; font-size: 70px;'>错误! </span>","null","html-keyboard-response","25","503916","0.0-8.0-0.0-1.0-0.0-1.7","5","6","5","5","2","4","4","4","4","5","4","1","-3","1","0","1","0","1","1","4","4","5","4","4","4","5","4","5","5","6","6","4","4","2","6","7","6","8","5","5","3","3","6","2","7","1","6","5","1","3","2","6","1","3","2","5","7","5","2","2","2","2","2","1","5","2","5","5","6","5","2","3","6","1","6","6","7","3","3","766374165644316674","应","15","Female","[""好她"",""坏我"",""坏她"",""好我""]","[""强她"",""弱我"",""弱她"",""强我""]","","","","","","","","","","","","","","","","","","","","","","","","","","","","","","feedback_test","","","","","","","","",""
"910","","f","psychophysics","26","505828","0.0-8.0-0.0-1.0-0.0-0.8","5","6","5","5","2","4","4","4","4","5","4","1","-3","1","0","1","0","1","1","4","4","5","4","4","4","5","4","5","5","6","6","4","4","2","6","7","6","8","5","5","3","3","6","2","7","1","6","5","1","3","2","6","1","3","2","5","7","5","2","2","2","2","2","1","5","2","5","5","6","5","2","3","6","1","6","6","7","3","3","766374165644316674","应","15","Female","[""好她"",""坏我"",""坏她"",""好我""]","[""强她"",""弱我"",""弱她"",""强我""]","","","","","","","","nonmatch","","","","","","","","","","key","f","16.66315789473664","747.8345776424576","416.9343220484498","f","true","nonmatch","img/ellipse.png","好她","坏我","prac_ALT2_moral","practice_moral","","","","","","","","",""
"null","<span style='color:GreenYellow; font-size: 70px;'>正确! </span>","null","html-keyboard-response","27","506329","0.0-8.0-0.0-1.0-0.0-1.8","5","6","5","5","2","4","4","4","4","5","4","1","-3","1","0","1","0","1","1","4","4","5","4","4","4","5","4","5","5","6","6","4","4","2","6","7","6","8","5","5","3","3","6","2","7","1","6","5","1","3","2","6","1","3","2","5","7","5","2","2","2","2","2","1","5","2","5","5","6","5","2","3","6","1","6","6","7","3","3","766374165644316674","应","15","Female","[""好她"",""坏我"",""坏她"",""好我""]","[""强她"",""弱我"",""弱她"",""强我""]","","","","","","","","","","","","","","","","","","","","","","","","","","","","","","feedback_test","","","","","","","","",""
"591","","j","psychophysics","28","507922","0.0-8.0-0.0-1.0-0.0-0.9","5","6","5","5","2","4","4","4","4","5","4","1","-3","1","0","1","0","1","1","4","4","5","4","4","4","5","4","5","5","6","6","4","4","2","6","7","6","8","5","5","3","3","6","2","7","1","6","5","1","3","2","6","1","3","2","5","7","5","2","2","2","2","2","1","5","2","5","5","6","5","2","3","6","1","6","6","7","3","3","766374165644316674","应","15","Female","[""好她"",""坏我"",""坏她"",""好我""]","[""强她"",""弱我"",""弱她"",""强我""]","","","","","","","","match","","","","","","","","","","key","j","16.664210526316158","747.8345776424576","416.9343220484498","j","true","match","img/square.png","好我","好我","prac_ALT2_moral","practice_moral","","","","","","","","",""
"null","<span style='color:GreenYellow; font-size: 70px;'>正确! </span>","null","html-keyboard-response","29","508422","0.0-8.0-0.0-1.0-0.0-1.9","5","6","5","5","2","4","4","4","4","5","4","1","-3","1","0","1","0","1","1","4","4","5","4","4","4","5","4","5","5","6","6","4","4","2","6","7","6","8","5","5","3","3","6","2","7","1","6","5","1","3","2","6","1","3","2","5","7","5","2","2","2","2","2","1","5","2","5","5","6","5","2","3","6","1","6","6","7","3","3","766374165644316674","应","15","Female","[""好她"",""坏我"",""坏她"",""好我""]","[""强她"",""弱我"",""弱她"",""强我""]","","","","","","","","","","","","","","","","","","","","","","","","","","","","","","feedback_test","","","","","","","","",""
"681","","f","psychophysics","30","510105","0.0-8.0-0.0-1.0-0.0-0.10","5","6","5","5","2","4","4","4","4","5","4","1","-3","1","0","1","0","1","1","4","4","5","4","4","4","5","4","5","5","6","6","4","4","2","6","7","6","8","5","5","3","3","6","2","7","1","6","5","1","3","2","6","1","3","2","5","7","5","2","2","2","2","2","1","5","2","5","5","6","5","2","3","6","1","6","6","7","3","3","766374165644316674","应","15","Female","[""好她"",""坏我"",""坏她"",""好我""]","[""强她"",""弱我"",""弱她"",""强我""]","","","","","","","","nonmatch","","","","","","","","","","key","f","16.66399999999965","747.8345776424576","416.9343220484498","f","true","nonmatch","img/triangle.png","好我","好她","prac_ALT2_moral","practice_moral","","","","","","","","",""
"null","<span style='color:GreenYellow; font-size: 70px;'>正确! </span>","null","html-keyboard-response","31","510606","0.0-8.0-0.0-1.0-0.0-1.10","5","6","5","5","2","4","4","4","4","5","4","1","-3","1","0","1","0","1","1","4","4","5","4","4","4","5","4","5","5","6","6","4","4","2","6","7","6","8","5","5","3","3","6","2","7","1","6","5","1","3","2","6","1","3","2","5","7","5","2","2","2","2","2","1","5","2","5","5","6","5","2","3","6","1","6","6","7","3","3","766374165644316674","应","15","Female","[""好她"",""坏我"",""坏她"",""好我""]","[""强她"",""弱我"",""弱她"",""强我""]","","","","","","","","","","","","","","","","","","","","","","","","","","","","","","feedback_test","","","","","","","","",""
"619","","f","psychophysics","32","512227","0.0-8.0-0.0-1.0-0.0-0.11","5","6","5","5","2","4","4","4","4","5","4","1","-3","1","0","1","0","1","1","4","4","5","4","4","4","5","4","5","5","6","6","4","4","2","6","7","6","8","5","5","3","3","6","2","7","1","6","5","1","3","2","6","1","3","2","5","7","5","2","2","2","2","2","1","5","2","5","5","6","5","2","3","6","1","6","6","7","3","3","766374165644316674","应","15","Female","[""好她"",""坏我"",""坏她"",""好我""]","[""强她"",""弱我"",""弱她"",""强我""]","","","","","","","","nonmatch","","","","","","","","","","key","f","16.664583333333212","747.8345776424576","416.9343220484498","j","false","match","img/square.png","好我","好我","prac_ALT2_moral","practice_moral","","","","","","","","",""
"null","<span style='color:red; font-size: 70px;'>错误! </span>","null","html-keyboard-response","33","512728","0.0-8.0-0.0-1.0-0.0-1.11","5","6","5","5","2","4","4","4","4","5","4","1","-3","1","0","1","0","1","1","4","4","5","4","4","4","5","4","5","5","6","6","4","4","2","6","7","6","8","5","5","3","3","6","2","7","1","6","5","1","3","2","6","1","3","2","5","7","5","2","2","2","2","2","1","5","2","5","5","6","5","2","3","6","1","6","6","7","3","3","766374165644316674","应","15","Female","[""好她"",""坏我"",""坏她"",""好我""]","[""强她"",""弱我"",""弱她"",""强我""]","","","","","","","","","","","","","","","","","","","","","","","","","","","","","","feedback_test","","","","","","","","",""
"720","","j","psychophysics","34","514451","0.0-8.0-0.0-1.0-0.0-0.12","5","6","5","5","2","4","4","4","4","5","4","1","-3","1","0","1","0","1","1","4","4","5","4","4","4","5","4","5","5","6","6","4","4","2","6","7","6","8","5","5","3","3","6","2","7","1","6","5","1","3","2","6","1","3","2","5","7","5","2","2","2","2","2","1","5","2","5","5","6","5","2","3","6","1","6","6","7","3","3","766374165644316674","应","15","Female","[""好她"",""坏我"",""坏她"",""好我""]","[""强她"",""弱我"",""弱她"",""强我""]","","","","","","","","match","","","","","","","","","","key","j","16.666019417475503","747.8345776424576","416.9343220484498","f","false","nonmatch","img/ellipse.png","坏她","坏我","prac_ALT2_moral","practice_moral","","","","","","","","",""
"null","<span style='color:red; font-size: 70px;'>错误! </span>","null","html-keyboard-response","35","514952","0.0-8.0-0.0-1.0-0.0-1.12","5","6","5","5","2","4","4","4","4","5","4","1","-3","1","0","1","0","1","1","4","4","5","4","4","4","5","4","5","5","6","6","4","4","2","6","7","6","8","5","5","3","3","6","2","7","1","6","5","1","3","2","6","1","3","2","5","7","5","2","2","2","2","2","1","5","2","5","5","6","5","2","3","6","1","6","6","7","3","3","766374165644316674","应","15","Female","[""好她"",""坏我"",""坏她"",""好我""]","[""强她"",""弱我"",""弱她"",""强我""]","","","","","","","","","","","","","","","","","","","","","","","","","","","","","","feedback_test","","","","","","","","",""
"424","","f","psychophysics","36","516378","0.0-8.0-0.0-1.0-0.0-0.13","5","6","5","5","2","4","4","4","4","5","4","1","-3","1","0","1","0","1","1","4","4","5","4","4","4","5","4","5","5","6","6","4","4","2","6","7","6","8","5","5","3","3","6","2","7","1","6","5","1","3","2","6","1","3","2","5","7","5","2","2","2","2","2","1","5","2","5","5","6","5","2","3","6","1","6","6","7","3","3","766374165644316674","应","15","Female","[""好她"",""坏我"",""坏她"",""好我""]","[""强她"",""弱我"",""弱她"",""强我""]","","","","","","","","nonmatch","","","","","","","","","","key","f","16.664285714285576","747.8345776424576","416.9343220484498","f","true","nonmatch","img/hexagon.png","坏我","坏她","prac_ALT2_moral","practice_moral","","","","","","","","",""
"null","<span style='color:GreenYellow; font-size: 70px;'>正确! </span>","null","html-keyboard-response","37","516879","0.0-8.0-0.0-1.0-0.0-1.13","5","6","5","5","2","4","4","4","4","5","4","1","-3","1","0","1","0","1","1","4","4","5","4","4","4","5","4","5","5","6","6","4","4","2","6","7","6","8","5","5","3","3","6","2","7","1","6","5","1","3","2","6","1","3","2","5","7","5","2","2","2","2","2","1","5","2","5","5","6","5","2","3","6","1","6","6","7","3","3","766374165644316674","应","15","Female","[""好她"",""坏我"",""坏她"",""好我""]","[""强她"",""弱我"",""弱她"",""强我""]","","","","","","","","","","","","","","","","","","","","","","","","","","","","","","feedback_test","","","","","","","","",""
"341","","j","psychophysics","38","518222","0.0-8.0-0.0-1.0-0.0-0.14","5","6","5","5","2","4","4","4","4","5","4","1","-3","1","0","1","0","1","1","4","4","5","4","4","4","5","4","5","5","6","6","4","4","2","6","7","6","8","5","5","3","3","6","2","7","1","6","5","1","3","2","6","1","3","2","5","7","5","2","2","2","2","2","1","5","2","5","5","6","5","2","3","6","1","6","6","7","3","3","766374165644316674","应","15","Female","[""好她"",""坏我"",""坏她"",""好我""]","[""强她"",""弱我"",""弱她"",""强我""]","","","","","","","","match","","","","","","","","","","key","j","16.665000000000145","747.8345776424576","416.9343220484498","f","false","nonmatch","img/square.png","好她","好我","prac_ALT2_moral","practice_moral","","","","","","","","",""
"null","<span style='color:red; font-size: 70px;'>错误! </span>","null","html-keyboard-response","39","518724","0.0-8.0-0.0-1.0-0.0-1.14","5","6","5","5","2","4","4","4","4","5","4","1","-3","1","0","1","0","1","1","4","4","5","4","4","4","5","4","5","5","6","6","4","4","2","6","7","6","8","5","5","3","3","6","2","7","1","6","5","1","3","2","6","1","3","2","5","7","5","2","2","2","2","2","1","5","2","5","5","6","5","2","3","6","1","6","6","7","3","3","766374165644316674","应","15","Female","[""好她"",""坏我"",""坏她"",""好我""]","[""强她"",""弱我"",""弱她"",""强我""]","","","","","","","","","","","","","","","","","","","","","","","","","","","","","","feedback_test","","","","","","","","",""
"188","","f","psychophysics","40","519914","0.0-8.0-0.0-1.0-0.0-0.15","5","6","5","5","2","4","4","4","4","5","4","1","-3","1","0","1","0","1","1","4","4","5","4","4","4","5","4","5","5","6","6","4","4","2","6","7","6","8","5","5","3","3","6","2","7","1","6","5","1","3","2","6","1","3","2","5","7","5","2","2","2","2","2","1","5","2","5","5","6","5","2","3","6","1","6","6","7","3","3","766374165644316674","应","15","Female","[""好她"",""坏我"",""坏她"",""好我""]","[""强她"",""弱我"",""弱她"",""强我""]","","","","","","","","nonmatch","","","","","","","","","","key","f","16.667142857142192","747.8345776424576","416.9343220484498","f","true","nonmatch","img/square.png","坏我","好我","prac_ALT2_moral","practice_moral","","","","","","","","",""
"null","<span style='color:yellow; font-size: 70px;'>过快! </span>","null","html-keyboard-response","41","520416","0.0-8.0-0.0-1.0-0.0-1.15","5","6","5","5","2","4","4","4","4","5","4","1","-3","1","0","1","0","1","1","4","4","5","4","4","4","5","4","5","5","6","6","4","4","2","6","7","6","8","5","5","3","3","6","2","7","1","6","5","1","3","2","6","1","3","2","5","7","5","2","2","2","2","2","1","5","2","5","5","6","5","2","3","6","1","6","6","7","3","3","766374165644316674","应","15","Female","[""好她"",""坏我"",""坏她"",""好我""]","[""强她"",""弱我"",""弱她"",""强我""]","","","","","","","","","","","","","","","","","","","","","","","","","","","","","","feedback_test","","","","","","","","",""
"335","","j","psychophysics","42","521753","0.0-8.0-0.0-1.0-0.0-0.16","5","6","5","5","2","4","4","4","4","5","4","1","-3","1","0","1","0","1","1","4","4","5","4","4","4","5","4","5","5","6","6","4","4","2","6","7","6","8","5","5","3","3","6","2","7","1","6","5","1","3","2","6","1","3","2","5","7","5","2","2","2","2","2","1","5","2","5","5","6","5","2","3","6","1","6","6","7","3","3","766374165644316674","应","15","Female","[""好她"",""坏我"",""坏她"",""好我""]","[""强她"",""弱我"",""弱她"",""强我""]","","","","","","","","match","","","","","","","","","","key","j","16.665822784809833","747.8345776424576","416.9343220484498","j","true","match","img/hexagon.png","坏她","坏她","prac_ALT2_moral","practice_moral","","","","","","","","",""
"null","<span style='color:GreenYellow; font-size: 70px;'>正确! </span>","null","html-keyboard-response","43","522255","0.0-8.0-0.0-1.0-0.0-1.16","5","6","5","5","2","4","4","4","4","5","4","1","-3","1","0","1","0","1","1","4","4","5","4","4","4","5","4","5","5","6","6","4","4","2","6","7","6","8","5","5","3","3","6","2","7","1","6","5","1","3","2","6","1","3","2","5","7","5","2","2","2","2","2","1","5","2","5","5","6","5","2","3","6","1","6","6","7","3","3","766374165644316674","应","15","Female","[""好她"",""坏我"",""坏她"",""好我""]","[""强她"",""弱我"",""弱她"",""强我""]","","","","","","","","","","","","","","","","","","","","","","","","","","","","","","feedback_test","","","","","","","","",""
"532","","f","psychophysics","44","523788","0.0-8.0-0.0-1.0-0.0-0.17","5","6","5","5","2","4","4","4","4","5","4","1","-3","1","0","1","0","1","1","4","4","5","4","4","4","5","4","5","5","6","6","4","4","2","6","7","6","8","5","5","3","3","6","2","7","1","6","5","1","3","2","6","1","3","2","5","7","5","2","2","2","2","2","1","5","2","5","5","6","5","2","3","6","1","6","6","7","3","3","766374165644316674","应","15","Female","[""好她"",""坏我"",""坏她"",""好我""]","[""强她"",""弱我"",""弱她"",""强我""]","","","","","","","","nonmatch","","","","","","","","","","key","f","16.664835164835804","747.8345776424576","416.9343220484498","j","false","match","img/square.png","好我","好我","prac_ALT2_moral","practice_moral","","","","","","","","",""
"null","<span style='color:red; font-size: 70px;'>错误! </span>","null","html-keyboard-response","45","524289","0.0-8.0-0.0-1.0-0.0-1.17","5","6","5","5","2","4","4","4","4","5","4","1","-3","1","0","1","0","1","1","4","4","5","4","4","4","5","4","5","5","6","6","4","4","2","6","7","6","8","5","5","3","3","6","2","7","1","6","5","1","3","2","6","1","3","2","5","7","5","2","2","2","2","2","1","5","2","5","5","6","5","2","3","6","1","6","6","7","3","3","766374165644316674","应","15","Female","[""好她"",""坏我"",""坏她"",""好我""]","[""强她"",""弱我"",""弱她"",""强我""]","","","","","","","","","","","","","","","","","","","","","","","","","","","","","","feedback_test","","","","","","","","",""
"260","","j","psychophysics","46","525550","0.0-8.0-0.0-1.0-0.0-0.18","5","6","5","5","2","4","4","4","4","5","4","1","-3","1","0","1","0","1","1","4","4","5","4","4","4","5","4","5","5","6","6","4","4","2","6","7","6","8","5","5","3","3","6","2","7","1","6","5","1","3","2","6","1","3","2","5","7","5","2","2","2","2","2","1","5","2","5","5","6","5","2","3","6","1","6","6","7","3","3","766374165644316674","应","15","Female","[""好她"",""坏我"",""坏她"",""好我""]","[""强她"",""弱我"",""弱她"",""强我""]","","","","","","","","match","","","","","","","","","","key","j","16.663999999999067","747.8345776424576","416.9343220484498","j","true","match","img/ellipse.png","坏我","坏我","prac_ALT2_moral","practice_moral","","","","","","","","",""
"null","<span style='color:GreenYellow; font-size: 70px;'>正确! </span>","null","html-keyboard-response","47","526053","0.0-8.0-0.0-1.0-0.0-1.18","5","6","5","5","2","4","4","4","4","5","4","1","-3","1","0","1","0","1","1","4","4","5","4","4","4","5","4","5","5","6","6","4","4","2","6","7","6","8","5","5","3","3","6","2","7","1","6","5","1","3","2","6","1","3","2","5","7","5","2","2","2","2","2","1","5","2","5","5","6","5","2","3","6","1","6","6","7","3","3","766374165644316674","应","15","Female","[""好她"",""坏我"",""坏她"",""好我""]","[""强她"",""弱我"",""弱她"",""强我""]","","","","","","","","","","","","","","","","","","","","","","","","","","","","","","feedback_test","","","","","","","","",""
"617","","j","psychophysics","48","527673","0.0-8.0-0.0-1.0-0.0-0.19","5","6","5","5","2","4","4","4","4","5","4","1","-3","1","0","1","0","1","1","4","4","5","4","4","4","5","4","5","5","6","6","4","4","2","6","7","6","8","5","5","3","3","6","2","7","1","6","5","1","3","2","6","1","3","2","5","7","5","2","2","2","2","2","1","5","2","5","5","6","5","2","3","6","1","6","6","7","3","3","766374165644316674","应","15","Female","[""好她"",""坏我"",""坏她"",""好我""]","[""强她"",""弱我"",""弱她"",""强我""]","","","","","","","","match","","","","","","","","","","key","j","16.66354166666618","747.8345776424576","416.9343220484498","j","true","match","img/ellipse.png","坏我","坏我","prac_ALT2_moral","practice_moral","","","","","","","","",""
"null","<span style='color:GreenYellow; font-size: 70px;'>正确! </span>","null","html-keyboard-response","49","528174","0.0-8.0-0.0-1.0-0.0-1.19","5","6","5","5","2","4","4","4","4","5","4","1","-3","1","0","1","0","1","1","4","4","5","4","4","4","5","4","5","5","6","6","4","4","2","6","7","6","8","5","5","3","3","6","2","7","1","6","5","1","3","2","6","1","3","2","5","7","5","2","2","2","2","2","1","5","2","5","5","6","5","2","3","6","1","6","6","7","3","3","766374165644316674","应","15","Female","[""好她"",""坏我"",""坏她"",""好我""]","[""强她"",""弱我"",""弱她"",""强我""]","","","","","","","","","","","","","","","","","","","","","","","","","","","","","","feedback_test","","","","","","","","",""
"645","","f","psychophysics","50","529821","0.0-8.0-0.0-1.0-0.0-0.20","5","6","5","5","2","4","4","4","4","5","4","1","-3","1","0","1","0","1","1","4","4","5","4","4","4","5","4","5","5","6","6","4","4","2","6","7","6","8","5","5","3","3","6","2","7","1","6","5","1","3","2","6","1","3","2","5","7","5","2","2","2","2","2","1","5","2","5","5","6","5","2","3","6","1","6","6","7","3","3","766374165644316674","应","15","Female","[""好她"",""坏我"",""坏她"",""好我""]","[""强她"",""弱我"",""弱她"",""强我""]","","","","","","","","nonmatch","","","","","","","","","","key","f","16.665306122449692","747.8345776424576","416.9343220484498","j","false","match","img/triangle.png","好她","好她","prac_ALT2_moral","practice_moral","","","","","","","","",""
"null","<span style='color:red; font-size: 70px;'>错误! </span>","null","html-keyboard-response","51","530322","0.0-8.0-0.0-1.0-0.0-1.20","5","6","5","5","2","4","4","4","4","5","4","1","-3","1","0","1","0","1","1","4","4","5","4","4","4","5","4","5","5","6","6","4","4","2","6","7","6","8","5","5","3","3","6","2","7","1","6","5","1","3","2","6","1","3","2","5","7","5","2","2","2","2","2","1","5","2","5","5","6","5","2","3","6","1","6","6","7","3","3","766374165644316674","应","15","Female","[""好她"",""坏我"",""坏她"",""好我""]","[""强她"",""弱我"",""弱她"",""强我""]","","","","","","","","","","","","","","","","","","","","","","","","","","","","","","feedback_test","","","","","","","","",""
"255","","j","psychophysics","52","531579","0.0-8.0-0.0-1.0-0.0-0.21","5","6","5","5","2","4","4","4","4","5","4","1","-3","1","0","1","0","1","1","4","4","5","4","4","4","5","4","5","5","6","6","4","4","2","6","7","6","8","5","5","3","3","6","2","7","1","6","5","1","3","2","6","1","3","2","5","7","5","2","2","2","2","2","1","5","2","5","5","6","5","2","3","6","1","6","6","7","3","3","766374165644316674","应","15","Female","[""好她"",""坏我"",""坏她"",""好我""]","[""强她"",""弱我"",""弱她"",""强我""]","","","","","","","","match","","","","","","","","","","key","j","16.666216216215272","747.8345776424576","416.9343220484498","f","false","nonmatch","img/hexagon.png","好我","坏她","prac_ALT2_moral","practice_moral","","","","","","","","",""
"null","<span style='color:red; font-size: 70px;'>错误! </span>","null","html-keyboard-response","53","532088","0.0-8.0-0.0-1.0-0.0-1.21","5","6","5","5","2","4","4","4","4","5","4","1","-3","1","0","1","0","1","1","4","4","5","4","4","4","5","4","5","5","6","6","4","4","2","6","7","6","8","5","5","3","3","6","2","7","1","6","5","1","3","2","6","1","3","2","5","7","5","2","2","2","2","2","1","5","2","5","5","6","5","2","3","6","1","6","6","7","3","3","766374165644316674","应","15","Female","[""好她"",""坏我"",""坏她"",""好我""]","[""强她"",""弱我"",""弱她"",""强我""]","","","","","","","","","","","","","","","","","","","","","","","","","","","","","","feedback_test","","","","","","","","",""
"325","","f","psychophysics","54","533414","0.0-8.0-0.0-1.0-0.0-0.22","5","6","5","5","2","4","4","4","4","5","4","1","-3","1","0","1","0","1","1","4","4","5","4","4","4","5","4","5","5","6","6","4","4","2","6","7","6","8","5","5","3","3","6","2","7","1","6","5","1","3","2","6","1","3","2","5","7","5","2","2","2","2","2","1","5","2","5","5","6","5","2","3","6","1","6","6","7","3","3","766374165644316674","应","15","Female","[""好她"",""坏我"",""坏她"",""好我""]","[""强她"",""弱我"",""弱她"",""强我""]","","","","","","","","nonmatch","","","","","","","","","","key","f","16.6632911392408","747.8345776424576","416.9343220484498","j","false","match","img/ellipse.png","坏我","坏我","prac_ALT2_moral","practice_moral","","","","","","","","",""
"null","<span style='color:red; font-size: 70px;'>错误! </span>","null","html-keyboard-response","55","533915","0.0-8.0-0.0-1.0-0.0-1.22","5","6","5","5","2","4","4","4","4","5","4","1","-3","1","0","1","0","1","1","4","4","5","4","4","4","5","4","5","5","6","6","4","4","2","6","7","6","8","5","5","3","3","6","2","7","1","6","5","1","3","2","6","1","3","2","5","7","5","2","2","2","2","2","1","5","2","5","5","6","5","2","3","6","1","6","6","7","3","3","766374165644316674","应","15","Female","[""好她"",""坏我"",""坏她"",""好我""]","[""强她"",""弱我"",""弱她"",""强我""]","","","","","","","","","","","","","","","","","","","","","","","","","","","","","","feedback_test","","","","","","","","",""
"176","","j","psychophysics","56","535093","0.0-8.0-0.0-1.0-0.0-0.23","5","6","5","5","2","4","4","4","4","5","4","1","-3","1","0","1","0","1","1","4","4","5","4","4","4","5","4","5","5","6","6","4","4","2","6","7","6","8","5","5","3","3","6","2","7","1","6","5","1","3","2","6","1","3","2","5","7","5","2","2","2","2","2","1","5","2","5","5","6","5","2","3","6","1","6","6","7","3","3","766374165644316674","应","15","Female","[""好她"",""坏我"",""坏她"",""好我""]","[""强她"",""弱我"",""弱她"",""强我""]","","","","","","","","match","","","","","","","","","","key","j","16.663768115942705","747.8345776424576","416.9343220484498","j","true","match","img/triangle.png","好她","好她","prac_ALT2_moral","practice_moral","","","","","","","","",""
"null","<span style='color:yellow; font-size: 70px;'>过快! </span>","null","html-keyboard-response","57","535594","0.0-8.0-0.0-1.0-0.0-1.23","5","6","5","5","2","4","4","4","4","5","4","1","-3","1","0","1","0","1","1","4","4","5","4","4","4","5","4","5","5","6","6","4","4","2","6","7","6","8","5","5","3","3","6","2","7","1","6","5","1","3","2","6","1","3","2","5","7","5","2","2","2","2","2","1","5","2","5","5","6","5","2","3","6","1","6","6","7","3","3","766374165644316674","应","15","Female","[""好她"",""坏我"",""坏她"",""好我""]","[""强她"",""弱我"",""弱她"",""强我""]","","","","","","","","","","","","","","","","","","","","","","","","","","","","","","feedback_test","","","","","","","","",""
"787","","f","psychophysics","58","537383","0.0-8.0-0.0-1.0-0.0-0.24","5","6","5","5","2","4","4","4","4","5","4","1","-3","1","0","1","0","1","1","4","4","5","4","4","4","5","4","5","5","6","6","4","4","2","6","7","6","8","5","5","3","3","6","2","7","1","6","5","1","3","2","6","1","3","2","5","7","5","2","2","2","2","2","1","5","2","5","5","6","5","2","3","6","1","6","6","7","3","3","766374165644316674","应","15","Female","[""好她"",""坏我"",""坏她"",""好我""]","[""强她"",""弱我"",""弱她"",""强我""]","","","","","","","","nonmatch","","","","","","","","","","key","f","16.664485981308193","747.8345776424576","416.9343220484498","j","false","match","img/ellipse.png","坏我","坏我","prac_ALT2_moral","practice_moral","","","","","","","","",""
"null","<span style='color:red; font-size: 70px;'>错误! </span>","null","html-keyboard-response","59","537884","0.0-8.0-0.0-1.0-0.0-1.24","5","6","5","5","2","4","4","4","4","5","4","1","-3","1","0","1","0","1","1","4","4","5","4","4","4","5","4","5","5","6","6","4","4","2","6","7","6","8","5","5","3","3","6","2","7","1","6","5","1","3","2","6","1","3","2","5","7","5","2","2","2","2","2","1","5","2","5","5","6","5","2","3","6","1","6","6","7","3","3","766374165644316674","应","15","Female","[""好她"",""坏我"",""坏她"",""好我""]","[""强她"",""弱我"",""弱她"",""强我""]","","","","","","","","","","","","","","","","","","","","","","","","","","","","","","feedback_test","","","","","","","","",""
"781","","j","psychophysics","60","539667","0.0-8.0-0.0-1.0-0.0-0.25","5","6","5","5","2","4","4","4","4","5","4","1","-3","1","0","1","0","1","1","4","4","5","4","4","4","5","4","5","5","6","6","4","4","2","6","7","6","8","5","5","3","3","6","2","7","1","6","5","1","3","2","6","1","3","2","5","7","5","2","2","2","2","2","1","5","2","5","5","6","5","2","3","6","1","6","6","7","3","3","766374165644316674","应","15","Female","[""好她"",""坏我"",""坏她"",""好我""]","[""强她"",""弱我"",""弱她"",""强我""]","","","","","","","","match","","","","","","","","","","key","j","16.666037735848835","747.8345776424576","416.9343220484498","f","false","nonmatch","img/triangle.png","好我","好她","prac_ALT2_moral","practice_moral","","","","","","","","",""
"null","<span style='color:red; font-size: 70px;'>错误! </span>","null","html-keyboard-response","61","540168","0.0-8.0-0.0-1.0-0.0-1.25","5","6","5","5","2","4","4","4","4","5","4","1","-3","1","0","1","0","1","1","4","4","5","4","4","4","5","4","5","5","6","6","4","4","2","6","7","6","8","5","5","3","3","6","2","7","1","6","5","1","3","2","6","1","3","2","5","7","5","2","2","2","2","2","1","5","2","5","5","6","5","2","3","6","1","6","6","7","3","3","766374165644316674","应","15","Female","[""好她"",""坏我"",""坏她"",""好我""]","[""强她"",""弱我"",""弱她"",""强我""]","","","","","","","","","","","","","","","","","","","","","","","","","","","","","","feedback_test","","","","","","","","",""
"674","","j","psychophysics","62","541843","0.0-8.0-0.0-1.0-0.0-0.26","5","6","5","5","2","4","4","4","4","5","4","1","-3","1","0","1","0","1","1","4","4","5","4","4","4","5","4","5","5","6","6","4","4","2","6","7","6","8","5","5","3","3","6","2","7","1","6","5","1","3","2","6","1","3","2","5","7","5","2","2","2","2","2","1","5","2","5","5","6","5","2","3","6","1","6","6","7","3","3","766374165644316674","应","15","Female","[""好她"",""坏我"",""坏她"",""好我""]","[""强她"",""弱我"",""弱她"",""强我""]","","","","","","","","match","","","","","","","","","","key","j","16.664646464646935","747.8345776424576","416.9343220484498","j","true","match","img/ellipse.png","坏我","坏我","prac_ALT2_moral","practice_moral","","","","","","","","",""
"null","<span style='color:GreenYellow; font-size: 70px;'>正确! </span>","null","html-keyboard-response","63","542345","0.0-8.0-0.0-1.0-0.0-1.26","5","6","5","5","2","4","4","4","4","5","4","1","-3","1","0","1","0","1","1","4","4","5","4","4","4","5","4","5","5","6","6","4","4","2","6","7","6","8","5","5","3","3","6","2","7","1","6","5","1","3","2","6","1","3","2","5","7","5","2","2","2","2","2","1","5","2","5","5","6","5","2","3","6","1","6","6","7","3","3","766374165644316674","应","15","Female","[""好她"",""坏我"",""坏她"",""好我""]","[""强她"",""弱我"",""弱她"",""强我""]","","","","","","","","","","","","","","","","","","","","","","","","","","","","","","feedback_test","","","","","","","","",""
"956","","j","psychophysics","64","544302","0.0-8.0-0.0-1.0-0.0-0.27","5","6","5","5","2","4","4","4","4","5","4","1","-3","1","0","1","0","1","1","4","4","5","4","4","4","5","4","5","5","6","6","4","4","2","6","7","6","8","5","5","3","3","6","2","7","1","6","5","1","3","2","6","1","3","2","5","7","5","2","2","2","2","2","1","5","2","5","5","6","5","2","3","6","1","6","6","7","3","3","766374165644316674","应","15","Female","[""好她"",""坏我"",""坏她"",""好我""]","[""强她"",""弱我"",""弱她"",""强我""]","","","","","","","","match","","","","","","","","","","key","j","16.664655172413593","747.8345776424576","416.9343220484498","j","true","match","img/hexagon.png","坏她","坏她","prac_ALT2_moral","practice_moral","","","","","","","","",""
"null","<span style='color:GreenYellow; font-size: 70px;'>正确! </span>","null","html-keyboard-response","65","544803","0.0-8.0-0.0-1.0-0.0-1.27","5","6","5","5","2","4","4","4","4","5","4","1","-3","1","0","1","0","1","1","4","4","5","4","4","4","5","4","5","5","6","6","4","4","2","6","7","6","8","5","5","3","3","6","2","7","1","6","5","1","3","2","6","1","3","2","5","7","5","2","2","2","2","2","1","5","2","5","5","6","5","2","3","6","1","6","6","7","3","3","766374165644316674","应","15","Female","[""好她"",""坏我"",""坏她"",""好我""]","[""强她"",""弱我"",""弱她"",""强我""]","","","","","","","","","","","","","","","","","","","","","","","","","","","","","","feedback_test","","","","","","","","",""
"748","","f","psychophysics","66","546553","0.0-8.0-0.0-1.0-0.0-0.28","5","6","5","5","2","4","4","4","4","5","4","1","-3","1","0","1","0","1","1","4","4","5","4","4","4","5","4","5","5","6","6","4","4","2","6","7","6","8","5","5","3","3","6","2","7","1","6","5","1","3","2","6","1","3","2","5","7","5","2","2","2","2","2","1","5","2","5","5","6","5","2","3","6","1","6","6","7","3","3","766374165644316674","应","15","Female","[""好她"",""坏我"",""坏她"",""好我""]","[""强她"",""弱我"",""弱她"",""强我""]","","","","","","","","nonmatch","","","","","","","","","","key","f","16.66634615384548","747.8345776424576","416.9343220484498","f","true","nonmatch","img/triangle.png","坏她","好她","prac_ALT2_moral","practice_moral","","","","","","","","",""
"null","<span style='color:GreenYellow; font-size: 70px;'>正确! </span>","null","html-keyboard-response","67","547055","0.0-8.0-0.0-1.0-0.0-1.28","5","6","5","5","2","4","4","4","4","5","4","1","-3","1","0","1","0","1","1","4","4","5","4","4","4","5","4","5","5","6","6","4","4","2","6","7","6","8","5","5","3","3","6","2","7","1","6","5","1","3","2","6","1","3","2","5","7","5","2","2","2","2","2","1","5","2","5","5","6","5","2","3","6","1","6","6","7","3","3","766374165644316674","应","15","Female","[""好她"",""坏我"",""坏她"",""好我""]","[""强她"",""弱我"",""弱她"",""强我""]","","","","","","","","","","","","","","","","","","","","","","","","","","","","","","feedback_test","","","","","","","","",""
"658","","j","psychophysics","68","548715","0.0-8.0-0.0-1.0-0.0-0.29","5","6","5","5","2","4","4","4","4","5","4","1","-3","1","0","1","0","1","1","4","4","5","4","4","4","5","4","5","5","6","6","4","4","2","6","7","6","8","5","5","3","3","6","2","7","1","6","5","1","3","2","6","1","3","2","5","7","5","2","2","2","2","2","1","5","2","5","5","6","5","2","3","6","1","6","6","7","3","3","766374165644316674","应","15","Female","[""好她"",""坏我"",""坏她"",""好我""]","[""强她"",""弱我"",""弱她"",""强我""]","","","","","","","","match","","","","","","","","","","key","j","16.664646464646935","747.8345776424576","416.9343220484498","j","true","match","img/hexagon.png","坏她","坏她","prac_ALT2_moral","practice_moral","","","","","","","","",""
"null","<span style='color:GreenYellow; font-size: 70px;'>正确! </span>","null","html-keyboard-response","69","549217","0.0-8.0-0.0-1.0-0.0-1.29","5","6","5","5","2","4","4","4","4","5","4","1","-3","1","0","1","0","1","1","4","4","5","4","4","4","5","4","5","5","6","6","4","4","2","6","7","6","8","5","5","3","3","6","2","7","1","6","5","1","3","2","6","1","3","2","5","7","5","2","2","2","2","2","1","5","2","5","5","6","5","2","3","6","1","6","6","7","3","3","766374165644316674","应","15","Female","[""好她"",""坏我"",""坏她"",""好我""]","[""强她"",""弱我"",""弱她"",""强我""]","","","","","","","","","","","","","","","","","","","","","","","","","","","","","","feedback_test","","","","","","","","",""
"480","","j","psychophysics","70","550698","0.0-8.0-0.0-1.0-0.0-0.30","5","6","5","5","2","4","4","4","4","5","4","1","-3","1","0","1","0","1","1","4","4","5","4","4","4","5","4","5","5","6","6","4","4","2","6","7","6","8","5","5","3","3","6","2","7","1","6","5","1","3","2","6","1","3","2","5","7","5","2","2","2","2","2","1","5","2","5","5","6","5","2","3","6","1","6","6","7","3","3","766374165644316674","应","15","Female","[""好她"",""坏我"",""坏她"",""好我""]","[""强她"",""弱我"",""弱她"",""强我""]","","","","","","","","match","","","","","","","","","","key","j","16.663636363636627","747.8345776424576","416.9343220484498","j","true","match","img/hexagon.png","坏她","坏她","prac_ALT2_moral","practice_moral","","","","","","","","",""
"null","<span style='color:GreenYellow; font-size: 70px;'>正确! </span>","null","html-keyboard-response","71","551199","0.0-8.0-0.0-1.0-0.0-1.30","5","6","5","5","2","4","4","4","4","5","4","1","-3","1","0","1","0","1","1","4","4","5","4","4","4","5","4","5","5","6","6","4","4","2","6","7","6","8","5","5","3","3","6","2","7","1","6","5","1","3","2","6","1","3","2","5","7","5","2","2","2","2","2","1","5","2","5","5","6","5","2","3","6","1","6","6","7","3","3","766374165644316674","应","15","Female","[""好她"",""坏我"",""坏她"",""好我""]","[""强她"",""弱我"",""弱她"",""强我""]","","","","","","","","","","","","","","","","","","","","","","","","","","","","","","feedback_test","","","","","","","","",""
"101","","j","psychophysics","72","552302","0.0-8.0-0.0-1.0-0.0-0.31","5","6","5","5","2","4","4","4","4","5","4","1","-3","1","0","1","0","1","1","4","4","5","4","4","4","5","4","5","5","6","6","4","4","2","6","7","6","8","5","5","3","3","6","2","7","1","6","5","1","3","2","6","1","3","2","5","7","5","2","2","2","2","2","1","5","2","5","5","6","5","2","3","6","1","6","6","7","3","3","766374165644316674","应","15","Female","[""好她"",""坏我"",""坏她"",""好我""]","[""强她"",""弱我"",""弱她"",""强我""]","","","","","","","","match","","","","","","","","","","key","j","16.667692307692665","747.8345776424576","416.9343220484498","f","false","nonmatch","img/ellipse.png","好我","坏我","prac_ALT2_moral","practice_moral","","","","","","","","",""
"null","<span style='color:yellow; font-size: 70px;'>过快! </span>","null","html-keyboard-response","73","552803","0.0-8.0-0.0-1.0-0.0-1.31","5","6","5","5","2","4","4","4","4","5","4","1","-3","1","0","1","0","1","1","4","4","5","4","4","4","5","4","5","5","6","6","4","4","2","6","7","6","8","5","5","3","3","6","2","7","1","6","5","1","3","2","6","1","3","2","5","7","5","2","2","2","2","2","1","5","2","5","5","6","5","2","3","6","1","6","6","7","3","3","766374165644316674","应","15","Female","[""好她"",""坏我"",""坏她"",""好我""]","[""强她"",""弱我"",""弱她"",""强我""]","","","","","","","","","","","","","","","","","","","","","","","","","","","","","","feedback_test","","","","","","","","",""
"221","","f","psychophysics","74","554025","0.0-8.0-0.0-1.0-0.0-0.32","5","6","5","5","2","4","4","4","4","5","4","1","-3","1","0","1","0","1","1","4","4","5","4","4","4","5","4","5","5","6","6","4","4","2","6","7","6","8","5","5","3","3","6","2","7","1","6","5","1","3","2","6","1","3","2","5","7","5","2","2","2","2","2","1","5","2","5","5","6","5","2","3","6","1","6","6","7","3","3","766374165644316674","应","15","Female","[""好她"",""坏我"",""坏她"",""好我""]","[""强她"",""弱我"",""弱她"",""强我""]","","","","","","","","nonmatch","","","","","","","","","","key","f","16.666666666666668","747.8345776424576","416.9343220484498","f","true","nonmatch","img/triangle.png","坏我","好她","prac_ALT2_moral","practice_moral","","","","","","","","",""
"null","<span style='color:GreenYellow; font-size: 70px;'>正确! </span>","null","html-keyboard-response","75","554526","0.0-8.0-0.0-1.0-0.0-1.32","5","6","5","5","2","4","4","4","4","5","4","1","-3","1","0","1","0","1","1","4","4","5","4","4","4","5","4","5","5","6","6","4","4","2","6","7","6","8","5","5","3","3","6","2","7","1","6","5","1","3","2","6","1","3","2","5","7","5","2","2","2","2","2","1","5","2","5","5","6","5","2","3","6","1","6","6","7","3","3","766374165644316674","应","15","Female","[""好她"",""坏我"",""坏她"",""好我""]","[""强她"",""弱我"",""弱她"",""强我""]","","","","","","","","","","","","","","","","","","","","","","","","","","","","","","feedback_test","","","","","","","","",""
"276","","j","psychophysics","76","555804","0.0-8.0-0.0-1.0-0.0-0.33","5","6","5","5","2","4","4","4","4","5","4","1","-3","1","0","1","0","1","1","4","4","5","4","4","4","5","4","5","5","6","6","4","4","2","6","7","6","8","5","5","3","3","6","2","7","1","6","5","1","3","2","6","1","3","2","5","7","5","2","2","2","2","2","1","5","2","5","5","6","5","2","3","6","1","6","6","7","3","3","766374165644316674","应","15","Female","[""好她"",""坏我"",""坏她"",""好我""]","[""强她"",""弱我"",""弱她"",""强我""]","","","","","","","","match","","","","","","","","","","key","j","16.665333333333646","747.8345776424576","416.9343220484498","f","false","nonmatch","img/hexagon.png","好她","坏她","prac_ALT2_moral","practice_moral","","","","","","","","",""
"null","<span style='color:red; font-size: 70px;'>错误! </span>","null","html-keyboard-response","77","556305","0.0-8.0-0.0-1.0-0.0-1.33","5","6","5","5","2","4","4","4","4","5","4","1","-3","1","0","1","0","1","1","4","4","5","4","4","4","5","4","5","5","6","6","4","4","2","6","7","6","8","5","5","3","3","6","2","7","1","6","5","1","3","2","6","1","3","2","5","7","5","2","2","2","2","2","1","5","2","5","5","6","5","2","3","6","1","6","6","7","3","3","766374165644316674","应","15","Female","[""好她"",""坏我"",""坏她"",""好我""]","[""强她"",""弱我"",""弱她"",""强我""]","","","","","","","","","","","","","","","","","","","","","","","","","","","","","","feedback_test","","","","","","","","",""
"null","","null","psychophysics","78","558507","0.0-8.0-0.0-1.0-0.0-0.34","5","6","5","5","2","4","4","4","4","5","4","1","-3","1","0","1","0","1","1","4","4","5","4","4","4","5","4","5","5","6","6","4","4","2","6","7","6","8","5","5","3","3","6","2","7","1","6","5","1","3","2","6","1","3","2","5","7","5","2","2","2","2","2","1","5","2","5","5","6","5","2","3","6","1","6","6","7","3","3","766374165644316674","应","15","Female","[""好她"",""坏我"",""坏她"",""好我""]","[""强她"",""弱我"",""弱她"",""强我""]","","","","","","","","null","","","","","","","","","","key","null","16.66488549618303","747.8345776424576","416.9343220484498","j","false","match","img/square.png","好我","好我","prac_ALT2_moral","practice_moral","","","","","","","","",""
"null","<span class='add_' style='color:yellow; font-size: 70px;'> 太慢! </span>","null","html-keyboard-response","79","559010","0.0-8.0-0.0-1.0-0.0-1.34","5","6","5","5","2","4","4","4","4","5","4","1","-3","1","0","1","0","1","1","4","4","5","4","4","4","5","4","5","5","6","6","4","4","2","6","7","6","8","5","5","3","3","6","2","7","1","6","5","1","3","2","6","1","3","2","5","7","5","2","2","2","2","2","1","5","2","5","5","6","5","2","3","6","1","6","6","7","3","3","766374165644316674","应","15","Female","[""好她"",""坏我"",""坏她"",""好我""]","[""强她"",""弱我"",""弱她"",""强我""]","","","","","","","","","","","","","","","","","","","","","","","","","","","","","","feedback_test","","","","","","","","",""
"314","","j","psychophysics","80","560324","0.0-8.0-0.0-1.0-0.0-0.35","5","6","5","5","2","4","4","4","4","5","4","1","-3","1","0","1","0","1","1","4","4","5","4","4","4","5","4","5","5","6","6","4","4","2","6","7","6","8","5","5","3","3","6","2","7","1","6","5","1","3","2","6","1","3","2","5","7","5","2","2","2","2","2","1","5","2","5","5","6","5","2","3","6","1","6","6","7","3","3","766374165644316674","应","15","Female","[""好她"",""坏我"",""坏她"",""好我""]","[""强她"",""弱我"",""弱她"",""强我""]","","","","","","","","match","","","","","","","","","","key","j","16.66493506493597","747.8345776424576","416.9343220484498","j","true","match","img/square.png","好我","好我","prac_ALT2_moral","practice_moral","","","","","","","","",""
"null","<span style='color:GreenYellow; font-size: 70px;'>正确! </span>","null","html-keyboard-response","81","560825","0.0-8.0-0.0-1.0-0.0-1.35","5","6","5","5","2","4","4","4","4","5","4","1","-3","1","0","1","0","1","1","4","4","5","4","4","4","5","4","5","5","6","6","4","4","2","6","7","6","8","5","5","3","3","6","2","7","1","6","5","1","3","2","6","1","3","2","5","7","5","2","2","2","2","2","1","5","2","5","5","6","5","2","3","6","1","6","6","7","3","3","766374165644316674","应","15","Female","[""好她"",""坏我"",""坏她"",""好我""]","[""强她"",""弱我"",""弱她"",""强我""]","","","","","","","","","","","","","","","","","","","","","","","","","","","","","","feedback_test","","","","","","","","",""
"212","","f","psychophysics","82","562040","0.0-8.0-0.0-1.0-0.0-0.36","5","6","5","5","2","4","4","4","4","5","4","1","-3","1","0","1","0","1","1","4","4","5","4","4","4","5","4","5","5","6","6","4","4","2","6","7","6","8","5","5","3","3","6","2","7","1","6","5","1","3","2","6","1","3","2","5","7","5","2","2","2","2","2","1","5","2","5","5","6","5","2","3","6","1","6","6","7","3","3","766374165644316674","应","15","Female","[""好她"",""坏我"",""坏她"",""好我""]","[""强她"",""弱我"",""弱她"",""强我""]","","","","","","","","nonmatch","","","","","","","","","","key","f","16.66478873239535","747.8345776424576","416.9343220484498","j","false","match","img/ellipse.png","坏我","坏我","prac_ALT2_moral","practice_moral","","","","","","","","",""
"null","<span style='color:red; font-size: 70px;'>错误! </span>","null","html-keyboard-response","83","562541","0.0-8.0-0.0-1.0-0.0-1.36","5","6","5","5","2","4","4","4","4","5","4","1","-3","1","0","1","0","1","1","4","4","5","4","4","4","5","4","5","5","6","6","4","4","2","6","7","6","8","5","5","3","3","6","2","7","1","6","5","1","3","2","6","1","3","2","5","7","5","2","2","2","2","2","1","5","2","5","5","6","5","2","3","6","1","6","6","7","3","3","766374165644316674","应","15","Female","[""好她"",""坏我"",""坏她"",""好我""]","[""强她"",""弱我"",""弱她"",""强我""]","","","","","","","","","","","","","","","","","","","","","","","","","","","","","","feedback_test","","","","","","","","",""
"null","","null","psychophysics","84","564743","0.0-8.0-0.0-1.0-0.0-0.37","5","6","5","5","2","4","4","4","4","5","4","1","-3","1","0","1","0","1","1","4","4","5","4","4","4","5","4","5","5","6","6","4","4","2","6","7","6","8","5","5","3","3","6","2","7","1","6","5","1","3","2","6","1","3","2","5","7","5","2","2","2","2","2","1","5","2","5","5","6","5","2","3","6","1","6","6","7","3","3","766374165644316674","应","15","Female","[""好她"",""坏我"",""坏她"",""好我""]","[""强她"",""弱我"",""弱她"",""强我""]","","","","","","","","null","","","","","","","","","","key","null","16.664393939393587","747.8345776424576","416.9343220484498","f","false","nonmatch","img/square.png","坏我","好我","prac_ALT2_moral","practice_moral","","","","","","","","",""
"null","<span class='add_' style='color:yellow; font-size: 70px;'> 太慢! </span>","null","html-keyboard-response","85","565245","0.0-8.0-0.0-1.0-0.0-1.37","5","6","5","5","2","4","4","4","4","5","4","1","-3","1","0","1","0","1","1","4","4","5","4","4","4","5","4","5","5","6","6","4","4","2","6","7","6","8","5","5","3","3","6","2","7","1","6","5","1","3","2","6","1","3","2","5","7","5","2","2","2","2","2","1","5","2","5","5","6","5","2","3","6","1","6","6","7","3","3","766374165644316674","应","15","Female","[""好她"",""坏我"",""坏她"",""好我""]","[""强她"",""弱我"",""弱她"",""强我""]","","","","","","","","","","","","","","","","","","","","","","","","","","","","","","feedback_test","","","","","","","","",""
"403","","f","psychophysics","86","566651","0.0-8.0-0.0-1.0-0.0-0.38","5","6","5","5","2","4","4","4","4","5","4","1","-3","1","0","1","0","1","1","4","4","5","4","4","4","5","4","5","5","6","6","4","4","2","6","7","6","8","5","5","3","3","6","2","7","1","6","5","1","3","2","6","1","3","2","5","7","5","2","2","2","2","2","1","5","2","5","5","6","5","2","3","6","1","6","6","7","3","3","766374165644316674","应","15","Female","[""好她"",""坏我"",""坏她"",""好我""]","[""强她"",""弱我"",""弱她"",""强我""]","","","","","","","","nonmatch","","","","","","","","","","key","f","16.665060240964696","747.8345776424576","416.9343220484498","f","true","nonmatch","img/ellipse.png","好她","坏我","prac_ALT2_moral","practice_moral","","","","","","","","",""
"null","<span style='color:GreenYellow; font-size: 70px;'>正确! </span>","null","html-keyboard-response","87","567151","0.0-8.0-0.0-1.0-0.0-1.38","5","6","5","5","2","4","4","4","4","5","4","1","-3","1","0","1","0","1","1","4","4","5","4","4","4","5","4","5","5","6","6","4","4","2","6","7","6","8","5","5","3","3","6","2","7","1","6","5","1","3","2","6","1","3","2","5","7","5","2","2","2","2","2","1","5","2","5","5","6","5","2","3","6","1","6","6","7","3","3","766374165644316674","应","15","Female","[""好她"",""坏我"",""坏她"",""好我""]","[""强她"",""弱我"",""弱她"",""强我""]","","","","","","","","","","","","","","","","","","","","","","","","","","","","","","feedback_test","","","","","","","","",""
"1148","","j","psychophysics","88","569301","0.0-8.0-0.0-1.0-0.0-0.39","5","6","5","5","2","4","4","4","4","5","4","1","-3","1","0","1","0","1","1","4","4","5","4","4","4","5","4","5","5","6","6","4","4","2","6","7","6","8","5","5","3","3","6","2","7","1","6","5","1","3","2","6","1","3","2","5","7","5","2","2","2","2","2","1","5","2","5","5","6","5","2","3","6","1","6","6","7","3","3","766374165644316674","应","15","Female","[""好她"",""坏我"",""坏她"",""好我""]","[""强她"",""弱我"",""弱她"",""强我""]","","","","","","","","match","","","","","","","","","","key","j","16.664843749999818","747.8345776424576","416.9343220484498","f","false","nonmatch","img/hexagon.png","坏我","坏她","prac_ALT2_moral","practice_moral","","","","","","","","",""
"null","<span style='color:red; font-size: 70px;'>错误! </span>","null","html-keyboard-response","89","569802","0.0-8.0-0.0-1.0-0.0-1.39","5","6","5","5","2","4","4","4","4","5","4","1","-3","1","0","1","0","1","1","4","4","5","4","4","4","5","4","5","5","6","6","4","4","2","6","7","6","8","5","5","3","3","6","2","7","1","6","5","1","3","2","6","1","3","2","5","7","5","2","2","2","2","2","1","5","2","5","5","6","5","2","3","6","1","6","6","7","3","3","766374165644316674","应","15","Female","[""好她"",""坏我"",""坏她"",""好我""]","[""强她"",""弱我"",""弱她"",""强我""]","","","","","","","","","","","","","","","","","","","","","","","","","","","","","","feedback_test","","","","","","","","",""
"814","","f","psychophysics","90","571617","0.0-8.0-0.0-1.0-0.0-0.40","5","6","5","5","2","4","4","4","4","5","4","1","-3","1","0","1","0","1","1","4","4","5","4","4","4","5","4","5","5","6","6","4","4","2","6","7","6","8","5","5","3","3","6","2","7","1","6","5","1","3","2","6","1","3","2","5","7","5","2","2","2","2","2","1","5","2","5","5","6","5","2","3","6","1","6","6","7","3","3","766374165644316674","应","15","Female","[""好她"",""坏我"",""坏她"",""好我""]","[""强她"",""弱我"",""弱她"",""强我""]","","","","","","","","nonmatch","","","","","","","","","","key","f","16.664814814815244","747.8345776424576","416.9343220484498","f","true","nonmatch","img/ellipse.png","坏她","坏我","prac_ALT2_moral","practice_moral","","","","","","","","",""
"null","<span style='color:GreenYellow; font-size: 70px;'>正确! </span>","null","html-keyboard-response","91","572118","0.0-8.0-0.0-1.0-0.0-1.40","5","6","5","5","2","4","4","4","4","5","4","1","-3","1","0","1","0","1","1","4","4","5","4","4","4","5","4","5","5","6","6","4","4","2","6","7","6","8","5","5","3","3","6","2","7","1","6","5","1","3","2","6","1","3","2","5","7","5","2","2","2","2","2","1","5","2","5","5","6","5","2","3","6","1","6","6","7","3","3","766374165644316674","应","15","Female","[""好她"",""坏我"",""坏她"",""好我""]","[""强她"",""弱我"",""弱她"",""强我""]","","","","","","","","","","","","","","","","","","","","","","","","","","","","","","feedback_test","","","","","","","","",""
"795","","j","psychophysics","92","573915","0.0-8.0-0.0-1.0-0.0-0.41","5","6","5","5","2","4","4","4","4","5","4","1","-3","1","0","1","0","1","1","4","4","5","4","4","4","5","4","5","5","6","6","4","4","2","6","7","6","8","5","5","3","3","6","2","7","1","6","5","1","3","2","6","1","3","2","5","7","5","2","2","2","2","2","1","5","2","5","5","6","5","2","3","6","1","6","6","7","3","3","766374165644316674","应","15","Female","[""好她"",""坏我"",""坏她"",""好我""]","[""强她"",""弱我"",""弱她"",""强我""]","","","","","","","","match","","","","","","","","","","key","j","16.664485981308193","747.8345776424576","416.9343220484498","f","false","nonmatch","img/hexagon.png","好我","坏她","prac_ALT2_moral","practice_moral","","","","","","","","",""
"null","<span style='color:red; font-size: 70px;'>错误! </span>","null","html-keyboard-response","93","574416","0.0-8.0-0.0-1.0-0.0-1.41","5","6","5","5","2","4","4","4","4","5","4","1","-3","1","0","1","0","1","1","4","4","5","4","4","4","5","4","5","5","6","6","4","4","2","6","7","6","8","5","5","3","3","6","2","7","1","6","5","1","3","2","6","1","3","2","5","7","5","2","2","2","2","2","1","5","2","5","5","6","5","2","3","6","1","6","6","7","3","3","766374165644316674","应","15","Female","[""好她"",""坏我"",""坏她"",""好我""]","[""强她"",""弱我"",""弱她"",""强我""]","","","","","","","","","","","","","","","","","","","","","","","","","","","","","","feedback_test","","","","","","","","",""
"876","","f","psychophysics","94","576294","0.0-8.0-0.0-1.0-0.0-0.42","5","6","5","5","2","4","4","4","4","5","4","1","-3","1","0","1","0","1","1","4","4","5","4","4","4","5","4","5","5","6","6","4","4","2","6","7","6","8","5","5","3","3","6","2","7","1","6","5","1","3","2","6","1","3","2","5","7","5","2","2","2","2","2","1","5","2","5","5","6","5","2","3","6","1","6","6","7","3","3","766374165644316674","应","15","Female","[""好她"",""坏我"",""坏她"",""好我""]","[""强她"",""弱我"",""弱她"",""强我""]","","","","","","","","nonmatch","","","","","","","","","","key","f","16.66428571428592","747.8345776424576","416.9343220484498","j","false","match","img/triangle.png","好她","好她","prac_ALT2_moral","practice_moral","","","","","","","","",""
"null","<span style='color:red; font-size: 70px;'>错误! </span>","null","html-keyboard-response","95","576795","0.0-8.0-0.0-1.0-0.0-1.42","5","6","5","5","2","4","4","4","4","5","4","1","-3","1","0","1","0","1","1","4","4","5","4","4","4","5","4","5","5","6","6","4","4","2","6","7","6","8","5","5","3","3","6","2","7","1","6","5","1","3","2","6","1","3","2","5","7","5","2","2","2","2","2","1","5","2","5","5","6","5","2","3","6","1","6","6","7","3","3","766374165644316674","应","15","Female","[""好她"",""坏我"",""坏她"",""好我""]","[""强她"",""弱我"",""弱她"",""强我""]","","","","","","","","","","","","","","","","","","","","","","","","","","","","","","feedback_test","","","","","","","","",""
"868","","f","psychophysics","96","578665","0.0-8.0-0.0-1.0-0.0-0.43","5","6","5","5","2","4","4","4","4","5","4","1","-3","1","0","1","0","1","1","4","4","5","4","4","4","5","4","5","5","6","6","4","4","2","6","7","6","8","5","5","3","3","6","2","7","1","6","5","1","3","2","6","1","3","2","5","7","5","2","2","2","2","2","1","5","2","5","5","6","5","2","3","6","1","6","6","7","3","3","766374165644316674","应","15","Female","[""好她"",""坏我"",""坏她"",""好我""]","[""强她"",""弱我"",""弱她"",""强我""]","","","","","","","","nonmatch","","","","","","","","","","key","f","16.665765765765975","747.8345776424576","416.9343220484498","f","true","nonmatch","img/square.png","坏她","好我","prac_ALT2_moral","practice_moral","","","","","","","","",""
"null","<span style='color:GreenYellow; font-size: 70px;'>正确! </span>","null","html-keyboard-response","97","579166","0.0-8.0-0.0-1.0-0.0-1.43","5","6","5","5","2","4","4","4","4","5","4","1","-3","1","0","1","0","1","1","4","4","5","4","4","4","5","4","5","5","6","6","4","4","2","6","7","6","8","5","5","3","3","6","2","7","1","6","5","1","3","2","6","1","3","2","5","7","5","2","2","2","2","2","1","5","2","5","5","6","5","2","3","6","1","6","6","7","3","3","766374165644316674","应","15","Female","[""好她"",""坏我"",""坏她"",""好我""]","[""强她"",""弱我"",""弱她"",""强我""]","","","","","","","","","","","","","","","","","","","","","","","","","","","","","","feedback_test","","","","","","","","",""
"815","","j","psychophysics","98","580983","0.0-8.0-0.0-1.0-0.0-0.44","5","6","5","5","2","4","4","4","4","5","4","1","-3","1","0","1","0","1","1","4","4","5","4","4","4","5","4","5","5","6","6","4","4","2","6","7","6","8","5","5","3","3","6","2","7","1","6","5","1","3","2","6","1","3","2","5","7","5","2","2","2","2","2","1","5","2","5","5","6","5","2","3","6","1","6","6","7","3","3","766374165644316674","应","15","Female","[""好她"",""坏我"",""坏她"",""好我""]","[""强她"",""弱我"",""弱她"",""强我""]","","","","","","","","match","","","","","","","","","","key","j","16.664814814815244","747.8345776424576","416.9343220484498","j","true","match","img/square.png","好我","好我","prac_ALT2_moral","practice_moral","","","","","","","","",""
"null","<span style='color:GreenYellow; font-size: 70px;'>正确! </span>","null","html-keyboard-response","99","581484","0.0-8.0-0.0-1.0-0.0-1.44","5","6","5","5","2","4","4","4","4","5","4","1","-3","1","0","1","0","1","1","4","4","5","4","4","4","5","4","5","5","6","6","4","4","2","6","7","6","8","5","5","3","3","6","2","7","1","6","5","1","3","2","6","1","3","2","5","7","5","2","2","2","2","2","1","5","2","5","5","6","5","2","3","6","1","6","6","7","3","3","766374165644316674","应","15","Female","[""好她"",""坏我"",""坏她"",""好我""]","[""强她"",""弱我"",""弱她"",""强我""]","","","","","","","","","","","","","","","","","","","","","","","","","","","","","","feedback_test","","","","","","","","",""
"615","","f","psychophysics","100","583101","0.0-8.0-0.0-1.0-0.0-0.45","5","6","5","5","2","4","4","4","4","5","4","1","-3","1","0","1","0","1","1","4","4","5","4","4","4","5","4","5","5","6","6","4","4","2","6","7","6","8","5","5","3","3","6","2","7","1","6","5","1","3","2","6","1","3","2","5","7","5","2","2","2","2","2","1","5","2","5","5","6","5","2","3","6","1","6","6","7","3","3","766374165644316674","应","15","Female","[""好她"",""坏我"",""坏她"",""好我""]","[""强她"",""弱我"",""弱她"",""强我""]","","","","","","","","nonmatch","","","","","","","","","","key","f","16.66562499999903","747.8345776424576","416.9343220484498","j","false","match","img/triangle.png","好她","好她","prac_ALT2_moral","practice_moral","","","","","","","","",""
"null","<span style='color:red; font-size: 70px;'>错误! </span>","null","html-keyboard-response","101","583602","0.0-8.0-0.0-1.0-0.0-1.45","5","6","5","5","2","4","4","4","4","5","4","1","-3","1","0","1","0","1","1","4","4","5","4","4","4","5","4","5","5","6","6","4","4","2","6","7","6","8","5","5","3","3","6","2","7","1","6","5","1","3","2","6","1","3","2","5","7","5","2","2","2","2","2","1","5","2","5","5","6","5","2","3","6","1","6","6","7","3","3","766374165644316674","应","15","Female","[""好她"",""坏我"",""坏她"",""好我""]","[""强她"",""弱我"",""弱她"",""强我""]","","","","","","","","","","","","","","","","","","","","","","","","","","","","","","feedback_test","","","","","","","","",""
"669","","f","psychophysics","102","585272","0.0-8.0-0.0-1.0-0.0-0.46","5","6","5","5","2","4","4","4","4","5","4","1","-3","1","0","1","0","1","1","4","4","5","4","4","4","5","4","5","5","6","6","4","4","2","6","7","6","8","5","5","3","3","6","2","7","1","6","5","1","3","2","6","1","3","2","5","7","5","2","2","2","2","2","1","5","2","5","5","6","5","2","3","6","1","6","6","7","3","3","766374165644316674","应","15","Female","[""好她"",""坏我"",""坏她"",""好我""]","[""强她"",""弱我"",""弱她"",""强我""]","","","","","","","","nonmatch","","","","","","","","","","key","f","16.66363636363589","747.8345776424576","416.9343220484498","j","false","match","img/triangle.png","好她","好她","prac_ALT2_moral","practice_moral","","","","","","","","",""
"null","<span style='color:red; font-size: 70px;'>错误! </span>","null","html-keyboard-response","103","585773","0.0-8.0-0.0-1.0-0.0-1.46","5","6","5","5","2","4","4","4","4","5","4","1","-3","1","0","1","0","1","1","4","4","5","4","4","4","5","4","5","5","6","6","4","4","2","6","7","6","8","5","5","3","3","6","2","7","1","6","5","1","3","2","6","1","3","2","5","7","5","2","2","2","2","2","1","5","2","5","5","6","5","2","3","6","1","6","6","7","3","3","766374165644316674","应","15","Female","[""好她"",""坏我"",""坏她"",""好我""]","[""强她"",""弱我"",""弱她"",""强我""]","","","","","","","","","","","","","","","","","","","","","","","","","","","","","","feedback_test","","","","","","","","",""
"861","","f","psychophysics","104","587635","0.0-8.0-0.0-1.0-0.0-0.47","5","6","5","5","2","4","4","4","4","5","4","1","-3","1","0","1","0","1","1","4","4","5","4","4","4","5","4","5","5","6","6","4","4","2","6","7","6","8","5","5","3","3","6","2","7","1","6","5","1","3","2","6","1","3","2","5","7","5","2","2","2","2","2","1","5","2","5","5","6","5","2","3","6","1","6","6","7","3","3","766374165644316674","应","15","Female","[""好她"",""坏我"",""坏她"",""好我""]","[""强她"",""弱我"",""弱她"",""强我""]","","","","","","","","nonmatch","","","","","","","","","","key","f","16.664545454545244","747.8345776424576","416.9343220484498","f","true","nonmatch","img/square.png","好她","好我","prac_ALT2_moral","practice_moral","","","","","","","","",""
"null","<span style='color:GreenYellow; font-size: 70px;'>正确! </span>","null","html-keyboard-response","105","588135","0.0-8.0-0.0-1.0-0.0-1.47","5","6","5","5","2","4","4","4","4","5","4","1","-3","1","0","1","0","1","1","4","4","5","4","4","4","5","4","5","5","6","6","4","4","2","6","7","6","8","5","5","3","3","6","2","7","1","6","5","1","3","2","6","1","3","2","5","7","5","2","2","2","2","2","1","5","2","5","5","6","5","2","3","6","1","6","6","7","3","3","766374165644316674","应","15","Female","[""好她"",""坏我"",""坏她"",""好我""]","[""强她"",""弱我"",""弱她"",""强我""]","","","","","","","","","","","","","","","","","","","","","","","","","","","","","","feedback_test","","","","","","","","",""
"1347","<style>.context{color:white; font-size: 35px; line-height:40px}</style>                            <div><p class='context'>您正确回答了48% 的试次。</p><p class='context'>您的平均反应时为591毫秒。</p><p class='context'>按空格键继续。</p></div>","n","html-keyboard-response","106","589485","0.0-8.0-0.0-1.0-1.0-0.0","5","6","5","5","2","4","4","4","4","5","4","1","-3","1","0","1","0","1","1","4","4","5","4","4","4","5","4","5","5","6","6","4","4","2","6","7","6","8","5","5","3","3","6","2","7","1","6","5","1","3","2","6","1","3","2","5","7","5","2","2","2","2","2","1","5","2","5","5","6","5","2","3","6","1","6","6","7","3","3","766374165644316674","应","15","Female","[""好她"",""坏我"",""坏她"",""好我""]","[""强她"",""弱我"",""弱她"",""强我""]","","","","","","","","","","","","","","","","","","","","","","","","","","","","","","","","","","","","","","",""
"82007","","","instructions","107","671496","0.0-8.0-0.0-1.0-1.0-1.0","5","6","5","5","2","4","4","4","4","5","4","1","-3","1","0","1","0","1","1","4","4","5","4","4","4","5","4","5","5","6","6","4","4","2","6","7","6","8","5","5","3","3","6","2","7","1","6","5","1","3","2","6","1","3","2","5","7","5","2","2","2","2","2","1","5","2","5","5","6","5","2","3","6","1","6","6","7","3","3","766374165644316674","应","15","Female","[""好她"",""坏我"",""坏她"",""好我""]","[""强她"",""弱我"",""弱她"",""强我""]","","","","","","","","","","","","","","","","","[{""page_index"":0,""viewing_time"":2011},{""page_index"":1,""viewing_time"":77777},{""page_index"":2,""viewing_time"":2218}]","","","","","","","","","","","","","","","","","","","","","",""
"1100","","f","psychophysics","108","673598","0.0-8.0-0.0-1.1-0.1-0.48","5","6","5","5","2","4","4","4","4","5","4","1","-3","1","0","1","0","1","1","4","4","5","4","4","4","5","4","5","5","6","6","4","4","2","6","7","6","8","5","5","3","3","6","2","7","1","6","5","1","3","2","6","1","3","2","5","7","5","2","2","2","2","2","1","5","2","5","5","6","5","2","3","6","1","6","6","7","3","3","766374165644316674","应","15","Female","[""好她"",""坏我"",""坏她"",""好我""]","[""强她"",""弱我"",""弱她"",""强我""]","","","","","","","","nonmatch","","","","","","","","","","key","f","16.664799999999815","747.8345776424576","416.9343220484498","j","false","match","img/ellipse.png","坏我","坏我","prac_ALT2_moral","practice_moral","","","","","","","","",""
"null","<span style='color:red; font-size: 70px;'>错误! </span>","null","html-keyboard-response","109","674115","0.0-8.0-0.0-1.1-0.1-1.48","5","6","5","5","2","4","4","4","4","5","4","1","-3","1","0","1","0","1","1","4","4","5","4","4","4","5","4","5","5","6","6","4","4","2","6","7","6","8","5","5","3","3","6","2","7","1","6","5","1","3","2","6","1","3","2","5","7","5","2","2","2","2","2","1","5","2","5","5","6","5","2","3","6","1","6","6","7","3","3","766374165644316674","应","15","Female","[""好她"",""坏我"",""坏她"",""好我""]","[""强她"",""弱我"",""弱她"",""强我""]","","","","","","","","","","","","","","","","","","","","","","","","","","","","","","feedback_test","","","","","","","","",""
"449","","j","psychophysics","110","675565","0.0-8.0-0.0-1.1-0.1-0.49","5","6","5","5","2","4","4","4","4","5","4","1","-3","1","0","1","0","1","1","4","4","5","4","4","4","5","4","5","5","6","6","4","4","2","6","7","6","8","5","5","3","3","6","2","7","1","6","5","1","3","2","6","1","3","2","5","7","5","2","2","2","2","2","1","5","2","5","5","6","5","2","3","6","1","6","6","7","3","3","766374165644316674","应","15","Female","[""好她"",""坏我"",""坏她"",""好我""]","[""强她"",""弱我"",""弱她"",""强我""]","","","","","","","","match","","","","","","","","","","key","j","16.667441860465388","747.8345776424576","416.9343220484498","j","true","match","img/ellipse.png","坏我","坏我","prac_ALT2_moral","practice_moral","","","","","","","","",""
"null","<span style='color:GreenYellow; font-size: 70px;'>正确! </span>","null","html-keyboard-response","111","676066","0.0-8.0-0.0-1.1-0.1-1.49","5","6","5","5","2","4","4","4","4","5","4","1","-3","1","0","1","0","1","1","4","4","5","4","4","4","5","4","5","5","6","6","4","4","2","6","7","6","8","5","5","3","3","6","2","7","1","6","5","1","3","2","6","1","3","2","5","7","5","2","2","2","2","2","1","5","2","5","5","6","5","2","3","6","1","6","6","7","3","3","766374165644316674","应","15","Female","[""好她"",""坏我"",""坏她"",""好我""]","[""强她"",""弱我"",""弱她"",""强我""]","","","","","","","","","","","","","","","","","","","","","","","","","","","","","","feedback_test","","","","","","","","",""
"723","","j","psychophysics","112","677790","0.0-8.0-0.0-1.1-0.1-0.50","5","6","5","5","2","4","4","4","4","5","4","1","-3","1","0","1","0","1","1","4","4","5","4","4","4","5","4","5","5","6","6","4","4","2","6","7","6","8","5","5","3","3","6","2","7","1","6","5","1","3","2","6","1","3","2","5","7","5","2","2","2","2","2","1","5","2","5","5","6","5","2","3","6","1","6","6","7","3","3","766374165644316674","应","15","Female","[""好她"",""坏我"",""坏她"",""好我""]","[""强她"",""弱我"",""弱她"",""强我""]","","","","","","","","match","","","","","","","","","","key","j","16.664705882352255","747.8345776424576","416.9343220484498","j","true","match","img/hexagon.png","坏她","坏她","prac_ALT2_moral","practice_moral","","","","","","","","",""
"null","<span style='color:GreenYellow; font-size: 70px;'>正确! </span>","null","html-keyboard-response","113","678292","0.0-8.0-0.0-1.1-0.1-1.50","5","6","5","5","2","4","4","4","4","5","4","1","-3","1","0","1","0","1","1","4","4","5","4","4","4","5","4","5","5","6","6","4","4","2","6","7","6","8","5","5","3","3","6","2","7","1","6","5","1","3","2","6","1","3","2","5","7","5","2","2","2","2","2","1","5","2","5","5","6","5","2","3","6","1","6","6","7","3","3","766374165644316674","应","15","Female","[""好她"",""坏我"",""坏她"",""好我""]","[""强她"",""弱我"",""弱她"",""强我""]","","","","","","","","","","","","","","","","","","","","","","","","","","","","","","feedback_test","","","","","","","","",""
"569","","f","psychophysics","114","679863","0.0-8.0-0.0-1.1-0.1-0.51","5","6","5","5","2","4","4","4","4","5","4","1","-3","1","0","1","0","1","1","4","4","5","4","4","4","5","4","5","5","6","6","4","4","2","6","7","6","8","5","5","3","3","6","2","7","1","6","5","1","3","2","6","1","3","2","5","7","5","2","2","2","2","2","1","5","2","5","5","6","5","2","3","6","1","6","6","7","3","3","766374165644316674","应","15","Female","[""好她"",""坏我"",""坏她"",""好我""]","[""强她"",""弱我"",""弱她"",""强我""]","","","","","","","","nonmatch","","","","","","","","","","key","f","16.664893617021278","747.8345776424576","416.9343220484498","f","true","nonmatch","img/triangle.png","坏她","好她","prac_ALT2_moral","practice_moral","","","","","","","","",""
"null","<span style='color:GreenYellow; font-size: 70px;'>正确! </span>","null","html-keyboard-response","115","680364","0.0-8.0-0.0-1.1-0.1-1.51","5","6","5","5","2","4","4","4","4","5","4","1","-3","1","0","1","0","1","1","4","4","5","4","4","4","5","4","5","5","6","6","4","4","2","6","7","6","8","5","5","3","3","6","2","7","1","6","5","1","3","2","6","1","3","2","5","7","5","2","2","2","2","2","1","5","2","5","5","6","5","2","3","6","1","6","6","7","3","3","766374165644316674","应","15","Female","[""好她"",""坏我"",""坏她"",""好我""]","[""强她"",""弱我"",""弱她"",""强我""]","","","","","","","","","","","","","","","","","","","","","","","","","","","","","","feedback_test","","","","","","","","",""
"772","","f","psychophysics","116","682138","0.0-8.0-0.0-1.1-0.1-0.52","5","6","5","5","2","4","4","4","4","5","4","1","-3","1","0","1","0","1","1","4","4","5","4","4","4","5","4","5","5","6","6","4","4","2","6","7","6","8","5","5","3","3","6","2","7","1","6","5","1","3","2","6","1","3","2","5","7","5","2","2","2","2","2","1","5","2","5","5","6","5","2","3","6","1","6","6","7","3","3","766374165644316674","应","15","Female","[""好她"",""坏我"",""坏她"",""好我""]","[""强她"",""弱我"",""弱她"",""强我""]","","","","","","","","nonmatch","","","","","","","","","","key","f","16.663809523809082","747.8345776424576","416.9343220484498","f","true","nonmatch","img/triangle.png","好我","好她","prac_ALT2_moral","practice_moral","","","","","","","","",""
"null","<span style='color:GreenYellow; font-size: 70px;'>正确! </span>","null","html-keyboard-response","117","682639","0.0-8.0-0.0-1.1-0.1-1.52","5","6","5","5","2","4","4","4","4","5","4","1","-3","1","0","1","0","1","1","4","4","5","4","4","4","5","4","5","5","6","6","4","4","2","6","7","6","8","5","5","3","3","6","2","7","1","6","5","1","3","2","6","1","3","2","5","7","5","2","2","2","2","2","1","5","2","5","5","6","5","2","3","6","1","6","6","7","3","3","766374165644316674","应","15","Female","[""好她"",""坏我"",""坏她"",""好我""]","[""强她"",""弱我"",""弱她"",""强我""]","","","","","","","","","","","","","","","","","","","","","","","","","","","","","","feedback_test","","","","","","","","",""
"538","","j","psychophysics","118","684179","0.0-8.0-0.0-1.1-0.1-0.53","5","6","5","5","2","4","4","4","4","5","4","1","-3","1","0","1","0","1","1","4","4","5","4","4","4","5","4","5","5","6","6","4","4","2","6","7","6","8","5","5","3","3","6","2","7","1","6","5","1","3","2","6","1","3","2","5","7","5","2","2","2","2","2","1","5","2","5","5","6","5","2","3","6","1","6","6","7","3","3","766374165644316674","应","15","Female","[""好她"",""坏我"",""坏她"",""好我""]","[""强她"",""弱我"",""弱她"",""强我""]","","","","","","","","match","","","","","","","","","","key","j","16.665217391305106","747.8345776424576","416.9343220484498","j","true","match","img/square.png","好我","好我","prac_ALT2_moral","practice_moral","","","","","","","","",""
"null","<span style='color:GreenYellow; font-size: 70px;'>正确! </span>","null","html-keyboard-response","119","684680","0.0-8.0-0.0-1.1-0.1-1.53","5","6","5","5","2","4","4","4","4","5","4","1","-3","1","0","1","0","1","1","4","4","5","4","4","4","5","4","5","5","6","6","4","4","2","6","7","6","8","5","5","3","3","6","2","7","1","6","5","1","3","2","6","1","3","2","5","7","5","2","2","2","2","2","1","5","2","5","5","6","5","2","3","6","1","6","6","7","3","3","766374165644316674","应","15","Female","[""好她"",""坏我"",""坏她"",""好我""]","[""强她"",""弱我"",""弱她"",""强我""]","","","","","","","","","","","","","","","","","","","","","","","","","","","","","","feedback_test","","","","","","","","",""
"696","","f","psychophysics","120","686377","0.0-8.0-0.0-1.1-0.1-0.54","5","6","5","5","2","4","4","4","4","5","4","1","-3","1","0","1","0","1","1","4","4","5","4","4","4","5","4","5","5","6","6","4","4","2","6","7","6","8","5","5","3","3","6","2","7","1","6","5","1","3","2","6","1","3","2","5","7","5","2","2","2","2","2","1","5","2","5","5","6","5","2","3","6","1","6","6","7","3","3","766374165644316674","应","15","Female","[""好她"",""坏我"",""坏她"",""好我""]","[""强她"",""弱我"",""弱她"",""强我""]","","","","","","","","nonmatch","","","","","","","","","","key","f","16.665346534653004","747.8345776424576","416.9343220484498","f","true","nonmatch","img/ellipse.png","好我","坏我","prac_ALT2_moral","practice_moral","","","","","","","","",""
"null","<span style='color:GreenYellow; font-size: 70px;'>正确! </span>","null","html-keyboard-response","121","686878","0.0-8.0-0.0-1.1-0.1-1.54","5","6","5","5","2","4","4","4","4","5","4","1","-3","1","0","1","0","1","1","4","4","5","4","4","4","5","4","5","5","6","6","4","4","2","6","7","6","8","5","5","3","3","6","2","7","1","6","5","1","3","2","6","1","3","2","5","7","5","2","2","2","2","2","1","5","2","5","5","6","5","2","3","6","1","6","6","7","3","3","766374165644316674","应","15","Female","[""好她"",""坏我"",""坏她"",""好我""]","[""强她"",""弱我"",""弱她"",""强我""]","","","","","","","","","","","","","","","","","","","","","","","","","","","","","","feedback_test","","","","","","","","",""
"714","","f","psychophysics","122","688594","0.0-8.0-0.0-1.1-0.1-0.55","5","6","5","5","2","4","4","4","4","5","4","1","-3","1","0","1","0","1","1","4","4","5","4","4","4","5","4","5","5","6","6","4","4","2","6","7","6","8","5","5","3","3","6","2","7","1","6","5","1","3","2","6","1","3","2","5","7","5","2","2","2","2","2","1","5","2","5","5","6","5","2","3","6","1","6","6","7","3","3","766374165644316674","应","15","Female","[""好她"",""坏我"",""坏她"",""好我""]","[""强她"",""弱我"",""弱她"",""强我""]","","","","","","","","nonmatch","","","","","","","","","","key","f","16.6647058823534","747.8345776424576","416.9343220484498","j","false","match","img/triangle.png","好她","好她","prac_ALT2_moral","practice_moral","","","","","","","","",""
"null","<span style='color:red; font-size: 70px;'>错误! </span>","null","html-keyboard-response","123","689096","0.0-8.0-0.0-1.1-0.1-1.55","5","6","5","5","2","4","4","4","4","5","4","1","-3","1","0","1","0","1","1","4","4","5","4","4","4","5","4","5","5","6","6","4","4","2","6","7","6","8","5","5","3","3","6","2","7","1","6","5","1","3","2","6","1","3","2","5","7","5","2","2","2","2","2","1","5","2","5","5","6","5","2","3","6","1","6","6","7","3","3","766374165644316674","应","15","Female","[""好她"",""坏我"",""坏她"",""好我""]","[""强她"",""弱我"",""弱她"",""强我""]","","","","","","","","","","","","","","","","","","","","","","","","","","","","","","feedback_test","","","","","","","","",""
"510","","j","psychophysics","124","690609","0.0-8.0-0.0-1.1-0.1-0.56","5","6","5","5","2","4","4","4","4","5","4","1","-3","1","0","1","0","1","1","4","4","5","4","4","4","5","4","5","5","6","6","4","4","2","6","7","6","8","5","5","3","3","6","2","7","1","6","5","1","3","2","6","1","3","2","5","7","5","2","2","2","2","2","1","5","2","5","5","6","5","2","3","6","1","6","6","7","3","3","766374165644316674","应","15","Female","[""好她"",""坏我"",""坏她"",""好我""]","[""强她"",""弱我"",""弱她"",""强我""]","","","","","","","","match","","","","","","","","","","key","j","16.666292134830677","747.8345776424576","416.9343220484498","j","true","match","img/square.png","好我","好我","prac_ALT2_moral","practice_moral","","","","","","","","",""
"null","<span style='color:GreenYellow; font-size: 70px;'>正确! </span>","null","html-keyboard-response","125","691110","0.0-8.0-0.0-1.1-0.1-1.56","5","6","5","5","2","4","4","4","4","5","4","1","-3","1","0","1","0","1","1","4","4","5","4","4","4","5","4","5","5","6","6","4","4","2","6","7","6","8","5","5","3","3","6","2","7","1","6","5","1","3","2","6","1","3","2","5","7","5","2","2","2","2","2","1","5","2","5","5","6","5","2","3","6","1","6","6","7","3","3","766374165644316674","应","15","Female","[""好她"",""坏我"",""坏她"",""好我""]","[""强她"",""弱我"",""弱她"",""强我""]","","","","","","","","","","","","","","","","","","","","","","","","","","","","","","feedback_test","","","","","","","","",""
"759","","f","psychophysics","126","692870","0.0-8.0-0.0-1.1-0.1-0.57","5","6","5","5","2","4","4","4","4","5","4","1","-3","1","0","1","0","1","1","4","4","5","4","4","4","5","4","5","5","6","6","4","4","2","6","7","6","8","5","5","3","3","6","2","7","1","6","5","1","3","2","6","1","3","2","5","7","5","2","2","2","2","2","1","5","2","5","5","6","5","2","3","6","1","6","6","7","3","3","766374165644316674","应","15","Female","[""好她"",""坏我"",""坏她"",""好我""]","[""强她"",""弱我"",""弱她"",""强我""]","","","","","","","","nonmatch","","","","","","","","","","key","f","16.665384615384166","747.8345776424576","416.9343220484498","f","true","nonmatch","img/square.png","好她","好我","prac_ALT2_moral","practice_moral","","","","","","","","",""
"null","<span style='color:GreenYellow; font-size: 70px;'>正确! </span>","null","html-keyboard-response","127","693371","0.0-8.0-0.0-1.1-0.1-1.57","5","6","5","5","2","4","4","4","4","5","4","1","-3","1","0","1","0","1","1","4","4","5","4","4","4","5","4","5","5","6","6","4","4","2","6","7","6","8","5","5","3","3","6","2","7","1","6","5","1","3","2","6","1","3","2","5","7","5","2","2","2","2","2","1","5","2","5","5","6","5","2","3","6","1","6","6","7","3","3","766374165644316674","应","15","Female","[""好她"",""坏我"",""坏她"",""好我""]","[""强她"",""弱我"",""弱她"",""强我""]","","","","","","","","","","","","","","","","","","","","","","","","","","","","","","feedback_test","","","","","","","","",""
"710","","f","psychophysics","128","695083","0.0-8.0-0.0-1.1-0.1-0.58","5","6","5","5","2","4","4","4","4","5","4","1","-3","1","0","1","0","1","1","4","4","5","4","4","4","5","4","5","5","6","6","4","4","2","6","7","6","8","5","5","3","3","6","2","7","1","6","5","1","3","2","6","1","3","2","5","7","5","2","2","2","2","2","1","5","2","5","5","6","5","2","3","6","1","6","6","7","3","3","766374165644316674","应","15","Female","[""好她"",""坏我"",""坏她"",""好我""]","[""强她"",""弱我"",""弱她"",""强我""]","","","","","","","","nonmatch","","","","","","","","","","key","f","16.6647058823534","747.8345776424576","416.9343220484498","f","true","nonmatch","img/square.png","坏我","好我","prac_ALT2_moral","practice_moral","","","","","","","","",""
"null","<span style='color:GreenYellow; font-size: 70px;'>正确! </span>","null","html-keyboard-response","129","695584","0.0-8.0-0.0-1.1-0.1-1.58","5","6","5","5","2","4","4","4","4","5","4","1","-3","1","0","1","0","1","1","4","4","5","4","4","4","5","4","5","5","6","6","4","4","2","6","7","6","8","5","5","3","3","6","2","7","1","6","5","1","3","2","6","1","3","2","5","7","5","2","2","2","2","2","1","5","2","5","5","6","5","2","3","6","1","6","6","7","3","3","766374165644316674","应","15","Female","[""好她"",""坏我"",""坏她"",""好我""]","[""强她"",""弱我"",""弱她"",""强我""]","","","","","","","","","","","","","","","","","","","","","","","","","","","","","","feedback_test","","","","","","","","",""
"839","","j","psychophysics","130","697425","0.0-8.0-0.0-1.1-0.1-0.59","5","6","5","5","2","4","4","4","4","5","4","1","-3","1","0","1","0","1","1","4","4","5","4","4","4","5","4","5","5","6","6","4","4","2","6","7","6","8","5","5","3","3","6","2","7","1","6","5","1","3","2","6","1","3","2","5","7","5","2","2","2","2","2","1","5","2","5","5","6","5","2","3","6","1","6","6","7","3","3","766374165644316674","应","15","Female","[""好她"",""坏我"",""坏她"",""好我""]","[""强她"",""弱我"",""弱她"",""强我""]","","","","","","","","match","","","","","","","","","","key","j","16.665137614678898","747.8345776424576","416.9343220484498","j","true","match","img/triangle.png","好她","好她","prac_ALT2_moral","practice_moral","","","","","","","","",""
"null","<span style='color:GreenYellow; font-size: 70px;'>正确! </span>","null","html-keyboard-response","131","697927","0.0-8.0-0.0-1.1-0.1-1.59","5","6","5","5","2","4","4","4","4","5","4","1","-3","1","0","1","0","1","1","4","4","5","4","4","4","5","4","5","5","6","6","4","4","2","6","7","6","8","5","5","3","3","6","2","7","1","6","5","1","3","2","6","1","3","2","5","7","5","2","2","2","2","2","1","5","2","5","5","6","5","2","3","6","1","6","6","7","3","3","766374165644316674","应","15","Female","[""好她"",""坏我"",""坏她"",""好我""]","[""强她"",""弱我"",""弱她"",""强我""]","","","","","","","","","","","","","","","","","","","","","","","","","","","","","","feedback_test","","","","","","","","",""
"736","","f","psychophysics","132","699665","0.0-8.0-0.0-1.1-0.1-0.60","5","6","5","5","2","4","4","4","4","5","4","1","-3","1","0","1","0","1","1","4","4","5","4","4","4","5","4","5","5","6","6","4","4","2","6","7","6","8","5","5","3","3","6","2","7","1","6","5","1","3","2","6","1","3","2","5","7","5","2","2","2","2","2","1","5","2","5","5","6","5","2","3","6","1","6","6","7","3","3","766374165644316674","应","15","Female","[""好她"",""坏我"",""坏她"",""好我""]","[""强她"",""弱我"",""弱她"",""强我""]","","","","","","","","nonmatch","","","","","","","","","","key","f","16.66504854368932","747.8345776424576","416.9343220484498","f","true","nonmatch","img/triangle.png","坏我","好她","prac_ALT2_moral","practice_moral","","","","","","","","",""
"null","<span style='color:GreenYellow; font-size: 70px;'>正确! </span>","null","html-keyboard-response","133","700168","0.0-8.0-0.0-1.1-0.1-1.60","5","6","5","5","2","4","4","4","4","5","4","1","-3","1","0","1","0","1","1","4","4","5","4","4","4","5","4","5","5","6","6","4","4","2","6","7","6","8","5","5","3","3","6","2","7","1","6","5","1","3","2","6","1","3","2","5","7","5","2","2","2","2","2","1","5","2","5","5","6","5","2","3","6","1","6","6","7","3","3","766374165644316674","应","15","Female","[""好她"",""坏我"",""坏她"",""好我""]","[""强她"",""弱我"",""弱她"",""强我""]","","","","","","","","","","","","","","","","","","","","","","","","","","","","","","feedback_test","","","","","","","","",""
"1018","","f","psychophysics","134","702188","0.0-8.0-0.0-1.1-0.1-0.61","5","6","5","5","2","4","4","4","4","5","4","1","-3","1","0","1","0","1","1","4","4","5","4","4","4","5","4","5","5","6","6","4","4","2","6","7","6","8","5","5","3","3","6","2","7","1","6","5","1","3","2","6","1","3","2","5","7","5","2","2","2","2","2","1","5","2","5","5","6","5","2","3","6","1","6","6","7","3","3","766374165644316674","应","15","Female","[""好她"",""坏我"",""坏她"",""好我""]","[""强她"",""弱我"",""弱她"",""强我""]","","","","","","","","nonmatch","","","","","","","","","","key","f","16.66416666666628","747.8345776424576","416.9343220484498","j","false","match","img/hexagon.png","坏她","坏她","prac_ALT2_moral","practice_moral","","","","","","","","",""
"null","<span style='color:red; font-size: 70px;'>错误! </span>","null","html-keyboard-response","135","702689","0.0-8.0-0.0-1.1-0.1-1.61","5","6","5","5","2","4","4","4","4","5","4","1","-3","1","0","1","0","1","1","4","4","5","4","4","4","5","4","5","5","6","6","4","4","2","6","7","6","8","5","5","3","3","6","2","7","1","6","5","1","3","2","6","1","3","2","5","7","5","2","2","2","2","2","1","5","2","5","5","6","5","2","3","6","1","6","6","7","3","3","766374165644316674","应","15","Female","[""好她"",""坏我"",""坏她"",""好我""]","[""强她"",""弱我"",""弱她"",""强我""]","","","","","","","","","","","","","","","","","","","","","","","","","","","","","","feedback_test","","","","","","","","",""
