"rt","stimulus","response","trial_type","trial_index","time_elapsed","internal_node_id","swb_1","swb_2","swb_3","swb_4","swb_5","LOT_1","LOT_2","LOT_3","LOT_4","LOT_5","LOT_6","IPC_1","IPC_2","IPC_3","IPC_4","IPC_5","IPC_6","IPC_7","IPC_8","MorIden_1","MorIden_2","MorIden_3","MorIden_4","MorIden_5","MorIden_6","MorIden_7","MorIden_8","MorIden_9","MorIden_10","moralSeImag_1","moralSeImag_2","moralSeImag_3","moralSeImag_4","moralSeImag_5","moralSeImag_6","moralSeImag_7","moralSeImag_8","moralSeImag_9","sde_1","sde_2","sde_3","sde_4","sde_5","sde_6","sde_7","sde_8","sde_9","sde_10","trap2","sde_11","sde_12","sde_13","sde_14","sde_15","sde_16","sde_17","sde_18","sde_19","sde_20","IM_1","IM_2","IM_3","IM_4","IM_5","IM_6","IM_7","IM_8","IM_9","IM_10","IM_11","IM_12","IM_13","IM_14","IM_15","IM_16","IM_17","IM_18","IM_19","IM_20","subj_idx","friend_name","ParticipantID","Sex","Word","Word2","value","success","timeout","failed_images","failed_audio","failed_video","user_agent","responses","item_order","radio_event_ids","radio_event_times","key_event_times","mouse_event_times","straightlining","zigzagging","honeypot","view_history","response_type","key_press","avg_frame_time","center_x","center_y","correct_response","correct","identity","Image","word","condition","task_id","screen_id","time_stamp","person","valence","domain","math","status","duration","question_order","trap2_item"
"3046","
   <p><div style='color:white; font-size: 25px'>您好，欢迎参加本次实验。</div></p>
   <p><div style='color:white; font-size: 25px'>为充分保障您的权利，请确保您已经知晓并同意《参与实验同意书》以及《数据公开知情同意书》。</div></p>
   <p><div style='color:white; font-size: 25px'>如果您未见过上述内容，请咨询实验员。</div></p>
   <p style='color:white; font-size: 25px'>如果您选择继续实验，则表示您已经清楚两份知情同意书的内容并同意。</p>
   <p><div style = ""color: pink;font-size:30px;"">请确保您记得day0的实验编号，您将在本次实验输入该编号，若您忘记，请咨询实验员后作答。</div></p>
   <p><div style = ""color:lightblue;font-size:25px;"">请您尽可能认真地作答，我们将依据您在各问卷和按键任务中的作答质量发放报酬。</div></p>
   <p> <div style = ""color: green""><按空格键至下页></div> </p>
   "," ","html-keyboard-response","0","3056","0.0-0.0","5","5","6","5","5","4","2","4","4","4","5","1","0","1","2","0","0","1","0","5","4","5","4","4","4","4","4","4","5","5","6","4","6","5","6","5","4","6","5","5","3","3","6","3","5","1","6","3","1","6","3","5","5","5","5","5","3","6","6","2","6","3","3","3","6","3","6","5","6","5","5","6","5","3","5","6","5","3","5","767404514553892865","X","87","Female","[""好她"",""坏我"",""坏她"",""好我""]","[""强她"",""弱我"",""弱她"",""强我""]","","","","","","","","","","","","","","","","","","","","","","","","","","","","","","","","","","","","","","",""
"","","","call-function","1","3060","0.0-1.0-0.0","5","5","6","5","5","4","2","4","4","4","5","1","0","1","2","0","0","1","0","5","4","5","4","4","4","4","4","4","5","5","6","4","6","5","6","5","4","6","5","5","3","3","6","3","5","1","6","3","1","6","3","5","5","5","5","5","3","6","6","2","6","3","3","3","6","3","6","5","6","5","5","6","5","3","5","6","5","3","5","767404514553892865","X","87","Female","[""好她"",""坏我"",""坏她"",""好我""]","[""强她"",""弱我"",""弱她"",""强我""]","","","","","","","","","","","","","","","","","","","","","","","","","","","","","","","","","","","","","","",""
"9061","","[{""name"":""Sex"",""value"":""1""},{""name"":""friend_name"",""value"":""X""},{""name"":""ParticipantID"",""value"":""87""}]","survey-html-form","2","12124","0.0-1.0-1.0","5","5","6","5","5","4","2","4","4","4","5","1","0","1","2","0","0","1","0","5","4","5","4","4","4","4","4","4","5","5","6","4","6","5","6","5","4","6","5","5","3","3","6","3","5","1","6","3","1","6","3","5","5","5","5","5","3","6","6","2","6","3","3","3","6","3","6","5","6","5","5","6","5","3","5","6","5","3","5","767404514553892865","X","87","Female","[""好她"",""坏我"",""坏她"",""好我""]","[""强她"",""弱我"",""弱她"",""强我""]","","","","","","","","","","","","","","","","","","","","","","","","","","","","","","","","","","","","","","",""
"","","","preload","3","12662","0.0-2.0","5","5","6","5","5","4","2","4","4","4","5","1","0","1","2","0","0","1","0","5","4","5","4","4","4","4","4","4","5","5","6","4","6","5","6","5","4","6","5","5","3","3","6","3","5","1","6","3","1","6","3","5","5","5","5","5","3","6","6","2","6","3","3","3","6","3","6","5","6","5","5","6","5","3","5","6","5","3","5","767404514553892865","X","87","Female","[""好她"",""坏我"",""坏她"",""好我""]","[""强她"",""弱我"",""弱她"",""强我""]","","true","false","[]","[]","[]","","","","","","","","","","","","","","","","","","","","","","","","","","","","","","","","",""
"","","","fullscreen","4","15469","0.0-3.0","5","5","6","5","5","4","2","4","4","4","5","1","0","1","2","0","0","1","0","5","4","5","4","4","4","4","4","4","5","5","6","4","6","5","6","5","4","6","5","5","3","3","6","3","5","1","6","3","1","6","3","5","5","5","5","5","3","6","6","2","6","3","3","3","6","3","6","5","6","5","5","6","5","3","5","6","5","3","5","767404514553892865","X","87","Female","[""好她"",""坏我"",""坏她"",""好我""]","[""强她"",""弱我"",""弱她"",""强我""]","","true","","","","","{}","","","","","","","","","","","","","","","","","","","","","","","","","","","","","","","",""
"8035.400000000023","","{""Q01"":""5"",""Q02"":""5"",""Q03"":""6"",""Q04"":""5"",""Q05"":""5""}","survey-template","5","23515","0.0-4.0","5","5","6","5","5","4","2","4","4","4","5","1","0","1","2","0","0","1","0","5","4","5","4","4","4","4","4","4","5","5","6","4","6","5","6","5","4","6","5","5","3","3","6","3","5","1","6","3","1","6","3","5","5","5","5","5","3","6","6","2","6","3","3","3","6","3","6","5","6","5","5","6","5","3","5","6","5","3","5","767404514553892865","X","87","Female","[""好她"",""坏我"",""坏她"",""好我""]","[""强她"",""弱我"",""弱她"",""强我""]","","","","","","","","{""Q01"":""5"",""Q02"":""5"",""Q03"":""6"",""Q04"":""5"",""Q05"":""5""}","[0,1,2,3,4]","[""Q01"",""Q02"",""Q03"",""Q04"",""Q05""]","[2811.3000000000466,3817.8000000000466,4797.900000000023,6153.900000000023,7119.800000000047]","[]","[2811.3000000000466,3817.8000000000466,4797.900000000023,6153.900000000023,7119.800000000047,8029.5]","0.8","0.5","0","","","","","","","","","","","","","","","","","","","","","","",""
"20502.5","","{""Q01"":""4"",""Q02"":""2"",""Q03"":""4"",""Q04"":""4"",""Q05"":""4"",""Q06"":""5""}","survey-template","6","44038","0.0-5.0","5","5","6","5","5","4","2","4","4","4","5","1","0","1","2","0","0","1","0","5","4","5","4","4","4","4","4","4","5","5","6","4","6","5","6","5","4","6","5","5","3","3","6","3","5","1","6","3","1","6","3","5","5","5","5","5","3","6","6","2","6","3","3","3","6","3","6","5","6","5","5","6","5","3","5","6","5","3","5","767404514553892865","X","87","Female","[""好她"",""坏我"",""坏她"",""好我""]","[""强她"",""弱我"",""弱她"",""强我""]","","","","","","","","{""Q01"":""4"",""Q02"":""2"",""Q03"":""4"",""Q04"":""4"",""Q05"":""4"",""Q06"":""5""}","[0,1,2,3,4,5]","[""Q01"",""Q02"",""Q03"",""Q04"",""Q05"",""Q06"",""Q06""]","[3508.4000000000233,5377.099999999977,7635.5,8807.900000000023,13198.400000000023,15189.400000000023,17792.199999999953]","[]","[3508.4000000000233,5377.099999999977,7635.5,8807.900000000023,13198.400000000023,15189.400000000023,17792.199999999953,20500.400000000023]","0.5","0","0","","","","","","","","","","","","","","","","","","","","","","",""
"18124.5","","{""Q01"":""1"",""Q02"":""0"",""Q03"":""1"",""Q04"":""2"",""Q05"":""0"",""Q06"":""0"",""Q07"":""1"",""Q08"":""0""}","survey-template","7","62177","0.0-6.0","5","5","6","5","5","4","2","4","4","4","5","1","0","1","2","0","0","1","0","5","4","5","4","4","4","4","4","4","5","5","6","4","6","5","6","5","4","6","5","5","3","3","6","3","5","1","6","3","1","6","3","5","5","5","5","5","3","6","6","2","6","3","3","3","6","3","6","5","6","5","5","6","5","3","5","6","5","3","5","767404514553892865","X","87","Female","[""好她"",""坏我"",""坏她"",""好我""]","[""强她"",""弱我"",""弱她"",""强我""]","","","","","","","","{""Q01"":""1"",""Q02"":""0"",""Q03"":""1"",""Q04"":""2"",""Q05"":""0"",""Q06"":""0"",""Q07"":""1"",""Q08"":""0""}","[0,1,2,3,4,5,6,7]","[""Q01"",""Q02"",""Q03"",""Q04"",""Q05"",""Q06"",""Q07"",""Q08""]","[1989.3000000000466,3520.70000000007,4747.099999999977,8344.20000000007,13553.800000000047,14396.599999999977,15920.70000000007,17296.5]","[]","[1989.3000000000466,3520.70000000007,4747.099999999977,7215.599999999977,8344.20000000007,13553.800000000047,14396.599999999977,15920.70000000007,17296.5,18121.099999999977]","0.5","0.7142857142857143","0","","","","","","","","","","","","","","","","","","","","","","",""
"22668","","","instructions","8","84854","0.0-7.0","5","5","6","5","5","4","2","4","4","4","5","1","0","1","2","0","0","1","0","5","4","5","4","4","4","4","4","4","5","5","6","4","6","5","6","5","4","6","5","5","3","3","6","3","5","1","6","3","1","6","3","5","5","5","5","5","3","6","6","2","6","3","3","3","6","3","6","5","6","5","5","6","5","3","5","6","5","3","5","767404514553892865","X","87","Female","[""好她"",""坏我"",""坏她"",""好我""]","[""强她"",""弱我"",""弱她"",""强我""]","","","","","","","","","","","","","","","","","[{""page_index"":0,""viewing_time"":22666}]","","","","","","","","","","","","","","","","","","","","","",""
"182308","","","instructions","9","267170","0.0-8.0-0.0-0.0","5","5","6","5","5","4","2","4","4","4","5","1","0","1","2","0","0","1","0","5","4","5","4","4","4","4","4","4","5","5","6","4","6","5","6","5","4","6","5","5","3","3","6","3","5","1","6","3","1","6","3","5","5","5","5","5","3","6","6","2","6","3","3","3","6","3","6","5","6","5","5","6","5","3","5","6","5","3","5","767404514553892865","X","87","Female","[""好她"",""坏我"",""坏她"",""好我""]","[""强她"",""弱我"",""弱她"",""强我""]","","","","","","","","","","","","","","","","","[{""page_index"":0,""viewing_time"":15781},{""page_index"":1,""viewing_time"":142966},{""page_index"":2,""viewing_time"":5452},{""page_index"":3,""viewing_time"":18110}]","","","","","","","","","","","","","","","","","","","","","",""
"899","","f","psychophysics","10","269124","0.0-8.0-0.0-1.0-0.0-0.0","5","5","6","5","5","4","2","4","4","4","5","1","0","1","2","0","0","1","0","5","4","5","4","4","4","4","4","4","5","5","6","4","6","5","6","5","4","6","5","5","3","3","6","3","5","1","6","3","1","6","3","5","5","5","5","5","3","6","6","2","6","3","3","3","6","3","6","5","6","5","5","6","5","3","5","6","5","3","5","767404514553892865","X","87","Female","[""好她"",""坏我"",""坏她"",""好我""]","[""强她"",""弱我"",""弱她"",""强我""]","","","","","","","","nonmatch","","","","","","","","","","key","f","19.415030927835367","683","380","f","true","nonmatch","img/ellipse.png","好她","坏我","prac_ALT2_moral","practice_moral","","","","","","","","",""
"null","<span style='color:GreenYellow; font-size: 70px;'>正确! </span>","null","html-keyboard-response","11","269634","0.0-8.0-0.0-1.0-0.0-1.0","5","5","6","5","5","4","2","4","4","4","5","1","0","1","2","0","0","1","0","5","4","5","4","4","4","4","4","4","5","5","6","4","6","5","6","5","4","6","5","5","3","3","6","3","5","1","6","3","1","6","3","5","5","5","5","5","3","6","6","2","6","3","3","3","6","3","6","5","6","5","5","6","5","3","5","6","5","3","5","767404514553892865","X","87","Female","[""好她"",""坏我"",""坏她"",""好我""]","[""强她"",""弱我"",""弱她"",""强我""]","","","","","","","","","","","","","","","","","","","","","","","","","","","","","","feedback_test","","","","","","","","",""
"732","","f","psychophysics","12","271370","0.0-8.0-0.0-1.0-0.0-0.1","5","5","6","5","5","4","2","4","4","4","5","1","0","1","2","0","0","1","0","5","4","5","4","4","4","4","4","4","5","5","6","4","6","5","6","5","4","6","5","5","3","3","6","3","5","1","6","3","1","6","3","5","5","5","5","5","3","6","6","2","6","3","3","3","6","3","6","5","6","5","5","6","5","3","5","6","5","3","5","767404514553892865","X","87","Female","[""好她"",""坏我"",""坏她"",""好我""]","[""强她"",""弱我"",""弱她"",""强我""]","","","","","","","","nonmatch","","","","","","","","","","key","f","18.658673913043458","683","380","j","false","match","img/ellipse.png","坏我","坏我","prac_ALT2_moral","practice_moral","","","","","","","","",""
"null","<span style='color:red; font-size: 70px;'>错误! </span>","null","html-keyboard-response","13","271874","0.0-8.0-0.0-1.0-0.0-1.1","5","5","6","5","5","4","2","4","4","4","5","1","0","1","2","0","0","1","0","5","4","5","4","4","4","4","4","4","5","5","6","4","6","5","6","5","4","6","5","5","3","3","6","3","5","1","6","3","1","6","3","5","5","5","5","5","3","6","6","2","6","3","3","3","6","3","6","5","6","5","5","6","5","3","5","6","5","3","5","767404514553892865","X","87","Female","[""好她"",""坏我"",""坏她"",""好我""]","[""强她"",""弱我"",""弱她"",""强我""]","","","","","","","","","","","","","","","","","","","","","","","","","","","","","","feedback_test","","","","","","","","",""
"958","","f","psychophysics","14","273846","0.0-8.0-0.0-1.0-0.0-0.2","5","5","6","5","5","4","2","4","4","4","5","1","0","1","2","0","0","1","0","5","4","5","4","4","4","4","4","4","5","5","6","4","6","5","6","5","4","6","5","5","3","3","6","3","5","1","6","3","1","6","3","5","5","5","5","5","3","6","6","2","6","3","3","3","6","3","6","5","6","5","5","6","5","3","5","6","5","3","5","767404514553892865","X","87","Female","[""好她"",""坏我"",""坏她"",""好我""]","[""强她"",""弱我"",""弱她"",""强我""]","","","","","","","","nonmatch","","","","","","","","","","key","f","19.141148514851427","683","380","j","false","match","img/hexagon.png","坏她","坏她","prac_ALT2_moral","practice_moral","","","","","","","","",""
"null","<span style='color:red; font-size: 70px;'>错误! </span>","null","html-keyboard-response","15","274354","0.0-8.0-0.0-1.0-0.0-1.2","5","5","6","5","5","4","2","4","4","4","5","1","0","1","2","0","0","1","0","5","4","5","4","4","4","4","4","4","5","5","6","4","6","5","6","5","4","6","5","5","3","3","6","3","5","1","6","3","1","6","3","5","5","5","5","5","3","6","6","2","6","3","3","3","6","3","6","5","6","5","5","6","5","3","5","6","5","3","5","767404514553892865","X","87","Female","[""好她"",""坏我"",""坏她"",""好我""]","[""强她"",""弱我"",""弱她"",""强我""]","","","","","","","","","","","","","","","","","","","","","","","","","","","","","","feedback_test","","","","","","","","",""
"864","","j","psychophysics","16","276233","0.0-8.0-0.0-1.0-0.0-0.3","5","5","6","5","5","4","2","4","4","4","5","1","0","1","2","0","0","1","0","5","4","5","4","4","4","4","4","4","5","5","6","4","6","5","6","5","4","6","5","5","3","3","6","3","5","1","6","3","1","6","3","5","5","5","5","5","3","6","6","2","6","3","3","3","6","3","6","5","6","5","5","6","5","3","5","6","5","3","5","767404514553892865","X","87","Female","[""好她"",""坏我"",""坏她"",""好我""]","[""强她"",""弱我"",""弱她"",""强我""]","","","","","","","","match","","","","","","","","","","key","j","19.096458333332823","683","380","j","true","match","img/ellipse.png","坏我","坏我","prac_ALT2_moral","practice_moral","","","","","","","","",""
"null","<span style='color:GreenYellow; font-size: 70px;'>正确! </span>","null","html-keyboard-response","17","276738","0.0-8.0-0.0-1.0-0.0-1.3","5","5","6","5","5","4","2","4","4","4","5","1","0","1","2","0","0","1","0","5","4","5","4","4","4","4","4","4","5","5","6","4","6","5","6","5","4","6","5","5","3","3","6","3","5","1","6","3","1","6","3","5","5","5","5","5","3","6","6","2","6","3","3","3","6","3","6","5","6","5","5","6","5","3","5","6","5","3","5","767404514553892865","X","87","Female","[""好她"",""坏我"",""坏她"",""好我""]","[""强她"",""弱我"",""弱她"",""强我""]","","","","","","","","","","","","","","","","","","","","","","","","","","","","","","feedback_test","","","","","","","","",""
"843","","j","psychophysics","18","278589","0.0-8.0-0.0-1.0-0.0-0.4","5","5","6","5","5","4","2","4","4","4","5","1","0","1","2","0","0","1","0","5","4","5","4","4","4","4","4","4","5","5","6","4","6","5","6","5","4","6","5","5","3","3","6","3","5","1","6","3","1","6","3","5","5","5","5","5","3","6","6","2","6","3","3","3","6","3","6","5","6","5","5","6","5","3","5","6","5","3","5","767404514553892865","X","87","Female","[""好她"",""坏我"",""坏她"",""好我""]","[""强她"",""弱我"",""弱她"",""强我""]","","","","","","","","match","","","","","","","","","","key","j","18.34943434343417","683","380","j","true","match","img/trapezoid.png","好我","好我","prac_ALT2_moral","practice_moral","","","","","","","","",""
"null","<span style='color:GreenYellow; font-size: 70px;'>正确! </span>","null","html-keyboard-response","19","279098","0.0-8.0-0.0-1.0-0.0-1.4","5","5","6","5","5","4","2","4","4","4","5","1","0","1","2","0","0","1","0","5","4","5","4","4","4","4","4","4","5","5","6","4","6","5","6","5","4","6","5","5","3","3","6","3","5","1","6","3","1","6","3","5","5","5","5","5","3","6","6","2","6","3","3","3","6","3","6","5","6","5","5","6","5","3","5","6","5","3","5","767404514553892865","X","87","Female","[""好她"",""坏我"",""坏她"",""好我""]","[""强她"",""弱我"",""弱她"",""强我""]","","","","","","","","","","","","","","","","","","","","","","","","","","","","","","feedback_test","","","","","","","","",""
"781","","f","psychophysics","20","280885","0.0-8.0-0.0-1.0-0.0-0.5","5","5","6","5","5","4","2","4","4","4","5","1","0","1","2","0","0","1","0","5","4","5","4","4","4","4","4","4","5","5","6","4","6","5","6","5","4","6","5","5","3","3","6","3","5","1","6","3","1","6","3","5","5","5","5","5","3","6","6","2","6","3","3","3","6","3","6","5","6","5","5","6","5","3","5","6","5","3","5","767404514553892865","X","87","Female","[""好她"",""坏我"",""坏她"",""好我""]","[""强她"",""弱我"",""弱她"",""强我""]","","","","","","","","nonmatch","","","","","","","","","","key","f","19.02097826086949","683","380","f","true","nonmatch","img/trapezoid.png","坏她","好我","prac_ALT2_moral","practice_moral","","","","","","","","",""
"null","<span style='color:GreenYellow; font-size: 70px;'>正确! </span>","null","html-keyboard-response","21","281394","0.0-8.0-0.0-1.0-0.0-1.5","5","5","6","5","5","4","2","4","4","4","5","1","0","1","2","0","0","1","0","5","4","5","4","4","4","4","4","4","5","5","6","4","6","5","6","5","4","6","5","5","3","3","6","3","5","1","6","3","1","6","3","5","5","5","5","5","3","6","6","2","6","3","3","3","6","3","6","5","6","5","5","6","5","3","5","6","5","3","5","767404514553892865","X","87","Female","[""好她"",""坏我"",""坏她"",""好我""]","[""强她"",""弱我"",""弱她"",""强我""]","","","","","","","","","","","","","","","","","","","","","","","","","","","","","","feedback_test","","","","","","","","",""
"876","","j","psychophysics","22","283287","0.0-8.0-0.0-1.0-0.0-0.6","5","5","6","5","5","4","2","4","4","4","5","1","0","1","2","0","0","1","0","5","4","5","4","4","4","4","4","4","5","5","6","4","6","5","6","5","4","6","5","5","3","3","6","3","5","1","6","3","1","6","3","5","5","5","5","5","3","6","6","2","6","3","3","3","6","3","6","5","6","5","5","6","5","3","5","6","5","3","5","767404514553892865","X","87","Female","[""好她"",""坏我"",""坏她"",""好我""]","[""强她"",""弱我"",""弱她"",""强我""]","","","","","","","","match","","","","","","","","","","key","j","19.07140206185604","683","380","f","false","nonmatch","img/hexagon.png","好她","坏她","prac_ALT2_moral","practice_moral","","","","","","","","",""
"null","<span style='color:red; font-size: 70px;'>错误! </span>","null","html-keyboard-response","23","283793","0.0-8.0-0.0-1.0-0.0-1.6","5","5","6","5","5","4","2","4","4","4","5","1","0","1","2","0","0","1","0","5","4","5","4","4","4","4","4","4","5","5","6","4","6","5","6","5","4","6","5","5","3","3","6","3","5","1","6","3","1","6","3","5","5","5","5","5","3","6","6","2","6","3","3","3","6","3","6","5","6","5","5","6","5","3","5","6","5","3","5","767404514553892865","X","87","Female","[""好她"",""坏我"",""坏她"",""好我""]","[""强她"",""弱我"",""弱她"",""强我""]","","","","","","","","","","","","","","","","","","","","","","","","","","","","","","feedback_test","","","","","","","","",""
"909","","f","psychophysics","24","285716","0.0-8.0-0.0-1.0-0.0-0.7","5","5","6","5","5","4","2","4","4","4","5","1","0","1","2","0","0","1","0","5","4","5","4","4","4","4","4","4","5","5","6","4","6","5","6","5","4","6","5","5","3","3","6","3","5","1","6","3","1","6","3","5","5","5","5","5","3","6","6","2","6","3","3","3","6","3","6","5","6","5","5","6","5","3","5","6","5","3","5","767404514553892865","X","87","Female","[""好她"",""坏我"",""坏她"",""好我""]","[""强她"",""弱我"",""弱她"",""强我""]","","","","","","","","nonmatch","","","","","","","","","","key","f","18.463313725490497","683","380","f","true","nonmatch","img/trapezoid.png","坏我","好我","prac_ALT2_moral","practice_moral","","","","","","","","",""
"null","<span style='color:GreenYellow; font-size: 70px;'>正确! </span>","null","html-keyboard-response","25","286233","0.0-8.0-0.0-1.0-0.0-1.7","5","5","6","5","5","4","2","4","4","4","5","1","0","1","2","0","0","1","0","5","4","5","4","4","4","4","4","4","5","5","6","4","6","5","6","5","4","6","5","5","3","3","6","3","5","1","6","3","1","6","3","5","5","5","5","5","3","6","6","2","6","3","3","3","6","3","6","5","6","5","5","6","5","3","5","6","5","3","5","767404514553892865","X","87","Female","[""好她"",""坏我"",""坏她"",""好我""]","[""强她"",""弱我"",""弱她"",""强我""]","","","","","","","","","","","","","","","","","","","","","","","","","","","","","","feedback_test","","","","","","","","",""
"null","","null","psychophysics","26","288447","0.0-8.0-0.0-1.0-0.0-0.8","5","5","6","5","5","4","2","4","4","4","5","1","0","1","2","0","0","1","0","5","4","5","4","4","4","4","4","4","5","5","6","4","6","5","6","5","4","6","5","5","3","3","6","3","5","1","6","3","1","6","3","5","5","5","5","5","3","6","6","2","6","3","3","3","6","3","6","5","6","5","5","6","5","3","5","6","5","3","5","767404514553892865","X","87","Female","[""好她"",""坏我"",""坏她"",""好我""]","[""强她"",""弱我"",""弱她"",""强我""]","","","","","","","","null","","","","","","","","","","key","null","18.660222222222092","683","380","f","false","nonmatch","img/diamond.png","好我","好她","prac_ALT2_moral","practice_moral","","","","","","","","",""
"null","<span class='add_' style='color:yellow; font-size: 70px;'> 太慢! </span>","null","html-keyboard-response","27","288954","0.0-8.0-0.0-1.0-0.0-1.8","5","5","6","5","5","4","2","4","4","4","5","1","0","1","2","0","0","1","0","5","4","5","4","4","4","4","4","4","5","5","6","4","6","5","6","5","4","6","5","5","3","3","6","3","5","1","6","3","1","6","3","5","5","5","5","5","3","6","6","2","6","3","3","3","6","3","6","5","6","5","5","6","5","3","5","6","5","3","5","767404514553892865","X","87","Female","[""好她"",""坏我"",""坏她"",""好我""]","[""强她"",""弱我"",""弱她"",""强我""]","","","","","","","","","","","","","","","","","","","","","","","","","","","","","","feedback_test","","","","","","","","",""
"792","","j","psychophysics","28","290756","0.0-8.0-0.0-1.0-0.0-0.9","5","5","6","5","5","4","2","4","4","4","5","1","0","1","2","0","0","1","0","5","4","5","4","4","4","4","4","4","5","5","6","4","6","5","6","5","4","6","5","5","3","3","6","3","5","1","6","3","1","6","3","5","5","5","5","5","3","6","6","2","6","3","3","3","6","3","6","5","6","5","5","6","5","3","5","6","5","3","5","767404514553892865","X","87","Female","[""好她"",""坏我"",""坏她"",""好我""]","[""强她"",""弱我"",""弱她"",""强我""]","","","","","","","","match","","","","","","","","","","key","j","18.595747368420646","683","380","j","true","match","img/diamond.png","好她","好她","prac_ALT2_moral","practice_moral","","","","","","","","",""
"null","<span style='color:GreenYellow; font-size: 70px;'>正确! </span>","null","html-keyboard-response","29","291274","0.0-8.0-0.0-1.0-0.0-1.9","5","5","6","5","5","4","2","4","4","4","5","1","0","1","2","0","0","1","0","5","4","5","4","4","4","4","4","4","5","5","6","4","6","5","6","5","4","6","5","5","3","3","6","3","5","1","6","3","1","6","3","5","5","5","5","5","3","6","6","2","6","3","3","3","6","3","6","5","6","5","5","6","5","3","5","6","5","3","5","767404514553892865","X","87","Female","[""好她"",""坏我"",""坏她"",""好我""]","[""强她"",""弱我"",""弱她"",""强我""]","","","","","","","","","","","","","","","","","","","","","","","","","","","","","","feedback_test","","","","","","","","",""
"986","","j","psychophysics","30","293271","0.0-8.0-0.0-1.0-0.0-0.10","5","5","6","5","5","4","2","4","4","4","5","1","0","1","2","0","0","1","0","5","4","5","4","4","4","4","4","4","5","5","6","4","6","5","6","5","4","6","5","5","3","3","6","3","5","1","6","3","1","6","3","5","5","5","5","5","3","6","6","2","6","3","3","3","6","3","6","5","6","5","5","6","5","3","5","6","5","3","5","767404514553892865","X","87","Female","[""好她"",""坏我"",""坏她"",""好我""]","[""强她"",""弱我"",""弱她"",""强我""]","","","","","","","","match","","","","","","","","","","key","j","18.931281553397692","683","380","j","true","match","img/hexagon.png","坏她","坏她","prac_ALT2_moral","practice_moral","","","","","","","","",""
"null","<span style='color:GreenYellow; font-size: 70px;'>正确! </span>","null","html-keyboard-response","31","293778","0.0-8.0-0.0-1.0-0.0-1.10","5","5","6","5","5","4","2","4","4","4","5","1","0","1","2","0","0","1","0","5","4","5","4","4","4","4","4","4","5","5","6","4","6","5","6","5","4","6","5","5","3","3","6","3","5","1","6","3","1","6","3","5","5","5","5","5","3","6","6","2","6","3","3","3","6","3","6","5","6","5","5","6","5","3","5","6","5","3","5","767404514553892865","X","87","Female","[""好她"",""坏我"",""坏她"",""好我""]","[""强她"",""弱我"",""弱她"",""强我""]","","","","","","","","","","","","","","","","","","","","","","","","","","","","","","feedback_test","","","","","","","","",""
"670","","j","psychophysics","32","295465","0.0-8.0-0.0-1.0-0.0-0.11","5","5","6","5","5","4","2","4","4","4","5","1","0","1","2","0","0","1","0","5","4","5","4","4","4","4","4","4","5","5","6","4","6","5","6","5","4","6","5","5","3","3","6","3","5","1","6","3","1","6","3","5","5","5","5","5","3","6","6","2","6","3","3","3","6","3","6","5","6","5","5","6","5","3","5","6","5","3","5","767404514553892865","X","87","Female","[""好她"",""坏我"",""坏她"",""好我""]","[""强她"",""弱我"",""弱她"",""强我""]","","","","","","","","match","","","","","","","","","","key","j","18.96475862068975","683","380","j","true","match","img/ellipse.png","坏我","坏我","prac_ALT2_moral","practice_moral","","","","","","","","",""
"null","<span style='color:GreenYellow; font-size: 70px;'>正确! </span>","null","html-keyboard-response","33","295970","0.0-8.0-0.0-1.0-0.0-1.11","5","5","6","5","5","4","2","4","4","4","5","1","0","1","2","0","0","1","0","5","4","5","4","4","4","4","4","4","5","5","6","4","6","5","6","5","4","6","5","5","3","3","6","3","5","1","6","3","1","6","3","5","5","5","5","5","3","6","6","2","6","3","3","3","6","3","6","5","6","5","5","6","5","3","5","6","5","3","5","767404514553892865","X","87","Female","[""好她"",""坏我"",""坏她"",""好我""]","[""强她"",""弱我"",""弱她"",""强我""]","","","","","","","","","","","","","","","","","","","","","","","","","","","","","","feedback_test","","","","","","","","",""
"871","","f","psychophysics","34","297863","0.0-8.0-0.0-1.0-0.0-0.12","5","5","6","5","5","4","2","4","4","4","5","1","0","1","2","0","0","1","0","5","4","5","4","4","4","4","4","4","5","5","6","4","6","5","6","5","4","6","5","5","3","3","6","3","5","1","6","3","1","6","3","5","5","5","5","5","3","6","6","2","6","3","3","3","6","3","6","5","6","5","5","6","5","3","5","6","5","3","5","767404514553892865","X","87","Female","[""好她"",""坏我"",""坏她"",""好我""]","[""强她"",""弱我"",""弱她"",""强我""]","","","","","","","","nonmatch","","","","","","","","","","key","f","18.854464646464688","683","380","f","true","nonmatch","img/diamond.png","坏她","好她","prac_ALT2_moral","practice_moral","","","","","","","","",""
"null","<span style='color:GreenYellow; font-size: 70px;'>正确! </span>","null","html-keyboard-response","35","298370","0.0-8.0-0.0-1.0-0.0-1.12","5","5","6","5","5","4","2","4","4","4","5","1","0","1","2","0","0","1","0","5","4","5","4","4","4","4","4","4","5","5","6","4","6","5","6","5","4","6","5","5","3","3","6","3","5","1","6","3","1","6","3","5","5","5","5","5","3","6","6","2","6","3","3","3","6","3","6","5","6","5","5","6","5","3","5","6","5","3","5","767404514553892865","X","87","Female","[""好她"",""坏我"",""坏她"",""好我""]","[""强她"",""弱我"",""弱她"",""强我""]","","","","","","","","","","","","","","","","","","","","","","","","","","","","","","feedback_test","","","","","","","","",""
"954","","f","psychophysics","36","300333","0.0-8.0-0.0-1.0-0.0-0.13","5","5","6","5","5","4","2","4","4","4","5","1","0","1","2","0","0","1","0","5","4","5","4","4","4","4","4","4","5","5","6","4","6","5","6","5","4","6","5","5","3","3","6","3","5","1","6","3","1","6","3","5","5","5","5","5","3","6","6","2","6","3","3","3","6","3","6","5","6","5","5","6","5","3","5","6","5","3","5","767404514553892865","X","87","Female","[""好她"",""坏我"",""坏她"",""好我""]","[""强她"",""弱我"",""弱她"",""强我""]","","","","","","","","nonmatch","","","","","","","","","","key","f","18.953490196078373","683","380","f","true","nonmatch","img/hexagon.png","坏我","坏她","prac_ALT2_moral","practice_moral","","","","","","","","",""
"null","<span style='color:GreenYellow; font-size: 70px;'>正确! </span>","null","html-keyboard-response","37","300843","0.0-8.0-0.0-1.0-0.0-1.13","5","5","6","5","5","4","2","4","4","4","5","1","0","1","2","0","0","1","0","5","4","5","4","4","4","4","4","4","5","5","6","4","6","5","6","5","4","6","5","5","3","3","6","3","5","1","6","3","1","6","3","5","5","5","5","5","3","6","6","2","6","3","3","3","6","3","6","5","6","5","5","6","5","3","5","6","5","3","5","767404514553892865","X","87","Female","[""好她"",""坏我"",""坏她"",""好我""]","[""强她"",""弱我"",""弱她"",""强我""]","","","","","","","","","","","","","","","","","","","","","","","","","","","","","","feedback_test","","","","","","","","",""
"697","","j","psychophysics","38","302546","0.0-8.0-0.0-1.0-0.0-0.14","5","5","6","5","5","4","2","4","4","4","5","1","0","1","2","0","0","1","0","5","4","5","4","4","4","4","4","4","5","5","6","4","6","5","6","5","4","6","5","5","3","3","6","3","5","1","6","3","1","6","3","5","5","5","5","5","3","6","6","2","6","3","3","3","6","3","6","5","6","5","5","6","5","3","5","6","5","3","5","767404514553892865","X","87","Female","[""好她"",""坏我"",""坏她"",""好我""]","[""强她"",""弱我"",""弱她"",""强我""]","","","","","","","","match","","","","","","","","","","key","j","18.351325842696426","683","380","j","true","match","img/trapezoid.png","好我","好我","prac_ALT2_moral","practice_moral","","","","","","","","",""
"null","<span style='color:GreenYellow; font-size: 70px;'>正确! </span>","null","html-keyboard-response","39","303051","0.0-8.0-0.0-1.0-0.0-1.14","5","5","6","5","5","4","2","4","4","4","5","1","0","1","2","0","0","1","0","5","4","5","4","4","4","4","4","4","5","5","6","4","6","5","6","5","4","6","5","5","3","3","6","3","5","1","6","3","1","6","3","5","5","5","5","5","3","6","6","2","6","3","3","3","6","3","6","5","6","5","5","6","5","3","5","6","5","3","5","767404514553892865","X","87","Female","[""好她"",""坏我"",""坏她"",""好我""]","[""强她"",""弱我"",""弱她"",""强我""]","","","","","","","","","","","","","","","","","","","","","","","","","","","","","","feedback_test","","","","","","","","",""
"831","","f","psychophysics","40","304912","0.0-8.0-0.0-1.0-0.0-0.15","5","5","6","5","5","4","2","4","4","4","5","1","0","1","2","0","0","1","0","5","4","5","4","4","4","4","4","4","5","5","6","4","6","5","6","5","4","6","5","5","3","3","6","3","5","1","6","3","1","6","3","5","5","5","5","5","3","6","6","2","6","3","3","3","6","3","6","5","6","5","5","6","5","3","5","6","5","3","5","767404514553892865","X","87","Female","[""好她"",""坏我"",""坏她"",""好我""]","[""强她"",""弱我"",""弱她"",""强我""]","","","","","","","","nonmatch","","","","","","","","","","key","f","18.899587628866076","683","380","f","true","nonmatch","img/hexagon.png","好我","坏她","prac_ALT2_moral","practice_moral","","","","","","","","",""
"null","<span style='color:GreenYellow; font-size: 70px;'>正确! </span>","null","html-keyboard-response","41","305419","0.0-8.0-0.0-1.0-0.0-1.15","5","5","6","5","5","4","2","4","4","4","5","1","0","1","2","0","0","1","0","5","4","5","4","4","4","4","4","4","5","5","6","4","6","5","6","5","4","6","5","5","3","3","6","3","5","1","6","3","1","6","3","5","5","5","5","5","3","6","6","2","6","3","3","3","6","3","6","5","6","5","5","6","5","3","5","6","5","3","5","767404514553892865","X","87","Female","[""好她"",""坏我"",""坏她"",""好我""]","[""强她"",""弱我"",""弱她"",""强我""]","","","","","","","","","","","","","","","","","","","","","","","","","","","","","","feedback_test","","","","","","","","",""
"776","","f","psychophysics","42","307228","0.0-8.0-0.0-1.0-0.0-0.16","5","5","6","5","5","4","2","4","4","4","5","1","0","1","2","0","0","1","0","5","4","5","4","4","4","4","4","4","5","5","6","4","6","5","6","5","4","6","5","5","3","3","6","3","5","1","6","3","1","6","3","5","5","5","5","5","3","6","6","2","6","3","3","3","6","3","6","5","6","5","5","6","5","3","5","6","5","3","5","767404514553892865","X","87","Female","[""好她"",""坏我"",""坏她"",""好我""]","[""强她"",""弱我"",""弱她"",""强我""]","","","","","","","","nonmatch","","","","","","","","","","key","f","18.9708723404254","683","380","f","true","nonmatch","img/diamond.png","坏我","好她","prac_ALT2_moral","practice_moral","","","","","","","","",""
"null","<span style='color:GreenYellow; font-size: 70px;'>正确! </span>","null","html-keyboard-response","43","307739","0.0-8.0-0.0-1.0-0.0-1.16","5","5","6","5","5","4","2","4","4","4","5","1","0","1","2","0","0","1","0","5","4","5","4","4","4","4","4","4","5","5","6","4","6","5","6","5","4","6","5","5","3","3","6","3","5","1","6","3","1","6","3","5","5","5","5","5","3","6","6","2","6","3","3","3","6","3","6","5","6","5","5","6","5","3","5","6","5","3","5","767404514553892865","X","87","Female","[""好她"",""坏我"",""坏她"",""好我""]","[""强她"",""弱我"",""弱她"",""强我""]","","","","","","","","","","","","","","","","","","","","","","","","","","","","","","feedback_test","","","","","","","","",""
"882","","f","psychophysics","44","309640","0.0-8.0-0.0-1.0-0.0-0.17","5","5","6","5","5","4","2","4","4","4","5","1","0","1","2","0","0","1","0","5","4","5","4","4","4","4","4","4","5","5","6","4","6","5","6","5","4","6","5","5","3","3","6","3","5","1","6","3","1","6","3","5","5","5","5","5","3","6","6","2","6","3","3","3","6","3","6","5","6","5","5","6","5","3","5","6","5","3","5","767404514553892865","X","87","Female","[""好她"",""坏我"",""坏她"",""好我""]","[""强她"",""弱我"",""弱她"",""强我""]","","","","","","","","nonmatch","","","","","","","","","","key","f","19.046857142857185","683","380","f","true","nonmatch","img/ellipse.png","坏她","坏我","prac_ALT2_moral","practice_moral","","","","","","","","",""
"null","<span style='color:GreenYellow; font-size: 70px;'>正确! </span>","null","html-keyboard-response","45","310146","0.0-8.0-0.0-1.0-0.0-1.17","5","5","6","5","5","4","2","4","4","4","5","1","0","1","2","0","0","1","0","5","4","5","4","4","4","4","4","4","5","5","6","4","6","5","6","5","4","6","5","5","3","3","6","3","5","1","6","3","1","6","3","5","5","5","5","5","3","6","6","2","6","3","3","3","6","3","6","5","6","5","5","6","5","3","5","6","5","3","5","767404514553892865","X","87","Female","[""好她"",""坏我"",""坏她"",""好我""]","[""强她"",""弱我"",""弱她"",""强我""]","","","","","","","","","","","","","","","","","","","","","","","","","","","","","","feedback_test","","","","","","","","",""
"799","","j","psychophysics","46","311961","0.0-8.0-0.0-1.0-0.0-0.18","5","5","6","5","5","4","2","4","4","4","5","1","0","1","2","0","0","1","0","5","4","5","4","4","4","4","4","4","5","5","6","4","6","5","6","5","4","6","5","5","3","3","6","3","5","1","6","3","1","6","3","5","5","5","5","5","3","6","6","2","6","3","3","3","6","3","6","5","6","5","5","6","5","3","5","6","5","3","5","767404514553892865","X","87","Female","[""好她"",""坏我"",""坏她"",""好我""]","[""强她"",""弱我"",""弱她"",""强我""]","","","","","","","","match","","","","","","","","","","key","j","18.38414432989678","683","380","f","false","nonmatch","img/trapezoid.png","好她","好我","prac_ALT2_moral","practice_moral","","","","","","","","",""
"null","<span style='color:red; font-size: 70px;'>错误! </span>","null","html-keyboard-response","47","312466","0.0-8.0-0.0-1.0-0.0-1.18","5","5","6","5","5","4","2","4","4","4","5","1","0","1","2","0","0","1","0","5","4","5","4","4","4","4","4","4","5","5","6","4","6","5","6","5","4","6","5","5","3","3","6","3","5","1","6","3","1","6","3","5","5","5","5","5","3","6","6","2","6","3","3","3","6","3","6","5","6","5","5","6","5","3","5","6","5","3","5","767404514553892865","X","87","Female","[""好她"",""坏我"",""坏她"",""好我""]","[""强她"",""弱我"",""弱她"",""强我""]","","","","","","","","","","","","","","","","","","","","","","","","","","","","","","feedback_test","","","","","","","","",""
"784","","j","psychophysics","48","314259","0.0-8.0-0.0-1.0-0.0-0.19","5","5","6","5","5","4","2","4","4","4","5","1","0","1","2","0","0","1","0","5","4","5","4","4","4","4","4","4","5","5","6","4","6","5","6","5","4","6","5","5","3","3","6","3","5","1","6","3","1","6","3","5","5","5","5","5","3","6","6","2","6","3","3","3","6","3","6","5","6","5","5","6","5","3","5","6","5","3","5","767404514553892865","X","87","Female","[""好她"",""坏我"",""坏她"",""好我""]","[""强她"",""弱我"",""弱她"",""强我""]","","","","","","","","match","","","","","","","","","","key","j","18.995655913978705","683","380","f","false","nonmatch","img/ellipse.png","好我","坏我","prac_ALT2_moral","practice_moral","","","","","","","","",""
"null","<span style='color:red; font-size: 70px;'>错误! </span>","null","html-keyboard-response","49","314762","0.0-8.0-0.0-1.0-0.0-1.19","5","5","6","5","5","4","2","4","4","4","5","1","0","1","2","0","0","1","0","5","4","5","4","4","4","4","4","4","5","5","6","4","6","5","6","5","4","6","5","5","3","3","6","3","5","1","6","3","1","6","3","5","5","5","5","5","3","6","6","2","6","3","3","3","6","3","6","5","6","5","5","6","5","3","5","6","5","3","5","767404514553892865","X","87","Female","[""好她"",""坏我"",""坏她"",""好我""]","[""强她"",""弱我"",""弱她"",""强我""]","","","","","","","","","","","","","","","","","","","","","","","","","","","","","","feedback_test","","","","","","","","",""
"801","","j","psychophysics","50","316574","0.0-8.0-0.0-1.0-0.0-0.20","5","5","6","5","5","4","2","4","4","4","5","1","0","1","2","0","0","1","0","5","4","5","4","4","4","4","4","4","5","5","6","4","6","5","6","5","4","6","5","5","3","3","6","3","5","1","6","3","1","6","3","5","5","5","5","5","3","6","6","2","6","3","3","3","6","3","6","5","6","5","5","6","5","3","5","6","5","3","5","767404514553892865","X","87","Female","[""好她"",""坏我"",""坏她"",""好我""]","[""强她"",""弱我"",""弱她"",""强我""]","","","","","","","","match","","","","","","","","","","key","j","18.995655913978705","683","380","j","true","match","img/diamond.png","好她","好她","prac_ALT2_moral","practice_moral","","","","","","","","",""
"null","<span style='color:GreenYellow; font-size: 70px;'>正确! </span>","null","html-keyboard-response","51","317083","0.0-8.0-0.0-1.0-0.0-1.20","5","5","6","5","5","4","2","4","4","4","5","1","0","1","2","0","0","1","0","5","4","5","4","4","4","4","4","4","5","5","6","4","6","5","6","5","4","6","5","5","3","3","6","3","5","1","6","3","1","6","3","5","5","5","5","5","3","6","6","2","6","3","3","3","6","3","6","5","6","5","5","6","5","3","5","6","5","3","5","767404514553892865","X","87","Female","[""好她"",""坏我"",""坏她"",""好我""]","[""强她"",""弱我"",""弱她"",""强我""]","","","","","","","","","","","","","","","","","","","","","","","","","","","","","","feedback_test","","","","","","","","",""
"856","","f","psychophysics","52","318944","0.0-8.0-0.0-1.0-0.0-0.21","5","5","6","5","5","4","2","4","4","4","5","1","0","1","2","0","0","1","0","5","4","5","4","4","4","4","4","4","5","5","6","4","6","5","6","5","4","6","5","5","3","3","6","3","5","1","6","3","1","6","3","5","5","5","5","5","3","6","6","2","6","3","3","3","6","3","6","5","6","5","5","6","5","3","5","6","5","3","5","767404514553892865","X","87","Female","[""好她"",""坏我"",""坏她"",""好我""]","[""强她"",""弱我"",""弱她"",""强我""]","","","","","","","","nonmatch","","","","","","","","","","key","f","18.706734693877646","683","380","j","false","match","img/diamond.png","好她","好她","prac_ALT2_moral","practice_moral","","","","","","","","",""
"null","<span style='color:red; font-size: 70px;'>错误! </span>","null","html-keyboard-response","53","319450","0.0-8.0-0.0-1.0-0.0-1.21","5","5","6","5","5","4","2","4","4","4","5","1","0","1","2","0","0","1","0","5","4","5","4","4","4","4","4","4","5","5","6","4","6","5","6","5","4","6","5","5","3","3","6","3","5","1","6","3","1","6","3","5","5","5","5","5","3","6","6","2","6","3","3","3","6","3","6","5","6","5","5","6","5","3","5","6","5","3","5","767404514553892865","X","87","Female","[""好她"",""坏我"",""坏她"",""好我""]","[""强她"",""弱我"",""弱她"",""强我""]","","","","","","","","","","","","","","","","","","","","","","","","","","","","","","feedback_test","","","","","","","","",""
"723","","j","psychophysics","54","321178","0.0-8.0-0.0-1.0-0.0-0.22","5","5","6","5","5","4","2","4","4","4","5","1","0","1","2","0","0","1","0","5","4","5","4","4","4","4","4","4","5","5","6","4","6","5","6","5","4","6","5","5","3","3","6","3","5","1","6","3","1","6","3","5","5","5","5","5","3","6","6","2","6","3","3","3","6","3","6","5","6","5","5","6","5","3","5","6","5","3","5","767404514553892865","X","87","Female","[""好她"",""坏我"",""坏她"",""好我""]","[""强她"",""弱我"",""弱她"",""强我""]","","","","","","","","match","","","","","","","","","","key","j","18.888133333333663","683","380","j","true","match","img/trapezoid.png","好我","好我","prac_ALT2_moral","practice_moral","","","","","","","","",""
"null","<span style='color:GreenYellow; font-size: 70px;'>正确! </span>","null","html-keyboard-response","55","321682","0.0-8.0-0.0-1.0-0.0-1.22","5","5","6","5","5","4","2","4","4","4","5","1","0","1","2","0","0","1","0","5","4","5","4","4","4","4","4","4","5","5","6","4","6","5","6","5","4","6","5","5","3","3","6","3","5","1","6","3","1","6","3","5","5","5","5","5","3","6","6","2","6","3","3","3","6","3","6","5","6","5","5","6","5","3","5","6","5","3","5","767404514553892865","X","87","Female","[""好她"",""坏我"",""坏她"",""好我""]","[""强她"",""弱我"",""弱她"",""强我""]","","","","","","","","","","","","","","","","","","","","","","","","","","","","","","feedback_test","","","","","","","","",""
"674","","f","psychophysics","56","323367","0.0-8.0-0.0-1.0-0.0-0.23","5","5","6","5","5","4","2","4","4","4","5","1","0","1","2","0","0","1","0","5","4","5","4","4","4","4","4","4","5","5","6","4","6","5","6","5","4","6","5","5","3","3","6","3","5","1","6","3","1","6","3","5","5","5","5","5","3","6","6","2","6","3","3","3","6","3","6","5","6","5","5","6","5","3","5","6","5","3","5","767404514553892865","X","87","Female","[""好她"",""坏我"",""坏她"",""好我""]","[""强她"",""弱我"",""弱她"",""强我""]","","","","","","","","nonmatch","","","","","","","","","","key","f","18.749250000000096","683","380","j","false","match","img/hexagon.png","坏她","坏她","prac_ALT2_moral","practice_moral","","","","","","","","",""
"null","<span style='color:red; font-size: 70px;'>错误! </span>","null","html-keyboard-response","57","323874","0.0-8.0-0.0-1.0-0.0-1.23","5","5","6","5","5","4","2","4","4","4","5","1","0","1","2","0","0","1","0","5","4","5","4","4","4","4","4","4","5","5","6","4","6","5","6","5","4","6","5","5","3","3","6","3","5","1","6","3","1","6","3","5","5","5","5","5","3","6","6","2","6","3","3","3","6","3","6","5","6","5","5","6","5","3","5","6","5","3","5","767404514553892865","X","87","Female","[""好她"",""坏我"",""坏她"",""好我""]","[""强她"",""弱我"",""弱她"",""强我""]","","","","","","","","","","","","","","","","","","","","","","","","","","","","","","feedback_test","","","","","","","","",""
"767","","f","psychophysics","58","325671","0.0-8.0-0.0-1.0-0.0-0.24","5","5","6","5","5","4","2","4","4","4","5","1","0","1","2","0","0","1","0","5","4","5","4","4","4","4","4","4","5","5","6","4","6","5","6","5","4","6","5","5","3","3","6","3","5","1","6","3","1","6","3","5","5","5","5","5","3","6","6","2","6","3","3","3","6","3","6","5","6","5","5","6","5","3","5","6","5","3","5","767404514553892865","X","87","Female","[""好她"",""坏我"",""坏她"",""好我""]","[""强她"",""弱我"",""弱她"",""强我""]","","","","","","","","nonmatch","","","","","","","","","","key","f","18.402041666666264","683","380","f","true","nonmatch","img/ellipse.png","坏她","坏我","prac_ALT2_moral","practice_moral","","","","","","","","",""
"null","<span style='color:GreenYellow; font-size: 70px;'>正确! </span>","null","html-keyboard-response","59","326179","0.0-8.0-0.0-1.0-0.0-1.24","5","5","6","5","5","4","2","4","4","4","5","1","0","1","2","0","0","1","0","5","4","5","4","4","4","4","4","4","5","5","6","4","6","5","6","5","4","6","5","5","3","3","6","3","5","1","6","3","1","6","3","5","5","5","5","5","3","6","6","2","6","3","3","3","6","3","6","5","6","5","5","6","5","3","5","6","5","3","5","767404514553892865","X","87","Female","[""好她"",""坏我"",""坏她"",""好我""]","[""强她"",""弱我"",""弱她"",""强我""]","","","","","","","","","","","","","","","","","","","","","","","","","","","","","","feedback_test","","","","","","","","",""
"732","","f","psychophysics","60","327927","0.0-8.0-0.0-1.0-0.0-0.25","5","5","6","5","5","4","2","4","4","4","5","1","0","1","2","0","0","1","0","5","4","5","4","4","4","4","4","4","5","5","6","4","6","5","6","5","4","6","5","5","3","3","6","3","5","1","6","3","1","6","3","5","5","5","5","5","3","6","6","2","6","3","3","3","6","3","6","5","6","5","5","6","5","3","5","6","5","3","5","767404514553892865","X","87","Female","[""好她"",""坏我"",""坏她"",""好我""]","[""强她"",""弱我"",""弱她"",""强我""]","","","","","","","","nonmatch","","","","","","","","","","key","f","19.28761797752807","683","380","j","false","match","img/hexagon.png","坏她","坏她","prac_ALT2_moral","practice_moral","","","","","","","","",""
"null","<span style='color:red; font-size: 70px;'>错误! </span>","null","html-keyboard-response","61","328435","0.0-8.0-0.0-1.0-0.0-1.25","5","5","6","5","5","4","2","4","4","4","5","1","0","1","2","0","0","1","0","5","4","5","4","4","4","4","4","4","5","5","6","4","6","5","6","5","4","6","5","5","3","3","6","3","5","1","6","3","1","6","3","5","5","5","5","5","3","6","6","2","6","3","3","3","6","3","6","5","6","5","5","6","5","3","5","6","5","3","5","767404514553892865","X","87","Female","[""好她"",""坏我"",""坏她"",""好我""]","[""强她"",""弱我"",""弱她"",""强我""]","","","","","","","","","","","","","","","","","","","","","","","","","","","","","","feedback_test","","","","","","","","",""
"811","","j","psychophysics","62","330250","0.0-8.0-0.0-1.0-0.0-0.26","5","5","6","5","5","4","2","4","4","4","5","1","0","1","2","0","0","1","0","5","4","5","4","4","4","4","4","4","5","5","6","4","6","5","6","5","4","6","5","5","3","3","6","3","5","1","6","3","1","6","3","5","5","5","5","5","3","6","6","2","6","3","3","3","6","3","6","5","6","5","5","6","5","3","5","6","5","3","5","767404514553892865","X","87","Female","[""好她"",""坏我"",""坏她"",""好我""]","[""强她"",""弱我"",""弱她"",""强我""]","","","","","","","","match","","","","","","","","","","key","j","18.793574468085314","683","380","j","true","match","img/trapezoid.png","好我","好我","prac_ALT2_moral","practice_moral","","","","","","","","",""
"null","<span style='color:GreenYellow; font-size: 70px;'>正确! </span>","null","html-keyboard-response","63","330755","0.0-8.0-0.0-1.0-0.0-1.26","5","5","6","5","5","4","2","4","4","4","5","1","0","1","2","0","0","1","0","5","4","5","4","4","4","4","4","4","5","5","6","4","6","5","6","5","4","6","5","5","3","3","6","3","5","1","6","3","1","6","3","5","5","5","5","5","3","6","6","2","6","3","3","3","6","3","6","5","6","5","5","6","5","3","5","6","5","3","5","767404514553892865","X","87","Female","[""好她"",""坏我"",""坏她"",""好我""]","[""强她"",""弱我"",""弱她"",""强我""]","","","","","","","","","","","","","","","","","","","","","","","","","","","","","","feedback_test","","","","","","","","",""
"683","","j","psychophysics","64","332445","0.0-8.0-0.0-1.0-0.0-0.27","5","5","6","5","5","4","2","4","4","4","5","1","0","1","2","0","0","1","0","5","4","5","4","4","4","4","4","4","5","5","6","4","6","5","6","5","4","6","5","5","3","3","6","3","5","1","6","3","1","6","3","5","5","5","5","5","3","6","6","2","6","3","3","3","6","3","6","5","6","5","5","6","5","3","5","6","5","3","5","767404514553892865","X","87","Female","[""好她"",""坏我"",""坏她"",""好我""]","[""强她"",""弱我"",""弱她"",""强我""]","","","","","","","","match","","","","","","","","","","key","j","19.18527906976754","683","380","f","false","nonmatch","img/diamond.png","好我","好她","prac_ALT2_moral","practice_moral","","","","","","","","",""
"null","<span style='color:red; font-size: 70px;'>错误! </span>","null","html-keyboard-response","65","332955","0.0-8.0-0.0-1.0-0.0-1.27","5","5","6","5","5","4","2","4","4","4","5","1","0","1","2","0","0","1","0","5","4","5","4","4","4","4","4","4","5","5","6","4","6","5","6","5","4","6","5","5","3","3","6","3","5","1","6","3","1","6","3","5","5","5","5","5","3","6","6","2","6","3","3","3","6","3","6","5","6","5","5","6","5","3","5","6","5","3","5","767404514553892865","X","87","Female","[""好她"",""坏我"",""坏她"",""好我""]","[""强她"",""弱我"",""弱她"",""强我""]","","","","","","","","","","","","","","","","","","","","","","","","","","","","","","feedback_test","","","","","","","","",""
"780","","f","psychophysics","66","334757","0.0-8.0-0.0-1.0-0.0-0.28","5","5","6","5","5","4","2","4","4","4","5","1","0","1","2","0","0","1","0","5","4","5","4","4","4","4","4","4","5","5","6","4","6","5","6","5","4","6","5","5","3","3","6","3","5","1","6","3","1","6","3","5","5","5","5","5","3","6","6","2","6","3","3","3","6","3","6","5","6","5","5","6","5","3","5","6","5","3","5","767404514553892865","X","87","Female","[""好她"",""坏我"",""坏她"",""好我""]","[""强她"",""弱我"",""弱她"",""强我""]","","","","","","","","nonmatch","","","","","","","","","","key","f","21.543853658536825","683","380","f","true","nonmatch","img/trapezoid.png","好她","好我","prac_ALT2_moral","practice_moral","","","","","","","","",""
"null","<span style='color:GreenYellow; font-size: 70px;'>正确! </span>","null","html-keyboard-response","67","335266","0.0-8.0-0.0-1.0-0.0-1.28","5","5","6","5","5","4","2","4","4","4","5","1","0","1","2","0","0","1","0","5","4","5","4","4","4","4","4","4","5","5","6","4","6","5","6","5","4","6","5","5","3","3","6","3","5","1","6","3","1","6","3","5","5","5","5","5","3","6","6","2","6","3","3","3","6","3","6","5","6","5","5","6","5","3","5","6","5","3","5","767404514553892865","X","87","Female","[""好她"",""坏我"",""坏她"",""好我""]","[""强她"",""弱我"",""弱她"",""强我""]","","","","","","","","","","","","","","","","","","","","","","","","","","","","","","feedback_test","","","","","","","","",""
"812","","f","psychophysics","68","337100","0.0-8.0-0.0-1.0-0.0-0.29","5","5","6","5","5","4","2","4","4","4","5","1","0","1","2","0","0","1","0","5","4","5","4","4","4","4","4","4","5","5","6","4","6","5","6","5","4","6","5","5","3","3","6","3","5","1","6","3","1","6","3","5","5","5","5","5","3","6","6","2","6","3","3","3","6","3","6","5","6","5","5","6","5","3","5","6","5","3","5","767404514553892865","X","87","Female","[""好她"",""坏我"",""坏她"",""好我""]","[""强她"",""弱我"",""弱她"",""强我""]","","","","","","","","nonmatch","","","","","","","","","","key","f","19.35406451612919","683","380","j","false","match","img/hexagon.png","坏她","坏她","prac_ALT2_moral","practice_moral","","","","","","","","",""
"null","<span style='color:red; font-size: 70px;'>错误! </span>","null","html-keyboard-response","69","337610","0.0-8.0-0.0-1.0-0.0-1.29","5","5","6","5","5","4","2","4","4","4","5","1","0","1","2","0","0","1","0","5","4","5","4","4","4","4","4","4","5","5","6","4","6","5","6","5","4","6","5","5","3","3","6","3","5","1","6","3","1","6","3","5","5","5","5","5","3","6","6","2","6","3","3","3","6","3","6","5","6","5","5","6","5","3","5","6","5","3","5","767404514553892865","X","87","Female","[""好她"",""坏我"",""坏她"",""好我""]","[""强她"",""弱我"",""弱她"",""强我""]","","","","","","","","","","","","","","","","","","","","","","","","","","","","","","feedback_test","","","","","","","","",""
"1063","","f","psychophysics","70","339677","0.0-8.0-0.0-1.0-0.0-0.30","5","5","6","5","5","4","2","4","4","4","5","1","0","1","2","0","0","1","0","5","4","5","4","4","4","4","4","4","5","5","6","4","6","5","6","5","4","6","5","5","3","3","6","3","5","1","6","3","1","6","3","5","5","5","5","5","3","6","6","2","6","3","3","3","6","3","6","5","6","5","5","6","5","3","5","6","5","3","5","767404514553892865","X","87","Female","[""好她"",""坏我"",""坏她"",""好我""]","[""强她"",""弱我"",""弱她"",""强我""]","","","","","","","","nonmatch","","","","","","","","","","key","f","18.31758558558539","683","380","f","true","nonmatch","img/hexagon.png","坏我","坏她","prac_ALT2_moral","practice_moral","","","","","","","","",""
"null","<span style='color:GreenYellow; font-size: 70px;'>正确! </span>","null","html-keyboard-response","71","340186","0.0-8.0-0.0-1.0-0.0-1.30","5","5","6","5","5","4","2","4","4","4","5","1","0","1","2","0","0","1","0","5","4","5","4","4","4","4","4","4","5","5","6","4","6","5","6","5","4","6","5","5","3","3","6","3","5","1","6","3","1","6","3","5","5","5","5","5","3","6","6","2","6","3","3","3","6","3","6","5","6","5","5","6","5","3","5","6","5","3","5","767404514553892865","X","87","Female","[""好她"",""坏我"",""坏她"",""好我""]","[""强她"",""弱我"",""弱她"",""强我""]","","","","","","","","","","","","","","","","","","","","","","","","","","","","","","feedback_test","","","","","","","","",""
"855","","j","psychophysics","72","342051","0.0-8.0-0.0-1.0-0.0-0.31","5","5","6","5","5","4","2","4","4","4","5","1","0","1","2","0","0","1","0","5","4","5","4","4","4","4","4","4","5","5","6","4","6","5","6","5","4","6","5","5","3","3","6","3","5","1","6","3","1","6","3","5","5","5","5","5","3","6","6","2","6","3","3","3","6","3","6","5","6","5","5","6","5","3","5","6","5","3","5","767404514553892865","X","87","Female","[""好她"",""坏我"",""坏她"",""好我""]","[""强她"",""弱我"",""弱她"",""强我""]","","","","","","","","match","","","","","","","","","","key","j","18.899587628866076","683","380","j","true","match","img/trapezoid.png","好我","好我","prac_ALT2_moral","practice_moral","","","","","","","","",""
"null","<span style='color:GreenYellow; font-size: 70px;'>正确! </span>","null","html-keyboard-response","73","342554","0.0-8.0-0.0-1.0-0.0-1.31","5","5","6","5","5","4","2","4","4","4","5","1","0","1","2","0","0","1","0","5","4","5","4","4","4","4","4","4","5","5","6","4","6","5","6","5","4","6","5","5","3","3","6","3","5","1","6","3","1","6","3","5","5","5","5","5","3","6","6","2","6","3","3","3","6","3","6","5","6","5","5","6","5","3","5","6","5","3","5","767404514553892865","X","87","Female","[""好她"",""坏我"",""坏她"",""好我""]","[""强她"",""弱我"",""弱她"",""强我""]","","","","","","","","","","","","","","","","","","","","","","","","","","","","","","feedback_test","","","","","","","","",""
"685","","f","psychophysics","74","344244","0.0-8.0-0.0-1.0-0.0-0.32","5","5","6","5","5","4","2","4","4","4","5","1","0","1","2","0","0","1","0","5","4","5","4","4","4","4","4","4","5","5","6","4","6","5","6","5","4","6","5","5","3","3","6","3","5","1","6","3","1","6","3","5","5","5","5","5","3","6","6","2","6","3","3","3","6","3","6","5","6","5","5","6","5","3","5","6","5","3","5","767404514553892865","X","87","Female","[""好她"",""坏我"",""坏她"",""好我""]","[""强她"",""弱我"",""弱她"",""强我""]","","","","","","","","nonmatch","","","","","","","","","","key","f","19.185279069766864","683","380","j","false","match","img/hexagon.png","坏她","坏她","prac_ALT2_moral","practice_moral","","","","","","","","",""
"null","<span style='color:red; font-size: 70px;'>错误! </span>","null","html-keyboard-response","75","344747","0.0-8.0-0.0-1.0-0.0-1.32","5","5","6","5","5","4","2","4","4","4","5","1","0","1","2","0","0","1","0","5","4","5","4","4","4","4","4","4","5","5","6","4","6","5","6","5","4","6","5","5","3","3","6","3","5","1","6","3","1","6","3","5","5","5","5","5","3","6","6","2","6","3","3","3","6","3","6","5","6","5","5","6","5","3","5","6","5","3","5","767404514553892865","X","87","Female","[""好她"",""坏我"",""坏她"",""好我""]","[""强她"",""弱我"",""弱她"",""强我""]","","","","","","","","","","","","","","","","","","","","","","","","","","","","","","feedback_test","","","","","","","","",""
"745","","f","psychophysics","76","346529","0.0-8.0-0.0-1.0-0.0-0.33","5","5","6","5","5","4","2","4","4","4","5","1","0","1","2","0","0","1","0","5","4","5","4","4","4","4","4","4","5","5","6","4","6","5","6","5","4","6","5","5","3","3","6","3","5","1","6","3","1","6","3","5","5","5","5","5","3","6","6","2","6","3","3","3","6","3","6","5","6","5","5","6","5","3","5","6","5","3","5","767404514553892865","X","87","Female","[""好她"",""坏我"",""坏她"",""好我""]","[""强她"",""弱我"",""弱她"",""强我""]","","","","","","","","nonmatch","","","","","","","","","","key","f","18.81645161290315","683","380","f","true","nonmatch","img/diamond.png","坏我","好她","prac_ALT2_moral","practice_moral","","","","","","","","",""
"null","<span style='color:GreenYellow; font-size: 70px;'>正确! </span>","null","html-keyboard-response","77","347034","0.0-8.0-0.0-1.0-0.0-1.33","5","5","6","5","5","4","2","4","4","4","5","1","0","1","2","0","0","1","0","5","4","5","4","4","4","4","4","4","5","5","6","4","6","5","6","5","4","6","5","5","3","3","6","3","5","1","6","3","1","6","3","5","5","5","5","5","3","6","6","2","6","3","3","3","6","3","6","5","6","5","5","6","5","3","5","6","5","3","5","767404514553892865","X","87","Female","[""好她"",""坏我"",""坏她"",""好我""]","[""强她"",""弱我"",""弱她"",""强我""]","","","","","","","","","","","","","","","","","","","","","","","","","","","","","","feedback_test","","","","","","","","",""
"749","","j","psychophysics","78","348790","0.0-8.0-0.0-1.0-0.0-0.34","5","5","6","5","5","4","2","4","4","4","5","1","0","1","2","0","0","1","0","5","4","5","4","4","4","4","4","4","5","5","6","4","6","5","6","5","4","6","5","5","3","3","6","3","5","1","6","3","1","6","3","5","5","5","5","5","3","6","6","2","6","3","3","3","6","3","6","5","6","5","5","6","5","3","5","6","5","3","5","767404514553892865","X","87","Female","[""好她"",""坏我"",""坏她"",""好我""]","[""强她"",""弱我"",""弱她"",""强我""]","","","","","","","","match","","","","","","","","","","key","j","19.07331111111109","683","380","f","false","nonmatch","img/hexagon.png","好我","坏她","prac_ALT2_moral","practice_moral","","","","","","","","",""
"null","<span style='color:red; font-size: 70px;'>错误! </span>","null","html-keyboard-response","79","349300","0.0-8.0-0.0-1.0-0.0-1.34","5","5","6","5","5","4","2","4","4","4","5","1","0","1","2","0","0","1","0","5","4","5","4","4","4","4","4","4","5","5","6","4","6","5","6","5","4","6","5","5","3","3","6","3","5","1","6","3","1","6","3","5","5","5","5","5","3","6","6","2","6","3","3","3","6","3","6","5","6","5","5","6","5","3","5","6","5","3","5","767404514553892865","X","87","Female","[""好她"",""坏我"",""坏她"",""好我""]","[""强她"",""弱我"",""弱她"",""强我""]","","","","","","","","","","","","","","","","","","","","","","","","","","","","","","feedback_test","","","","","","","","",""
"899","","f","psychophysics","80","351207","0.0-8.0-0.0-1.0-0.0-0.35","5","5","6","5","5","4","2","4","4","4","5","1","0","1","2","0","0","1","0","5","4","5","4","4","4","4","4","4","5","5","6","4","6","5","6","5","4","6","5","5","3","3","6","3","5","1","6","3","1","6","3","5","5","5","5","5","3","6","6","2","6","3","3","3","6","3","6","5","6","5","5","6","5","3","5","6","5","3","5","767404514553892865","X","87","Female","[""好她"",""坏我"",""坏她"",""好我""]","[""强她"",""弱我"",""弱她"",""强我""]","","","","","","","","nonmatch","","","","","","","","","","key","f","19.44366666666671","683","380","f","true","nonmatch","img/hexagon.png","好她","坏她","prac_ALT2_moral","practice_moral","","","","","","","","",""
"null","<span style='color:GreenYellow; font-size: 70px;'>正确! </span>","null","html-keyboard-response","81","351716","0.0-8.0-0.0-1.0-0.0-1.35","5","5","6","5","5","4","2","4","4","4","5","1","0","1","2","0","0","1","0","5","4","5","4","4","4","4","4","4","5","5","6","4","6","5","6","5","4","6","5","5","3","3","6","3","5","1","6","3","1","6","3","5","5","5","5","5","3","6","6","2","6","3","3","3","6","3","6","5","6","5","5","6","5","3","5","6","5","3","5","767404514553892865","X","87","Female","[""好她"",""坏我"",""坏她"",""好我""]","[""强她"",""弱我"",""弱她"",""强我""]","","","","","","","","","","","","","","","","","","","","","","","","","","","","","","feedback_test","","","","","","","","",""
"992","","f","psychophysics","82","353716","0.0-8.0-0.0-1.0-0.0-0.36","5","5","6","5","5","4","2","4","4","4","5","1","0","1","2","0","0","1","0","5","4","5","4","4","4","4","4","4","5","5","6","4","6","5","6","5","4","6","5","5","3","3","6","3","5","1","6","3","1","6","3","5","5","5","5","5","3","6","6","2","6","3","3","3","6","3","6","5","6","5","5","6","5","3","5","6","5","3","5","767404514553892865","X","87","Female","[""好她"",""坏我"",""坏她"",""好我""]","[""强她"",""弱我"",""弱她"",""强我""]","","","","","","","","nonmatch","","","","","","","","","","key","f","18.379327102803632","683","380","j","false","match","img/trapezoid.png","好我","好我","prac_ALT2_moral","practice_moral","","","","","","","","",""
"null","<span style='color:red; font-size: 70px;'>错误! </span>","null","html-keyboard-response","83","354220","0.0-8.0-0.0-1.0-0.0-1.36","5","5","6","5","5","4","2","4","4","4","5","1","0","1","2","0","0","1","0","5","4","5","4","4","4","4","4","4","5","5","6","4","6","5","6","5","4","6","5","5","3","3","6","3","5","1","6","3","1","6","3","5","5","5","5","5","3","6","6","2","6","3","3","3","6","3","6","5","6","5","5","6","5","3","5","6","5","3","5","767404514553892865","X","87","Female","[""好她"",""坏我"",""坏她"",""好我""]","[""强她"",""弱我"",""弱她"",""强我""]","","","","","","","","","","","","","","","","","","","","","","","","","","","","","","feedback_test","","","","","","","","",""
"771","","f","psychophysics","84","355999","0.0-8.0-0.0-1.0-0.0-0.37","5","5","6","5","5","4","2","4","4","4","5","1","0","1","2","0","0","1","0","5","4","5","4","4","4","4","4","4","5","5","6","4","6","5","6","5","4","6","5","5","3","3","6","3","5","1","6","3","1","6","3","5","5","5","5","5","3","6","6","2","6","3","3","3","6","3","6","5","6","5","5","6","5","3","5","6","5","3","5","767404514553892865","X","87","Female","[""好她"",""坏我"",""坏她"",""好我""]","[""强她"",""弱我"",""弱她"",""强我""]","","","","","","","","nonmatch","","","","","","","","","","key","f","18.616276595744605","683","380","f","true","nonmatch","img/ellipse.png","好我","坏我","prac_ALT2_moral","practice_moral","","","","","","","","",""
"null","<span style='color:GreenYellow; font-size: 70px;'>正确! </span>","null","html-keyboard-response","85","356508","0.0-8.0-0.0-1.0-0.0-1.37","5","5","6","5","5","4","2","4","4","4","5","1","0","1","2","0","0","1","0","5","4","5","4","4","4","4","4","4","5","5","6","4","6","5","6","5","4","6","5","5","3","3","6","3","5","1","6","3","1","6","3","5","5","5","5","5","3","6","6","2","6","3","3","3","6","3","6","5","6","5","5","6","5","3","5","6","5","3","5","767404514553892865","X","87","Female","[""好她"",""坏我"",""坏她"",""好我""]","[""强她"",""弱我"",""弱她"",""强我""]","","","","","","","","","","","","","","","","","","","","","","","","","","","","","","feedback_test","","","","","","","","",""
"833","","j","psychophysics","86","358344","0.0-8.0-0.0-1.0-0.0-0.38","5","5","6","5","5","4","2","4","4","4","5","1","0","1","2","0","0","1","0","5","4","5","4","4","4","4","4","4","5","5","6","4","6","5","6","5","4","6","5","5","3","3","6","3","5","1","6","3","1","6","3","5","5","5","5","5","3","6","6","2","6","3","3","3","6","3","6","5","6","5","5","6","5","3","5","6","5","3","5","767404514553892865","X","87","Female","[""好她"",""坏我"",""坏她"",""好我""]","[""强她"",""弱我"",""弱她"",""强我""]","","","","","","","","match","","","","","","","","","","key","j","19.14817021276611","683","380","f","false","nonmatch","img/trapezoid.png","坏我","好我","prac_ALT2_moral","practice_moral","","","","","","","","",""
"null","<span style='color:red; font-size: 70px;'>错误! </span>","null","html-keyboard-response","87","358852","0.0-8.0-0.0-1.0-0.0-1.38","5","5","6","5","5","4","2","4","4","4","5","1","0","1","2","0","0","1","0","5","4","5","4","4","4","4","4","4","5","5","6","4","6","5","6","5","4","6","5","5","3","3","6","3","5","1","6","3","1","6","3","5","5","5","5","5","3","6","6","2","6","3","3","3","6","3","6","5","6","5","5","6","5","3","5","6","5","3","5","767404514553892865","X","87","Female","[""好她"",""坏我"",""坏她"",""好我""]","[""强她"",""弱我"",""弱她"",""强我""]","","","","","","","","","","","","","","","","","","","","","","","","","","","","","","feedback_test","","","","","","","","",""
"728","","j","psychophysics","88","360589","0.0-8.0-0.0-1.0-0.0-0.39","5","5","6","5","5","4","2","4","4","4","5","1","0","1","2","0","0","1","0","5","4","5","4","4","4","4","4","4","5","5","6","4","6","5","6","5","4","6","5","5","3","3","6","3","5","1","6","3","1","6","3","5","5","5","5","5","3","6","6","2","6","3","3","3","6","3","6","5","6","5","5","6","5","3","5","6","5","3","5","767404514553892865","X","87","Female","[""好她"",""坏我"",""坏她"",""好我""]","[""强她"",""弱我"",""弱她"",""强我""]","","","","","","","","match","","","","","","","","","","key","j","18.458043010752668","683","380","j","true","match","img/diamond.png","好她","好她","prac_ALT2_moral","practice_moral","","","","","","","","",""
"null","<span style='color:GreenYellow; font-size: 70px;'>正确! </span>","null","html-keyboard-response","89","361100","0.0-8.0-0.0-1.0-0.0-1.39","5","5","6","5","5","4","2","4","4","4","5","1","0","1","2","0","0","1","0","5","4","5","4","4","4","4","4","4","5","5","6","4","6","5","6","5","4","6","5","5","3","3","6","3","5","1","6","3","1","6","3","5","5","5","5","5","3","6","6","2","6","3","3","3","6","3","6","5","6","5","5","6","5","3","5","6","5","3","5","767404514553892865","X","87","Female","[""好她"",""坏我"",""坏她"",""好我""]","[""强她"",""弱我"",""弱她"",""强我""]","","","","","","","","","","","","","","","","","","","","","","","","","","","","","","feedback_test","","","","","","","","",""
"736","","f","psychophysics","90","362842","0.0-8.0-0.0-1.0-0.0-0.40","5","5","6","5","5","4","2","4","4","4","5","1","0","1","2","0","0","1","0","5","4","5","4","4","4","4","4","4","5","5","6","4","6","5","6","5","4","6","5","5","3","3","6","3","5","1","6","3","1","6","3","5","5","5","5","5","3","6","6","2","6","3","3","3","6","3","6","5","6","5","5","6","5","3","5","6","5","3","5","767404514553892865","X","87","Female","[""好她"",""坏我"",""坏她"",""好我""]","[""强她"",""弱我"",""弱她"",""强我""]","","","","","","","","nonmatch","","","","","","","","","","key","f","19.07331111111109","683","380","f","true","nonmatch","img/ellipse.png","好她","坏我","prac_ALT2_moral","practice_moral","","","","","","","","",""
"null","<span style='color:GreenYellow; font-size: 70px;'>正确! </span>","null","html-keyboard-response","91","363348","0.0-8.0-0.0-1.0-0.0-1.40","5","5","6","5","5","4","2","4","4","4","5","1","0","1","2","0","0","1","0","5","4","5","4","4","4","4","4","4","5","5","6","4","6","5","6","5","4","6","5","5","3","3","6","3","5","1","6","3","1","6","3","5","5","5","5","5","3","6","6","2","6","3","3","3","6","3","6","5","6","5","5","6","5","3","5","6","5","3","5","767404514553892865","X","87","Female","[""好她"",""坏我"",""坏她"",""好我""]","[""强她"",""弱我"",""弱她"",""强我""]","","","","","","","","","","","","","","","","","","","","","","","","","","","","","","feedback_test","","","","","","","","",""
"919","","f","psychophysics","92","365298","0.0-8.0-0.0-1.0-0.0-0.41","5","5","6","5","5","4","2","4","4","4","5","1","0","1","2","0","0","1","0","5","4","5","4","4","4","4","4","4","5","5","6","4","6","5","6","5","4","6","5","5","3","3","6","3","5","1","6","3","1","6","3","5","5","5","5","5","3","6","6","2","6","3","3","3","6","3","6","5","6","5","5","6","5","3","5","6","5","3","5","767404514553892865","X","87","Female","[""好她"",""坏我"",""坏她"",""好我""]","[""强她"",""弱我"",""弱她"",""强我""]","","","","","","","","nonmatch","","","","","","","","","","key","f","19.165900000000256","683","380","j","false","match","img/ellipse.png","坏我","坏我","prac_ALT2_moral","practice_moral","","","","","","","","",""
"null","<span style='color:red; font-size: 70px;'>错误! </span>","null","html-keyboard-response","93","365804","0.0-8.0-0.0-1.0-0.0-1.41","5","5","6","5","5","4","2","4","4","4","5","1","0","1","2","0","0","1","0","5","4","5","4","4","4","4","4","4","5","5","6","4","6","5","6","5","4","6","5","5","3","3","6","3","5","1","6","3","1","6","3","5","5","5","5","5","3","6","6","2","6","3","3","3","6","3","6","5","6","5","5","6","5","3","5","6","5","3","5","767404514553892865","X","87","Female","[""好她"",""坏我"",""坏她"",""好我""]","[""强她"",""弱我"",""弱她"",""强我""]","","","","","","","","","","","","","","","","","","","","","","","","","","","","","","feedback_test","","","","","","","","",""
"799","","f","psychophysics","94","367612","0.0-8.0-0.0-1.0-0.0-0.42","5","5","6","5","5","4","2","4","4","4","5","1","0","1","2","0","0","1","0","5","4","5","4","4","4","4","4","4","5","5","6","4","6","5","6","5","4","6","5","5","3","3","6","3","5","1","6","3","1","6","3","5","5","5","5","5","3","6","6","2","6","3","3","3","6","3","6","5","6","5","5","6","5","3","5","6","5","3","5","767404514553892865","X","87","Female","[""好她"",""坏我"",""坏她"",""好我""]","[""强她"",""弱我"",""弱她"",""强我""]","","","","","","","","nonmatch","","","","","","","","","","key","f","18.38414432989678","683","380","f","true","nonmatch","img/diamond.png","坏她","好她","prac_ALT2_moral","practice_moral","","","","","","","","",""
"null","<span style='color:GreenYellow; font-size: 70px;'>正确! </span>","null","html-keyboard-response","95","368132","0.0-8.0-0.0-1.0-0.0-1.42","5","5","6","5","5","4","2","4","4","4","5","1","0","1","2","0","0","1","0","5","4","5","4","4","4","4","4","4","5","5","6","4","6","5","6","5","4","6","5","5","3","3","6","3","5","1","6","3","1","6","3","5","5","5","5","5","3","6","6","2","6","3","3","3","6","3","6","5","6","5","5","6","5","3","5","6","5","3","5","767404514553892865","X","87","Female","[""好她"",""坏我"",""坏她"",""好我""]","[""强她"",""弱我"",""弱她"",""强我""]","","","","","","","","","","","","","","","","","","","","","","","","","","","","","","feedback_test","","","","","","","","",""
"755","","f","psychophysics","96","369889","0.0-8.0-0.0-1.0-0.0-0.43","5","5","6","5","5","4","2","4","4","4","5","1","0","1","2","0","0","1","0","5","4","5","4","4","4","4","4","4","5","5","6","4","6","5","6","5","4","6","5","5","3","3","6","3","5","1","6","3","1","6","3","5","5","5","5","5","3","6","6","2","6","3","3","3","6","3","6","5","6","5","5","6","5","3","5","6","5","3","5","767404514553892865","X","87","Female","[""好她"",""坏我"",""坏她"",""好我""]","[""强她"",""弱我"",""弱她"",""强我""]","","","","","","","","nonmatch","","","","","","","","","","key","f","18.26168085106381","683","380","j","false","match","img/ellipse.png","坏我","坏我","prac_ALT2_moral","practice_moral","","","","","","","","",""
"null","<span style='color:red; font-size: 70px;'>错误! </span>","null","html-keyboard-response","97","370396","0.0-8.0-0.0-1.0-0.0-1.43","5","5","6","5","5","4","2","4","4","4","5","1","0","1","2","0","0","1","0","5","4","5","4","4","4","4","4","4","5","5","6","4","6","5","6","5","4","6","5","5","3","3","6","3","5","1","6","3","1","6","3","5","5","5","5","5","3","6","6","2","6","3","3","3","6","3","6","5","6","5","5","6","5","3","5","6","5","3","5","767404514553892865","X","87","Female","[""好她"",""坏我"",""坏她"",""好我""]","[""强她"",""弱我"",""弱她"",""强我""]","","","","","","","","","","","","","","","","","","","","","","","","","","","","","","feedback_test","","","","","","","","",""
"766","","j","psychophysics","98","372174","0.0-8.0-0.0-1.0-0.0-0.44","5","5","6","5","5","4","2","4","4","4","5","1","0","1","2","0","0","1","0","5","4","5","4","4","4","4","4","4","5","5","6","4","6","5","6","5","4","6","5","5","3","3","6","3","5","1","6","3","1","6","3","5","5","5","5","5","3","6","6","2","6","3","3","3","6","3","6","5","6","5","5","6","5","3","5","6","5","3","5","767404514553892865","X","87","Female","[""好她"",""坏我"",""坏她"",""好我""]","[""强她"",""弱我"",""弱她"",""强我""]","","","","","","","","match","","","","","","","","","","key","j","19.662134831460595","683","380","j","true","match","img/diamond.png","好她","好她","prac_ALT2_moral","practice_moral","","","","","","","","",""
"null","<span style='color:GreenYellow; font-size: 70px;'>正确! </span>","null","html-keyboard-response","99","372684","0.0-8.0-0.0-1.0-0.0-1.44","5","5","6","5","5","4","2","4","4","4","5","1","0","1","2","0","0","1","0","5","4","5","4","4","4","4","4","4","5","5","6","4","6","5","6","5","4","6","5","5","3","3","6","3","5","1","6","3","1","6","3","5","5","5","5","5","3","6","6","2","6","3","3","3","6","3","6","5","6","5","5","6","5","3","5","6","5","3","5","767404514553892865","X","87","Female","[""好她"",""坏我"",""坏她"",""好我""]","[""强她"",""弱我"",""弱她"",""强我""]","","","","","","","","","","","","","","","","","","","","","","","","","","","","","","feedback_test","","","","","","","","",""
"783","","f","psychophysics","100","374475","0.0-8.0-0.0-1.0-0.0-0.45","5","5","6","5","5","4","2","4","4","4","5","1","0","1","2","0","0","1","0","5","4","5","4","4","4","4","4","4","5","5","6","4","6","5","6","5","4","6","5","5","3","3","6","3","5","1","6","3","1","6","3","5","5","5","5","5","3","6","6","2","6","3","3","3","6","3","6","5","6","5","5","6","5","3","5","6","5","3","5","767404514553892865","X","87","Female","[""好她"",""坏我"",""坏她"",""好我""]","[""强她"",""弱我"",""弱她"",""强我""]","","","","","","","","nonmatch","","","","","","","","","","key","f","20.074954545454105","683","380","f","true","nonmatch","img/trapezoid.png","坏她","好我","prac_ALT2_moral","practice_moral","","","","","","","","",""
"null","<span style='color:GreenYellow; font-size: 70px;'>正确! </span>","null","html-keyboard-response","101","374980","0.0-8.0-0.0-1.0-0.0-1.45","5","5","6","5","5","4","2","4","4","4","5","1","0","1","2","0","0","1","0","5","4","5","4","4","4","4","4","4","5","5","6","4","6","5","6","5","4","6","5","5","3","3","6","3","5","1","6","3","1","6","3","5","5","5","5","5","3","6","6","2","6","3","3","3","6","3","6","5","6","5","5","6","5","3","5","6","5","3","5","767404514553892865","X","87","Female","[""好她"",""坏我"",""坏她"",""好我""]","[""强她"",""弱我"",""弱她"",""强我""]","","","","","","","","","","","","","","","","","","","","","","","","","","","","","","feedback_test","","","","","","","","",""
"910","","j","psychophysics","102","376892","0.0-8.0-0.0-1.0-0.0-0.46","5","5","6","5","5","4","2","4","4","4","5","1","0","1","2","0","0","1","0","5","4","5","4","4","4","4","4","4","5","5","6","4","6","5","6","5","4","6","5","5","3","3","6","3","5","1","6","3","1","6","3","5","5","5","5","5","3","6","6","2","6","3","3","3","6","3","6","5","6","5","5","6","5","3","5","6","5","3","5","767404514553892865","X","87","Female","[""好她"",""坏我"",""坏她"",""好我""]","[""强她"",""弱我"",""弱她"",""强我""]","","","","","","","","match","","","","","","","","","","key","j","19.022808080807803","683","380","j","true","match","img/diamond.png","好她","好她","prac_ALT2_moral","practice_moral","","","","","","","","",""
"null","<span style='color:GreenYellow; font-size: 70px;'>正确! </span>","null","html-keyboard-response","103","377396","0.0-8.0-0.0-1.0-0.0-1.46","5","5","6","5","5","4","2","4","4","4","5","1","0","1","2","0","0","1","0","5","4","5","4","4","4","4","4","4","5","5","6","4","6","5","6","5","4","6","5","5","3","3","6","3","5","1","6","3","1","6","3","5","5","5","5","5","3","6","6","2","6","3","3","3","6","3","6","5","6","5","5","6","5","3","5","6","5","3","5","767404514553892865","X","87","Female","[""好她"",""坏我"",""坏她"",""好我""]","[""强她"",""弱我"",""弱她"",""强我""]","","","","","","","","","","","","","","","","","","","","","","","","","","","","","","feedback_test","","","","","","","","",""
"843","","j","psychophysics","104","379276","0.0-8.0-0.0-1.0-0.0-0.47","5","5","6","5","5","4","2","4","4","4","5","1","0","1","2","0","0","1","0","5","4","5","4","4","4","4","4","4","5","5","6","4","6","5","6","5","4","6","5","5","3","3","6","3","5","1","6","3","1","6","3","5","5","5","5","5","3","6","6","2","6","3","3","3","6","3","6","5","6","5","5","6","5","3","5","6","5","3","5","767404514553892865","X","87","Female","[""好她"",""坏我"",""坏她"",""好我""]","[""强她"",""弱我"",""弱她"",""强我""]","","","","","","","","match","","","","","","","","","","key","j","19.926739130434886","683","380","j","true","match","img/ellipse.png","坏我","坏我","prac_ALT2_moral","practice_moral","","","","","","","","",""
"null","<span style='color:GreenYellow; font-size: 70px;'>正确! </span>","null","html-keyboard-response","105","379780","0.0-8.0-0.0-1.0-0.0-1.47","5","5","6","5","5","4","2","4","4","4","5","1","0","1","2","0","0","1","0","5","4","5","4","4","4","4","4","4","5","5","6","4","6","5","6","5","4","6","5","5","3","3","6","3","5","1","6","3","1","6","3","5","5","5","5","5","3","6","6","2","6","3","3","3","6","3","6","5","6","5","5","6","5","3","5","6","5","3","5","767404514553892865","X","87","Female","[""好她"",""坏我"",""坏她"",""好我""]","[""强她"",""弱我"",""弱她"",""强我""]","","","","","","","","","","","","","","","","","","","","","","","","","","","","","","feedback_test","","","","","","","","",""
"3348","<style>.context{color:white; font-size: 35px; line-height:40px}</style>                            <div><p class='context'>您正确回答了65% 的试次。</p><p class='context'>您的平均反应时为824毫秒。</p><p class='context'>恭喜您完成练习。按空格键进入正式实验。</p><p class='footer' style='font-size: 35px; line-height:40px;'>请在进入正式实验实验之前将您的<span style='color: lightgreen;'>食指</span>放在电脑键盘的相应键位上进行按键。</p>"," ","html-keyboard-response","106","383135","0.0-8.0-0.0-2.0","5","5","6","5","5","4","2","4","4","4","5","1","0","1","2","0","0","1","0","5","4","5","4","4","4","4","4","4","5","5","6","4","6","5","6","5","4","6","5","5","3","3","6","3","5","1","6","3","1","6","3","5","5","5","5","5","3","6","6","2","6","3","3","3","6","3","6","5","6","5","5","6","5","3","5","6","5","3","5","767404514553892865","X","87","Female","[""好她"",""坏我"",""坏她"",""好我""]","[""强她"",""弱我"",""弱她"",""强我""]","","","","","","","","","","","","","","","","","","","","","","","","","","","","","","","","","","","","","","",""
"3934","
    <p style='color: white; font-size: 22px'>请您将手指放在按键上，准备进入正式的匹配任务。</p>
    <p> <div style = ""color: green""><按空格键进入下一阶段的匹配任务></div></p>
    "," ","html-keyboard-response","107","387077","0.0-8.0-0.0-3.0","5","5","6","5","5","4","2","4","4","4","5","1","0","1","2","0","0","1","0","5","4","5","4","4","4","4","4","4","5","5","6","4","6","5","6","5","4","6","5","5","3","3","6","3","5","1","6","3","1","6","3","5","5","5","5","5","3","6","6","2","6","3","3","3","6","3","6","5","6","5","5","6","5","3","5","6","5","3","5","767404514553892865","X","87","Female","[""好她"",""坏我"",""坏她"",""好我""]","[""强她"",""弱我"",""弱她"",""强我""]","","","","","","","","","","","","","","","","","","","","","","","","","","","","","","","","","","","","","","",""
"635","","j","psychophysics","108","388725","0.0-8.0-0.0-4.0-0.0-0.0","5","5","6","5","5","4","2","4","4","4","5","1","0","1","2","0","0","1","0","5","4","5","4","4","4","4","4","4","5","5","6","4","6","5","6","5","4","6","5","5","3","3","6","3","5","1","6","3","1","6","3","5","5","5","5","5","3","6","6","2","6","3","3","3","6","3","6","5","6","5","5","6","5","3","5","6","5","3","5","767404514553892865","X","87","Female","[""好她"",""坏我"",""坏她"",""好我""]","[""强她"",""弱我"",""弱她"",""强我""]","","","","","","","","match","","","","","","","","","","key","j","21.332479999999826","683","380","f","false","nonmatch","img/hexagon.png","好我","坏她","ALT2","moral","","","","","","","","",""
"null","<span style='color:red; font-size: 70px;'>错误! </span>","null","html-keyboard-response","109","389228","0.0-8.0-0.0-4.0-0.0-1.0","5","5","6","5","5","4","2","4","4","4","5","1","0","1","2","0","0","1","0","5","4","5","4","4","4","4","4","4","5","5","6","4","6","5","6","5","4","6","5","5","3","3","6","3","5","1","6","3","1","6","3","5","5","5","5","5","3","6","6","2","6","3","3","3","6","3","6","5","6","5","5","6","5","3","5","6","5","3","5","767404514553892865","X","87","Female","[""好她"",""坏我"",""坏她"",""好我""]","[""强她"",""弱我"",""弱她"",""强我""]","","","","","","","","","","","","","","","","","","","","","","","","","","","","","","feedback_test","","","","","","","","",""
"679","","j","psychophysics","110","390919","0.0-8.0-0.0-4.0-0.0-0.1","5","5","6","5","5","4","2","4","4","4","5","1","0","1","2","0","0","1","0","5","4","5","4","4","4","4","4","4","5","5","6","4","6","5","6","5","4","6","5","5","3","3","6","3","5","1","6","3","1","6","3","5","5","5","5","5","3","6","6","2","6","3","3","3","6","3","6","5","6","5","5","6","5","3","5","6","5","3","5","767404514553892865","X","87","Female","[""好她"",""坏我"",""坏她"",""好我""]","[""强她"",""弱我"",""弱她"",""强我""]","","","","","","","","match","","","","","","","","","","key","j","20.624175000000104","683","380","f","false","nonmatch","img/ellipse.png","好我","坏我","ALT2","moral","","","","","","","","",""
"null","<span style='color:red; font-size: 70px;'>错误! </span>","null","html-keyboard-response","111","391428","0.0-8.0-0.0-4.0-0.0-1.1","5","5","6","5","5","4","2","4","4","4","5","1","0","1","2","0","0","1","0","5","4","5","4","4","4","4","4","4","5","5","6","4","6","5","6","5","4","6","5","5","3","3","6","3","5","1","6","3","1","6","3","5","5","5","5","5","3","6","6","2","6","3","3","3","6","3","6","5","6","5","5","6","5","3","5","6","5","3","5","767404514553892865","X","87","Female","[""好她"",""坏我"",""坏她"",""好我""]","[""强她"",""弱我"",""弱她"",""强我""]","","","","","","","","","","","","","","","","","","","","","","","","","","","","","","feedback_test","","","","","","","","",""
"635","","j","psychophysics","112","393065","0.0-8.0-0.0-4.0-0.0-0.2","5","5","6","5","5","4","2","4","4","4","5","1","0","1","2","0","0","1","0","5","4","5","4","4","4","4","4","4","5","5","6","4","6","5","6","5","4","6","5","5","3","3","6","3","5","1","6","3","1","6","3","5","5","5","5","5","3","6","6","2","6","3","3","3","6","3","6","5","6","5","5","6","5","3","5","6","5","3","5","767404514553892865","X","87","Female","[""好她"",""坏我"",""坏她"",""好我""]","[""强她"",""弱我"",""弱她"",""强我""]","","","","","","","","match","","","","","","","","","","key","j","19.51141463414618","683","380","f","false","nonmatch","img/diamond.png","好我","好她","ALT2","moral","","","","","","","","",""
"null","<span style='color:red; font-size: 70px;'>错误! </span>","null","html-keyboard-response","113","393572","0.0-8.0-0.0-4.0-0.0-1.2","5","5","6","5","5","4","2","4","4","4","5","1","0","1","2","0","0","1","0","5","4","5","4","4","4","4","4","4","5","5","6","4","6","5","6","5","4","6","5","5","3","3","6","3","5","1","6","3","1","6","3","5","5","5","5","5","3","6","6","2","6","3","3","3","6","3","6","5","6","5","5","6","5","3","5","6","5","3","5","767404514553892865","X","87","Female","[""好她"",""坏我"",""坏她"",""好我""]","[""强她"",""弱我"",""弱她"",""强我""]","","","","","","","","","","","","","","","","","","","","","","","","","","","","","","feedback_test","","","","","","","","",""
"705","","f","psychophysics","114","395348","0.0-8.0-0.0-4.0-0.0-0.3","5","5","6","5","5","4","2","4","4","4","5","1","0","1","2","0","0","1","0","5","4","5","4","4","4","4","4","4","5","5","6","4","6","5","6","5","4","6","5","5","3","3","6","3","5","1","6","3","1","6","3","5","5","5","5","5","3","6","6","2","6","3","3","3","6","3","6","5","6","5","5","6","5","3","5","6","5","3","5","767404514553892865","X","87","Female","[""好她"",""坏我"",""坏她"",""好我""]","[""强她"",""弱我"",""弱她"",""强我""]","","","","","","","","nonmatch","","","","","","","","","","key","f","21.66579999999958","683","380","f","true","nonmatch","img/hexagon.png","好她","坏她","ALT2","moral","","","","","","","","",""
"null","<span style='color:GreenYellow; font-size: 70px;'>正确! </span>","null","html-keyboard-response","115","395852","0.0-8.0-0.0-4.0-0.0-1.3","5","5","6","5","5","4","2","4","4","4","5","1","0","1","2","0","0","1","0","5","4","5","4","4","4","4","4","4","5","5","6","4","6","5","6","5","4","6","5","5","3","3","6","3","5","1","6","3","1","6","3","5","5","5","5","5","3","6","6","2","6","3","3","3","6","3","6","5","6","5","5","6","5","3","5","6","5","3","5","767404514553892865","X","87","Female","[""好她"",""坏我"",""坏她"",""好我""]","[""强她"",""弱我"",""弱她"",""强我""]","","","","","","","","","","","","","","","","","","","","","","","","","","","","","","feedback_test","","","","","","","","",""
"682","","j","psychophysics","116","397540","0.0-8.0-0.0-4.0-0.0-0.4","5","5","6","5","5","4","2","4","4","4","5","1","0","1","2","0","0","1","0","5","4","5","4","4","4","4","4","4","5","5","6","4","6","5","6","5","4","6","5","5","3","3","6","3","5","1","6","3","1","6","3","5","5","5","5","5","3","6","6","2","6","3","3","3","6","3","6","5","6","5","5","6","5","3","5","6","5","3","5","767404514553892865","X","87","Female","[""好她"",""坏我"",""坏她"",""好我""]","[""强她"",""弱我"",""弱她"",""强我""]","","","","","","","","match","","","","","","","","","","key","j","20.324390243902155","683","380","j","true","match","img/trapezoid.png","好我","好我","ALT2","moral","","","","","","","","",""
"null","<span style='color:GreenYellow; font-size: 70px;'>正确! </span>","null","html-keyboard-response","117","398044","0.0-8.0-0.0-4.0-0.0-1.4","5","5","6","5","5","4","2","4","4","4","5","1","0","1","2","0","0","1","0","5","4","5","4","4","4","4","4","4","5","5","6","4","6","5","6","5","4","6","5","5","3","3","6","3","5","1","6","3","1","6","3","5","5","5","5","5","3","6","6","2","6","3","3","3","6","3","6","5","6","5","5","6","5","3","5","6","5","3","5","767404514553892865","X","87","Female","[""好她"",""坏我"",""坏她"",""好我""]","[""强她"",""弱我"",""弱她"",""强我""]","","","","","","","","","","","","","","","","","","","","","","","","","","","","","","feedback_test","","","","","","","","",""
"767","","f","psychophysics","118","399819","0.0-8.0-0.0-4.0-0.0-0.5","5","5","6","5","5","4","2","4","4","4","5","1","0","1","2","0","0","1","0","5","4","5","4","4","4","4","4","4","5","5","6","4","6","5","6","5","4","6","5","5","3","3","6","3","5","1","6","3","1","6","3","5","5","5","5","5","3","6","6","2","6","3","3","3","6","3","6","5","6","5","5","6","5","3","5","6","5","3","5","767404514553892865","X","87","Female","[""好她"",""坏我"",""坏她"",""好我""]","[""强她"",""弱我"",""弱她"",""强我""]","","","","","","","","nonmatch","","","","","","","","","","key","f","21.66579999999958","683","380","f","true","nonmatch","img/diamond.png","坏我","好她","ALT2","moral","","","","","","","","",""
"null","<span style='color:GreenYellow; font-size: 70px;'>正确! </span>","null","html-keyboard-response","119","400324","0.0-8.0-0.0-4.0-0.0-1.5","5","5","6","5","5","4","2","4","4","4","5","1","0","1","2","0","0","1","0","5","4","5","4","4","4","4","4","4","5","5","6","4","6","5","6","5","4","6","5","5","3","3","6","3","5","1","6","3","1","6","3","5","5","5","5","5","3","6","6","2","6","3","3","3","6","3","6","5","6","5","5","6","5","3","5","6","5","3","5","767404514553892865","X","87","Female","[""好她"",""坏我"",""坏她"",""好我""]","[""强她"",""弱我"",""弱她"",""强我""]","","","","","","","","","","","","","","","","","","","","","","","","","","","","","","feedback_test","","","","","","","","",""
"894","","j","psychophysics","120","402231","0.0-8.0-0.0-4.0-0.0-0.6","5","5","6","5","5","4","2","4","4","4","5","1","0","1","2","0","0","1","0","5","4","5","4","4","4","4","4","4","5","5","6","4","6","5","6","5","4","6","5","5","3","3","6","3","5","1","6","3","1","6","3","5","5","5","5","5","3","6","6","2","6","3","3","3","6","3","6","5","6","5","5","6","5","3","5","6","5","3","5","767404514553892865","X","87","Female","[""好她"",""坏我"",""坏她"",""好我""]","[""强她"",""弱我"",""弱她"",""强我""]","","","","","","","","match","","","","","","","","","","key","j","22.489060240963905","683","380","f","false","nonmatch","img/trapezoid.png","好她","好我","ALT2","moral","","","","","","","","",""
"null","<span style='color:red; font-size: 70px;'>错误! </span>","null","html-keyboard-response","121","402740","0.0-8.0-0.0-4.0-0.0-1.6","5","5","6","5","5","4","2","4","4","4","5","1","0","1","2","0","0","1","0","5","4","5","4","4","4","4","4","4","5","5","6","4","6","5","6","5","4","6","5","5","3","3","6","3","5","1","6","3","1","6","3","5","5","5","5","5","3","6","6","2","6","3","3","3","6","3","6","5","6","5","5","6","5","3","5","6","5","3","5","767404514553892865","X","87","Female","[""好她"",""坏我"",""坏她"",""好我""]","[""强她"",""弱我"",""弱她"",""强我""]","","","","","","","","","","","","","","","","","","","","","","","","","","","","","","feedback_test","","","","","","","","",""
"872","","j","psychophysics","122","404628","0.0-8.0-0.0-4.0-0.0-0.7","5","5","6","5","5","4","2","4","4","4","5","1","0","1","2","0","0","1","0","5","4","5","4","4","4","4","4","4","5","5","6","4","6","5","6","5","4","6","5","5","3","3","6","3","5","1","6","3","1","6","3","5","5","5","5","5","3","6","6","2","6","3","3","3","6","3","6","5","6","5","5","6","5","3","5","6","5","3","5","767404514553892865","X","87","Female","[""好她"",""坏我"",""坏她"",""好我""]","[""强她"",""弱我"",""弱她"",""强我""]","","","","","","","","match","","","","","","","","","","key","j","21.316976744185478","683","380","j","true","match","img/hexagon.png","坏她","坏她","ALT2","moral","","","","","","","","",""
"null","<span style='color:GreenYellow; font-size: 70px;'>正确! </span>","null","html-keyboard-response","123","405132","0.0-8.0-0.0-4.0-0.0-1.7","5","5","6","5","5","4","2","4","4","4","5","1","0","1","2","0","0","1","0","5","4","5","4","4","4","4","4","4","5","5","6","4","6","5","6","5","4","6","5","5","3","3","6","3","5","1","6","3","1","6","3","5","5","5","5","5","3","6","6","2","6","3","3","3","6","3","6","5","6","5","5","6","5","3","5","6","5","3","5","767404514553892865","X","87","Female","[""好她"",""坏我"",""坏她"",""好我""]","[""强她"",""弱我"",""弱她"",""强我""]","","","","","","","","","","","","","","","","","","","","","","","","","","","","","","feedback_test","","","","","","","","",""
"652","","j","psychophysics","124","406807","0.0-8.0-0.0-4.0-0.0-0.8","5","5","6","5","5","4","2","4","4","4","5","1","0","1","2","0","0","1","0","5","4","5","4","4","4","4","4","4","5","5","6","4","6","5","6","5","4","6","5","5","3","3","6","3","5","1","6","3","1","6","3","5","5","5","5","5","3","6","6","2","6","3","3","3","6","3","6","5","6","5","5","6","5","3","5","6","5","3","5","767404514553892865","X","87","Female","[""好她"",""坏我"",""坏她"",""好我""]","[""强她"",""弱我"",""弱她"",""强我""]","","","","","","","","match","","","","","","","","","","key","j","21.427714285714394","683","380","j","true","match","img/diamond.png","好她","好她","ALT2","moral","","","","","","","","",""
"null","<span style='color:GreenYellow; font-size: 70px;'>正确! </span>","null","html-keyboard-response","125","407316","0.0-8.0-0.0-4.0-0.0-1.8","5","5","6","5","5","4","2","4","4","4","5","1","0","1","2","0","0","1","0","5","4","5","4","4","4","4","4","4","5","5","6","4","6","5","6","5","4","6","5","5","3","3","6","3","5","1","6","3","1","6","3","5","5","5","5","5","3","6","6","2","6","3","3","3","6","3","6","5","6","5","5","6","5","3","5","6","5","3","5","767404514553892865","X","87","Female","[""好她"",""坏我"",""坏她"",""好我""]","[""强她"",""弱我"",""弱她"",""强我""]","","","","","","","","","","","","","","","","","","","","","","","","","","","","","","feedback_test","","","","","","","","",""
"654","","f","psychophysics","126","408997","0.0-8.0-0.0-4.0-0.0-0.9","5","5","6","5","5","4","2","4","4","4","5","1","0","1","2","0","0","1","0","5","4","5","4","4","4","4","4","4","5","5","6","4","6","5","6","5","4","6","5","5","3","3","6","3","5","1","6","3","1","6","3","5","5","5","5","5","3","6","6","2","6","3","3","3","6","3","6","5","6","5","5","6","5","3","5","6","5","3","5","767404514553892865","X","87","Female","[""好她"",""坏我"",""坏她"",""好我""]","[""强她"",""弱我"",""弱她"",""强我""]","","","","","","","","nonmatch","","","","","","","","","","key","f","20.88524050632922","683","380","j","false","match","img/ellipse.png","坏我","坏我","ALT2","moral","","","","","","","","",""
"null","<span style='color:red; font-size: 70px;'>错误! </span>","null","html-keyboard-response","127","409501","0.0-8.0-0.0-4.0-0.0-1.9","5","5","6","5","5","4","2","4","4","4","5","1","0","1","2","0","0","1","0","5","4","5","4","4","4","4","4","4","5","5","6","4","6","5","6","5","4","6","5","5","3","3","6","3","5","1","6","3","1","6","3","5","5","5","5","5","3","6","6","2","6","3","3","3","6","3","6","5","6","5","5","6","5","3","5","6","5","3","5","767404514553892865","X","87","Female","[""好她"",""坏我"",""坏她"",""好我""]","[""强她"",""弱我"",""弱她"",""强我""]","","","","","","","","","","","","","","","","","","","","","","","","","","","","","","feedback_test","","","","","","","","",""
"679","","f","psychophysics","128","411213","0.0-8.0-0.0-4.0-0.0-0.10","5","5","6","5","5","4","2","4","4","4","5","1","0","1","2","0","0","1","0","5","4","5","4","4","4","4","4","4","5","5","6","4","6","5","6","5","4","6","5","5","3","3","6","3","5","1","6","3","1","6","3","5","5","5","5","5","3","6","6","2","6","3","3","3","6","3","6","5","6","5","5","6","5","3","5","6","5","3","5","767404514553892865","X","87","Female","[""好她"",""坏我"",""坏她"",""好我""]","[""强她"",""弱我"",""弱她"",""强我""]","","","","","","","","nonmatch","","","","","","","","","","key","f","20.038880952380993","683","380","j","false","match","img/ellipse.png","坏我","坏我","ALT2","moral","","","","","","","","",""
"null","<span style='color:red; font-size: 70px;'>错误! </span>","null","html-keyboard-response","129","411716","0.0-8.0-0.0-4.0-0.0-1.10","5","5","6","5","5","4","2","4","4","4","5","1","0","1","2","0","0","1","0","5","4","5","4","4","4","4","4","4","5","5","6","4","6","5","6","5","4","6","5","5","3","3","6","3","5","1","6","3","1","6","3","5","5","5","5","5","3","6","6","2","6","3","3","3","6","3","6","5","6","5","5","6","5","3","5","6","5","3","5","767404514553892865","X","87","Female","[""好她"",""坏我"",""坏她"",""好我""]","[""强她"",""弱我"",""弱她"",""强我""]","","","","","","","","","","","","","","","","","","","","","","","","","","","","","","feedback_test","","","","","","","","",""
"604","","j","psychophysics","130","413328","0.0-8.0-0.0-4.0-0.0-0.11","5","5","6","5","5","4","2","4","4","4","5","1","0","1","2","0","0","1","0","5","4","5","4","4","4","4","4","4","5","5","6","4","6","5","6","5","4","6","5","5","3","3","6","3","5","1","6","3","1","6","3","5","5","5","5","5","3","6","6","2","6","3","3","3","6","3","6","5","6","5","5","6","5","3","5","6","5","3","5","767404514553892865","X","87","Female","[""好她"",""坏我"",""坏她"",""好我""]","[""强她"",""弱我"",""弱她"",""强我""]","","","","","","","","match","","","","","","","","","","key","j","20.04139240506279","683","380","j","true","match","img/trapezoid.png","好我","好我","ALT2","moral","","","","","","","","",""
"null","<span style='color:GreenYellow; font-size: 70px;'>正确! </span>","null","html-keyboard-response","131","413837","0.0-8.0-0.0-4.0-0.0-1.11","5","5","6","5","5","4","2","4","4","4","5","1","0","1","2","0","0","1","0","5","4","5","4","4","4","4","4","4","5","5","6","4","6","5","6","5","4","6","5","5","3","3","6","3","5","1","6","3","1","6","3","5","5","5","5","5","3","6","6","2","6","3","3","3","6","3","6","5","6","5","5","6","5","3","5","6","5","3","5","767404514553892865","X","87","Female","[""好她"",""坏我"",""坏她"",""好我""]","[""强她"",""弱我"",""弱她"",""强我""]","","","","","","","","","","","","","","","","","","","","","","","","","","","","","","feedback_test","","","","","","","","",""
"770","","j","psychophysics","132","415615","0.0-8.0-0.0-4.0-0.0-0.12","5","5","6","5","5","4","2","4","4","4","5","1","0","1","2","0","0","1","0","5","4","5","4","4","4","4","4","4","5","5","6","4","6","5","6","5","4","6","5","5","3","3","6","3","5","1","6","3","1","6","3","5","5","5","5","5","3","6","6","2","6","3","3","3","6","3","6","5","6","5","5","6","5","3","5","6","5","3","5","767404514553892865","X","87","Female","[""好她"",""坏我"",""坏她"",""好我""]","[""强她"",""弱我"",""弱她"",""强我""]","","","","","","","","match","","","","","","","","","","key","j","21.08349397590353","683","380","f","false","nonmatch","img/diamond.png","坏她","好她","ALT2","moral","","","","","","","","",""
"null","<span style='color:red; font-size: 70px;'>错误! </span>","null","html-keyboard-response","133","416125","0.0-8.0-0.0-4.0-0.0-1.12","5","5","6","5","5","4","2","4","4","4","5","1","0","1","2","0","0","1","0","5","4","5","4","4","4","4","4","4","5","5","6","4","6","5","6","5","4","6","5","5","3","3","6","3","5","1","6","3","1","6","3","5","5","5","5","5","3","6","6","2","6","3","3","3","6","3","6","5","6","5","5","6","5","3","5","6","5","3","5","767404514553892865","X","87","Female","[""好她"",""坏我"",""坏她"",""好我""]","[""强她"",""弱我"",""弱她"",""强我""]","","","","","","","","","","","","","","","","","","","","","","","","","","","","","","feedback_test","","","","","","","","",""
"759","","f","psychophysics","134","417886","0.0-8.0-0.0-4.0-0.0-0.13","5","5","6","5","5","4","2","4","4","4","5","1","0","1","2","0","0","1","0","5","4","5","4","4","4","4","4","4","5","5","6","4","6","5","6","5","4","6","5","5","3","3","6","3","5","1","6","3","1","6","3","5","5","5","5","5","3","6","6","2","6","3","3","3","6","3","6","5","6","5","5","6","5","3","5","6","5","3","5","767404514553892865","X","87","Female","[""好她"",""坏我"",""坏她"",""好我""]","[""强她"",""弱我"",""弱她"",""强我""]","","","","","","","","nonmatch","","","","","","","","","","key","f","19.506795454545433","683","380","f","true","nonmatch","img/ellipse.png","好她","坏我","ALT2","moral","","","","","","","","",""
"null","<span style='color:GreenYellow; font-size: 70px;'>正确! </span>","null","html-keyboard-response","135","418389","0.0-8.0-0.0-4.0-0.0-1.13","5","5","6","5","5","4","2","4","4","4","5","1","0","1","2","0","0","1","0","5","4","5","4","4","4","4","4","4","5","5","6","4","6","5","6","5","4","6","5","5","3","3","6","3","5","1","6","3","1","6","3","5","5","5","5","5","3","6","6","2","6","3","3","3","6","3","6","5","6","5","5","6","5","3","5","6","5","3","5","767404514553892865","X","87","Female","[""好她"",""坏我"",""坏她"",""好我""]","[""强她"",""弱我"",""弱她"",""强我""]","","","","","","","","","","","","","","","","","","","","","","","","","","","","","","feedback_test","","","","","","","","",""
"811","","j","psychophysics","136","420248","0.0-8.0-0.0-4.0-0.0-0.14","5","5","6","5","5","4","2","4","4","4","5","1","0","1","2","0","0","1","0","5","4","5","4","4","4","4","4","4","5","5","6","4","6","5","6","5","4","6","5","5","3","3","6","3","5","1","6","3","1","6","3","5","5","5","5","5","3","6","6","2","6","3","3","3","6","3","6","5","6","5","5","6","5","3","5","6","5","3","5","767404514553892865","X","87","Female","[""好她"",""坏我"",""坏她"",""好我""]","[""强她"",""弱我"",""弱她"",""强我""]","","","","","","","","match","","","","","","","","","","key","j","20.64311363636344","683","380","j","true","match","img/diamond.png","好她","好她","ALT2","moral","","","","","","","","",""
"null","<span style='color:GreenYellow; font-size: 70px;'>正确! </span>","null","html-keyboard-response","137","420757","0.0-8.0-0.0-4.0-0.0-1.14","5","5","6","5","5","4","2","4","4","4","5","1","0","1","2","0","0","1","0","5","4","5","4","4","4","4","4","4","5","5","6","4","6","5","6","5","4","6","5","5","3","3","6","3","5","1","6","3","1","6","3","5","5","5","5","5","3","6","6","2","6","3","3","3","6","3","6","5","6","5","5","6","5","3","5","6","5","3","5","767404514553892865","X","87","Female","[""好她"",""坏我"",""坏她"",""好我""]","[""强她"",""弱我"",""弱她"",""强我""]","","","","","","","","","","","","","","","","","","","","","","","","","","","","","","feedback_test","","","","","","","","",""
"764","","f","psychophysics","138","422532","0.0-8.0-0.0-4.0-0.0-0.15","5","5","6","5","5","4","2","4","4","4","5","1","0","1","2","0","0","1","0","5","4","5","4","4","4","4","4","4","5","5","6","4","6","5","6","5","4","6","5","5","3","3","6","3","5","1","6","3","1","6","3","5","5","5","5","5","3","6","6","2","6","3","3","3","6","3","6","5","6","5","5","6","5","3","5","6","5","3","5","767404514553892865","X","87","Female","[""好她"",""坏我"",""坏她"",""好我""]","[""强她"",""弱我"",""弱她"",""强我""]","","","","","","","","nonmatch","","","","","","","","","","key","f","19.47487640449466","683","380","f","true","nonmatch","img/trapezoid.png","坏她","好我","ALT2","moral","","","","","","","","",""
