"rt","stimulus","response","trial_type","trial_index","time_elapsed","internal_node_id","swb_1","swb_2","swb_3","swb_4","swb_5","LOT_1","LOT_2","LOT_3","LOT_4","LOT_5","LOT_6","IPC_1","IPC_2","IPC_3","IPC_4","IPC_5","IPC_6","IPC_7","IPC_8","MorIden_1","MorIden_2","MorIden_3","MorIden_4","MorIden_5","MorIden_6","MorIden_7","MorIden_8","MorIden_9","MorIden_10","moralSeImag_1","moralSeImag_2","moralSeImag_3","moralSeImag_4","moralSeImag_5","moralSeImag_6","moralSeImag_7","moralSeImag_8","moralSeImag_9","sde_1","sde_2","sde_3","sde_4","sde_5","sde_6","sde_7","sde_8","sde_9","sde_10","trap2","sde_11","sde_12","sde_13","sde_14","sde_15","sde_16","sde_17","sde_18","sde_19","sde_20","IM_1","IM_2","IM_3","IM_4","IM_5","IM_6","IM_7","IM_8","IM_9","IM_10","IM_11","IM_12","IM_13","IM_14","IM_15","IM_16","IM_17","IM_18","IM_19","IM_20","subj_idx","friend_name","ParticipantID","Sex","Word","Word2","value","success","timeout","failed_images","failed_audio","failed_video","user_agent","responses","item_order","radio_event_ids","radio_event_times","key_event_times","mouse_event_times","straightlining","zigzagging","honeypot","view_history","response_type","key_press","avg_frame_time","center_x","center_y","correct_response","correct","identity","Image","word","condition","task_id","screen_id","time_stamp","person","valence","domain","math","status","duration","question_order","trap2_item"
"7142","
   <p><div style='color:white; font-size: 25px'>您好，欢迎参加本次实验。</div></p>
   <p><div style='color:white; font-size: 25px'>为充分保障您的权利，请确保您已经知晓并同意《参与实验同意书》以及《数据公开知情同意书》。</div></p>
   <p><div style='color:white; font-size: 25px'>如果您未见过上述内容，请咨询实验员。</div></p>
   <p style='color:white; font-size: 25px'>如果您选择继续实验，则表示您已经清楚两份知情同意书的内容并同意。</p>
   <p><div style = ""color: pink;font-size:30px;"">请确保您记得day0的实验编号，您将在本次实验输入该编号，若您忘记，请咨询实验员后作答。</div></p>
   <p><div style = ""color:lightblue;font-size:25px;"">请您尽可能认真地作答，我们将依据您在各问卷和按键任务中的作答质量发放报酬。</div></p>
   <p> <div style = ""color: green""><按空格键至下页></div> </p>
   "," ","html-keyboard-response","0","7144","0.0-0.0","5","6","7","5","6","4","3","5","4","5","4","1","0","1","2","-2","1","1","2","4","5","5","4","4","5","4","4","5","4","4","6","6","6","5","4","4","6","7","5","5","3","4","6","4","6","5","6","5","1","5","3","6","5","4","5","5","5","5","5","4","6","5","2","6","5","6","6","6","5","7","6","5","6","5","6","6","6","6","6","756877432623206401","李","586","Male","[""坏我"",""坏他"",""好我"",""好他""]","[""弱我"",""弱他"",""强我"",""强他""]","","","","","","","","","","","","","","","","","","","","","","","","","","","","","","","","","","","","","","",""
"","","","call-function","1","7145","0.0-1.0-0.0","5","6","7","5","6","4","3","5","4","5","4","1","0","1","2","-2","1","1","2","4","5","5","4","4","5","4","4","5","4","4","6","6","6","5","4","4","6","7","5","5","3","4","6","4","6","5","6","5","1","5","3","6","5","4","5","5","5","5","5","4","6","5","2","6","5","6","6","6","5","7","6","5","6","5","6","6","6","6","6","756877432623206401","李","586","Male","[""坏我"",""坏他"",""好我"",""好他""]","[""弱我"",""弱他"",""强我"",""强他""]","","","","","","","","","","","","","","","","","","","","","","","","","","","","","","","","","","","","","","",""
"27422","","[{""name"":""Sex"",""value"":""0""},{""name"":""friend_name"",""value"":""李""},{""name"":""ParticipantID"",""value"":""586""}]","survey-html-form","2","34567","0.0-1.0-1.0","5","6","7","5","6","4","3","5","4","5","4","1","0","1","2","-2","1","1","2","4","5","5","4","4","5","4","4","5","4","4","6","6","6","5","4","4","6","7","5","5","3","4","6","4","6","5","6","5","1","5","3","6","5","4","5","5","5","5","5","4","6","5","2","6","5","6","6","6","5","7","6","5","6","5","6","6","6","6","6","756877432623206401","李","586","Male","[""坏我"",""坏他"",""好我"",""好他""]","[""弱我"",""弱他"",""强我"",""强他""]","","","","","","","","","","","","","","","","","","","","","","","","","","","","","","","","","","","","","","",""
"","","","preload","3","34982","0.0-2.0","5","6","7","5","6","4","3","5","4","5","4","1","0","1","2","-2","1","1","2","4","5","5","4","4","5","4","4","5","4","4","6","6","6","5","4","4","6","7","5","5","3","4","6","4","6","5","6","5","1","5","3","6","5","4","5","5","5","5","5","4","6","5","2","6","5","6","6","6","5","7","6","5","6","5","6","6","6","6","6","756877432623206401","李","586","Male","[""坏我"",""坏他"",""好我"",""好他""]","[""弱我"",""弱他"",""强我"",""强他""]","","true","false","[]","[]","[]","","","","","","","","","","","","","","","","","","","","","","","","","","","","","","","","",""
"","","","fullscreen","4","36431","0.0-3.0","5","6","7","5","6","4","3","5","4","5","4","1","0","1","2","-2","1","1","2","4","5","5","4","4","5","4","4","5","4","4","6","6","6","5","4","4","6","7","5","5","3","4","6","4","6","5","6","5","1","5","3","6","5","4","5","5","5","5","5","4","6","5","2","6","5","6","6","6","5","7","6","5","6","5","6","6","6","6","6","756877432623206401","李","586","Male","[""坏我"",""坏他"",""好我"",""好他""]","[""弱我"",""弱他"",""强我"",""强他""]","","true","","","","","","","","","","","","","","","","","","","","","","","","","","","","","","","","","","","","",""
"7853","","{""Q01"":""5"",""Q02"":""6"",""Q03"":""7"",""Q04"":""5"",""Q05"":""6""}","survey-template","5","44286","0.0-4.0","5","6","7","5","6","4","3","5","4","5","4","1","0","1","2","-2","1","1","2","4","5","5","4","4","5","4","4","5","4","4","6","6","6","5","4","4","6","7","5","5","3","4","6","4","6","5","6","5","1","5","3","6","5","4","5","5","5","5","5","4","6","5","2","6","5","6","6","6","5","7","6","5","6","5","6","6","6","6","6","756877432623206401","李","586","Male","[""坏我"",""坏他"",""好我"",""好他""]","[""弱我"",""弱他"",""强我"",""强他""]","","","","","","","","{""Q01"":""5"",""Q02"":""6"",""Q03"":""7"",""Q04"":""5"",""Q05"":""6""}","[0,1,2,3,4]","[""Q01"",""Q02"",""Q03"",""Q04"",""Q05""]","[2747,3852,4851,6155,7091]","[]","[2747,3852,4851,6155,7091,7853]","0.4","0.75","0","","","","","","","","","","","","","","","","","","","","","","",""
"17293","","{""Q01"":""4"",""Q02"":""3"",""Q03"":""5"",""Q04"":""4"",""Q05"":""5"",""Q06"":""4""}","survey-template","6","61582","0.0-5.0","5","6","7","5","6","4","3","5","4","5","4","1","0","1","2","-2","1","1","2","4","5","5","4","4","5","4","4","5","4","4","6","6","6","5","4","4","6","7","5","5","3","4","6","4","6","5","6","5","1","5","3","6","5","4","5","5","5","5","5","4","6","5","2","6","5","6","6","6","5","7","6","5","6","5","6","6","6","6","6","756877432623206401","李","586","Male","[""坏我"",""坏他"",""好我"",""好他""]","[""弱我"",""弱他"",""强我"",""强他""]","","","","","","","","{""Q01"":""4"",""Q02"":""3"",""Q03"":""5"",""Q04"":""4"",""Q05"":""5"",""Q06"":""4""}","[0,1,2,3,4,5]","[""Q01"",""Q02"",""Q03"",""Q04"",""Q05"",""Q06""]","[2844,5012,6269,13004,14181,16309]","[]","[2844,5012,6269,11254,13004,14181,16309,17293]","0.3333333333333333","0.4","0","","","","","","","","","","","","","","","","","","","","","","",""
"19918","","{""Q01"":""1"",""Q02"":""0"",""Q03"":""1"",""Q04"":""2"",""Q05"":""-2"",""Q06"":""1"",""Q07"":""1"",""Q08"":""2""}","survey-template","7","81502","0.0-6.0","5","6","7","5","6","4","3","5","4","5","4","1","0","1","2","-2","1","1","2","4","5","5","4","4","5","4","4","5","4","4","6","6","6","5","4","4","6","7","5","5","3","4","6","4","6","5","6","5","1","5","3","6","5","4","5","5","5","5","5","4","6","5","2","6","5","6","6","6","5","7","6","5","6","5","6","6","6","6","6","756877432623206401","李","586","Male","[""坏我"",""坏他"",""好我"",""好他""]","[""弱我"",""弱他"",""强我"",""强他""]","","","","","","","","{""Q01"":""1"",""Q02"":""0"",""Q03"":""1"",""Q04"":""2"",""Q05"":""-2"",""Q06"":""1"",""Q07"":""1"",""Q08"":""2""}","[0,1,2,3,4,5,6,7]","[""Q01"",""Q03"",""Q02"",""Q04"",""Q05"",""Q06"",""Q07"",""Q08""]","[3214,7397,8389,10853,12534,15222,17093,19262]","[]","[3214,5949,7397,8389,10853,12534,15222,17093,19262,19918]","0.5","0.5714285714285714","0","","","","","","","","","","","","","","","","","","","","","","",""
"5269","","","instructions","8","86772","0.0-7.0","5","6","7","5","6","4","3","5","4","5","4","1","0","1","2","-2","1","1","2","4","5","5","4","4","5","4","4","5","4","4","6","6","6","5","4","4","6","7","5","5","3","4","6","4","6","5","6","5","1","5","3","6","5","4","5","5","5","5","5","4","6","5","2","6","5","6","6","6","5","7","6","5","6","5","6","6","6","6","6","756877432623206401","李","586","Male","[""坏我"",""坏他"",""好我"",""好他""]","[""弱我"",""弱他"",""强我"",""强他""]","","","","","","","","","","","","","","","","","[{""page_index"":0,""viewing_time"":5269}]","","","","","","","","","","","","","","","","","","","","","",""
"37617","","","instructions","9","124389","0.0-8.0-0.0-0.0","5","6","7","5","6","4","3","5","4","5","4","1","0","1","2","-2","1","1","2","4","5","5","4","4","5","4","4","5","4","4","6","6","6","5","4","4","6","7","5","5","3","4","6","4","6","5","6","5","1","5","3","6","5","4","5","5","5","5","5","4","6","5","2","6","5","6","6","6","5","7","6","5","6","5","6","6","6","6","6","756877432623206401","李","586","Male","[""坏我"",""坏他"",""好我"",""好他""]","[""弱我"",""弱他"",""强我"",""强他""]","","","","","","","","","","","","","","","","","[{""page_index"":0,""viewing_time"":3599},{""page_index"":1,""viewing_time"":31016},{""page_index"":2,""viewing_time"":1369},{""page_index"":3,""viewing_time"":1633}]","","","","","","","","","","","","","","","","","","","","","",""
"856","","f","psychophysics","10","126260","0.0-8.0-0.0-1.0-0.0-0.0","5","6","7","5","6","4","3","5","4","5","4","1","0","1","2","-2","1","1","2","4","5","5","4","4","5","4","4","5","4","4","6","6","6","5","4","4","6","7","5","5","3","4","6","4","6","5","6","5","1","5","3","6","5","4","5","5","5","5","5","4","6","5","2","6","5","6","6","6","5","7","6","5","6","5","6","6","6","6","6","756877432623206401","李","586","Male","[""坏我"",""坏他"",""好我"",""好他""]","[""弱我"",""弱他"",""强我"",""强他""]","","","","","","","","match","","","","","","","","","","key","f","16.664504504504457","768","428","f","true","match","img/circle.png","坏我","坏我","prac_ALT2_moral","practice_moral","","","","","","","","",""
"null","<span style='color:GreenYellow; font-size: 70px;'>正确! </span>","null","html-keyboard-response","11","126770","0.0-8.0-0.0-1.0-0.0-1.0","5","6","7","5","6","4","3","5","4","5","4","1","0","1","2","-2","1","1","2","4","5","5","4","4","5","4","4","5","4","4","6","6","6","5","4","4","6","7","5","5","3","4","6","4","6","5","6","5","1","5","3","6","5","4","5","5","5","5","5","4","6","5","2","6","5","6","6","6","5","7","6","5","6","5","6","6","6","6","6","756877432623206401","李","586","Male","[""坏我"",""坏他"",""好我"",""好他""]","[""弱我"",""弱他"",""强我"",""强他""]","","","","","","","","","","","","","","","","","","","","","","","","","","","","","","feedback_test","","","","","","","","",""
"827","","f","psychophysics","12","128613","0.0-8.0-0.0-1.0-0.0-0.1","5","6","7","5","6","4","3","5","4","5","4","1","0","1","2","-2","1","1","2","4","5","5","4","4","5","4","4","5","4","4","6","6","6","5","4","4","6","7","5","5","3","4","6","4","6","5","6","5","1","5","3","6","5","4","5","5","5","5","5","4","6","5","2","6","5","6","6","6","5","7","6","5","6","5","6","6","6","6","6","756877432623206401","李","586","Male","[""坏我"",""坏他"",""好我"",""好他""]","[""弱我"",""弱他"",""强我"",""强他""]","","","","","","","","match","","","","","","","","","","key","f","16.664545454545376","768","428","f","true","match","img/hexagon.png","坏他","坏他","prac_ALT2_moral","practice_moral","","","","","","","","",""
"null","<span style='color:GreenYellow; font-size: 70px;'>正确! </span>","null","html-keyboard-response","13","129119","0.0-8.0-0.0-1.0-0.0-1.1","5","6","7","5","6","4","3","5","4","5","4","1","0","1","2","-2","1","1","2","4","5","5","4","4","5","4","4","5","4","4","6","6","6","5","4","4","6","7","5","5","3","4","6","4","6","5","6","5","1","5","3","6","5","4","5","5","5","5","5","4","6","5","2","6","5","6","6","6","5","7","6","5","6","5","6","6","6","6","6","756877432623206401","李","586","Male","[""坏我"",""坏他"",""好我"",""好他""]","[""弱我"",""弱他"",""强我"",""强他""]","","","","","","","","","","","","","","","","","","","","","","","","","","","","","","feedback_test","","","","","","","","",""
"997","","f","psychophysics","14","131132","0.0-8.0-0.0-1.0-0.0-0.2","5","6","7","5","6","4","3","5","4","5","4","1","0","1","2","-2","1","1","2","4","5","5","4","4","5","4","4","5","4","4","6","6","6","5","4","4","6","7","5","5","3","4","6","4","6","5","6","5","1","5","3","6","5","4","5","5","5","5","5","4","6","5","2","6","5","6","6","6","5","7","6","5","6","5","6","6","6","6","6","756877432623206401","李","586","Male","[""坏我"",""坏他"",""好我"",""好他""]","[""弱我"",""弱他"",""强我"",""强他""]","","","","","","","","match","","","","","","","","","","key","f","16.664166666666762","768","428","f","true","match","img/circle.png","坏我","坏我","prac_ALT2_moral","practice_moral","","","","","","","","",""
"null","<span style='color:GreenYellow; font-size: 70px;'>正确! </span>","null","html-keyboard-response","15","131643","0.0-8.0-0.0-1.0-0.0-1.2","5","6","7","5","6","4","3","5","4","5","4","1","0","1","2","-2","1","1","2","4","5","5","4","4","5","4","4","5","4","4","6","6","6","5","4","4","6","7","5","5","3","4","6","4","6","5","6","5","1","5","3","6","5","4","5","5","5","5","5","4","6","5","2","6","5","6","6","6","5","7","6","5","6","5","6","6","6","6","6","756877432623206401","李","586","Male","[""坏我"",""坏他"",""好我"",""好他""]","[""弱我"",""弱他"",""强我"",""强他""]","","","","","","","","","","","","","","","","","","","","","","","","","","","","","","feedback_test","","","","","","","","",""
"832","","j","psychophysics","16","133476","0.0-8.0-0.0-1.0-0.0-0.3","5","6","7","5","6","4","3","5","4","5","4","1","0","1","2","-2","1","1","2","4","5","5","4","4","5","4","4","5","4","4","6","6","6","5","4","4","6","7","5","5","3","4","6","4","6","5","6","5","1","5","3","6","5","4","5","5","5","5","5","4","6","5","2","6","5","6","6","6","5","7","6","5","6","5","6","6","6","6","6","756877432623206401","李","586","Male","[""坏我"",""坏他"",""好我"",""好他""]","[""弱我"",""弱他"",""强我"",""强他""]","","","","","","","","nonmatch","","","","","","","","","","key","j","16.663853211009044","768","428","j","true","nonmatch","img/hexagon.png","好他","坏他","prac_ALT2_moral","practice_moral","","","","","","","","",""
"null","<span style='color:GreenYellow; font-size: 70px;'>正确! </span>","null","html-keyboard-response","17","133992","0.0-8.0-0.0-1.0-0.0-1.3","5","6","7","5","6","4","3","5","4","5","4","1","0","1","2","-2","1","1","2","4","5","5","4","4","5","4","4","5","4","4","6","6","6","5","4","4","6","7","5","5","3","4","6","4","6","5","6","5","1","5","3","6","5","4","5","5","5","5","5","4","6","5","2","6","5","6","6","6","5","7","6","5","6","5","6","6","6","6","6","756877432623206401","李","586","Male","[""坏我"",""坏他"",""好我"",""好他""]","[""弱我"",""弱他"",""强我"",""强他""]","","","","","","","","","","","","","","","","","","","","","","","","","","","","","","feedback_test","","","","","","","","",""
"748","","j","psychophysics","18","135740","0.0-8.0-0.0-1.0-0.0-0.4","5","6","7","5","6","4","3","5","4","5","4","1","0","1","2","-2","1","1","2","4","5","5","4","4","5","4","4","5","4","4","6","6","6","5","4","4","6","7","5","5","3","4","6","4","6","5","6","5","1","5","3","6","5","4","5","5","5","5","5","4","6","5","2","6","5","6","6","6","5","7","6","5","6","5","6","6","6","6","6","756877432623206401","李","586","Male","[""坏我"",""坏他"",""好我"",""好他""]","[""弱我"",""弱他"",""强我"",""强他""]","","","","","","","","nonmatch","","","","","","","","","","key","j","16.66442307692285","768","428","j","true","nonmatch","img/diamond.png","好他","好我","prac_ALT2_moral","practice_moral","","","","","","","","",""
"null","<span style='color:GreenYellow; font-size: 70px;'>正确! </span>","null","html-keyboard-response","19","136245","0.0-8.0-0.0-1.0-0.0-1.4","5","6","7","5","6","4","3","5","4","5","4","1","0","1","2","-2","1","1","2","4","5","5","4","4","5","4","4","5","4","4","6","6","6","5","4","4","6","7","5","5","3","4","6","4","6","5","6","5","1","5","3","6","5","4","5","5","5","5","5","4","6","5","2","6","5","6","6","6","5","7","6","5","6","5","6","6","6","6","6","756877432623206401","李","586","Male","[""坏我"",""坏他"",""好我"",""好他""]","[""弱我"",""弱他"",""强我"",""强他""]","","","","","","","","","","","","","","","","","","","","","","","","","","","","","","feedback_test","","","","","","","","",""
"928","","j","psychophysics","20","138188","0.0-8.0-0.0-1.0-0.0-0.5","5","6","7","5","6","4","3","5","4","5","4","1","0","1","2","-2","1","1","2","4","5","5","4","4","5","4","4","5","4","4","6","6","6","5","4","4","6","7","5","5","3","4","6","4","6","5","6","5","1","5","3","6","5","4","5","5","5","5","5","4","6","5","2","6","5","6","6","6","5","7","6","5","6","5","6","6","6","6","6","756877432623206401","李","586","Male","[""坏我"",""坏他"",""好我"",""好他""]","[""弱我"",""弱他"",""强我"",""强他""]","","","","","","","","nonmatch","","","","","","","","","","key","j","16.66448275862083","768","428","j","true","nonmatch","img/diamond.png","坏他","好我","prac_ALT2_moral","practice_moral","","","","","","","","",""
"null","<span style='color:GreenYellow; font-size: 70px;'>正确! </span>","null","html-keyboard-response","21","138701","0.0-8.0-0.0-1.0-0.0-1.5","5","6","7","5","6","4","3","5","4","5","4","1","0","1","2","-2","1","1","2","4","5","5","4","4","5","4","4","5","4","4","6","6","6","5","4","4","6","7","5","5","3","4","6","4","6","5","6","5","1","5","3","6","5","4","5","5","5","5","5","4","6","5","2","6","5","6","6","6","5","7","6","5","6","5","6","6","6","6","6","756877432623206401","李","586","Male","[""坏我"",""坏他"",""好我"",""好他""]","[""弱我"",""弱他"",""强我"",""强他""]","","","","","","","","","","","","","","","","","","","","","","","","","","","","","","feedback_test","","","","","","","","",""
"866","","j","psychophysics","22","140580","0.0-8.0-0.0-1.0-0.0-0.6","5","6","7","5","6","4","3","5","4","5","4","1","0","1","2","-2","1","1","2","4","5","5","4","4","5","4","4","5","4","4","6","6","6","5","4","4","6","7","5","5","3","4","6","4","6","5","6","5","1","5","3","6","5","4","5","5","5","5","5","4","6","5","2","6","5","6","6","6","5","7","6","5","6","5","6","6","6","6","6","756877432623206401","李","586","Male","[""坏我"",""坏他"",""好我"",""好他""]","[""弱我"",""弱他"",""强我"",""强他""]","","","","","","","","nonmatch","","","","","","","","","","key","j","16.6644642857144","768","428","j","true","nonmatch","img/circle.png","好他","坏我","prac_ALT2_moral","practice_moral","","","","","","","","",""
"null","<span style='color:GreenYellow; font-size: 70px;'>正确! </span>","null","html-keyboard-response","23","141093","0.0-8.0-0.0-1.0-0.0-1.6","5","6","7","5","6","4","3","5","4","5","4","1","0","1","2","-2","1","1","2","4","5","5","4","4","5","4","4","5","4","4","6","6","6","5","4","4","6","7","5","5","3","4","6","4","6","5","6","5","1","5","3","6","5","4","5","5","5","5","5","4","6","5","2","6","5","6","6","6","5","7","6","5","6","5","6","6","6","6","6","756877432623206401","李","586","Male","[""坏我"",""坏他"",""好我"",""好他""]","[""弱我"",""弱他"",""强我"",""强他""]","","","","","","","","","","","","","","","","","","","","","","","","","","","","","","feedback_test","","","","","","","","",""
"757","","f","psychophysics","24","142854","0.0-8.0-0.0-1.0-0.0-0.7","5","6","7","5","6","4","3","5","4","5","4","1","0","1","2","-2","1","1","2","4","5","5","4","4","5","4","4","5","4","4","6","6","6","5","4","4","6","7","5","5","3","4","6","4","6","5","6","5","1","5","3","6","5","4","5","5","5","5","5","4","6","5","2","6","5","6","6","6","5","7","6","5","6","5","6","6","6","6","6","756877432623206401","李","586","Male","[""坏我"",""坏他"",""好我"",""好他""]","[""弱我"",""弱他"",""强我"",""强他""]","","","","","","","","match","","","","","","","","","","key","f","16.664380952380764","768","428","f","true","match","img/square.png","好他","好他","prac_ALT2_moral","practice_moral","","","","","","","","",""
"null","<span style='color:GreenYellow; font-size: 70px;'>正确! </span>","null","html-keyboard-response","25","143396","0.0-8.0-0.0-1.0-0.0-1.7","5","6","7","5","6","4","3","5","4","5","4","1","0","1","2","-2","1","1","2","4","5","5","4","4","5","4","4","5","4","4","6","6","6","5","4","4","6","7","5","5","3","4","6","4","6","5","6","5","1","5","3","6","5","4","5","5","5","5","5","4","6","5","2","6","5","6","6","6","5","7","6","5","6","5","6","6","6","6","6","756877432623206401","李","586","Male","[""坏我"",""坏他"",""好我"",""好他""]","[""弱我"",""弱他"",""强我"",""强他""]","","","","","","","","","","","","","","","","","","","","","","","","","","","","","","feedback_test","","","","","","","","",""
"null","","null","psychophysics","26","145614","0.0-8.0-0.0-1.0-0.0-0.8","5","6","7","5","6","4","3","5","4","5","4","1","0","1","2","-2","1","1","2","4","5","5","4","4","5","4","4","5","4","4","6","6","6","5","4","4","6","7","5","5","3","4","6","4","6","5","6","5","1","5","3","6","5","4","5","5","5","5","5","4","6","5","2","6","5","6","6","6","5","7","6","5","6","5","6","6","6","6","6","756877432623206401","李","586","Male","[""坏我"",""坏他"",""好我"",""好他""]","[""弱我"",""弱他"",""强我"",""强他""]","","","","","","","","null","","","","","","","","","","key","null","16.664393939394028","768","428","j","false","nonmatch","img/square.png","坏我","好他","prac_ALT2_moral","practice_moral","","","","","","","","",""
"null","<span class='add_' style='color:yellow; font-size: 70px;'> 太慢! </span>","null","html-keyboard-response","27","146120","0.0-8.0-0.0-1.0-0.0-1.8","5","6","7","5","6","4","3","5","4","5","4","1","0","1","2","-2","1","1","2","4","5","5","4","4","5","4","4","5","4","4","6","6","6","5","4","4","6","7","5","5","3","4","6","4","6","5","6","5","1","5","3","6","5","4","5","5","5","5","5","4","6","5","2","6","5","6","6","6","5","7","6","5","6","5","6","6","6","6","6","756877432623206401","李","586","Male","[""坏我"",""坏他"",""好我"",""好他""]","[""弱我"",""弱他"",""强我"",""强他""]","","","","","","","","","","","","","","","","","","","","","","","","","","","","","","feedback_test","","","","","","","","",""
"941","","f","psychophysics","28","148076","0.0-8.0-0.0-1.0-0.0-0.9","5","6","7","5","6","4","3","5","4","5","4","1","0","1","2","-2","1","1","2","4","5","5","4","4","5","4","4","5","4","4","6","6","6","5","4","4","6","7","5","5","3","4","6","4","6","5","6","5","1","5","3","6","5","4","5","5","5","5","5","4","6","5","2","6","5","6","6","6","5","7","6","5","6","5","6","6","6","6","6","756877432623206401","李","586","Male","[""坏我"",""坏他"",""好我"",""好他""]","[""弱我"",""弱他"",""强我"",""强他""]","","","","","","","","match","","","","","","","","","","key","f","16.664273504273513","768","428","j","false","nonmatch","img/square.png","坏他","好他","prac_ALT2_moral","practice_moral","","","","","","","","",""
"null","<span style='color:red; font-size: 70px;'>错误! </span>","null","html-keyboard-response","29","148642","0.0-8.0-0.0-1.0-0.0-1.9","5","6","7","5","6","4","3","5","4","5","4","1","0","1","2","-2","1","1","2","4","5","5","4","4","5","4","4","5","4","4","6","6","6","5","4","4","6","7","5","5","3","4","6","4","6","5","6","5","1","5","3","6","5","4","5","5","5","5","5","4","6","5","2","6","5","6","6","6","5","7","6","5","6","5","6","6","6","6","6","756877432623206401","李","586","Male","[""坏我"",""坏他"",""好我"",""好他""]","[""弱我"",""弱他"",""强我"",""强他""]","","","","","","","","","","","","","","","","","","","","","","","","","","","","","","feedback_test","","","","","","","","",""
"1074","","f","psychophysics","30","150717","0.0-8.0-0.0-1.0-0.0-0.10","5","6","7","5","6","4","3","5","4","5","4","1","0","1","2","-2","1","1","2","4","5","5","4","4","5","4","4","5","4","4","6","6","6","5","4","4","6","7","5","5","3","4","6","4","6","5","6","5","1","5","3","6","5","4","5","5","5","5","5","4","6","5","2","6","5","6","6","6","5","7","6","5","6","5","6","6","6","6","6","756877432623206401","李","586","Male","[""坏我"",""坏他"",""好我"",""好他""]","[""弱我"",""弱他"",""强我"",""强他""]","","","","","","","","match","","","","","","","","","","key","f","16.664516129032446","768","428","j","false","nonmatch","img/diamond.png","坏我","好我","prac_ALT2_moral","practice_moral","","","","","","","","",""
"null","<span style='color:red; font-size: 70px;'>错误! </span>","null","html-keyboard-response","31","151225","0.0-8.0-0.0-1.0-0.0-1.10","5","6","7","5","6","4","3","5","4","5","4","1","0","1","2","-2","1","1","2","4","5","5","4","4","5","4","4","5","4","4","6","6","6","5","4","4","6","7","5","5","3","4","6","4","6","5","6","5","1","5","3","6","5","4","5","5","5","5","5","4","6","5","2","6","5","6","6","6","5","7","6","5","6","5","6","6","6","6","6","756877432623206401","李","586","Male","[""坏我"",""坏他"",""好我"",""好他""]","[""弱我"",""弱他"",""强我"",""强他""]","","","","","","","","","","","","","","","","","","","","","","","","","","","","","","feedback_test","","","","","","","","",""
"884","","j","psychophysics","32","153109","0.0-8.0-0.0-1.0-0.0-0.11","5","6","7","5","6","4","3","5","4","5","4","1","0","1","2","-2","1","1","2","4","5","5","4","4","5","4","4","5","4","4","6","6","6","5","4","4","6","7","5","5","3","4","6","4","6","5","6","5","1","5","3","6","5","4","5","5","5","5","5","4","6","5","2","6","5","6","6","6","5","7","6","5","6","5","6","6","6","6","6","756877432623206401","李","586","Male","[""坏我"",""坏他"",""好我"",""好他""]","[""弱我"",""弱他"",""强我"",""强他""]","","","","","","","","nonmatch","","","","","","","","","","key","j","16.66428571428566","768","428","f","false","match","img/square.png","好他","好他","prac_ALT2_moral","practice_moral","","","","","","","","",""
"null","<span style='color:red; font-size: 70px;'>错误! </span>","null","html-keyboard-response","33","153621","0.0-8.0-0.0-1.0-0.0-1.11","5","6","7","5","6","4","3","5","4","5","4","1","0","1","2","-2","1","1","2","4","5","5","4","4","5","4","4","5","4","4","6","6","6","5","4","4","6","7","5","5","3","4","6","4","6","5","6","5","1","5","3","6","5","4","5","5","5","5","5","4","6","5","2","6","5","6","6","6","5","7","6","5","6","5","6","6","6","6","6","756877432623206401","李","586","Male","[""坏我"",""坏他"",""好我"",""好他""]","[""弱我"",""弱他"",""强我"",""强他""]","","","","","","","","","","","","","","","","","","","","","","","","","","","","","","feedback_test","","","","","","","","",""
"821","","j","psychophysics","34","155532","0.0-8.0-0.0-1.0-0.0-0.12","5","6","7","5","6","4","3","5","4","5","4","1","0","1","2","-2","1","1","2","4","5","5","4","4","5","4","4","5","4","4","6","6","6","5","4","4","6","7","5","5","3","4","6","4","6","5","6","5","1","5","3","6","5","4","5","5","5","5","5","4","6","5","2","6","5","6","6","6","5","7","6","5","6","5","6","6","6","6","6","756877432623206401","李","586","Male","[""坏我"",""坏他"",""好我"",""好他""]","[""弱我"",""弱他"",""强我"",""强他""]","","","","","","","","nonmatch","","","","","","","","","","key","j","16.663859649122745","768","428","j","true","nonmatch","img/square.png","好我","好他","prac_ALT2_moral","practice_moral","","","","","","","","",""
"null","<span style='color:GreenYellow; font-size: 70px;'>正确! </span>","null","html-keyboard-response","35","156040","0.0-8.0-0.0-1.0-0.0-1.12","5","6","7","5","6","4","3","5","4","5","4","1","0","1","2","-2","1","1","2","4","5","5","4","4","5","4","4","5","4","4","6","6","6","5","4","4","6","7","5","5","3","4","6","4","6","5","6","5","1","5","3","6","5","4","5","5","5","5","5","4","6","5","2","6","5","6","6","6","5","7","6","5","6","5","6","6","6","6","6","756877432623206401","李","586","Male","[""坏我"",""坏他"",""好我"",""好他""]","[""弱我"",""弱他"",""强我"",""强他""]","","","","","","","","","","","","","","","","","","","","","","","","","","","","","","feedback_test","","","","","","","","",""
"725","","j","psychophysics","36","157780","0.0-8.0-0.0-1.0-0.0-0.13","5","6","7","5","6","4","3","5","4","5","4","1","0","1","2","-2","1","1","2","4","5","5","4","4","5","4","4","5","4","4","6","6","6","5","4","4","6","7","5","5","3","4","6","4","6","5","6","5","1","5","3","6","5","4","5","5","5","5","5","4","6","5","2","6","5","6","6","6","5","7","6","5","6","5","6","6","6","6","6","756877432623206401","李","586","Male","[""坏我"",""坏他"",""好我"",""好他""]","[""弱我"",""弱他"",""强我"",""强他""]","","","","","","","","nonmatch","","","","","","","","","","key","j","16.664423076923132","768","428","j","true","nonmatch","img/circle.png","坏他","坏我","prac_ALT2_moral","practice_moral","","","","","","","","",""
"null","<span style='color:GreenYellow; font-size: 70px;'>正确! </span>","null","html-keyboard-response","37","158292","0.0-8.0-0.0-1.0-0.0-1.13","5","6","7","5","6","4","3","5","4","5","4","1","0","1","2","-2","1","1","2","4","5","5","4","4","5","4","4","5","4","4","6","6","6","5","4","4","6","7","5","5","3","4","6","4","6","5","6","5","1","5","3","6","5","4","5","5","5","5","5","4","6","5","2","6","5","6","6","6","5","7","6","5","6","5","6","6","6","6","6","756877432623206401","李","586","Male","[""坏我"",""坏他"",""好我"",""好他""]","[""弱我"",""弱他"",""强我"",""强他""]","","","","","","","","","","","","","","","","","","","","","","","","","","","","","","feedback_test","","","","","","","","",""
"999","","f","psychophysics","38","160308","0.0-8.0-0.0-1.0-0.0-0.14","5","6","7","5","6","4","3","5","4","5","4","1","0","1","2","-2","1","1","2","4","5","5","4","4","5","4","4","5","4","4","6","6","6","5","4","4","6","7","5","5","3","4","6","4","6","5","6","5","1","5","3","6","5","4","5","5","5","5","5","4","6","5","2","6","5","6","6","6","5","7","6","5","6","5","6","6","6","6","6","756877432623206401","李","586","Male","[""坏我"",""坏他"",""好我"",""好他""]","[""弱我"",""弱他"",""强我"",""强他""]","","","","","","","","match","","","","","","","","","","key","f","16.683333333333334","768","428","f","true","match","img/diamond.png","好我","好我","prac_ALT2_moral","practice_moral","","","","","","","","",""
"null","<span style='color:GreenYellow; font-size: 70px;'>正确! </span>","null","html-keyboard-response","39","160820","0.0-8.0-0.0-1.0-0.0-1.14","5","6","7","5","6","4","3","5","4","5","4","1","0","1","2","-2","1","1","2","4","5","5","4","4","5","4","4","5","4","4","6","6","6","5","4","4","6","7","5","5","3","4","6","4","6","5","6","5","1","5","3","6","5","4","5","5","5","5","5","4","6","5","2","6","5","6","6","6","5","7","6","5","6","5","6","6","6","6","6","756877432623206401","李","586","Male","[""坏我"",""坏他"",""好我"",""好他""]","[""弱我"",""弱他"",""强我"",""强他""]","","","","","","","","","","","","","","","","","","","","","","","","","","","","","","feedback_test","","","","","","","","",""
"996","","j","psychophysics","40","162845","0.0-8.0-0.0-1.0-0.0-0.15","5","6","7","5","6","4","3","5","4","5","4","1","0","1","2","-2","1","1","2","4","5","5","4","4","5","4","4","5","4","4","6","6","6","5","4","4","6","7","5","5","3","4","6","4","6","5","6","5","1","5","3","6","5","4","5","5","5","5","5","4","6","5","2","6","5","6","6","6","5","7","6","5","6","5","6","6","6","6","6","756877432623206401","李","586","Male","[""坏我"",""坏他"",""好我"",""好他""]","[""弱我"",""弱他"",""强我"",""强他""]","","","","","","","","nonmatch","","","","","","","","","","key","j","16.664462809917307","768","428","j","true","nonmatch","img/hexagon.png","坏我","坏他","prac_ALT2_moral","practice_moral","","","","","","","","",""
"null","<span style='color:GreenYellow; font-size: 70px;'>正确! </span>","null","html-keyboard-response","41","163356","0.0-8.0-0.0-1.0-0.0-1.15","5","6","7","5","6","4","3","5","4","5","4","1","0","1","2","-2","1","1","2","4","5","5","4","4","5","4","4","5","4","4","6","6","6","5","4","4","6","7","5","5","3","4","6","4","6","5","6","5","1","5","3","6","5","4","5","5","5","5","5","4","6","5","2","6","5","6","6","6","5","7","6","5","6","5","6","6","6","6","6","756877432623206401","李","586","Male","[""坏我"",""坏他"",""好我"",""好他""]","[""弱我"",""弱他"",""强我"",""强他""]","","","","","","","","","","","","","","","","","","","","","","","","","","","","","","feedback_test","","","","","","","","",""
"818","","j","psychophysics","42","165189","0.0-8.0-0.0-1.0-0.0-0.16","5","6","7","5","6","4","3","5","4","5","4","1","0","1","2","-2","1","1","2","4","5","5","4","4","5","4","4","5","4","4","6","6","6","5","4","4","6","7","5","5","3","4","6","4","6","5","6","5","1","5","3","6","5","4","5","5","5","5","5","4","6","5","2","6","5","6","6","6","5","7","6","5","6","5","6","6","6","6","6","756877432623206401","李","586","Male","[""坏我"",""坏他"",""好我"",""好他""]","[""弱我"",""弱他"",""强我"",""强他""]","","","","","","","","nonmatch","","","","","","","","","","key","j","16.66440366972462","768","428","j","true","nonmatch","img/hexagon.png","好我","坏他","prac_ALT2_moral","practice_moral","","","","","","","","",""
"null","<span style='color:GreenYellow; font-size: 70px;'>正确! </span>","null","html-keyboard-response","43","165703","0.0-8.0-0.0-1.0-0.0-1.16","5","6","7","5","6","4","3","5","4","5","4","1","0","1","2","-2","1","1","2","4","5","5","4","4","5","4","4","5","4","4","6","6","6","5","4","4","6","7","5","5","3","4","6","4","6","5","6","5","1","5","3","6","5","4","5","5","5","5","5","4","6","5","2","6","5","6","6","6","5","7","6","5","6","5","6","6","6","6","6","756877432623206401","李","586","Male","[""坏我"",""坏他"",""好我"",""好他""]","[""弱我"",""弱他"",""强我"",""强他""]","","","","","","","","","","","","","","","","","","","","","","","","","","","","","","feedback_test","","","","","","","","",""
"781","","f","psychophysics","44","167500","0.0-8.0-0.0-1.0-0.0-0.17","5","6","7","5","6","4","3","5","4","5","4","1","0","1","2","-2","1","1","2","4","5","5","4","4","5","4","4","5","4","4","6","6","6","5","4","4","6","7","5","5","3","4","6","4","6","5","6","5","1","5","3","6","5","4","5","5","5","5","5","4","6","5","2","6","5","6","6","6","5","7","6","5","6","5","6","6","6","6","6","756877432623206401","李","586","Male","[""坏我"",""坏他"",""好我"",""好他""]","[""弱我"",""弱他"",""强我"",""强他""]","","","","","","","","match","","","","","","","","","","key","f","16.664485981308466","768","428","f","true","match","img/diamond.png","好我","好我","prac_ALT2_moral","practice_moral","","","","","","","","",""
"null","<span style='color:GreenYellow; font-size: 70px;'>正确! </span>","null","html-keyboard-response","45","168007","0.0-8.0-0.0-1.0-0.0-1.17","5","6","7","5","6","4","3","5","4","5","4","1","0","1","2","-2","1","1","2","4","5","5","4","4","5","4","4","5","4","4","6","6","6","5","4","4","6","7","5","5","3","4","6","4","6","5","6","5","1","5","3","6","5","4","5","5","5","5","5","4","6","5","2","6","5","6","6","6","5","7","6","5","6","5","6","6","6","6","6","756877432623206401","李","586","Male","[""坏我"",""坏他"",""好我"",""好他""]","[""弱我"",""弱他"",""强我"",""强他""]","","","","","","","","","","","","","","","","","","","","","","","","","","","","","","feedback_test","","","","","","","","",""
"946","","f","psychophysics","46","170037","0.0-8.0-0.0-1.0-0.0-0.18","5","6","7","5","6","4","3","5","4","5","4","1","0","1","2","-2","1","1","2","4","5","5","4","4","5","4","4","5","4","4","6","6","6","5","4","4","6","7","5","5","3","4","6","4","6","5","6","5","1","5","3","6","5","4","5","5","5","5","5","4","6","5","2","6","5","6","6","6","5","7","6","5","6","5","6","6","6","6","6","756877432623206401","李","586","Male","[""坏我"",""坏他"",""好我"",""好他""]","[""弱我"",""弱他"",""强我"",""强他""]","","","","","","","","match","","","","","","","","","","key","f","16.664462809917307","768","428","f","true","match","img/hexagon.png","坏他","坏他","prac_ALT2_moral","practice_moral","","","","","","","","",""
"null","<span style='color:GreenYellow; font-size: 70px;'>正确! </span>","null","html-keyboard-response","47","170550","0.0-8.0-0.0-1.0-0.0-1.18","5","6","7","5","6","4","3","5","4","5","4","1","0","1","2","-2","1","1","2","4","5","5","4","4","5","4","4","5","4","4","6","6","6","5","4","4","6","7","5","5","3","4","6","4","6","5","6","5","1","5","3","6","5","4","5","5","5","5","5","4","6","5","2","6","5","6","6","6","5","7","6","5","6","5","6","6","6","6","6","756877432623206401","李","586","Male","[""坏我"",""坏他"",""好我"",""好他""]","[""弱我"",""弱他"",""强我"",""强他""]","","","","","","","","","","","","","","","","","","","","","","","","","","","","","","feedback_test","","","","","","","","",""
"673","","f","psychophysics","48","172237","0.0-8.0-0.0-1.0-0.0-0.19","5","6","7","5","6","4","3","5","4","5","4","1","0","1","2","-2","1","1","2","4","5","5","4","4","5","4","4","5","4","4","6","6","6","5","4","4","6","7","5","5","3","4","6","4","6","5","6","5","1","5","3","6","5","4","5","5","5","5","5","4","6","5","2","6","5","6","6","6","5","7","6","5","6","5","6","6","6","6","6","756877432623206401","李","586","Male","[""坏我"",""坏他"",""好我"",""好他""]","[""弱我"",""弱他"",""强我"",""强他""]","","","","","","","","match","","","","","","","","","","key","f","16.664199999999838","768","428","f","true","match","img/hexagon.png","坏他","坏他","prac_ALT2_moral","practice_moral","","","","","","","","",""
"null","<span style='color:GreenYellow; font-size: 70px;'>正确! </span>","null","html-keyboard-response","49","172761","0.0-8.0-0.0-1.0-0.0-1.19","5","6","7","5","6","4","3","5","4","5","4","1","0","1","2","-2","1","1","2","4","5","5","4","4","5","4","4","5","4","4","6","6","6","5","4","4","6","7","5","5","3","4","6","4","6","5","6","5","1","5","3","6","5","4","5","5","5","5","5","4","6","5","2","6","5","6","6","6","5","7","6","5","6","5","6","6","6","6","6","756877432623206401","李","586","Male","[""坏我"",""坏他"",""好我"",""好他""]","[""弱我"",""弱他"",""强我"",""强他""]","","","","","","","","","","","","","","","","","","","","","","","","","","","","","","feedback_test","","","","","","","","",""
"891","","j","psychophysics","50","174668","0.0-8.0-0.0-1.0-0.0-0.20","5","6","7","5","6","4","3","5","4","5","4","1","0","1","2","-2","1","1","2","4","5","5","4","4","5","4","4","5","4","4","6","6","6","5","4","4","6","7","5","5","3","4","6","4","6","5","6","5","1","5","3","6","5","4","5","5","5","5","5","4","6","5","2","6","5","6","6","6","5","7","6","5","6","5","6","6","6","6","6","756877432623206401","李","586","Male","[""坏我"",""坏他"",""好我"",""好他""]","[""弱我"",""弱他"",""强我"",""强他""]","","","","","","","","nonmatch","","","","","","","","","","key","j","16.6642105263158","768","428","f","false","match","img/circle.png","坏我","坏我","prac_ALT2_moral","practice_moral","","","","","","","","",""
"null","<span style='color:red; font-size: 70px;'>错误! </span>","null","html-keyboard-response","51","175171","0.0-8.0-0.0-1.0-0.0-1.20","5","6","7","5","6","4","3","5","4","5","4","1","0","1","2","-2","1","1","2","4","5","5","4","4","5","4","4","5","4","4","6","6","6","5","4","4","6","7","5","5","3","4","6","4","6","5","6","5","1","5","3","6","5","4","5","5","5","5","5","4","6","5","2","6","5","6","6","6","5","7","6","5","6","5","6","6","6","6","6","756877432623206401","李","586","Male","[""坏我"",""坏他"",""好我"",""好他""]","[""弱我"",""弱他"",""强我"",""强他""]","","","","","","","","","","","","","","","","","","","","","","","","","","","","","","feedback_test","","","","","","","","",""
"722","","j","psychophysics","52","176908","0.0-8.0-0.0-1.0-0.0-0.21","5","6","7","5","6","4","3","5","4","5","4","1","0","1","2","-2","1","1","2","4","5","5","4","4","5","4","4","5","4","4","6","6","6","5","4","4","6","7","5","5","3","4","6","4","6","5","6","5","1","5","3","6","5","4","5","5","5","5","5","4","6","5","2","6","5","6","6","6","5","7","6","5","6","5","6","6","6","6","6","756877432623206401","李","586","Male","[""坏我"",""坏他"",""好我"",""好他""]","[""弱我"",""弱他"",""强我"",""强他""]","","","","","","","","nonmatch","","","","","","","","","","key","j","16.664077669902856","768","428","j","true","nonmatch","img/circle.png","好我","坏我","prac_ALT2_moral","practice_moral","","","","","","","","",""
"null","<span style='color:GreenYellow; font-size: 70px;'>正确! </span>","null","html-keyboard-response","53","177422","0.0-8.0-0.0-1.0-0.0-1.21","5","6","7","5","6","4","3","5","4","5","4","1","0","1","2","-2","1","1","2","4","5","5","4","4","5","4","4","5","4","4","6","6","6","5","4","4","6","7","5","5","3","4","6","4","6","5","6","5","1","5","3","6","5","4","5","5","5","5","5","4","6","5","2","6","5","6","6","6","5","7","6","5","6","5","6","6","6","6","6","756877432623206401","李","586","Male","[""坏我"",""坏他"",""好我"",""好他""]","[""弱我"",""弱他"",""强我"",""强他""]","","","","","","","","","","","","","","","","","","","","","","","","","","","","","","feedback_test","","","","","","","","",""
"859","","f","psychophysics","54","179292","0.0-8.0-0.0-1.0-0.0-0.22","5","6","7","5","6","4","3","5","4","5","4","1","0","1","2","-2","1","1","2","4","5","5","4","4","5","4","4","5","4","4","6","6","6","5","4","4","6","7","5","5","3","4","6","4","6","5","6","5","1","5","3","6","5","4","5","5","5","5","5","4","6","5","2","6","5","6","6","6","5","7","6","5","6","5","6","6","6","6","6","756877432623206401","李","586","Male","[""坏我"",""坏他"",""好我"",""好他""]","[""弱我"",""弱他"",""强我"",""强他""]","","","","","","","","match","","","","","","","","","","key","f","16.66396396396407","768","428","f","true","match","img/diamond.png","好我","好我","prac_ALT2_moral","practice_moral","","","","","","","","",""
"null","<span style='color:GreenYellow; font-size: 70px;'>正确! </span>","null","html-keyboard-response","55","179795","0.0-8.0-0.0-1.0-0.0-1.22","5","6","7","5","6","4","3","5","4","5","4","1","0","1","2","-2","1","1","2","4","5","5","4","4","5","4","4","5","4","4","6","6","6","5","4","4","6","7","5","5","3","4","6","4","6","5","6","5","1","5","3","6","5","4","5","5","5","5","5","4","6","5","2","6","5","6","6","6","5","7","6","5","6","5","6","6","6","6","6","756877432623206401","李","586","Male","[""坏我"",""坏他"",""好我"",""好他""]","[""弱我"",""弱他"",""强我"",""强他""]","","","","","","","","","","","","","","","","","","","","","","","","","","","","","","feedback_test","","","","","","","","",""
"730","","f","psychophysics","56","181540","0.0-8.0-0.0-1.0-0.0-0.23","5","6","7","5","6","4","3","5","4","5","4","1","0","1","2","-2","1","1","2","4","5","5","4","4","5","4","4","5","4","4","6","6","6","5","4","4","6","7","5","5","3","4","6","4","6","5","6","5","1","5","3","6","5","4","5","5","5","5","5","4","6","5","2","6","5","6","6","6","5","7","6","5","6","5","6","6","6","6","6","756877432623206401","李","586","Male","[""坏我"",""坏他"",""好我"",""好他""]","[""弱我"",""弱他"",""强我"",""强他""]","","","","","","","","match","","","","","","","","","","key","f","16.664423076923132","768","428","f","true","match","img/square.png","好他","好他","prac_ALT2_moral","practice_moral","","","","","","","","",""
"null","<span style='color:GreenYellow; font-size: 70px;'>正确! </span>","null","html-keyboard-response","57","182048","0.0-8.0-0.0-1.0-0.0-1.23","5","6","7","5","6","4","3","5","4","5","4","1","0","1","2","-2","1","1","2","4","5","5","4","4","5","4","4","5","4","4","6","6","6","5","4","4","6","7","5","5","3","4","6","4","6","5","6","5","1","5","3","6","5","4","5","5","5","5","5","4","6","5","2","6","5","6","6","6","5","7","6","5","6","5","6","6","6","6","6","756877432623206401","李","586","Male","[""坏我"",""坏他"",""好我"",""好他""]","[""弱我"",""弱他"",""强我"",""强他""]","","","","","","","","","","","","","","","","","","","","","","","","","","","","","","feedback_test","","","","","","","","",""
"992","","j","psychophysics","58","184053","0.0-8.0-0.0-1.0-0.0-0.24","5","6","7","5","6","4","3","5","4","5","4","1","0","1","2","-2","1","1","2","4","5","5","4","4","5","4","4","5","4","4","6","6","6","5","4","4","6","7","5","5","3","4","6","4","6","5","6","5","1","5","3","6","5","4","5","5","5","5","5","4","6","5","2","6","5","6","6","6","5","7","6","5","6","5","6","6","6","6","6","756877432623206401","李","586","Male","[""坏我"",""坏他"",""好我"",""好他""]","[""弱我"",""弱他"",""强我"",""强他""]","","","","","","","","nonmatch","","","","","","","","","","key","j","16.66436974789914","768","428","j","true","nonmatch","img/diamond.png","坏我","好我","prac_ALT2_moral","practice_moral","","","","","","","","",""
"null","<span style='color:GreenYellow; font-size: 70px;'>正确! </span>","null","html-keyboard-response","59","184566","0.0-8.0-0.0-1.0-0.0-1.24","5","6","7","5","6","4","3","5","4","5","4","1","0","1","2","-2","1","1","2","4","5","5","4","4","5","4","4","5","4","4","6","6","6","5","4","4","6","7","5","5","3","4","6","4","6","5","6","5","1","5","3","6","5","4","5","5","5","5","5","4","6","5","2","6","5","6","6","6","5","7","6","5","6","5","6","6","6","6","6","756877432623206401","李","586","Male","[""坏我"",""坏他"",""好我"",""好他""]","[""弱我"",""弱他"",""强我"",""强他""]","","","","","","","","","","","","","","","","","","","","","","","","","","","","","","feedback_test","","","","","","","","",""
"872","","j","psychophysics","60","186452","0.0-8.0-0.0-1.0-0.0-0.25","5","6","7","5","6","4","3","5","4","5","4","1","0","1","2","-2","1","1","2","4","5","5","4","4","5","4","4","5","4","4","6","6","6","5","4","4","6","7","5","5","3","4","6","4","6","5","6","5","1","5","3","6","5","4","5","5","5","5","5","4","6","5","2","6","5","6","6","6","5","7","6","5","6","5","6","6","6","6","6","756877432623206401","李","586","Male","[""坏我"",""坏他"",""好我"",""好他""]","[""弱我"",""弱他"",""强我"",""强他""]","","","","","","","","nonmatch","","","","","","","","","","key","j","16.664107142857183","768","428","j","true","nonmatch","img/circle.png","好我","坏我","prac_ALT2_moral","practice_moral","","","","","","","","",""
"null","<span style='color:GreenYellow; font-size: 70px;'>正确! </span>","null","html-keyboard-response","61","186963","0.0-8.0-0.0-1.0-0.0-1.25","5","6","7","5","6","4","3","5","4","5","4","1","0","1","2","-2","1","1","2","4","5","5","4","4","5","4","4","5","4","4","6","6","6","5","4","4","6","7","5","5","3","4","6","4","6","5","6","5","1","5","3","6","5","4","5","5","5","5","5","4","6","5","2","6","5","6","6","6","5","7","6","5","6","5","6","6","6","6","6","756877432623206401","李","586","Male","[""坏我"",""坏他"",""好我"",""好他""]","[""弱我"",""弱他"",""强我"",""强他""]","","","","","","","","","","","","","","","","","","","","","","","","","","","","","","feedback_test","","","","","","","","",""
"1020","","j","psychophysics","62","188996","0.0-8.0-0.0-1.0-0.0-0.26","5","6","7","5","6","4","3","5","4","5","4","1","0","1","2","-2","1","1","2","4","5","5","4","4","5","4","4","5","4","4","6","6","6","5","4","4","6","7","5","5","3","4","6","4","6","5","6","5","1","5","3","6","5","4","5","5","5","5","5","4","6","5","2","6","5","6","6","6","5","7","6","5","6","5","6","6","6","6","6","756877432623206401","李","586","Male","[""坏我"",""坏他"",""好我"",""好他""]","[""弱我"",""弱他"",""强我"",""强他""]","","","","","","","","nonmatch","","","","","","","","","","key","j","16.664462809917307","768","428","j","true","nonmatch","img/square.png","坏我","好他","prac_ALT2_moral","practice_moral","","","","","","","","",""
"null","<span style='color:GreenYellow; font-size: 70px;'>正确! </span>","null","html-keyboard-response","63","189496","0.0-8.0-0.0-1.0-0.0-1.26","5","6","7","5","6","4","3","5","4","5","4","1","0","1","2","-2","1","1","2","4","5","5","4","4","5","4","4","5","4","4","6","6","6","5","4","4","6","7","5","5","3","4","6","4","6","5","6","5","1","5","3","6","5","4","5","5","5","5","5","4","6","5","2","6","5","6","6","6","5","7","6","5","6","5","6","6","6","6","6","756877432623206401","李","586","Male","[""坏我"",""坏他"",""好我"",""好他""]","[""弱我"",""弱他"",""强我"",""强他""]","","","","","","","","","","","","","","","","","","","","","","","","","","","","","","feedback_test","","","","","","","","",""
"685","","j","psychophysics","64","191309","0.0-8.0-0.0-1.0-0.0-0.27","5","6","7","5","6","4","3","5","4","5","4","1","0","1","2","-2","1","1","2","4","5","5","4","4","5","4","4","5","4","4","6","6","6","5","4","4","6","7","5","5","3","4","6","4","6","5","6","5","1","5","3","6","5","4","5","5","5","5","5","4","6","5","2","6","5","6","6","6","5","7","6","5","6","5","6","6","6","6","6","756877432623206401","李","586","Male","[""坏我"",""坏他"",""好我"",""好他""]","[""弱我"",""弱他"",""强我"",""强他""]","","","","","","","","nonmatch","","","","","","","","","","key","j","16.681481481481537","768","428","j","true","nonmatch","img/hexagon.png","坏我","坏他","prac_ALT2_moral","practice_moral","","","","","","","","",""
"null","<span style='color:GreenYellow; font-size: 70px;'>正确! </span>","null","html-keyboard-response","65","191812","0.0-8.0-0.0-1.0-0.0-1.27","5","6","7","5","6","4","3","5","4","5","4","1","0","1","2","-2","1","1","2","4","5","5","4","4","5","4","4","5","4","4","6","6","6","5","4","4","6","7","5","5","3","4","6","4","6","5","6","5","1","5","3","6","5","4","5","5","5","5","5","4","6","5","2","6","5","6","6","6","5","7","6","5","6","5","6","6","6","6","6","756877432623206401","李","586","Male","[""坏我"",""坏他"",""好我"",""好他""]","[""弱我"",""弱他"",""强我"",""强他""]","","","","","","","","","","","","","","","","","","","","","","","","","","","","","","feedback_test","","","","","","","","",""
"null","","null","psychophysics","66","194019","0.0-8.0-0.0-1.0-0.0-0.28","5","6","7","5","6","4","3","5","4","5","4","1","0","1","2","-2","1","1","2","4","5","5","4","4","5","4","4","5","4","4","6","6","6","5","4","4","6","7","5","5","3","4","6","4","6","5","6","5","1","5","3","6","5","4","5","5","5","5","5","4","6","5","2","6","5","6","6","6","5","7","6","5","6","5","6","6","6","6","6","756877432623206401","李","586","Male","[""坏我"",""坏他"",""好我"",""好他""]","[""弱我"",""弱他"",""强我"",""强他""]","","","","","","","","null","","","","","","","","","","key","null","16.664393939394028","768","428","f","false","match","img/hexagon.png","坏他","坏他","prac_ALT2_moral","practice_moral","","","","","","","","",""
"null","<span class='add_' style='color:yellow; font-size: 70px;'> 太慢! </span>","null","html-keyboard-response","67","194528","0.0-8.0-0.0-1.0-0.0-1.28","5","6","7","5","6","4","3","5","4","5","4","1","0","1","2","-2","1","1","2","4","5","5","4","4","5","4","4","5","4","4","6","6","6","5","4","4","6","7","5","5","3","4","6","4","6","5","6","5","1","5","3","6","5","4","5","5","5","5","5","4","6","5","2","6","5","6","6","6","5","7","6","5","6","5","6","6","6","6","6","756877432623206401","李","586","Male","[""坏我"",""坏他"",""好我"",""好他""]","[""弱我"",""弱他"",""强我"",""强他""]","","","","","","","","","","","","","","","","","","","","","","","","","","","","","","feedback_test","","","","","","","","",""
"771","","f","psychophysics","68","196316","0.0-8.0-0.0-1.0-0.0-0.29","5","6","7","5","6","4","3","5","4","5","4","1","0","1","2","-2","1","1","2","4","5","5","4","4","5","4","4","5","4","4","6","6","6","5","4","4","6","7","5","5","3","4","6","4","6","5","6","5","1","5","3","6","5","4","5","5","5","5","5","4","6","5","2","6","5","6","6","6","5","7","6","5","6","5","6","6","6","6","6","756877432623206401","李","586","Male","[""坏我"",""坏他"",""好我"",""好他""]","[""弱我"",""弱他"",""强我"",""强他""]","","","","","","","","match","","","","","","","","","","key","f","16.664528301886815","768","428","j","false","nonmatch","img/square.png","坏他","好他","prac_ALT2_moral","practice_moral","","","","","","","","",""
"null","<span style='color:red; font-size: 70px;'>错误! </span>","null","html-keyboard-response","69","196855","0.0-8.0-0.0-1.0-0.0-1.29","5","6","7","5","6","4","3","5","4","5","4","1","0","1","2","-2","1","1","2","4","5","5","4","4","5","4","4","5","4","4","6","6","6","5","4","4","6","7","5","5","3","4","6","4","6","5","6","5","1","5","3","6","5","4","5","5","5","5","5","4","6","5","2","6","5","6","6","6","5","7","6","5","6","5","6","6","6","6","6","756877432623206401","李","586","Male","[""坏我"",""坏他"",""好我"",""好他""]","[""弱我"",""弱他"",""强我"",""强他""]","","","","","","","","","","","","","","","","","","","","","","","","","","","","","","feedback_test","","","","","","","","",""
"723","","f","psychophysics","70","198580","0.0-8.0-0.0-1.0-0.0-0.30","5","6","7","5","6","4","3","5","4","5","4","1","0","1","2","-2","1","1","2","4","5","5","4","4","5","4","4","5","4","4","6","6","6","5","4","4","6","7","5","5","3","4","6","4","6","5","6","5","1","5","3","6","5","4","5","5","5","5","5","4","6","5","2","6","5","6","6","6","5","7","6","5","6","5","6","6","6","6","6","756877432623206401","李","586","Male","[""坏我"",""坏他"",""好我"",""好他""]","[""弱我"",""弱他"",""强我"",""强他""]","","","","","","","","match","","","","","","","","","","key","f","16.66407766990314","768","428","f","true","match","img/hexagon.png","坏他","坏他","prac_ALT2_moral","practice_moral","","","","","","","","",""
"null","<span style='color:GreenYellow; font-size: 70px;'>正确! </span>","null","html-keyboard-response","71","199085","0.0-8.0-0.0-1.0-0.0-1.30","5","6","7","5","6","4","3","5","4","5","4","1","0","1","2","-2","1","1","2","4","5","5","4","4","5","4","4","5","4","4","6","6","6","5","4","4","6","7","5","5","3","4","6","4","6","5","6","5","1","5","3","6","5","4","5","5","5","5","5","4","6","5","2","6","5","6","6","6","5","7","6","5","6","5","6","6","6","6","6","756877432623206401","李","586","Male","[""坏我"",""坏他"",""好我"",""好他""]","[""弱我"",""弱他"",""强我"",""强他""]","","","","","","","","","","","","","","","","","","","","","","","","","","","","","","feedback_test","","","","","","","","",""
"1075","","j","psychophysics","72","201161","0.0-8.0-0.0-1.0-0.0-0.31","5","6","7","5","6","4","3","5","4","5","4","1","0","1","2","-2","1","1","2","4","5","5","4","4","5","4","4","5","4","4","6","6","6","5","4","4","6","7","5","5","3","4","6","4","6","5","6","5","1","5","3","6","5","4","5","5","5","5","5","4","6","5","2","6","5","6","6","6","5","7","6","5","6","5","6","6","6","6","6","756877432623206401","李","586","Male","[""坏我"",""坏他"",""好我"",""好他""]","[""弱我"",""弱他"",""强我"",""强他""]","","","","","","","","nonmatch","","","","","","","","","","key","j","16.664354838709716","768","428","f","false","match","img/diamond.png","好我","好我","prac_ALT2_moral","practice_moral","","","","","","","","",""
"null","<span style='color:red; font-size: 70px;'>错误! </span>","null","html-keyboard-response","73","201663","0.0-8.0-0.0-1.0-0.0-1.31","5","6","7","5","6","4","3","5","4","5","4","1","0","1","2","-2","1","1","2","4","5","5","4","4","5","4","4","5","4","4","6","6","6","5","4","4","6","7","5","5","3","4","6","4","6","5","6","5","1","5","3","6","5","4","5","5","5","5","5","4","6","5","2","6","5","6","6","6","5","7","6","5","6","5","6","6","6","6","6","756877432623206401","李","586","Male","[""坏我"",""坏他"",""好我"",""好他""]","[""弱我"",""弱他"",""强我"",""强他""]","","","","","","","","","","","","","","","","","","","","","","","","","","","","","","feedback_test","","","","","","","","",""
"920","","f","psychophysics","74","203588","0.0-8.0-0.0-1.0-0.0-0.32","5","6","7","5","6","4","3","5","4","5","4","1","0","1","2","-2","1","1","2","4","5","5","4","4","5","4","4","5","4","4","6","6","6","5","4","4","6","7","5","5","3","4","6","4","6","5","6","5","1","5","3","6","5","4","5","5","5","5","5","4","6","5","2","6","5","6","6","6","5","7","6","5","6","5","6","6","6","6","6","756877432623206401","李","586","Male","[""坏我"",""坏他"",""好我"",""好他""]","[""弱我"",""弱他"",""强我"",""强他""]","","","","","","","","match","","","","","","","","","","key","f","16.664347826086907","768","428","f","true","match","img/diamond.png","好我","好我","prac_ALT2_moral","practice_moral","","","","","","","","",""
"null","<span style='color:GreenYellow; font-size: 70px;'>正确! </span>","null","html-keyboard-response","75","204099","0.0-8.0-0.0-1.0-0.0-1.32","5","6","7","5","6","4","3","5","4","5","4","1","0","1","2","-2","1","1","2","4","5","5","4","4","5","4","4","5","4","4","6","6","6","5","4","4","6","7","5","5","3","4","6","4","6","5","6","5","1","5","3","6","5","4","5","5","5","5","5","4","6","5","2","6","5","6","6","6","5","7","6","5","6","5","6","6","6","6","6","756877432623206401","李","586","Male","[""坏我"",""坏他"",""好我"",""好他""]","[""弱我"",""弱他"",""强我"",""强他""]","","","","","","","","","","","","","","","","","","","","","","","","","","","","","","feedback_test","","","","","","","","",""
"856","","j","psychophysics","76","205957","0.0-8.0-0.0-1.0-0.0-0.33","5","6","7","5","6","4","3","5","4","5","4","1","0","1","2","-2","1","1","2","4","5","5","4","4","5","4","4","5","4","4","6","6","6","5","4","4","6","7","5","5","3","4","6","4","6","5","6","5","1","5","3","6","5","4","5","5","5","5","5","4","6","5","2","6","5","6","6","6","5","7","6","5","6","5","6","6","6","6","6","756877432623206401","李","586","Male","[""坏我"",""坏他"",""好我"",""好他""]","[""弱我"",""弱他"",""强我"",""强他""]","","","","","","","","nonmatch","","","","","","","","","","key","j","16.66378378378372","768","428","j","true","nonmatch","img/diamond.png","坏他","好我","prac_ALT2_moral","practice_moral","","","","","","","","",""
"null","<span style='color:GreenYellow; font-size: 70px;'>正确! </span>","null","html-keyboard-response","77","206467","0.0-8.0-0.0-1.0-0.0-1.33","5","6","7","5","6","4","3","5","4","5","4","1","0","1","2","-2","1","1","2","4","5","5","4","4","5","4","4","5","4","4","6","6","6","5","4","4","6","7","5","5","3","4","6","4","6","5","6","5","1","5","3","6","5","4","5","5","5","5","5","4","6","5","2","6","5","6","6","6","5","7","6","5","6","5","6","6","6","6","6","756877432623206401","李","586","Male","[""坏我"",""坏他"",""好我"",""好他""]","[""弱我"",""弱他"",""强我"",""强他""]","","","","","","","","","","","","","","","","","","","","","","","","","","","","","","feedback_test","","","","","","","","",""
"785","","j","psychophysics","78","208267","0.0-8.0-0.0-1.0-0.0-0.34","5","6","7","5","6","4","3","5","4","5","4","1","0","1","2","-2","1","1","2","4","5","5","4","4","5","4","4","5","4","4","6","6","6","5","4","4","6","7","5","5","3","4","6","4","6","5","6","5","1","5","3","6","5","4","5","5","5","5","5","4","6","5","2","6","5","6","6","6","5","7","6","5","6","5","6","6","6","6","6","756877432623206401","李","586","Male","[""坏我"",""坏他"",""好我"",""好他""]","[""弱我"",""弱他"",""强我"",""强他""]","","","","","","","","nonmatch","","","","","","","","","","key","j","16.66429906542044","768","428","j","true","nonmatch","img/diamond.png","好他","好我","prac_ALT2_moral","practice_moral","","","","","","","","",""
"null","<span style='color:GreenYellow; font-size: 70px;'>正确! </span>","null","html-keyboard-response","79","208770","0.0-8.0-0.0-1.0-0.0-1.34","5","6","7","5","6","4","3","5","4","5","4","1","0","1","2","-2","1","1","2","4","5","5","4","4","5","4","4","5","4","4","6","6","6","5","4","4","6","7","5","5","3","4","6","4","6","5","6","5","1","5","3","6","5","4","5","5","5","5","5","4","6","5","2","6","5","6","6","6","5","7","6","5","6","5","6","6","6","6","6","756877432623206401","李","586","Male","[""坏我"",""坏他"",""好我"",""好他""]","[""弱我"",""弱他"",""强我"",""强他""]","","","","","","","","","","","","","","","","","","","","","","","","","","","","","","feedback_test","","","","","","","","",""
"730","","j","psychophysics","80","210516","0.0-8.0-0.0-1.0-0.0-0.35","5","6","7","5","6","4","3","5","4","5","4","1","0","1","2","-2","1","1","2","4","5","5","4","4","5","4","4","5","4","4","6","6","6","5","4","4","6","7","5","5","3","4","6","4","6","5","6","5","1","5","3","6","5","4","5","5","5","5","5","4","6","5","2","6","5","6","6","6","5","7","6","5","6","5","6","6","6","6","6","756877432623206401","李","586","Male","[""坏我"",""坏他"",""好我"",""好他""]","[""弱我"",""弱他"",""强我"",""强他""]","","","","","","","","nonmatch","","","","","","","","","","key","j","16.663846153846233","768","428","j","true","nonmatch","img/hexagon.png","好我","坏他","prac_ALT2_moral","practice_moral","","","","","","","","",""
"null","<span style='color:GreenYellow; font-size: 70px;'>正确! </span>","null","html-keyboard-response","81","211026","0.0-8.0-0.0-1.0-0.0-1.35","5","6","7","5","6","4","3","5","4","5","4","1","0","1","2","-2","1","1","2","4","5","5","4","4","5","4","4","5","4","4","6","6","6","5","4","4","6","7","5","5","3","4","6","4","6","5","6","5","1","5","3","6","5","4","5","5","5","5","5","4","6","5","2","6","5","6","6","6","5","7","6","5","6","5","6","6","6","6","6","756877432623206401","李","586","Male","[""坏我"",""坏他"",""好我"",""好他""]","[""弱我"",""弱他"",""强我"",""强他""]","","","","","","","","","","","","","","","","","","","","","","","","","","","","","","feedback_test","","","","","","","","",""
"951","","f","psychophysics","82","212980","0.0-8.0-0.0-1.0-0.0-0.36","5","6","7","5","6","4","3","5","4","5","4","1","0","1","2","-2","1","1","2","4","5","5","4","4","5","4","4","5","4","4","6","6","6","5","4","4","6","7","5","5","3","4","6","4","6","5","6","5","1","5","3","6","5","4","5","5","5","5","5","4","6","5","2","6","5","6","6","6","5","7","6","5","6","5","6","6","6","6","6","756877432623206401","李","586","Male","[""坏我"",""坏他"",""好我"",""好他""]","[""弱我"",""弱他"",""强我"",""强他""]","","","","","","","","match","","","","","","","","","","key","f","16.664310344827566","768","428","f","true","match","img/circle.png","坏我","坏我","prac_ALT2_moral","practice_moral","","","","","","","","",""
"null","<span style='color:GreenYellow; font-size: 70px;'>正确! </span>","null","html-keyboard-response","83","213495","0.0-8.0-0.0-1.0-0.0-1.36","5","6","7","5","6","4","3","5","4","5","4","1","0","1","2","-2","1","1","2","4","5","5","4","4","5","4","4","5","4","4","6","6","6","5","4","4","6","7","5","5","3","4","6","4","6","5","6","5","1","5","3","6","5","4","5","5","5","5","5","4","6","5","2","6","5","6","6","6","5","7","6","5","6","5","6","6","6","6","6","756877432623206401","李","586","Male","[""坏我"",""坏他"",""好我"",""好他""]","[""弱我"",""弱他"",""强我"",""强他""]","","","","","","","","","","","","","","","","","","","","","","","","","","","","","","feedback_test","","","","","","","","",""
"678","","f","psychophysics","84","215174","0.0-8.0-0.0-1.0-0.0-0.37","5","6","7","5","6","4","3","5","4","5","4","1","0","1","2","-2","1","1","2","4","5","5","4","4","5","4","4","5","4","4","6","6","6","5","4","4","6","7","5","5","3","4","6","4","6","5","6","5","1","5","3","6","5","4","5","5","5","5","5","4","6","5","2","6","5","6","6","6","5","7","6","5","6","5","6","6","6","6","6","756877432623206401","李","586","Male","[""坏我"",""坏他"",""好我"",""好他""]","[""弱我"",""弱他"",""强我"",""强他""]","","","","","","","","match","","","","","","","","","","key","f","16.664400000000022","768","428","f","true","match","img/circle.png","坏我","坏我","prac_ALT2_moral","practice_moral","","","","","","","","",""
"null","<span style='color:GreenYellow; font-size: 70px;'>正确! </span>","null","html-keyboard-response","85","215709","0.0-8.0-0.0-1.0-0.0-1.37","5","6","7","5","6","4","3","5","4","5","4","1","0","1","2","-2","1","1","2","4","5","5","4","4","5","4","4","5","4","4","6","6","6","5","4","4","6","7","5","5","3","4","6","4","6","5","6","5","1","5","3","6","5","4","5","5","5","5","5","4","6","5","2","6","5","6","6","6","5","7","6","5","6","5","6","6","6","6","6","756877432623206401","李","586","Male","[""坏我"",""坏他"",""好我"",""好他""]","[""弱我"",""弱他"",""强我"",""强他""]","","","","","","","","","","","","","","","","","","","","","","","","","","","","","","feedback_test","","","","","","","","",""
"839","","f","psychophysics","86","217548","0.0-8.0-0.0-1.0-0.0-0.38","5","6","7","5","6","4","3","5","4","5","4","1","0","1","2","-2","1","1","2","4","5","5","4","4","5","4","4","5","4","4","6","6","6","5","4","4","6","7","5","5","3","4","6","4","6","5","6","5","1","5","3","6","5","4","5","5","5","5","5","4","6","5","2","6","5","6","6","6","5","7","6","5","6","5","6","6","6","6","6","756877432623206401","李","586","Male","[""坏我"",""坏他"",""好我"",""好他""]","[""弱我"",""弱他"",""强我"",""强他""]","","","","","","","","match","","","","","","","","","","key","f","16.664220183486186","768","428","f","true","match","img/hexagon.png","坏他","坏他","prac_ALT2_moral","practice_moral","","","","","","","","",""
"null","<span style='color:GreenYellow; font-size: 70px;'>正确! </span>","null","html-keyboard-response","87","218051","0.0-8.0-0.0-1.0-0.0-1.38","5","6","7","5","6","4","3","5","4","5","4","1","0","1","2","-2","1","1","2","4","5","5","4","4","5","4","4","5","4","4","6","6","6","5","4","4","6","7","5","5","3","4","6","4","6","5","6","5","1","5","3","6","5","4","5","5","5","5","5","4","6","5","2","6","5","6","6","6","5","7","6","5","6","5","6","6","6","6","6","756877432623206401","李","586","Male","[""坏我"",""坏他"",""好我"",""好他""]","[""弱我"",""弱他"",""强我"",""强他""]","","","","","","","","","","","","","","","","","","","","","","","","","","","","","","feedback_test","","","","","","","","",""
"905","","j","psychophysics","88","219972","0.0-8.0-0.0-1.0-0.0-0.39","5","6","7","5","6","4","3","5","4","5","4","1","0","1","2","-2","1","1","2","4","5","5","4","4","5","4","4","5","4","4","6","6","6","5","4","4","6","7","5","5","3","4","6","4","6","5","6","5","1","5","3","6","5","4","5","5","5","5","5","4","6","5","2","6","5","6","6","6","5","7","6","5","6","5","6","6","6","6","6","756877432623206401","李","586","Male","[""坏我"",""坏他"",""好我"",""好他""]","[""弱我"",""弱他"",""强我"",""强他""]","","","","","","","","nonmatch","","","","","","","","","","key","j","16.6643859649122","768","428","j","true","nonmatch","img/circle.png","坏他","坏我","prac_ALT2_moral","practice_moral","","","","","","","","",""
"null","<span style='color:GreenYellow; font-size: 70px;'>正确! </span>","null","html-keyboard-response","89","220484","0.0-8.0-0.0-1.0-0.0-1.39","5","6","7","5","6","4","3","5","4","5","4","1","0","1","2","-2","1","1","2","4","5","5","4","4","5","4","4","5","4","4","6","6","6","5","4","4","6","7","5","5","3","4","6","4","6","5","6","5","1","5","3","6","5","4","5","5","5","5","5","4","6","5","2","6","5","6","6","6","5","7","6","5","6","5","6","6","6","6","6","756877432623206401","李","586","Male","[""坏我"",""坏他"",""好我"",""好他""]","[""弱我"",""弱他"",""强我"",""强他""]","","","","","","","","","","","","","","","","","","","","","","","","","","","","","","feedback_test","","","","","","","","",""
"862","","f","psychophysics","90","222350","0.0-8.0-0.0-1.0-0.0-0.40","5","6","7","5","6","4","3","5","4","5","4","1","0","1","2","-2","1","1","2","4","5","5","4","4","5","4","4","5","4","4","6","6","6","5","4","4","6","7","5","5","3","4","6","4","6","5","6","5","1","5","3","6","5","4","5","5","5","5","5","4","6","5","2","6","5","6","6","6","5","7","6","5","6","5","6","6","6","6","6","756877432623206401","李","586","Male","[""坏我"",""坏他"",""好我"",""好他""]","[""弱我"",""弱他"",""强我"",""强他""]","","","","","","","","match","","","","","","","","","","key","f","16.684144144144167","768","428","j","false","nonmatch","img/hexagon.png","好他","坏他","prac_ALT2_moral","practice_moral","","","","","","","","",""
"null","<span style='color:red; font-size: 70px;'>错误! </span>","null","html-keyboard-response","91","222857","0.0-8.0-0.0-1.0-0.0-1.40","5","6","7","5","6","4","3","5","4","5","4","1","0","1","2","-2","1","1","2","4","5","5","4","4","5","4","4","5","4","4","6","6","6","5","4","4","6","7","5","5","3","4","6","4","6","5","6","5","1","5","3","6","5","4","5","5","5","5","5","4","6","5","2","6","5","6","6","6","5","7","6","5","6","5","6","6","6","6","6","756877432623206401","李","586","Male","[""坏我"",""坏他"",""好我"",""好他""]","[""弱我"",""弱他"",""强我"",""强他""]","","","","","","","","","","","","","","","","","","","","","","","","","","","","","","feedback_test","","","","","","","","",""
"864","","j","psychophysics","92","224724","0.0-8.0-0.0-1.0-0.0-0.41","5","6","7","5","6","4","3","5","4","5","4","1","0","1","2","-2","1","1","2","4","5","5","4","4","5","4","4","5","4","4","6","6","6","5","4","4","6","7","5","5","3","4","6","4","6","5","6","5","1","5","3","6","5","4","5","5","5","5","5","4","6","5","2","6","5","6","6","6","5","7","6","5","6","5","6","6","6","6","6","756877432623206401","李","586","Male","[""坏我"",""坏他"",""好我"",""好他""]","[""弱我"",""弱他"",""强我"",""强他""]","","","","","","","","nonmatch","","","","","","","","","","key","j","16.664684684684673","768","428","j","true","nonmatch","img/circle.png","好他","坏我","prac_ALT2_moral","practice_moral","","","","","","","","",""
"null","<span style='color:GreenYellow; font-size: 70px;'>正确! </span>","null","html-keyboard-response","93","225228","0.0-8.0-0.0-1.0-0.0-1.41","5","6","7","5","6","4","3","5","4","5","4","1","0","1","2","-2","1","1","2","4","5","5","4","4","5","4","4","5","4","4","6","6","6","5","4","4","6","7","5","5","3","4","6","4","6","5","6","5","1","5","3","6","5","4","5","5","5","5","5","4","6","5","2","6","5","6","6","6","5","7","6","5","6","5","6","6","6","6","6","756877432623206401","李","586","Male","[""坏我"",""坏他"",""好我"",""好他""]","[""弱我"",""弱他"",""强我"",""强他""]","","","","","","","","","","","","","","","","","","","","","","","","","","","","","","feedback_test","","","","","","","","",""
"919","","f","psychophysics","94","227163","0.0-8.0-0.0-1.0-0.0-0.42","5","6","7","5","6","4","3","5","4","5","4","1","0","1","2","-2","1","1","2","4","5","5","4","4","5","4","4","5","4","4","6","6","6","5","4","4","6","7","5","5","3","4","6","4","6","5","6","5","1","5","3","6","5","4","5","5","5","5","5","4","6","5","2","6","5","6","6","6","5","7","6","5","6","5","6","6","6","6","6","756877432623206401","李","586","Male","[""坏我"",""坏他"",""好我"",""好他""]","[""弱我"",""弱他"",""强我"",""强他""]","","","","","","","","match","","","","","","","","","","key","f","16.664521739130294","768","428","f","true","match","img/square.png","好他","好他","prac_ALT2_moral","practice_moral","","","","","","","","",""
"null","<span style='color:GreenYellow; font-size: 70px;'>正确! </span>","null","html-keyboard-response","95","227679","0.0-8.0-0.0-1.0-0.0-1.42","5","6","7","5","6","4","3","5","4","5","4","1","0","1","2","-2","1","1","2","4","5","5","4","4","5","4","4","5","4","4","6","6","6","5","4","4","6","7","5","5","3","4","6","4","6","5","6","5","1","5","3","6","5","4","5","5","5","5","5","4","6","5","2","6","5","6","6","6","5","7","6","5","6","5","6","6","6","6","6","756877432623206401","李","586","Male","[""坏我"",""坏他"",""好我"",""好他""]","[""弱我"",""弱他"",""强我"",""强他""]","","","","","","","","","","","","","","","","","","","","","","","","","","","","","","feedback_test","","","","","","","","",""
"753","","j","psychophysics","96","229444","0.0-8.0-0.0-1.0-0.0-0.43","5","6","7","5","6","4","3","5","4","5","4","1","0","1","2","-2","1","1","2","4","5","5","4","4","5","4","4","5","4","4","6","6","6","5","4","4","6","7","5","5","3","4","6","4","6","5","6","5","1","5","3","6","5","4","5","5","5","5","5","4","6","5","2","6","5","6","6","6","5","7","6","5","6","5","6","6","6","6","6","756877432623206401","李","586","Male","[""坏我"",""坏他"",""好我"",""好他""]","[""弱我"",""弱他"",""强我"",""强他""]","","","","","","","","nonmatch","","","","","","","","","","key","j","16.664423076923132","768","428","j","true","nonmatch","img/square.png","好我","好他","prac_ALT2_moral","practice_moral","","","","","","","","",""
"null","<span style='color:GreenYellow; font-size: 70px;'>正确! </span>","null","html-keyboard-response","97","229960","0.0-8.0-0.0-1.0-0.0-1.43","5","6","7","5","6","4","3","5","4","5","4","1","0","1","2","-2","1","1","2","4","5","5","4","4","5","4","4","5","4","4","6","6","6","5","4","4","6","7","5","5","3","4","6","4","6","5","6","5","1","5","3","6","5","4","5","5","5","5","5","4","6","5","2","6","5","6","6","6","5","7","6","5","6","5","6","6","6","6","6","756877432623206401","李","586","Male","[""坏我"",""坏他"",""好我"",""好他""]","[""弱我"",""弱他"",""强我"",""强他""]","","","","","","","","","","","","","","","","","","","","","","","","","","","","","","feedback_test","","","","","","","","",""
"null","","null","psychophysics","98","232169","0.0-8.0-0.0-1.0-0.0-0.44","5","6","7","5","6","4","3","5","4","5","4","1","0","1","2","-2","1","1","2","4","5","5","4","4","5","4","4","5","4","4","6","6","6","5","4","4","6","7","5","5","3","4","6","4","6","5","6","5","1","5","3","6","5","4","5","5","5","5","5","4","6","5","2","6","5","6","6","6","5","7","6","5","6","5","6","6","6","6","6","756877432623206401","李","586","Male","[""坏我"",""坏他"",""好我"",""好他""]","[""弱我"",""弱他"",""强我"",""强他""]","","","","","","","","null","","","","","","","","","","key","null","16.6639393939395","768","428","f","false","match","img/square.png","好他","好他","prac_ALT2_moral","practice_moral","","","","","","","","",""
"null","<span class='add_' style='color:yellow; font-size: 70px;'> 太慢! </span>","null","html-keyboard-response","99","232682","0.0-8.0-0.0-1.0-0.0-1.44","5","6","7","5","6","4","3","5","4","5","4","1","0","1","2","-2","1","1","2","4","5","5","4","4","5","4","4","5","4","4","6","6","6","5","4","4","6","7","5","5","3","4","6","4","6","5","6","5","1","5","3","6","5","4","5","5","5","5","5","4","6","5","2","6","5","6","6","6","5","7","6","5","6","5","6","6","6","6","6","756877432623206401","李","586","Male","[""坏我"",""坏他"",""好我"",""好他""]","[""弱我"",""弱他"",""强我"",""强他""]","","","","","","","","","","","","","","","","","","","","","","","","","","","","","","feedback_test","","","","","","","","",""
"1081","","f","psychophysics","100","234779","0.0-8.0-0.0-1.0-0.0-0.45","5","6","7","5","6","4","3","5","4","5","4","1","0","1","2","-2","1","1","2","4","5","5","4","4","5","4","4","5","4","4","6","6","6","5","4","4","6","7","5","5","3","4","6","4","6","5","6","5","1","5","3","6","5","4","5","5","5","5","5","4","6","5","2","6","5","6","6","6","5","7","6","5","6","5","6","6","6","6","6","756877432623206401","李","586","Male","[""坏我"",""坏他"",""好我"",""好他""]","[""弱我"",""弱他"",""强我"",""强他""]","","","","","","","","match","","","","","","","","","","key","f","16.66447999999998","768","428","f","true","match","img/circle.png","坏我","坏我","prac_ALT2_moral","practice_moral","","","","","","","","",""
"null","<span style='color:GreenYellow; font-size: 70px;'>正确! </span>","null","html-keyboard-response","101","235287","0.0-8.0-0.0-1.0-0.0-1.45","5","6","7","5","6","4","3","5","4","5","4","1","0","1","2","-2","1","1","2","4","5","5","4","4","5","4","4","5","4","4","6","6","6","5","4","4","6","7","5","5","3","4","6","4","6","5","6","5","1","5","3","6","5","4","5","5","5","5","5","4","6","5","2","6","5","6","6","6","5","7","6","5","6","5","6","6","6","6","6","756877432623206401","李","586","Male","[""坏我"",""坏他"",""好我"",""好他""]","[""弱我"",""弱他"",""强我"",""强他""]","","","","","","","","","","","","","","","","","","","","","","","","","","","","","","feedback_test","","","","","","","","",""
"926","","f","psychophysics","102","237228","0.0-8.0-0.0-1.0-0.0-0.46","5","6","7","5","6","4","3","5","4","5","4","1","0","1","2","-2","1","1","2","4","5","5","4","4","5","4","4","5","4","4","6","6","6","5","4","4","6","7","5","5","3","4","6","4","6","5","6","5","1","5","3","6","5","4","5","5","5","5","5","4","6","5","2","6","5","6","6","6","5","7","6","5","6","5","6","6","6","6","6","756877432623206401","李","586","Male","[""坏我"",""坏他"",""好我"",""好他""]","[""弱我"",""弱他"",""强我"",""强他""]","","","","","","","","match","","","","","","","","","","key","f","16.664310344827566","768","428","f","true","match","img/square.png","好他","好他","prac_ALT2_moral","practice_moral","","","","","","","","",""
"null","<span style='color:GreenYellow; font-size: 70px;'>正确! </span>","null","html-keyboard-response","103","237733","0.0-8.0-0.0-1.0-0.0-1.46","5","6","7","5","6","4","3","5","4","5","4","1","0","1","2","-2","1","1","2","4","5","5","4","4","5","4","4","5","4","4","6","6","6","5","4","4","6","7","5","5","3","4","6","4","6","5","6","5","1","5","3","6","5","4","5","5","5","5","5","4","6","5","2","6","5","6","6","6","5","7","6","5","6","5","6","6","6","6","6","756877432623206401","李","586","Male","[""坏我"",""坏他"",""好我"",""好他""]","[""弱我"",""弱他"",""强我"",""强他""]","","","","","","","","","","","","","","","","","","","","","","","","","","","","","","feedback_test","","","","","","","","",""
"633","","f","psychophysics","104","239380","0.0-8.0-0.0-1.0-0.0-0.47","5","6","7","5","6","4","3","5","4","5","4","1","0","1","2","-2","1","1","2","4","5","5","4","4","5","4","4","5","4","4","6","6","6","5","4","4","6","7","5","5","3","4","6","4","6","5","6","5","1","5","3","6","5","4","5","5","5","5","5","4","6","5","2","6","5","6","6","6","5","7","6","5","6","5","6","6","6","6","6","756877432623206401","李","586","Male","[""坏我"",""坏他"",""好我"",""好他""]","[""弱我"",""弱他"",""强我"",""强他""]","","","","","","","","match","","","","","","","","","","key","f","16.66448979591832","768","428","f","true","match","img/diamond.png","好我","好我","prac_ALT2_moral","practice_moral","","","","","","","","",""
"null","<span style='color:GreenYellow; font-size: 70px;'>正确! </span>","null","html-keyboard-response","105","239944","0.0-8.0-0.0-1.0-0.0-1.47","5","6","7","5","6","4","3","5","4","5","4","1","0","1","2","-2","1","1","2","4","5","5","4","4","5","4","4","5","4","4","6","6","6","5","4","4","6","7","5","5","3","4","6","4","6","5","6","5","1","5","3","6","5","4","5","5","5","5","5","4","6","5","2","6","5","6","6","6","5","7","6","5","6","5","6","6","6","6","6","756877432623206401","李","586","Male","[""坏我"",""坏他"",""好我"",""好他""]","[""弱我"",""弱他"",""强我"",""强他""]","","","","","","","","","","","","","","","","","","","","","","","","","","","","","","feedback_test","","","","","","","","",""
"4220","<style>.context{color:white; font-size: 35px; line-height:40px}</style>                            <div><p class='context'>您正确回答了79% 的试次。</p><p class='context'>您的平均反应时为842毫秒。</p><p class='context'>恭喜您完成练习。按空格键进入正式实验。</p><p class='footer' style='font-size: 35px; line-height:40px;'>请在进入正式实验实验之前将您的<span style='color: lightgreen;'>食指</span>放在电脑键盘的相应键位上进行按键。</p>"," ","html-keyboard-response","106","244165","0.0-8.0-0.0-2.0","5","6","7","5","6","4","3","5","4","5","4","1","0","1","2","-2","1","1","2","4","5","5","4","4","5","4","4","5","4","4","6","6","6","5","4","4","6","7","5","5","3","4","6","4","6","5","6","5","1","5","3","6","5","4","5","5","5","5","5","4","6","5","2","6","5","6","6","6","5","7","6","5","6","5","6","6","6","6","6","756877432623206401","李","586","Male","[""坏我"",""坏他"",""好我"",""好他""]","[""弱我"",""弱他"",""强我"",""强他""]","","","","","","","","","","","","","","","","","","","","","","","","","","","","","","","","","","","","","","",""
"759","
    <p style='color: white; font-size: 22px'>请您将手指放在按键上，准备进入正式的匹配任务。</p>
    <p> <div style = ""color: green""><按空格键进入下一阶段的匹配任务></div></p>
    "," ","html-keyboard-response","107","244924","0.0-8.0-0.0-3.0","5","6","7","5","6","4","3","5","4","5","4","1","0","1","2","-2","1","1","2","4","5","5","4","4","5","4","4","5","4","4","6","6","6","5","4","4","6","7","5","5","3","4","6","4","6","5","6","5","1","5","3","6","5","4","5","5","5","5","5","4","6","5","2","6","5","6","6","6","5","7","6","5","6","5","6","6","6","6","6","756877432623206401","李","586","Male","[""坏我"",""坏他"",""好我"",""好他""]","[""弱我"",""弱他"",""强我"",""强他""]","","","","","","","","","","","","","","","","","","","","","","","","","","","","","","","","","","","","","","",""
"844","","f","psychophysics","108","246773","0.0-8.0-0.0-4.0-0.0-0.0","5","6","7","5","6","4","3","5","4","5","4","1","0","1","2","-2","1","1","2","4","5","5","4","4","5","4","4","5","4","4","6","6","6","5","4","4","6","7","5","5","3","4","6","4","6","5","6","5","1","5","3","6","5","4","5","5","5","5","5","4","6","5","2","6","5","6","6","6","5","7","6","5","6","5","6","6","6","6","6","756877432623206401","李","586","Male","[""坏我"",""坏他"",""好我"",""好他""]","[""弱我"",""弱他"",""强我"",""强他""]","","","","","","","","match","","","","","","","","","","key","f","16.68272727272706","768","428","f","true","match","img/hexagon.png","坏他","坏他","ALT2","moral","","","","","","","","",""
"null","<span style='color:GreenYellow; font-size: 70px;'>正确! </span>","null","html-keyboard-response","109","247281","0.0-8.0-0.0-4.0-0.0-1.0","5","6","7","5","6","4","3","5","4","5","4","1","0","1","2","-2","1","1","2","4","5","5","4","4","5","4","4","5","4","4","6","6","6","5","4","4","6","7","5","5","3","4","6","4","6","5","6","5","1","5","3","6","5","4","5","5","5","5","5","4","6","5","2","6","5","6","6","6","5","7","6","5","6","5","6","6","6","6","6","756877432623206401","李","586","Male","[""坏我"",""坏他"",""好我"",""好他""]","[""弱我"",""弱他"",""强我"",""强他""]","","","","","","","","","","","","","","","","","","","","","","","","","","","","","","feedback_test","","","","","","","","",""
"755","","j","psychophysics","110","249116","0.0-8.0-0.0-4.0-0.0-0.1","5","6","7","5","6","4","3","5","4","5","4","1","0","1","2","-2","1","1","2","4","5","5","4","4","5","4","4","5","4","4","6","6","6","5","4","4","6","7","5","5","3","4","6","4","6","5","6","5","1","5","3","6","5","4","5","5","5","5","5","4","6","5","2","6","5","6","6","6","5","7","6","5","6","5","6","6","6","6","6","756877432623206401","李","586","Male","[""坏我"",""坏他"",""好我"",""好他""]","[""弱我"",""弱他"",""强我"",""强他""]","","","","","","","","nonmatch","","","","","","","","","","key","j","16.664403669724887","768","428","j","true","nonmatch","img/diamond.png","坏他","好我","ALT2","moral","","","","","","","","",""
"null","<span style='color:GreenYellow; font-size: 70px;'>正确! </span>","null","html-keyboard-response","111","249623","0.0-8.0-0.0-4.0-0.0-1.1","5","6","7","5","6","4","3","5","4","5","4","1","0","1","2","-2","1","1","2","4","5","5","4","4","5","4","4","5","4","4","6","6","6","5","4","4","6","7","5","5","3","4","6","4","6","5","6","5","1","5","3","6","5","4","5","5","5","5","5","4","6","5","2","6","5","6","6","6","5","7","6","5","6","5","6","6","6","6","6","756877432623206401","李","586","Male","[""坏我"",""坏他"",""好我"",""好他""]","[""弱我"",""弱他"",""强我"",""强他""]","","","","","","","","","","","","","","","","","","","","","","","","","","","","","","feedback_test","","","","","","","","",""
"855","","j","psychophysics","112","251484","0.0-8.0-0.0-4.0-0.0-0.2","5","6","7","5","6","4","3","5","4","5","4","1","0","1","2","-2","1","1","2","4","5","5","4","4","5","4","4","5","4","4","6","6","6","5","4","4","6","7","5","5","3","4","6","4","6","5","6","5","1","5","3","6","5","4","5","5","5","5","5","4","6","5","2","6","5","6","6","6","5","7","6","5","6","5","6","6","6","6","6","756877432623206401","李","586","Male","[""坏我"",""坏他"",""好我"",""好他""]","[""弱我"",""弱他"",""强我"",""强他""]","","","","","","","","nonmatch","","","","","","","","","","key","j","16.66396396396407","768","428","j","true","nonmatch","img/hexagon.png","好我","坏他","ALT2","moral","","","","","","","","",""
"null","<span style='color:GreenYellow; font-size: 70px;'>正确! </span>","null","html-keyboard-response","113","251996","0.0-8.0-0.0-4.0-0.0-1.2","5","6","7","5","6","4","3","5","4","5","4","1","0","1","2","-2","1","1","2","4","5","5","4","4","5","4","4","5","4","4","6","6","6","5","4","4","6","7","5","5","3","4","6","4","6","5","6","5","1","5","3","6","5","4","5","5","5","5","5","4","6","5","2","6","5","6","6","6","5","7","6","5","6","5","6","6","6","6","6","756877432623206401","李","586","Male","[""坏我"",""坏他"",""好我"",""好他""]","[""弱我"",""弱他"",""强我"",""强他""]","","","","","","","","","","","","","","","","","","","","","","","","","","","","","","feedback_test","","","","","","","","",""
"785","","j","psychophysics","114","253785","0.0-8.0-0.0-4.0-0.0-0.3","5","6","7","5","6","4","3","5","4","5","4","1","0","1","2","-2","1","1","2","4","5","5","4","4","5","4","4","5","4","4","6","6","6","5","4","4","6","7","5","5","3","4","6","4","6","5","6","5","1","5","3","6","5","4","5","5","5","5","5","4","6","5","2","6","5","6","6","6","5","7","6","5","6","5","6","6","6","6","6","756877432623206401","李","586","Male","[""坏我"",""坏他"",""好我"",""好他""]","[""弱我"",""弱他"",""强我"",""强他""]","","","","","","","","nonmatch","","","","","","","","","","key","j","16.664339622641357","768","428","f","false","match","img/hexagon.png","坏他","坏他","ALT2","moral","","","","","","","","",""
"null","<span style='color:red; font-size: 70px;'>错误! </span>","null","html-keyboard-response","115","254290","0.0-8.0-0.0-4.0-0.0-1.3","5","6","7","5","6","4","3","5","4","5","4","1","0","1","2","-2","1","1","2","4","5","5","4","4","5","4","4","5","4","4","6","6","6","5","4","4","6","7","5","5","3","4","6","4","6","5","6","5","1","5","3","6","5","4","5","5","5","5","5","4","6","5","2","6","5","6","6","6","5","7","6","5","6","5","6","6","6","6","6","756877432623206401","李","586","Male","[""坏我"",""坏他"",""好我"",""好他""]","[""弱我"",""弱他"",""强我"",""强他""]","","","","","","","","","","","","","","","","","","","","","","","","","","","","","","feedback_test","","","","","","","","",""
"925","","j","psychophysics","116","256231","0.0-8.0-0.0-4.0-0.0-0.4","5","6","7","5","6","4","3","5","4","5","4","1","0","1","2","-2","1","1","2","4","5","5","4","4","5","4","4","5","4","4","6","6","6","5","4","4","6","7","5","5","3","4","6","4","6","5","6","5","1","5","3","6","5","4","5","5","5","5","5","4","6","5","2","6","5","6","6","6","5","7","6","5","6","5","6","6","6","6","6","756877432623206401","李","586","Male","[""坏我"",""坏他"",""好我"",""好他""]","[""弱我"",""弱他"",""强我"",""强他""]","","","","","","","","nonmatch","","","","","","","","","","key","j","16.664310344827566","768","428","j","true","nonmatch","img/hexagon.png","坏我","坏他","ALT2","moral","","","","","","","","",""
"null","<span style='color:GreenYellow; font-size: 70px;'>正确! </span>","null","html-keyboard-response","117","256741","0.0-8.0-0.0-4.0-0.0-1.4","5","6","7","5","6","4","3","5","4","5","4","1","0","1","2","-2","1","1","2","4","5","5","4","4","5","4","4","5","4","4","6","6","6","5","4","4","6","7","5","5","3","4","6","4","6","5","6","5","1","5","3","6","5","4","5","5","5","5","5","4","6","5","2","6","5","6","6","6","5","7","6","5","6","5","6","6","6","6","6","756877432623206401","李","586","Male","[""坏我"",""坏他"",""好我"",""好他""]","[""弱我"",""弱他"",""强我"",""强他""]","","","","","","","","","","","","","","","","","","","","","","","","","","","","","","feedback_test","","","","","","","","",""
"718","","f","psychophysics","118","258475","0.0-8.0-0.0-4.0-0.0-0.5","5","6","7","5","6","4","3","5","4","5","4","1","0","1","2","-2","1","1","2","4","5","5","4","4","5","4","4","5","4","4","6","6","6","5","4","4","6","7","5","5","3","4","6","4","6","5","6","5","1","5","3","6","5","4","5","5","5","5","5","4","6","5","2","6","5","6","6","6","5","7","6","5","6","5","6","6","6","6","6","756877432623206401","李","586","Male","[""坏我"",""坏他"",""好我"",""好他""]","[""弱我"",""弱他"",""强我"",""强他""]","","","","","","","","match","","","","","","","","","","key","f","16.663300970873856","768","428","f","true","match","img/circle.png","坏我","坏我","ALT2","moral","","","","","","","","",""
"null","<span style='color:GreenYellow; font-size: 70px;'>正确! </span>","null","html-keyboard-response","119","259045","0.0-8.0-0.0-4.0-0.0-1.5","5","6","7","5","6","4","3","5","4","5","4","1","0","1","2","-2","1","1","2","4","5","5","4","4","5","4","4","5","4","4","6","6","6","5","4","4","6","7","5","5","3","4","6","4","6","5","6","5","1","5","3","6","5","4","5","5","5","5","5","4","6","5","2","6","5","6","6","6","5","7","6","5","6","5","6","6","6","6","6","756877432623206401","李","586","Male","[""坏我"",""坏他"",""好我"",""好他""]","[""弱我"",""弱他"",""强我"",""强他""]","","","","","","","","","","","","","","","","","","","","","","","","","","","","","","feedback_test","","","","","","","","",""
"799","","f","psychophysics","120","260862","0.0-8.0-0.0-4.0-0.0-0.6","5","6","7","5","6","4","3","5","4","5","4","1","0","1","2","-2","1","1","2","4","5","5","4","4","5","4","4","5","4","4","6","6","6","5","4","4","6","7","5","5","3","4","6","4","6","5","6","5","1","5","3","6","5","4","5","5","5","5","5","4","6","5","2","6","5","6","6","6","5","7","6","5","6","5","6","6","6","6","6","756877432623206401","李","586","Male","[""坏我"",""坏他"",""好我"",""好他""]","[""弱我"",""弱他"",""强我"",""强他""]","","","","","","","","match","","","","","","","","","","key","f","16.663888888888728","768","428","f","true","match","img/diamond.png","好我","好我","ALT2","moral","","","","","","","","",""
"null","<span style='color:GreenYellow; font-size: 70px;'>正确! </span>","null","html-keyboard-response","121","261368","0.0-8.0-0.0-4.0-0.0-1.6","5","6","7","5","6","4","3","5","4","5","4","1","0","1","2","-2","1","1","2","4","5","5","4","4","5","4","4","5","4","4","6","6","6","5","4","4","6","7","5","5","3","4","6","4","6","5","6","5","1","5","3","6","5","4","5","5","5","5","5","4","6","5","2","6","5","6","6","6","5","7","6","5","6","5","6","6","6","6","6","756877432623206401","李","586","Male","[""坏我"",""坏他"",""好我"",""好他""]","[""弱我"",""弱他"",""强我"",""强他""]","","","","","","","","","","","","","","","","","","","","","","","","","","","","","","feedback_test","","","","","","","","",""
"828","","j","psychophysics","122","263199","0.0-8.0-0.0-4.0-0.0-0.7","5","6","7","5","6","4","3","5","4","5","4","1","0","1","2","-2","1","1","2","4","5","5","4","4","5","4","4","5","4","4","6","6","6","5","4","4","6","7","5","5","3","4","6","4","6","5","6","5","1","5","3","6","5","4","5","5","5","5","5","4","6","5","2","6","5","6","6","6","5","7","6","5","6","5","6","6","6","6","6","756877432623206401","李","586","Male","[""坏我"",""坏他"",""好我"",""好他""]","[""弱我"",""弱他"",""强我"",""强他""]","","","","","","","","nonmatch","","","","","","","","","","key","j","16.664403669725154","768","428","j","true","nonmatch","img/square.png","坏我","好他","ALT2","moral","","","","","","","","",""
"null","<span style='color:GreenYellow; font-size: 70px;'>正确! </span>","null","html-keyboard-response","123","263712","0.0-8.0-0.0-4.0-0.0-1.7","5","6","7","5","6","4","3","5","4","5","4","1","0","1","2","-2","1","1","2","4","5","5","4","4","5","4","4","5","4","4","6","6","6","5","4","4","6","7","5","5","3","4","6","4","6","5","6","5","1","5","3","6","5","4","5","5","5","5","5","4","6","5","2","6","5","6","6","6","5","7","6","5","6","5","6","6","6","6","6","756877432623206401","李","586","Male","[""坏我"",""坏他"",""好我"",""好他""]","[""弱我"",""弱他"",""强我"",""强他""]","","","","","","","","","","","","","","","","","","","","","","","","","","","","","","feedback_test","","","","","","","","",""
"760","","f","psychophysics","124","265487","0.0-8.0-0.0-4.0-0.0-0.8","5","6","7","5","6","4","3","5","4","5","4","1","0","1","2","-2","1","1","2","4","5","5","4","4","5","4","4","5","4","4","6","6","6","5","4","4","6","7","5","5","3","4","6","4","6","5","6","5","1","5","3","6","5","4","5","5","5","5","5","4","6","5","2","6","5","6","6","6","5","7","6","5","6","5","6","6","6","6","6","756877432623206401","李","586","Male","[""坏我"",""坏他"",""好我"",""好他""]","[""弱我"",""弱他"",""强我"",""强他""]","","","","","","","","match","","","","","","","","","","key","f","16.663773584905528","768","428","f","true","match","img/square.png","好他","好他","ALT2","moral","","","","","","","","",""
"null","<span style='color:GreenYellow; font-size: 70px;'>正确! </span>","null","html-keyboard-response","125","265998","0.0-8.0-0.0-4.0-0.0-1.8","5","6","7","5","6","4","3","5","4","5","4","1","0","1","2","-2","1","1","2","4","5","5","4","4","5","4","4","5","4","4","6","6","6","5","4","4","6","7","5","5","3","4","6","4","6","5","6","5","1","5","3","6","5","4","5","5","5","5","5","4","6","5","2","6","5","6","6","6","5","7","6","5","6","5","6","6","6","6","6","756877432623206401","李","586","Male","[""坏我"",""坏他"",""好我"",""好他""]","[""弱我"",""弱他"",""强我"",""强他""]","","","","","","","","","","","","","","","","","","","","","","","","","","","","","","feedback_test","","","","","","","","",""
"664","","f","psychophysics","126","267759","0.0-8.0-0.0-4.0-0.0-0.9","5","6","7","5","6","4","3","5","4","5","4","1","0","1","2","-2","1","1","2","4","5","5","4","4","5","4","4","5","4","4","6","6","6","5","4","4","6","7","5","5","3","4","6","4","6","5","6","5","1","5","3","6","5","4","5","5","5","5","5","4","6","5","2","6","5","6","6","6","5","7","6","5","6","5","6","6","6","6","6","756877432623206401","李","586","Male","[""坏我"",""坏他"",""好我"",""好他""]","[""弱我"",""弱他"",""强我"",""强他""]","","","","","","","","match","","","","","","","","","","key","f","16.66438095238104","768","428","f","true","match","img/circle.png","坏我","坏我","ALT2","moral","","","","","","","","",""
"null","<span style='color:GreenYellow; font-size: 70px;'>正确! </span>","null","html-keyboard-response","127","268271","0.0-8.0-0.0-4.0-0.0-1.9","5","6","7","5","6","4","3","5","4","5","4","1","0","1","2","-2","1","1","2","4","5","5","4","4","5","4","4","5","4","4","6","6","6","5","4","4","6","7","5","5","3","4","6","4","6","5","6","5","1","5","3","6","5","4","5","5","5","5","5","4","6","5","2","6","5","6","6","6","5","7","6","5","6","5","6","6","6","6","6","756877432623206401","李","586","Male","[""坏我"",""坏他"",""好我"",""好他""]","[""弱我"",""弱他"",""强我"",""强他""]","","","","","","","","","","","","","","","","","","","","","","","","","","","","","","feedback_test","","","","","","","","",""
"675","","j","psychophysics","128","269947","0.0-8.0-0.0-4.0-0.0-0.10","5","6","7","5","6","4","3","5","4","5","4","1","0","1","2","-2","1","1","2","4","5","5","4","4","5","4","4","5","4","4","6","6","6","5","4","4","6","7","5","5","3","4","6","4","6","5","6","5","1","5","3","6","5","4","5","5","5","5","5","4","6","5","2","6","5","6","6","6","5","7","6","5","6","5","6","6","6","6","6","756877432623206401","李","586","Male","[""坏我"",""坏他"",""好我"",""好他""]","[""弱我"",""弱他"",""强我"",""强他""]","","","","","","","","nonmatch","","","","","","","","","","key","j","16.686199999999953","768","428","j","true","nonmatch","img/circle.png","坏他","坏我","ALT2","moral","","","","","","","","",""
"null","<span style='color:GreenYellow; font-size: 70px;'>正确! </span>","null","html-keyboard-response","129","270453","0.0-8.0-0.0-4.0-0.0-1.10","5","6","7","5","6","4","3","5","4","5","4","1","0","1","2","-2","1","1","2","4","5","5","4","4","5","4","4","5","4","4","6","6","6","5","4","4","6","7","5","5","3","4","6","4","6","5","6","5","1","5","3","6","5","4","5","5","5","5","5","4","6","5","2","6","5","6","6","6","5","7","6","5","6","5","6","6","6","6","6","756877432623206401","李","586","Male","[""坏我"",""坏他"",""好我"",""好他""]","[""弱我"",""弱他"",""强我"",""强他""]","","","","","","","","","","","","","","","","","","","","","","","","","","","","","","feedback_test","","","","","","","","",""
"748","","f","psychophysics","130","272205","0.0-8.0-0.0-4.0-0.0-0.11","5","6","7","5","6","4","3","5","4","5","4","1","0","1","2","-2","1","1","2","4","5","5","4","4","5","4","4","5","4","4","6","6","6","5","4","4","6","7","5","5","3","4","6","4","6","5","6","5","1","5","3","6","5","4","5","5","5","5","5","4","6","5","2","6","5","6","6","6","5","7","6","5","6","5","6","6","6","6","6","756877432623206401","李","586","Male","[""坏我"",""坏他"",""好我"",""好他""]","[""弱我"",""弱他"",""强我"",""强他""]","","","","","","","","match","","","","","","","","","","key","f","16.66403846153844","768","428","j","false","nonmatch","img/diamond.png","坏我","好我","ALT2","moral","","","","","","","","",""
"null","<span style='color:red; font-size: 70px;'>错误! </span>","null","html-keyboard-response","131","272717","0.0-8.0-0.0-4.0-0.0-1.11","5","6","7","5","6","4","3","5","4","5","4","1","0","1","2","-2","1","1","2","4","5","5","4","4","5","4","4","5","4","4","6","6","6","5","4","4","6","7","5","5","3","4","6","4","6","5","6","5","1","5","3","6","5","4","5","5","5","5","5","4","6","5","2","6","5","6","6","6","5","7","6","5","6","5","6","6","6","6","6","756877432623206401","李","586","Male","[""坏我"",""坏他"",""好我"",""好他""]","[""弱我"",""弱他"",""强我"",""强他""]","","","","","","","","","","","","","","","","","","","","","","","","","","","","","","feedback_test","","","","","","","","",""
"1139","","f","psychophysics","132","274859","0.0-8.0-0.0-4.0-0.0-0.12","5","6","7","5","6","4","3","5","4","5","4","1","0","1","2","-2","1","1","2","4","5","5","4","4","5","4","4","5","4","4","6","6","6","5","4","4","6","7","5","5","3","4","6","4","6","5","6","5","1","5","3","6","5","4","5","5","5","5","5","4","6","5","2","6","5","6","6","6","5","7","6","5","6","5","6","6","6","6","6","756877432623206401","李","586","Male","[""坏我"",""坏他"",""好我"",""好他""]","[""弱我"",""弱他"",""强我"",""强他""]","","","","","","","","match","","","","","","","","","","key","f","16.664374999999836","768","428","f","true","match","img/square.png","好他","好他","ALT2","moral","","","","","","","","",""
"null","<span style='color:GreenYellow; font-size: 70px;'>正确! </span>","null","html-keyboard-response","133","275363","0.0-8.0-0.0-4.0-0.0-1.12","5","6","7","5","6","4","3","5","4","5","4","1","0","1","2","-2","1","1","2","4","5","5","4","4","5","4","4","5","4","4","6","6","6","5","4","4","6","7","5","5","3","4","6","4","6","5","6","5","1","5","3","6","5","4","5","5","5","5","5","4","6","5","2","6","5","6","6","6","5","7","6","5","6","5","6","6","6","6","6","756877432623206401","李","586","Male","[""坏我"",""坏他"",""好我"",""好他""]","[""弱我"",""弱他"",""强我"",""强他""]","","","","","","","","","","","","","","","","","","","","","","","","","","","","","","feedback_test","","","","","","","","",""
"null","","null","psychophysics","134","277571","0.0-8.0-0.0-4.0-0.0-0.13","5","6","7","5","6","4","3","5","4","5","4","1","0","1","2","-2","1","1","2","4","5","5","4","4","5","4","4","5","4","4","6","6","6","5","4","4","6","7","5","5","3","4","6","4","6","5","6","5","1","5","3","6","5","4","5","5","5","5","5","4","6","5","2","6","5","6","6","6","5","7","6","5","6","5","6","6","6","6","6","756877432623206401","李","586","Male","[""坏我"",""坏他"",""好我"",""好他""]","[""弱我"",""弱他"",""强我"",""强他""]","","","","","","","","null","","","","","","","","","","key","null","16.679848484848414","768","428","j","false","nonmatch","img/hexagon.png","好他","坏他","ALT2","moral","","","","","","","","",""
"null","<span class='add_' style='color:yellow; font-size: 70px;'> 太慢! </span>","null","html-keyboard-response","135","278082","0.0-8.0-0.0-4.0-0.0-1.13","5","6","7","5","6","4","3","5","4","5","4","1","0","1","2","-2","1","1","2","4","5","5","4","4","5","4","4","5","4","4","6","6","6","5","4","4","6","7","5","5","3","4","6","4","6","5","6","5","1","5","3","6","5","4","5","5","5","5","5","4","6","5","2","6","5","6","6","6","5","7","6","5","6","5","6","6","6","6","6","756877432623206401","李","586","Male","[""坏我"",""坏他"",""好我"",""好他""]","[""弱我"",""弱他"",""强我"",""强他""]","","","","","","","","","","","","","","","","","","","","","","","","","","","","","","feedback_test","","","","","","","","",""
"817","","f","psychophysics","136","279947","0.0-8.0-0.0-4.0-0.0-0.14","5","6","7","5","6","4","3","5","4","5","4","1","0","1","2","-2","1","1","2","4","5","5","4","4","5","4","4","5","4","4","6","6","6","5","4","4","6","7","5","5","3","4","6","4","6","5","6","5","1","5","3","6","5","4","5","5","5","5","5","4","6","5","2","6","5","6","6","6","5","7","6","5","6","5","6","6","6","6","6","756877432623206401","李","586","Male","[""坏我"",""坏他"",""好我"",""好他""]","[""弱我"",""弱他"",""强我"",""强他""]","","","","","","","","match","","","","","","","","","","key","f","16.66432432432424","768","428","j","false","nonmatch","img/diamond.png","好他","好我","ALT2","moral","","","","","","","","",""
"null","<span style='color:red; font-size: 70px;'>错误! </span>","null","html-keyboard-response","137","280448","0.0-8.0-0.0-4.0-0.0-1.14","5","6","7","5","6","4","3","5","4","5","4","1","0","1","2","-2","1","1","2","4","5","5","4","4","5","4","4","5","4","4","6","6","6","5","4","4","6","7","5","5","3","4","6","4","6","5","6","5","1","5","3","6","5","4","5","5","5","5","5","4","6","5","2","6","5","6","6","6","5","7","6","5","6","5","6","6","6","6","6","756877432623206401","李","586","Male","[""坏我"",""坏他"",""好我"",""好他""]","[""弱我"",""弱他"",""强我"",""强他""]","","","","","","","","","","","","","","","","","","","","","","","","","","","","","","feedback_test","","","","","","","","",""
"965","","f","psychophysics","138","282429","0.0-8.0-0.0-4.0-0.0-0.15","5","6","7","5","6","4","3","5","4","5","4","1","0","1","2","-2","1","1","2","4","5","5","4","4","5","4","4","5","4","4","6","6","6","5","4","4","6","7","5","5","3","4","6","4","6","5","6","5","1","5","3","6","5","4","5","5","5","5","5","4","6","5","2","6","5","6","6","6","5","7","6","5","6","5","6","6","6","6","6","756877432623206401","李","586","Male","[""坏我"",""坏他"",""好我"",""好他""]","[""弱我"",""弱他"",""强我"",""强他""]","","","","","","","","match","","","","","","","","","","key","f","16.664406779661213","768","428","j","false","nonmatch","img/square.png","坏他","好他","ALT2","moral","","","","","","","","",""
"null","<span style='color:red; font-size: 70px;'>错误! </span>","null","html-keyboard-response","139","282944","0.0-8.0-0.0-4.0-0.0-1.15","5","6","7","5","6","4","3","5","4","5","4","1","0","1","2","-2","1","1","2","4","5","5","4","4","5","4","4","5","4","4","6","6","6","5","4","4","6","7","5","5","3","4","6","4","6","5","6","5","1","5","3","6","5","4","5","5","5","5","5","4","6","5","2","6","5","6","6","6","5","7","6","5","6","5","6","6","6","6","6","756877432623206401","李","586","Male","[""坏我"",""坏他"",""好我"",""好他""]","[""弱我"",""弱他"",""强我"",""强他""]","","","","","","","","","","","","","","","","","","","","","","","","","","","","","","feedback_test","","","","","","","","",""
