"rt","stimulus","response","trial_type","trial_index","time_elapsed","internal_node_id","swb_1","swb_2","swb_3","swb_4","swb_5","LOT_1","LOT_2","LOT_3","LOT_4","LOT_5","LOT_6","IPC_1","IPC_2","IPC_3","IPC_4","IPC_5","IPC_6","IPC_7","IPC_8","MorIden_1","MorIden_2","MorIden_3","MorIden_4","MorIden_5","MorIden_6","MorIden_7","MorIden_8","MorIden_9","MorIden_10","moralSeImag_1","moralSeImag_2","moralSeImag_3","moralSeImag_4","moralSeImag_5","moralSeImag_6","moralSeImag_7","moralSeImag_8","moralSeImag_9","sde_1","sde_2","sde_3","sde_4","sde_5","sde_6","sde_7","sde_8","sde_9","sde_10","trap2","sde_11","sde_12","sde_13","sde_14","sde_15","sde_16","sde_17","sde_18","sde_19","sde_20","IM_1","IM_2","IM_3","IM_4","IM_5","IM_6","IM_7","IM_8","IM_9","IM_10","IM_11","IM_12","IM_13","IM_14","IM_15","IM_16","IM_17","IM_18","IM_19","IM_20","subj_idx","friend_name","ParticipantID","Sex","Word","Word2","value","success","timeout","failed_images","failed_audio","failed_video","user_agent","responses","item_order","radio_event_ids","radio_event_times","key_event_times","mouse_event_times","straightlining","zigzagging","honeypot","task_id","screen_id","time_stamp","response_type","key_press","avg_frame_time","center_x","center_y","person","word","valence","domain","math","correct_response","correct","status","view_history","identity","duration","Image","condition","question_order","trap2_item"
"5150","
   <p><div style='color:white; font-size: 25px'>您好，欢迎参加本次实验。</div></p>
   <p><div style='color:white; font-size: 25px'>为充分保障您的权利，请确保您已经知晓并同意《参与实验同意书》以及《数据公开知情同意书》。</div></p>
   <p><div style='color:white; font-size: 25px'>如果您未见过上述内容，请咨询实验员。</div></p>
   <p style='color:white; font-size: 25px'>如果您选择继续实验，则表示您已经清楚两份知情同意书的内容并同意。</p>
   <p><div style = ""color: pink;font-size:30px;"">请确保您记得day0的实验编号，您将在本次实验输入该编号，若您忘记，请咨询实验员后作答。</div></p>
   <p><div style = ""color:lightblue;font-size:25px;"">请您尽可能认真地作答，我们将依据您在各问卷和按键任务中的作答质量发放报酬。</div></p>
   <p> <div style = ""color: green""><按空格键至下页></div> </p>
   "," ","html-keyboard-response","0","5152","0.0-0.0","5","5","5","6","5","4","3","5","4","4","4","2","0","1","0","1","1","2","0","5","4","5","5","5","4","3","3","5","4","7","8","8","6","5","7","7","7","6","5","7","3","6","6","6","5","3","7","5","1","4","2","6","3","6","6","5","4","3","7","3","5","6","7","6","7","6","7","6","7","7","5","5","7","2","5","5","6","3","6","753301347197259777","赵","137","Female","[""好她"",""坏她"",""坏我"",""好我""]","[""强她"",""弱她"",""弱我"",""强我""]","","","","","","","","","","","","","","","","","","","","","","","","","","","","","","","","","","","","","","",""
"","","","call-function","1","5153","0.0-1.0-0.0","5","5","5","6","5","4","3","5","4","4","4","2","0","1","0","1","1","2","0","5","4","5","5","5","4","3","3","5","4","7","8","8","6","5","7","7","7","6","5","7","3","6","6","6","5","3","7","5","1","4","2","6","3","6","6","5","4","3","7","3","5","6","7","6","7","6","7","6","7","7","5","5","7","2","5","5","6","3","6","753301347197259777","赵","137","Female","[""好她"",""坏她"",""坏我"",""好我""]","[""强她"",""弱她"",""弱我"",""强我""]","","","","","","","","","","","","","","","","","","","","","","","","","","","","","","","","","","","","","","",""
"41863","","[{""name"":""Sex"",""value"":""1""},{""name"":""friend_name"",""value"":""赵""},{""name"":""ParticipantID"",""value"":""137""}]","survey-html-form","2","47017","0.0-1.0-1.0","5","5","5","6","5","4","3","5","4","4","4","2","0","1","0","1","1","2","0","5","4","5","5","5","4","3","3","5","4","7","8","8","6","5","7","7","7","6","5","7","3","6","6","6","5","3","7","5","1","4","2","6","3","6","6","5","4","3","7","3","5","6","7","6","7","6","7","6","7","7","5","5","7","2","5","5","6","3","6","753301347197259777","赵","137","Female","[""好她"",""坏她"",""坏我"",""好我""]","[""强她"",""弱她"",""弱我"",""强我""]","","","","","","","","","","","","","","","","","","","","","","","","","","","","","","","","","","","","","","",""
"","","","preload","3","47324","0.0-2.0","5","5","5","6","5","4","3","5","4","4","4","2","0","1","0","1","1","2","0","5","4","5","5","5","4","3","3","5","4","7","8","8","6","5","7","7","7","6","5","7","3","6","6","6","5","3","7","5","1","4","2","6","3","6","6","5","4","3","7","3","5","6","7","6","7","6","7","6","7","7","5","5","7","2","5","5","6","3","6","753301347197259777","赵","137","Female","[""好她"",""坏她"",""坏我"",""好我""]","[""强她"",""弱她"",""弱我"",""强我""]","","true","false","[]","[]","[]","","","","","","","","","","","","","","","","","","","","","","","","","","","","","","","","",""
"","","","fullscreen","4","49325","0.0-3.0","5","5","5","6","5","4","3","5","4","4","4","2","0","1","0","1","1","2","0","5","4","5","5","5","4","3","3","5","4","7","8","8","6","5","7","7","7","6","5","7","3","6","6","6","5","3","7","5","1","4","2","6","3","6","6","5","4","3","7","3","5","6","7","6","7","6","7","6","7","7","5","5","7","2","5","5","6","3","6","753301347197259777","赵","137","Female","[""好她"",""坏她"",""坏我"",""好我""]","[""强她"",""弱她"",""弱我"",""强我""]","","true","","","","","{}","","","","","","","","","","","","","","","","","","","","","","","","","","","","","","","",""
"26409.60000000149","","{""Q01"":""5"",""Q02"":""5"",""Q03"":""5"",""Q04"":""6"",""Q05"":""5""}","survey-template","5","75737","0.0-4.0","5","5","5","6","5","4","3","5","4","4","4","2","0","1","0","1","1","2","0","5","4","5","5","5","4","3","3","5","4","7","8","8","6","5","7","7","7","6","5","7","3","6","6","6","5","3","7","5","1","4","2","6","3","6","6","5","4","3","7","3","5","6","7","6","7","6","7","6","7","7","5","5","7","2","5","5","6","3","6","753301347197259777","赵","137","Female","[""好她"",""坏她"",""坏我"",""好我""]","[""强她"",""弱她"",""弱我"",""强我""]","","","","","","","","{""Q01"":""5"",""Q02"":""5"",""Q03"":""5"",""Q04"":""6"",""Q05"":""5""}","[0,1,2,3,4]","[""Q01"",""Q02"",""Q03"",""Q03"",""Q04"",""Q05""]","[6503.79999999702,11138.29999999702,13711.89999999851,18712.10000000149,21312.5,25745.29999999702]","[]","[5952.70000000298,6503.79999999702,11138.29999999702,13711.89999999851,18097.10000000149,18712.10000000149,21312.5,25745.29999999702,26408.70000000298]","0.8","0.5","0","","","","","","","","","","","","","","","","","","","","","","",""
"40785.89999999851","","{""Q01"":""4"",""Q02"":""3"",""Q03"":""5"",""Q04"":""4"",""Q05"":""4"",""Q06"":""4""}","survey-template","6","116528","0.0-5.0","5","5","5","6","5","4","3","5","4","4","4","2","0","1","0","1","1","2","0","5","4","5","5","5","4","3","3","5","4","7","8","8","6","5","7","7","7","6","5","7","3","6","6","6","5","3","7","5","1","4","2","6","3","6","6","5","4","3","7","3","5","6","7","6","7","6","7","6","7","7","5","5","7","2","5","5","6","3","6","753301347197259777","赵","137","Female","[""好她"",""坏她"",""坏我"",""好我""]","[""强她"",""弱她"",""弱我"",""强我""]","","","","","","","","{""Q01"":""4"",""Q02"":""3"",""Q03"":""5"",""Q04"":""4"",""Q05"":""4"",""Q06"":""4""}","[0,1,2,3,4,5]","[""Q01"",""Q02"",""Q03"",""Q04"",""Q05"",""Q06""]","[2082,9352.89999999851,14968.69999999553,25778.10000000149,29809.19999999553,38657.10000000149]","[]","[2082,9352.89999999851,14121.5,14968.69999999553,25778.10000000149,29809.19999999553,38657.10000000149,40785.29999999702]","0.3333333333333333","0.2","0","","","","","","","","","","","","","","","","","","","","","","",""
"78819.89999999851","","{""Q01"":""2"",""Q02"":""0"",""Q03"":""1"",""Q04"":""0"",""Q05"":""1"",""Q06"":""1"",""Q07"":""2"",""Q08"":""0""}","survey-template","7","195352","0.0-6.0","5","5","5","6","5","4","3","5","4","4","4","2","0","1","0","1","1","2","0","5","4","5","5","5","4","3","3","5","4","7","8","8","6","5","7","7","7","6","5","7","3","6","6","6","5","3","7","5","1","4","2","6","3","6","6","5","4","3","7","3","5","6","7","6","7","6","7","6","7","7","5","5","7","2","5","5","6","3","6","753301347197259777","赵","137","Female","[""好她"",""坏她"",""坏我"",""好我""]","[""强她"",""弱她"",""弱我"",""强我""]","","","","","","","","{""Q01"":""2"",""Q02"":""0"",""Q03"":""1"",""Q04"":""0"",""Q05"":""1"",""Q06"":""1"",""Q07"":""2"",""Q08"":""0""}","[0,1,2,3,4,5,6,7]","[""Q01"",""Q02"",""Q03"",""Q04"",""Q05"",""Q06"",""Q07"",""Q08"",""Q08""]","[6172.5,11203.19999999553,16163.09999999404,65539,68946.79999999702,70699.29999999702,74722.69999999553,76322.69999999553,77970.69999999553]","[]","[6172.5,11203.19999999553,16163.09999999404,65539,67898.69999999553,68946.79999999702,70699.29999999702,73867.39999999851,74722.69999999553,76322.69999999553,77970.69999999553,78818.89999999851]","0.375","0.5714285714285714","0","","","","","","","","","","","","","","","","","","","","","","",""
"18955","
    <p><div style='color:white;font-size:35px; line-height:20px;'>词汇评估任务</div></p><br>
    <p><div style='color:white;font-size:25px; line-height:20px;'>请再次回忆该亲密的朋友，你们至少2年前就认识了，并且最近2年经常见面。</div></p>
    <p><div style='color:white;font-size:25px; line-height:20px;'>在本实验中，您将会看到一些形容词。</div></p>
    <p><div style='color:yellow;font-size:25px; line-height:20px;'>您的任务是判断这些形容词是否符合对您自己或您的朋友的描述。</div></p><p style='font-size:35px'>符合按<span style=""color:lightgreen""> j 键</span>，不符合按<span style=""color:red""> f 键</span></p>","0","html-button-response","8","214311","0.0-7.0-0.0","5","5","5","6","5","4","3","5","4","4","4","2","0","1","0","1","1","2","0","5","4","5","5","5","4","3","3","5","4","7","8","8","6","5","7","7","7","6","5","7","3","6","6","6","5","3","7","5","1","4","2","6","3","6","6","5","4","3","7","3","5","6","7","6","7","6","7","6","7","7","5","5","7","2","5","5","6","3","6","753301347197259777","赵","137","Female","[""好她"",""坏她"",""坏我"",""好我""]","[""强她"",""弱她"",""弱我"",""强我""]","","","","","","","","","","","","","","","","","SRET_EW","EW_instructions","Thu Jan 04 2024 13:01:32 GMT+0800 (中国标准时间)","","","","","","","","","","","","","","","","","","","",""
"1264","","f","psychophysics","9","216583","0.0-7.0-1.0-0.0","5","5","5","6","5","4","3","5","4","4","4","2","0","1","0","1","1","2","0","5","4","5","5","5","4","3","3","5","4","7","8","8","6","5","7","7","7","6","5","7","3","6","6","6","5","3","7","5","1","4","2","6","3","6","6","5","4","3","7","3","5","6","7","6","7","6","7","6","7","7","5","5","7","2","5","5","6","3","6","753301347197259777","赵","137","Female","[""好她"",""坏她"",""坏我"",""好我""]","[""强她"",""弱她"",""弱我"",""强我""]","","","","","","","","no","","","","","","","","","SRET_EW","EW_practice","","key","f","16.64378102189784","903.0588235294117","504","朋友","徇私","Negative","morality","","","","","","","","","","",""
"null","","null","psychophysics","10","219586","0.0-7.0-1.0-0.1","5","5","5","6","5","4","3","5","4","4","4","2","0","1","0","1","1","2","0","5","4","5","5","5","4","3","3","5","4","7","8","8","6","5","7","7","7","6","5","7","3","6","6","6","5","3","7","5","1","4","2","6","3","6","6","5","4","3","7","3","5","6","7","6","7","6","7","6","7","7","5","5","7","2","5","5","6","3","6","753301347197259777","赵","137","Female","[""好她"",""坏她"",""坏我"",""好我""]","[""强她"",""弱她"",""弱我"",""强我""]","","","","","","","","","","","","","","","","","SRET_EW","EW_practice","","key","null","16.666251396648157","903.0588235294117","504","自己","刻板","Negative","ability","","","","","","","","","","",""
"null","","null","psychophysics","11","222588","0.0-7.0-1.0-0.2","5","5","5","6","5","4","3","5","4","4","4","2","0","1","0","1","1","2","0","5","4","5","5","5","4","3","3","5","4","7","8","8","6","5","7","7","7","6","5","7","3","6","6","6","5","3","7","5","1","4","2","6","3","6","6","5","4","3","7","3","5","6","7","6","7","6","7","6","7","7","5","5","7","2","5","5","6","3","6","753301347197259777","赵","137","Female","[""好她"",""坏她"",""坏我"",""好我""]","[""强她"",""弱她"",""弱我"",""强我""]","","","","","","","","","","","","","","","","","SRET_EW","EW_practice","","key","null","16.666720670391026","903.0588235294117","504","朋友","忠实","Positive","morality","","","","","","","","","","",""
"755","","j","psychophysics","12","224345","0.0-7.0-1.0-0.3","5","5","5","6","5","4","3","5","4","4","4","2","0","1","0","1","1","2","0","5","4","5","5","5","4","3","3","5","4","7","8","8","6","5","7","7","7","6","5","7","3","6","6","6","5","3","7","5","1","4","2","6","3","6","6","5","4","3","7","3","5","6","7","6","7","6","7","6","7","7","5","5","7","2","5","5","6","3","6","753301347197259777","赵","137","Female","[""好她"",""坏她"",""坏我"",""好我""]","[""强她"",""弱她"",""弱我"",""强我""]","","","","","","","","yes","","","","","","","","","SRET_EW","EW_practice","","key","j","16.66695192307676","903.0588235294117","504","自己","严谨","Positive","ability","","","","","","","","","","",""
"14055","
    <p><div style='color:white;font-size:35px; line-height:20px;'>请您再次阅读实验要求</div></p><br>
    <p><div style='color:white;font-size:25px; line-height:20px;'>请回忆某一个亲密的朋友，你们至少2年前就认识了，并且最近2年经常见面。</div></p>
    <p><div style='color:white;font-size:25px; line-height:20px;'>在本实验中，您将会看到一些形容词。</div></p>
    <p><div style='color:yellow;font-size:25px; line-height:20px;'>您的任务是判断这些形容词是否符合对您自己或您的朋友的描述。</div></p>
    <p><div class='footer' style='font-size:25px; line-height:20px;'>如果对本实验还有不清楚之处，请立即向实验员咨询。</p><p style='font-size:25px; line-height:20px;'>如果您明白了规则：</p><p style='font-size:22px; line-height:20px;'>请按 继续 进入正式实验</p>
    </div>
    <p style='font-size:35px'>符合按<span style=""color:lightgreen""> j 键</span>，不符合按<span style=""color:red""> f 键</span></p>","0","html-button-response","13","238401","0.0-7.0-2.0","5","5","5","6","5","4","3","5","4","4","4","2","0","1","0","1","1","2","0","5","4","5","5","5","4","3","3","5","4","7","8","8","6","5","7","7","7","6","5","7","3","6","6","6","5","3","7","5","1","4","2","6","3","6","6","5","4","3","7","3","5","6","7","6","7","6","7","6","7","7","5","5","7","2","5","5","6","3","6","753301347197259777","赵","137","Female","[""好她"",""坏她"",""坏我"",""好我""]","[""强她"",""弱她"",""弱我"",""强我""]","","","","","","","","","","","","","","","","","SRET_EW","prac_instructions","Thu Jan 04 2024 13:01:32 GMT+0800 (中国标准时间)","","","","","","","","","","","","","","","","","","","",""
"1140","","f","psychophysics","14","240543","0.0-7.0-3.0-0.0","5","5","5","6","5","4","3","5","4","4","4","2","0","1","0","1","1","2","0","5","4","5","5","5","4","3","3","5","4","7","8","8","6","5","7","7","7","6","5","7","3","6","6","6","5","3","7","5","1","4","2","6","3","6","6","5","4","3","7","3","5","6","7","6","7","6","7","6","7","7","5","5","7","2","5","5","6","3","6","753301347197259777","赵","137","Female","[""好她"",""坏她"",""坏我"",""好我""]","[""强她"",""弱她"",""弱我"",""强我""]","","","","","","","","no","","","","","","","","","SRET","EW_formal","","key","f","16.665086614173347","903.0588235294117","504","自己","说谎","Negative","morality","","","","","","","","","","",""
"751","","j","psychophysics","15","242294","0.0-7.0-3.0-0.1","5","5","5","6","5","4","3","5","4","4","4","2","0","1","0","1","1","2","0","5","4","5","5","5","4","3","3","5","4","7","8","8","6","5","7","7","7","6","5","7","3","6","6","6","5","3","7","5","1","4","2","6","3","6","6","5","4","3","7","3","5","6","7","6","7","6","7","6","7","7","5","5","7","2","5","5","6","3","6","753301347197259777","赵","137","Female","[""好她"",""坏她"",""坏我"",""好我""]","[""强她"",""弱她"",""弱我"",""强我""]","","","","","","","","yes","","","","","","","","","SRET","EW_formal","","key","j","16.665990384615444","903.0588235294117","504","自己","坚贞","Positive","morality","","","","","","","","","","",""
"959","","j","psychophysics","16","244254","0.0-7.0-3.0-0.2","5","5","5","6","5","4","3","5","4","4","4","2","0","1","0","1","1","2","0","5","4","5","5","5","4","3","3","5","4","7","8","8","6","5","7","7","7","6","5","7","3","6","6","6","5","3","7","5","1","4","2","6","3","6","6","5","4","3","7","3","5","6","7","6","7","6","7","6","7","7","5","5","7","2","5","5","6","3","6","753301347197259777","赵","137","Female","[""好她"",""坏她"",""坏我"",""好我""]","[""强她"",""弱她"",""弱我"",""强我""]","","","","","","","","yes","","","","","","","","","SRET","EW_formal","","key","j","16.666170940170776","903.0588235294117","504","朋友","务实","Positive","ability","","","","","","","","","","",""
"968","","j","psychophysics","17","246223","0.0-7.0-3.0-0.3","5","5","5","6","5","4","3","5","4","4","4","2","0","1","0","1","1","2","0","5","4","5","5","5","4","3","3","5","4","7","8","8","6","5","7","7","7","6","5","7","3","6","6","6","5","3","7","5","1","4","2","6","3","6","6","5","4","3","7","3","5","6","7","6","7","6","7","6","7","7","5","5","7","2","5","5","6","3","6","753301347197259777","赵","137","Female","[""好她"",""坏她"",""坏我"",""好我""]","[""强她"",""弱她"",""弱我"",""强我""]","","","","","","","","yes","","","","","","","","","SRET","EW_formal","","key","j","16.666470085469953","903.0588235294117","504","朋友","迷糊","Negative","ability","","","","","","","","","","",""
"1224","","j","psychophysics","18","248448","0.0-7.0-3.0-0.4","5","5","5","6","5","4","3","5","4","4","4","2","0","1","0","1","1","2","0","5","4","5","5","5","4","3","3","5","4","7","8","8","6","5","7","7","7","6","5","7","3","6","6","6","5","3","7","5","1","4","2","6","3","6","6","5","4","3","7","3","5","6","7","6","7","6","7","6","7","7","5","5","7","2","5","5","6","3","6","753301347197259777","赵","137","Female","[""好她"",""坏她"",""坏我"",""好我""]","[""强她"",""弱她"",""弱我"",""强我""]","","","","","","","","yes","","","","","","","","","SRET","EW_formal","","key","j","16.666857142856998","903.0588235294117","504","朋友","新手","Negative","ability","","","","","","","","","","",""
"805","","j","psychophysics","19","250255","0.0-7.0-3.0-0.5","5","5","5","6","5","4","3","5","4","4","4","2","0","1","0","1","1","2","0","5","4","5","5","5","4","3","3","5","4","7","8","8","6","5","7","7","7","6","5","7","3","6","6","6","5","3","7","5","1","4","2","6","3","6","6","5","4","3","7","3","5","6","7","6","7","6","7","6","7","7","5","5","7","2","5","5","6","3","6","753301347197259777","赵","137","Female","[""好她"",""坏她"",""坏我"",""好我""]","[""强她"",""弱她"",""弱我"",""强我""]","","","","","","","","yes","","","","","","","","","SRET","EW_formal","","key","j","16.66600000000016","903.0588235294117","504","自己","义气","Positive","morality","","","","","","","","","","",""
"823","","j","psychophysics","20","252079","0.0-7.0-3.0-0.6","5","5","5","6","5","4","3","5","4","4","4","2","0","1","0","1","1","2","0","5","4","5","5","5","4","3","3","5","4","7","8","8","6","5","7","7","7","6","5","7","3","6","6","6","5","3","7","5","1","4","2","6","3","6","6","5","4","3","7","3","5","6","7","6","7","6","7","6","7","7","5","5","7","2","5","5","6","3","6","753301347197259777","赵","137","Female","[""好她"",""坏她"",""坏我"",""好我""]","[""强她"",""弱她"",""弱我"",""强我""]","","","","","","","","yes","","","","","","","","","SRET","EW_formal","","key","j","16.66891666666655","903.0588235294117","504","自己","勤奋","Positive","ability","","","","","","","","","","",""
"1142","","j","psychophysics","21","254222","0.0-7.0-3.0-0.7","5","5","5","6","5","4","3","5","4","4","4","2","0","1","0","1","1","2","0","5","4","5","5","5","4","3","3","5","4","7","8","8","6","5","7","7","7","6","5","7","3","6","6","6","5","3","7","5","1","4","2","6","3","6","6","5","4","3","7","3","5","6","7","6","7","6","7","6","7","7","5","5","7","2","5","5","6","3","6","753301347197259777","赵","137","Female","[""好她"",""坏她"",""坏我"",""好我""]","[""强她"",""弱她"",""弱我"",""强我""]","","","","","","","","yes","","","","","","","","","SRET","EW_formal","","key","j","16.66789843750007","903.0588235294117","504","朋友","畏难","Negative","ability","","","","","","","","","","",""
"1056","","j","psychophysics","22","256279","0.0-7.0-3.0-0.8","5","5","5","6","5","4","3","5","4","4","4","2","0","1","0","1","1","2","0","5","4","5","5","5","4","3","3","5","4","7","8","8","6","5","7","7","7","6","5","7","3","6","6","6","5","3","7","5","1","4","2","6","3","6","6","5","4","3","7","3","5","6","7","6","7","6","7","6","7","7","5","5","7","2","5","5","6","3","6","753301347197259777","赵","137","Female","[""好她"",""坏她"",""坏我"",""好我""]","[""强她"",""弱她"",""弱我"",""强我""]","","","","","","","","yes","","","","","","","","","SRET","EW_formal","","key","j","16.666081967213014","903.0588235294117","504","自己","周到","Positive","ability","","","","","","","","","","",""
"1134","","j","psychophysics","23","258414","0.0-7.0-3.0-0.9","5","5","5","6","5","4","3","5","4","4","4","2","0","1","0","1","1","2","0","5","4","5","5","5","4","3","3","5","4","7","8","8","6","5","7","7","7","6","5","7","3","6","6","6","5","3","7","5","1","4","2","6","3","6","6","5","4","3","7","3","5","6","7","6","7","6","7","6","7","7","5","5","7","2","5","5","6","3","6","753301347197259777","赵","137","Female","[""好她"",""坏她"",""坏我"",""好我""]","[""强她"",""弱她"",""弱我"",""强我""]","","","","","","","","yes","","","","","","","","","SRET","EW_formal","","key","j","16.666468749999922","903.0588235294117","504","自己","高明","Positive","ability","","","","","","","","","","",""
"815","","j","psychophysics","24","260231","0.0-7.0-3.0-0.10","5","5","5","6","5","4","3","5","4","4","4","2","0","1","0","1","1","2","0","5","4","5","5","5","4","3","3","5","4","7","8","8","6","5","7","7","7","6","5","7","3","6","6","6","5","3","7","5","1","4","2","6","3","6","6","5","4","3","7","3","5","6","7","6","7","6","7","6","7","7","5","5","7","2","5","5","6","3","6","753301347197259777","赵","137","Female","[""好她"",""坏她"",""坏我"",""好我""]","[""强她"",""弱她"",""弱我"",""强我""]","","","","","","","","yes","","","","","","","","","SRET","EW_formal","","key","j","16.671314814814885","903.0588235294117","504","朋友","善良","Positive","morality","","","","","","","","","","",""
"1278","","j","psychophysics","25","262511","0.0-7.0-3.0-0.11","5","5","5","6","5","4","3","5","4","4","4","2","0","1","0","1","1","2","0","5","4","5","5","5","4","3","3","5","4","7","8","8","6","5","7","7","7","6","5","7","3","6","6","6","5","3","7","5","1","4","2","6","3","6","6","5","4","3","7","3","5","6","7","6","7","6","7","6","7","7","5","5","7","2","5","5","6","3","6","753301347197259777","赵","137","Female","[""好她"",""坏她"",""坏我"",""好我""]","[""强她"",""弱她"",""弱我"",""强我""]","","","","","","","","yes","","","","","","","","","SRET","EW_formal","","key","j","16.666422222222252","903.0588235294117","504","自己","草率","Negative","ability","","","","","","","","","","",""
"1022","","f","psychophysics","26","264535","0.0-7.0-3.0-0.12","5","5","5","6","5","4","3","5","4","4","4","2","0","1","0","1","1","2","0","5","4","5","5","5","4","3","3","5","4","7","8","8","6","5","7","7","7","6","5","7","3","6","6","6","5","3","7","5","1","4","2","6","3","6","6","5","4","3","7","3","5","6","7","6","7","6","7","6","7","7","5","5","7","2","5","5","6","3","6","753301347197259777","赵","137","Female","[""好她"",""坏她"",""坏我"",""好我""]","[""强她"",""弱她"",""弱我"",""强我""]","","","","","","","","no","","","","","","","","","SRET","EW_formal","","key","f","16.666570247934114","903.0588235294117","504","朋友","歹毒","Negative","morality","","","","","","","","","","",""
"1417","","f","psychophysics","27","266952","0.0-7.0-3.0-0.13","5","5","5","6","5","4","3","5","4","4","4","2","0","1","0","1","1","2","0","5","4","5","5","5","4","3","3","5","4","7","8","8","6","5","7","7","7","6","5","7","3","6","6","6","5","3","7","5","1","4","2","6","3","6","6","5","4","3","7","3","5","6","7","6","7","6","7","6","7","7","5","5","7","2","5","5","6","3","6","753301347197259777","赵","137","Female","[""好她"",""坏她"",""坏我"",""好我""]","[""强她"",""弱她"",""弱我"",""强我""]","","","","","","","","no","","","","","","","","","SRET","EW_formal","","key","f","16.66826388888876","903.0588235294117","504","自己","怠惰","Negative","ability","","","","","","","","","","",""
"1373","","f","psychophysics","28","269334","0.0-7.0-3.0-0.14","5","5","5","6","5","4","3","5","4","4","4","2","0","1","0","1","1","2","0","5","4","5","5","5","4","3","3","5","4","7","8","8","6","5","7","7","7","6","5","7","3","6","6","6","5","3","7","5","1","4","2","6","3","6","6","5","4","3","7","3","5","6","7","6","7","6","7","6","7","7","5","5","7","2","5","5","6","3","6","753301347197259777","赵","137","Female","[""好她"",""坏她"",""坏我"",""好我""]","[""强她"",""弱她"",""弱我"",""强我""]","","","","","","","","no","","","","","","","","","SRET","EW_formal","","key","f","16.666119718309705","903.0588235294117","504","自己","顶事","Positive","ability","","","","","","","","","","",""
"863","","j","psychophysics","29","271199","0.0-7.0-3.0-0.15","5","5","5","6","5","4","3","5","4","4","4","2","0","1","0","1","1","2","0","5","4","5","5","5","4","3","3","5","4","7","8","8","6","5","7","7","7","6","5","7","3","6","6","6","5","3","7","5","1","4","2","6","3","6","6","5","4","3","7","3","5","6","7","6","7","6","7","6","7","7","5","5","7","2","5","5","6","3","6","753301347197259777","赵","137","Female","[""好她"",""坏她"",""坏我"",""好我""]","[""强她"",""弱她"",""弱我"",""强我""]","","","","","","","","yes","","","","","","","","","SRET","EW_formal","","key","j","16.66713513513536","903.0588235294117","504","自己","诚信","Positive","morality","","","","","","","","","","",""
"1335","","j","psychophysics","30","273534","0.0-7.0-3.0-0.16","5","5","5","6","5","4","3","5","4","4","4","2","0","1","0","1","1","2","0","5","4","5","5","5","4","3","3","5","4","7","8","8","6","5","7","7","7","6","5","7","3","6","6","6","5","3","7","5","1","4","2","6","3","6","6","5","4","3","7","3","5","6","7","6","7","6","7","6","7","7","5","5","7","2","5","5","6","3","6","753301347197259777","赵","137","Female","[""好她"",""坏她"",""坏我"",""好我""]","[""强她"",""弱她"",""弱我"",""强我""]","","","","","","","","yes","","","","","","","","","SRET","EW_formal","","key","j","16.66760431654691","903.0588235294117","504","自己","博识","Positive","ability","","","","","","","","","","",""
"1746","","j","psychophysics","31","276281","0.0-7.0-3.0-0.17","5","5","5","6","5","4","3","5","4","4","4","2","0","1","0","1","1","2","0","5","4","5","5","5","4","3","3","5","4","7","8","8","6","5","7","7","7","6","5","7","3","6","6","6","5","3","7","5","1","4","2","6","3","6","6","5","4","3","7","3","5","6","7","6","7","6","7","6","7","7","5","5","7","2","5","5","6","3","6","753301347197259777","赵","137","Female","[""好她"",""坏她"",""坏我"",""好我""]","[""强她"",""弱她"",""弱我"",""强我""]","","","","","","","","yes","","","","","","","","","SRET","EW_formal","","key","j","16.665786585365577","903.0588235294117","504","朋友","清廉","Positive","morality","","","","","","","","","","",""
"789","","j","psychophysics","32","278070","0.0-7.0-3.0-0.18","5","5","5","6","5","4","3","5","4","4","4","2","0","1","0","1","1","2","0","5","4","5","5","5","4","3","3","5","4","7","8","8","6","5","7","7","7","6","5","7","3","6","6","6","5","3","7","5","1","4","2","6","3","6","6","5","4","3","7","3","5","6","7","6","7","6","7","6","7","7","5","5","7","2","5","5","6","3","6","753301347197259777","赵","137","Female","[""好她"",""坏她"",""坏我"",""好我""]","[""强她"",""弱她"",""弱我"",""强我""]","","","","","","","","yes","","","","","","","","","SRET","EW_formal","","key","j","16.66691509433934","903.0588235294117","504","自己","文明","Positive","morality","","","","","","","","","","",""
"814","","f","psychophysics","33","279887","0.0-7.0-3.0-0.19","5","5","5","6","5","4","3","5","4","4","4","2","0","1","0","1","1","2","0","5","4","5","5","5","4","3","3","5","4","7","8","8","6","5","7","7","7","6","5","7","3","6","6","6","5","3","7","5","1","4","2","6","3","6","6","5","4","3","7","3","5","6","7","6","7","6","7","6","7","7","5","5","7","2","5","5","6","3","6","753301347197259777","赵","137","Female","[""好她"",""坏她"",""坏我"",""好我""]","[""强她"",""弱她"",""弱我"",""强我""]","","","","","","","","no","","","","","","","","","SRET","EW_formal","","key","f","16.666129629629452","903.0588235294117","504","自己","拖延","Negative","ability","","","","","","","","","","",""
"952","","f","psychophysics","34","281840","0.0-7.0-3.0-0.20","5","5","5","6","5","4","3","5","4","4","4","2","0","1","0","1","1","2","0","5","4","5","5","5","4","3","3","5","4","7","8","8","6","5","7","7","7","6","5","7","3","6","6","6","5","3","7","5","1","4","2","6","3","6","6","5","4","3","7","3","5","6","7","6","7","6","7","6","7","7","5","5","7","2","5","5","6","3","6","753301347197259777","赵","137","Female","[""好她"",""坏她"",""坏我"",""好我""]","[""强她"",""弱她"",""弱我"",""强我""]","","","","","","","","no","","","","","","","","","SRET","EW_formal","","key","f","16.666405172413917","903.0588235294117","504","自己","屈才","Negative","ability","","","","","","","","","","",""
"773","","f","psychophysics","35","283614","0.0-7.0-3.0-0.21","5","5","5","6","5","4","3","5","4","4","4","2","0","1","0","1","1","2","0","5","4","5","5","5","4","3","3","5","4","7","8","8","6","5","7","7","7","6","5","7","3","6","6","6","5","3","7","5","1","4","2","6","3","6","6","5","4","3","7","3","5","6","7","6","7","6","7","6","7","7","5","5","7","2","5","5","6","3","6","753301347197259777","赵","137","Female","[""好她"",""坏她"",""坏我"",""好我""]","[""强她"",""弱她"",""弱我"",""强我""]","","","","","","","","no","","","","","","","","","SRET","EW_formal","","key","f","16.666792452830123","903.0588235294117","504","自己","奸险","Negative","morality","","","","","","","","","","",""
"1144","","j","psychophysics","36","285759","0.0-7.0-3.0-0.22","5","5","5","6","5","4","3","5","4","4","4","2","0","1","0","1","1","2","0","5","4","5","5","5","4","3","3","5","4","7","8","8","6","5","7","7","7","6","5","7","3","6","6","6","5","3","7","5","1","4","2","6","3","6","6","5","4","3","7","3","5","6","7","6","7","6","7","6","7","7","5","5","7","2","5","5","6","3","6","753301347197259777","赵","137","Female","[""好她"",""坏她"",""坏我"",""好我""]","[""强她"",""弱她"",""弱我"",""强我""]","","","","","","","","yes","","","","","","","","","SRET","EW_formal","","key","j","16.66743307086588","903.0588235294117","504","朋友","忠勇","Positive","morality","","","","","","","","","","",""
"710","","j","psychophysics","37","287470","0.0-7.0-3.0-0.23","5","5","5","6","5","4","3","5","4","4","4","2","0","1","0","1","1","2","0","5","4","5","5","5","4","3","3","5","4","7","8","8","6","5","7","7","7","6","5","7","3","6","6","6","5","3","7","5","1","4","2","6","3","6","6","5","4","3","7","3","5","6","7","6","7","6","7","6","7","7","5","5","7","2","5","5","6","3","6","753301347197259777","赵","137","Female","[""好她"",""坏她"",""坏我"",""好我""]","[""强她"",""弱她"",""弱我"",""强我""]","","","","","","","","yes","","","","","","","","","SRET","EW_formal","","key","j","16.6662549019612","903.0588235294117","504","朋友","肯干","Positive","ability","","","","","","","","","","",""
"823","","f","psychophysics","38","289295","0.0-7.0-3.0-0.24","5","5","5","6","5","4","3","5","4","4","4","2","0","1","0","1","1","2","0","5","4","5","5","5","4","3","3","5","4","7","8","8","6","5","7","7","7","6","5","7","3","6","6","6","5","3","7","5","1","4","2","6","3","6","6","5","4","3","7","3","5","6","7","6","7","6","7","6","7","7","5","5","7","2","5","5","6","3","6","753301347197259777","赵","137","Female","[""好她"",""坏她"",""坏我"",""好我""]","[""强她"",""弱她"",""弱我"",""强我""]","","","","","","","","no","","","","","","","","","SRET","EW_formal","","key","f","16.668453703703968","903.0588235294117","504","自己","黑心","Negative","morality","","","","","","","","","","",""
"719","","j","psychophysics","39","291015","0.0-7.0-3.0-0.25","5","5","5","6","5","4","3","5","4","4","4","2","0","1","0","1","1","2","0","5","4","5","5","5","4","3","3","5","4","7","8","8","6","5","7","7","7","6","5","7","3","6","6","6","5","3","7","5","1","4","2","6","3","6","6","5","4","3","7","3","5","6","7","6","7","6","7","6","7","7","5","5","7","2","5","5","6","3","6","753301347197259777","赵","137","Female","[""好她"",""坏她"",""坏我"",""好我""]","[""强她"",""弱她"",""弱我"",""强我""]","","","","","","","","yes","","","","","","","","","SRET","EW_formal","","key","j","16.66879611650484","903.0588235294117","504","朋友","正气","Positive","morality","","","","","","","","","","",""
"961","","f","psychophysics","40","292977","0.0-7.0-3.0-0.26","5","5","5","6","5","4","3","5","4","4","4","2","0","1","0","1","1","2","0","5","4","5","5","5","4","3","3","5","4","7","8","8","6","5","7","7","7","6","5","7","3","6","6","6","5","3","7","5","1","4","2","6","3","6","6","5","4","3","7","3","5","6","7","6","7","6","7","6","7","7","5","5","7","2","5","5","6","3","6","753301347197259777","赵","137","Female","[""好她"",""坏她"",""坏我"",""好我""]","[""强她"",""弱她"",""弱我"",""强我""]","","","","","","","","no","","","","","","","","","SRET","EW_formal","","key","f","16.664991379310557","903.0588235294117","504","自己","不端","Negative","morality","","","","","","","","","","",""
"941","","f","psychophysics","41","294919","0.0-7.0-3.0-0.27","5","5","5","6","5","4","3","5","4","4","4","2","0","1","0","1","1","2","0","5","4","5","5","5","4","3","3","5","4","7","8","8","6","5","7","7","7","6","5","7","3","6","6","6","5","3","7","5","1","4","2","6","3","6","6","5","4","3","7","3","5","6","7","6","7","6","7","6","7","7","5","5","7","2","5","5","6","3","6","753301347197259777","赵","137","Female","[""好她"",""坏她"",""坏我"",""好我""]","[""强她"",""弱她"",""弱我"",""强我""]","","","","","","","","no","","","","","","","","","SRET","EW_formal","","key","f","16.667232758620482","903.0588235294117","504","朋友","罪恶","Negative","morality","","","","","","","","","","",""
"721","","f","psychophysics","42","296640","0.0-7.0-3.0-0.28","5","5","5","6","5","4","3","5","4","4","4","2","0","1","0","1","1","2","0","5","4","5","5","5","4","3","3","5","4","7","8","8","6","5","7","7","7","6","5","7","3","6","6","6","5","3","7","5","1","4","2","6","3","6","6","5","4","3","7","3","5","6","7","6","7","6","7","6","7","7","5","5","7","2","5","5","6","3","6","753301347197259777","赵","137","Female","[""好她"",""坏她"",""坏我"",""好我""]","[""强她"",""弱她"",""弱我"",""强我""]","","","","","","","","no","","","","","","","","","SRET","EW_formal","","key","f","16.668284313725856","903.0588235294117","504","自己","蛇蝎","Negative","morality","","","","","","","","","","",""
"717","","j","psychophysics","43","298359","0.0-7.0-3.0-0.29","5","5","5","6","5","4","3","5","4","4","4","2","0","1","0","1","1","2","0","5","4","5","5","5","4","3","3","5","4","7","8","8","6","5","7","7","7","6","5","7","3","6","6","6","5","3","7","5","1","4","2","6","3","6","6","5","4","3","7","3","5","6","7","6","7","6","7","6","7","7","5","5","7","2","5","5","6","3","6","753301347197259777","赵","137","Female","[""好她"",""坏她"",""坏我"",""好我""]","[""强她"",""弱她"",""弱我"",""强我""]","","","","","","","","yes","","","","","","","","","SRET","EW_formal","","key","j","16.666323529412015","903.0588235294117","504","自己","变通","Positive","ability","","","","","","","","","","",""
"720","","j","psychophysics","44","300080","0.0-7.0-3.0-0.30","5","5","5","6","5","4","3","5","4","4","4","2","0","1","0","1","1","2","0","5","4","5","5","5","4","3","3","5","4","7","8","8","6","5","7","7","7","6","5","7","3","6","6","6","5","3","7","5","1","4","2","6","3","6","6","5","4","3","7","3","5","6","7","6","7","6","7","6","7","7","5","5","7","2","5","5","6","3","6","753301347197259777","赵","137","Female","[""好她"",""坏她"",""坏我"",""好我""]","[""强她"",""弱她"",""弱我"",""强我""]","","","","","","","","yes","","","","","","","","","SRET","EW_formal","","key","j","16.666194174757443","903.0588235294117","504","朋友","守时","Positive","morality","","","","","","","","","","",""
"981","","j","psychophysics","45","302063","0.0-7.0-3.0-0.31","5","5","5","6","5","4","3","5","4","4","4","2","0","1","0","1","1","2","0","5","4","5","5","5","4","3","3","5","4","7","8","8","6","5","7","7","7","6","5","7","3","6","6","6","5","3","7","5","1","4","2","6","3","6","6","5","4","3","7","3","5","6","7","6","7","6","7","6","7","7","5","5","7","2","5","5","6","3","6","753301347197259777","赵","137","Female","[""好她"",""坏她"",""坏我"",""好我""]","[""强她"",""弱她"",""弱我"",""强我""]","","","","","","","","yes","","","","","","","","","SRET","EW_formal","","key","j","16.668743589743734","903.0588235294117","504","自己","学霸","Positive","ability","","","","","","","","","","",""
"1046","","f","psychophysics","46","304111","0.0-7.0-3.0-0.32","5","5","5","6","5","4","3","5","4","4","4","2","0","1","0","1","1","2","0","5","4","5","5","5","4","3","3","5","4","7","8","8","6","5","7","7","7","6","5","7","3","6","6","6","5","3","7","5","1","4","2","6","3","6","6","5","4","3","7","3","5","6","7","6","7","6","7","6","7","7","5","5","7","2","5","5","6","3","6","753301347197259777","赵","137","Female","[""好她"",""坏她"",""坏我"",""好我""]","[""强她"",""弱她"",""弱我"",""强我""]","","","","","","","","no","","","","","","","","","SRET","EW_formal","","key","f","16.667590163934396","903.0588235294117","504","朋友","驽钝","Negative","ability","","","","","","","","","","",""
"719","","f","psychophysics","47","305831","0.0-7.0-3.0-0.33","5","5","5","6","5","4","3","5","4","4","4","2","0","1","0","1","1","2","0","5","4","5","5","5","4","3","3","5","4","7","8","8","6","5","7","7","7","6","5","7","3","6","6","6","5","3","7","5","1","4","2","6","3","6","6","5","4","3","7","3","5","6","7","6","7","6","7","6","7","7","5","5","7","2","5","5","6","3","6","753301347197259777","赵","137","Female","[""好她"",""坏她"",""坏我"",""好我""]","[""强她"",""弱她"",""弱我"",""强我""]","","","","","","","","no","","","","","","","","","SRET","EW_formal","","key","f","16.667349514562762","903.0588235294117","504","自己","阴毒","Negative","morality","","","","","","","","","","",""
"799","","j","psychophysics","48","307631","0.0-7.0-3.0-0.34","5","5","5","6","5","4","3","5","4","4","4","2","0","1","0","1","1","2","0","5","4","5","5","5","4","3","3","5","4","7","8","8","6","5","7","7","7","6","5","7","3","6","6","6","5","3","7","5","1","4","2","6","3","6","6","5","4","3","7","3","5","6","7","6","7","6","7","6","7","7","5","5","7","2","5","5","6","3","6","753301347197259777","赵","137","Female","[""好她"",""坏她"",""坏我"",""好我""]","[""强她"",""弱她"",""弱我"",""强我""]","","","","","","","","yes","","","","","","","","","SRET","EW_formal","","key","j","16.667383177569853","903.0588235294117","504","自己","爱国","Positive","morality","","","","","","","","","","",""
"1078","","j","psychophysics","49","309711","0.0-7.0-3.0-0.35","5","5","5","6","5","4","3","5","4","4","4","2","0","1","0","1","1","2","0","5","4","5","5","5","4","3","3","5","4","7","8","8","6","5","7","7","7","6","5","7","3","6","6","6","5","3","7","5","1","4","2","6","3","6","6","5","4","3","7","3","5","6","7","6","7","6","7","6","7","7","5","5","7","2","5","5","6","3","6","753301347197259777","赵","137","Female","[""好她"",""坏她"",""坏我"",""好我""]","[""强她"",""弱她"",""弱我"",""强我""]","","","","","","","","yes","","","","","","","","","SRET","EW_formal","","key","j","16.66657723577237","903.0588235294117","504","自己","短视","Negative","ability","","","","","","","","","","",""
"712","","j","psychophysics","50","311425","0.0-7.0-3.0-0.36","5","5","5","6","5","4","3","5","4","4","4","2","0","1","0","1","1","2","0","5","4","5","5","5","4","3","3","5","4","7","8","8","6","5","7","7","7","6","5","7","3","6","6","6","5","3","7","5","1","4","2","6","3","6","6","5","4","3","7","3","5","6","7","6","7","6","7","6","7","7","5","5","7","2","5","5","6","3","6","753301347197259777","赵","137","Female","[""好她"",""坏她"",""坏我"",""好我""]","[""强她"",""弱她"",""弱我"",""强我""]","","","","","","","","yes","","","","","","","","","SRET","EW_formal","","key","j","16.667362745098004","903.0588235294117","504","自己","坦荡","Positive","morality","","","","","","","","","","",""
"765","","j","psychophysics","51","313191","0.0-7.0-3.0-0.37","5","5","5","6","5","4","3","5","4","4","4","2","0","1","0","1","1","2","0","5","4","5","5","5","4","3","3","5","4","7","8","8","6","5","7","7","7","6","5","7","3","6","6","6","5","3","7","5","1","4","2","6","3","6","6","5","4","3","7","3","5","6","7","6","7","6","7","6","7","7","5","5","7","2","5","5","6","3","6","753301347197259777","赵","137","Female","[""好她"",""坏她"",""坏我"",""好我""]","[""强她"",""弱她"",""弱我"",""强我""]","","","","","","","","yes","","","","","","","","","SRET","EW_formal","","key","j","16.66675238095202","903.0588235294117","504","朋友","高效","Positive","ability","","","","","","","","","","",""
"1128","","f","psychophysics","52","315320","0.0-7.0-3.0-0.38","5","5","5","6","5","4","3","5","4","4","4","2","0","1","0","1","1","2","0","5","4","5","5","5","4","3","3","5","4","7","8","8","6","5","7","7","7","6","5","7","3","6","6","6","5","3","7","5","1","4","2","6","3","6","6","5","4","3","7","3","5","6","7","6","7","6","7","6","7","7","5","5","7","2","5","5","6","3","6","753301347197259777","赵","137","Female","[""好她"",""坏她"",""坏我"",""好我""]","[""强她"",""弱她"",""弱我"",""强我""]","","","","","","","","no","","","","","","","","","SRET","EW_formal","","key","f","16.66672440944881","903.0588235294117","504","朋友","犹豫","Negative","ability","","","","","","","","","","",""
"780","","f","psychophysics","53","317103","0.0-7.0-3.0-0.39","5","5","5","6","5","4","3","5","4","4","4","2","0","1","0","1","1","2","0","5","4","5","5","5","4","3","3","5","4","7","8","8","6","5","7","7","7","6","5","7","3","6","6","6","5","3","7","5","1","4","2","6","3","6","6","5","4","3","7","3","5","6","7","6","7","6","7","6","7","7","5","5","7","2","5","5","6","3","6","753301347197259777","赵","137","Female","[""好她"",""坏她"",""坏我"",""好我""]","[""强她"",""弱她"",""弱我"",""强我""]","","","","","","","","no","","","","","","","","","SRET","EW_formal","","key","f","16.66713207547129","903.0588235294117","504","朋友","贪腐","Negative","morality","","","","","","","","","","",""
"794","","j","psychophysics","54","318903","0.0-7.0-3.0-0.40","5","5","5","6","5","4","3","5","4","4","4","2","0","1","0","1","1","2","0","5","4","5","5","5","4","3","3","5","4","7","8","8","6","5","7","7","7","6","5","7","3","6","6","6","5","3","7","5","1","4","2","6","3","6","6","5","4","3","7","3","5","6","7","6","7","6","7","6","7","7","5","5","7","2","5","5","6","3","6","753301347197259777","赵","137","Female","[""好她"",""坏她"",""坏我"",""好我""]","[""强她"",""弱她"",""弱我"",""强我""]","","","","","","","","yes","","","","","","","","","SRET","EW_formal","","key","j","16.66713084112124","903.0588235294117","504","朋友","慷慨","Positive","morality","","","","","","","","","","",""
"672","","j","psychophysics","55","320576","0.0-7.0-3.0-0.41","5","5","5","6","5","4","3","5","4","4","4","2","0","1","0","1","1","2","0","5","4","5","5","5","4","3","3","5","4","7","8","8","6","5","7","7","7","6","5","7","3","6","6","6","5","3","7","5","1","4","2","6","3","6","6","5","4","3","7","3","5","6","7","6","7","6","7","6","7","7","5","5","7","2","5","5","6","3","6","753301347197259777","赵","137","Female","[""好她"",""坏她"",""坏我"",""好我""]","[""强她"",""弱她"",""弱我"",""强我""]","","","","","","","","yes","","","","","","","","","SRET","EW_formal","","key","j","16.667676767677122","903.0588235294117","504","自己","奉献","Positive","morality","","","","","","","","","","",""
"950","","f","psychophysics","56","322527","0.0-7.0-3.0-0.42","5","5","5","6","5","4","3","5","4","4","4","2","0","1","0","1","1","2","0","5","4","5","5","5","4","3","3","5","4","7","8","8","6","5","7","7","7","6","5","7","3","6","6","6","5","3","7","5","1","4","2","6","3","6","6","5","4","3","7","3","5","6","7","6","7","6","7","6","7","7","5","5","7","2","5","5","6","3","6","753301347197259777","赵","137","Female","[""好她"",""坏她"",""坏我"",""好我""]","[""强她"",""弱她"",""弱我"",""强我""]","","","","","","","","no","","","","","","","","","SRET","EW_formal","","key","f","16.66823275862081","903.0588235294117","504","自己","不良","Negative","morality","","","","","","","","","","",""
"849","","j","psychophysics","57","324377","0.0-7.0-3.0-0.43","5","5","5","6","5","4","3","5","4","4","4","2","0","1","0","1","1","2","0","5","4","5","5","5","4","3","3","5","4","7","8","8","6","5","7","7","7","6","5","7","3","6","6","6","5","3","7","5","1","4","2","6","3","6","6","5","4","3","7","3","5","6","7","6","7","6","7","6","7","7","5","5","7","2","5","5","6","3","6","753301347197259777","赵","137","Female","[""好她"",""坏她"",""坏我"",""好我""]","[""强她"",""弱她"",""弱我"",""强我""]","","","","","","","","yes","","","","","","","","","SRET","EW_formal","","key","j","16.66692727272695","903.0588235294117","504","朋友","上进","Positive","ability","","","","","","","","","","",""
"725","","j","psychophysics","58","326103","0.0-7.0-3.0-0.44","5","5","5","6","5","4","3","5","4","4","4","2","0","1","0","1","1","2","0","5","4","5","5","5","4","3","3","5","4","7","8","8","6","5","7","7","7","6","5","7","3","6","6","6","5","3","7","5","1","4","2","6","3","6","6","5","4","3","7","3","5","6","7","6","7","6","7","6","7","7","5","5","7","2","5","5","6","3","6","753301347197259777","赵","137","Female","[""好她"",""坏她"",""坏我"",""好我""]","[""强她"",""弱她"",""弱我"",""强我""]","","","","","","","","yes","","","","","","","","","SRET","EW_formal","","key","j","16.668553398058577","903.0588235294117","504","朋友","果断","Positive","ability","","","","","","","","","","",""
"827","","f","psychophysics","59","327935","0.0-7.0-3.0-0.45","5","5","5","6","5","4","3","5","4","4","4","2","0","1","0","1","1","2","0","5","4","5","5","5","4","3","3","5","4","7","8","8","6","5","7","7","7","6","5","7","3","6","6","6","5","3","7","5","1","4","2","6","3","6","6","5","4","3","7","3","5","6","7","6","7","6","7","6","7","7","5","5","7","2","5","5","6","3","6","753301347197259777","赵","137","Female","[""好她"",""坏她"",""坏我"",""好我""]","[""强她"",""弱她"",""弱我"",""强我""]","","","","","","","","no","","","","","","","","","SRET","EW_formal","","key","f","16.668045871559457","903.0588235294117","504","朋友","小人","Negative","morality","","","","","","","","","","",""
"742","","f","psychophysics","60","329679","0.0-7.0-3.0-0.46","5","5","5","6","5","4","3","5","4","4","4","2","0","1","0","1","1","2","0","5","4","5","5","5","4","3","3","5","4","7","8","8","6","5","7","7","7","6","5","7","3","6","6","6","5","3","7","5","1","4","2","6","3","6","6","5","4","3","7","3","5","6","7","6","7","6","7","6","7","7","5","5","7","2","5","5","6","3","6","753301347197259777","赵","137","Female","[""好她"",""坏她"",""坏我"",""好我""]","[""强她"",""弱她"",""弱我"",""强我""]","","","","","","","","no","","","","","","","","","SRET","EW_formal","","key","f","16.667174757281952","903.0588235294117","504","自己","无耻","Negative","morality","","","","","","","","","","",""
"1038","","f","psychophysics","61","331719","0.0-7.0-3.0-0.47","5","5","5","6","5","4","3","5","4","4","4","2","0","1","0","1","1","2","0","5","4","5","5","5","4","3","3","5","4","7","8","8","6","5","7","7","7","6","5","7","3","6","6","6","5","3","7","5","1","4","2","6","3","6","6","5","4","3","7","3","5","6","7","6","7","6","7","6","7","7","5","5","7","2","5","5","6","3","6","753301347197259777","赵","137","Female","[""好她"",""坏她"",""坏我"",""好我""]","[""强她"",""弱她"",""弱我"",""强我""]","","","","","","","","no","","","","","","","","","SRET","EW_formal","","key","f","16.66658196721291","903.0588235294117","504","朋友","马虎","Negative","ability","","","","","","","","","","",""
"1119","","j","psychophysics","62","333839","0.0-7.0-3.0-0.48","5","5","5","6","5","4","3","5","4","4","4","2","0","1","0","1","1","2","0","5","4","5","5","5","4","3","3","5","4","7","8","8","6","5","7","7","7","6","5","7","3","6","6","6","5","3","7","5","1","4","2","6","3","6","6","5","4","3","7","3","5","6","7","6","7","6","7","6","7","7","5","5","7","2","5","5","6","3","6","753301347197259777","赵","137","Female","[""好她"",""坏她"",""坏我"",""好我""]","[""强她"",""弱她"",""弱我"",""强我""]","","","","","","","","yes","","","","","","","","","SRET","EW_formal","","key","j","16.666936507936853","903.0588235294117","504","自己","中用","Positive","ability","","","","","","","","","","",""
"1400","","j","psychophysics","63","336240","0.0-7.0-3.0-0.49","5","5","5","6","5","4","3","5","4","4","4","2","0","1","0","1","1","2","0","5","4","5","5","5","4","3","3","5","4","7","8","8","6","5","7","7","7","6","5","7","3","6","6","6","5","3","7","5","1","4","2","6","3","6","6","5","4","3","7","3","5","6","7","6","7","6","7","6","7","7","5","5","7","2","5","5","6","3","6","753301347197259777","赵","137","Female","[""好她"",""坏她"",""坏我"",""好我""]","[""强她"",""弱她"",""弱我"",""强我""]","","","","","","","","yes","","","","","","","","","SRET","EW_formal","","key","j","16.66633566433582","903.0588235294117","504","朋友","庸碌","Negative","ability","","","","","","","","","","",""
"1414","","f","psychophysics","64","338655","0.0-7.0-3.0-0.50","5","5","5","6","5","4","3","5","4","4","4","2","0","1","0","1","1","2","0","5","4","5","5","5","4","3","3","5","4","7","8","8","6","5","7","7","7","6","5","7","3","6","6","6","5","3","7","5","1","4","2","6","3","6","6","5","4","3","7","3","5","6","7","6","7","6","7","6","7","7","5","5","7","2","5","5","6","3","6","753301347197259777","赵","137","Female","[""好她"",""坏她"",""坏我"",""好我""]","[""强她"",""弱她"",""弱我"",""强我""]","","","","","","","","no","","","","","","","","","SRET","EW_formal","","key","f","16.666402777777776","903.0588235294117","504","自己","无助","Negative","ability","","","","","","","","","","",""
"879","","j","psychophysics","65","340535","0.0-7.0-3.0-0.51","5","5","5","6","5","4","3","5","4","4","4","2","0","1","0","1","1","2","0","5","4","5","5","5","4","3","3","5","4","7","8","8","6","5","7","7","7","6","5","7","3","6","6","6","5","3","7","5","1","4","2","6","3","6","6","5","4","3","7","3","5","6","7","6","7","6","7","6","7","7","5","5","7","2","5","5","6","3","6","753301347197259777","赵","137","Female","[""好她"",""坏她"",""坏我"",""好我""]","[""强她"",""弱她"",""弱我"",""强我""]","","","","","","","","yes","","","","","","","","","SRET","EW_formal","","key","j","16.668687499999837","903.0588235294117","504","自己","扎实","Positive","ability","","","","","","","","","","",""
"1151","","f","psychophysics","66","342687","0.0-7.0-3.0-0.52","5","5","5","6","5","4","3","5","4","4","4","2","0","1","0","1","1","2","0","5","4","5","5","5","4","3","3","5","4","7","8","8","6","5","7","7","7","6","5","7","3","6","6","6","5","3","7","5","1","4","2","6","3","6","6","5","4","3","7","3","5","6","7","6","7","6","7","6","7","7","5","5","7","2","5","5","6","3","6","753301347197259777","赵","137","Female","[""好她"",""坏她"",""坏我"",""好我""]","[""强她"",""弱她"",""弱我"",""强我""]","","","","","","","","no","","","","","","","","","SRET","EW_formal","","key","f","16.666765625000153","903.0588235294117","504","朋友","差生","Negative","ability","","","","","","","","","","",""
"815","","f","psychophysics","67","344503","0.0-7.0-3.0-0.53","5","5","5","6","5","4","3","5","4","4","4","2","0","1","0","1","1","2","0","5","4","5","5","5","4","3","3","5","4","7","8","8","6","5","7","7","7","6","5","7","3","6","6","6","5","3","7","5","1","4","2","6","3","6","6","5","4","3","7","3","5","6","7","6","7","6","7","6","7","7","5","5","7","2","5","5","6","3","6","753301347197259777","赵","137","Female","[""好她"",""坏她"",""坏我"",""好我""]","[""强她"",""弱她"",""弱我"",""强我""]","","","","","","","","no","","","","","","","","","SRET","EW_formal","","key","f","16.66734259259236","903.0588235294117","504","朋友","失信","Negative","morality","","","","","","","","","","",""
"1286","","f","psychophysics","68","346792","0.0-7.0-3.0-0.54","5","5","5","6","5","4","3","5","4","4","4","2","0","1","0","1","1","2","0","5","4","5","5","5","4","3","3","5","4","7","8","8","6","5","7","7","7","6","5","7","3","6","6","6","5","3","7","5","1","4","2","6","3","6","6","5","4","3","7","3","5","6","7","6","7","6","7","6","7","7","5","5","7","2","5","5","6","3","6","753301347197259777","赵","137","Female","[""好她"",""坏她"",""坏我"",""好我""]","[""强她"",""弱她"",""弱我"",""强我""]","","","","","","","","no","","","","","","","","","SRET","EW_formal","","key","f","16.66715441176476","903.0588235294117","504","自己","利己","Negative","morality","","","","","","","","","","",""
"774","","j","psychophysics","69","348567","0.0-7.0-3.0-0.55","5","5","5","6","5","4","3","5","4","4","4","2","0","1","0","1","1","2","0","5","4","5","5","5","4","3","3","5","4","7","8","8","6","5","7","7","7","6","5","7","3","6","6","6","5","3","7","5","1","4","2","6","3","6","6","5","4","3","7","3","5","6","7","6","7","6","7","6","7","7","5","5","7","2","5","5","6","3","6","753301347197259777","赵","137","Female","[""好她"",""坏她"",""坏我"",""好我""]","[""强她"",""弱她"",""弱我"",""强我""]","","","","","","","","yes","","","","","","","","","SRET","EW_formal","","key","j","16.666075471698587","903.0588235294117","504","朋友","孝顺","Positive","morality","","","","","","","","","","",""
"780","","f","psychophysics","70","350351","0.0-7.0-3.0-0.56","5","5","5","6","5","4","3","5","4","4","4","2","0","1","0","1","1","2","0","5","4","5","5","5","4","3","3","5","4","7","8","8","6","5","7","7","7","6","5","7","3","6","6","6","5","3","7","5","1","4","2","6","3","6","6","5","4","3","7","3","5","6","7","6","7","6","7","6","7","7","5","5","7","2","5","5","6","3","6","753301347197259777","赵","137","Female","[""好她"",""坏她"",""坏我"",""好我""]","[""强她"",""弱她"",""弱我"",""强我""]","","","","","","","","no","","","","","","","","","SRET","EW_formal","","key","f","16.666405660377592","903.0588235294117","504","自己","窝囊","Negative","ability","","","","","","","","","","",""
"807","","f","psychophysics","71","352159","0.0-7.0-3.0-0.57","5","5","5","6","5","4","3","5","4","4","4","2","0","1","0","1","1","2","0","5","4","5","5","5","4","3","3","5","4","7","8","8","6","5","7","7","7","6","5","7","3","6","6","6","5","3","7","5","1","4","2","6","3","6","6","5","4","3","7","3","5","6","7","6","7","6","7","6","7","7","5","5","7","2","5","5","6","3","6","753301347197259777","赵","137","Female","[""好她"",""坏她"",""坏我"",""好我""]","[""强她"",""弱她"",""弱我"",""强我""]","","","","","","","","no","","","","","","","","","SRET","EW_formal","","key","f","16.66644859813082","903.0588235294117","504","朋友","迂拙","Negative","ability","","","","","","","","","","",""
"647","","f","psychophysics","72","353809","0.0-7.0-3.0-0.58","5","5","5","6","5","4","3","5","4","4","4","2","0","1","0","1","1","2","0","5","4","5","5","5","4","3","3","5","4","7","8","8","6","5","7","7","7","6","5","7","3","6","6","6","5","3","7","5","1","4","2","6","3","6","6","5","4","3","7","3","5","6","7","6","7","6","7","6","7","7","5","5","7","2","5","5","6","3","6","753301347197259777","赵","137","Female","[""好她"",""坏她"",""坏我"",""好我""]","[""强她"",""弱她"",""弱我"",""强我""]","","","","","","","","no","","","","","","","","","SRET","EW_formal","","key","f","16.669336734694188","903.0588235294117","504","自己","自私","Negative","morality","","","","","","","","","","",""
"735","","j","psychophysics","73","355544","0.0-7.0-3.0-0.59","5","5","5","6","5","4","3","5","4","4","4","2","0","1","0","1","1","2","0","5","4","5","5","5","4","3","3","5","4","7","8","8","6","5","7","7","7","6","5","7","3","6","6","6","5","3","7","5","1","4","2","6","3","6","6","5","4","3","7","3","5","6","7","6","7","6","7","6","7","7","5","5","7","2","5","5","6","3","6","753301347197259777","赵","137","Female","[""好她"",""坏她"",""坏我"",""好我""]","[""强她"",""弱她"",""弱我"",""强我""]","","","","","","","","yes","","","","","","","","","SRET","EW_formal","","key","j","16.66760194174735","903.0588235294117","504","自己","仁爱","Positive","morality","","","","","","","","","","",""
"879","","j","psychophysics","74","357423","0.0-7.0-3.0-0.60","5","5","5","6","5","4","3","5","4","4","4","2","0","1","0","1","1","2","0","5","4","5","5","5","4","3","3","5","4","7","8","8","6","5","7","7","7","6","5","7","3","6","6","6","5","3","7","5","1","4","2","6","3","6","6","5","4","3","7","3","5","6","7","6","7","6","7","6","7","7","5","5","7","2","5","5","6","3","6","753301347197259777","赵","137","Female","[""好她"",""坏她"",""坏我"",""好我""]","[""强她"",""弱她"",""弱我"",""强我""]","","","","","","","","yes","","","","","","","","","SRET","EW_formal","","key","j","16.66727678571416","903.0588235294117","504","朋友","刚正","Positive","morality","","","","","","","","","","",""
"823","","j","psychophysics","75","359247","0.0-7.0-3.0-0.61","5","5","5","6","5","4","3","5","4","4","4","2","0","1","0","1","1","2","0","5","4","5","5","5","4","3","3","5","4","7","8","8","6","5","7","7","7","6","5","7","3","6","6","6","5","3","7","5","1","4","2","6","3","6","6","5","4","3","7","3","5","6","7","6","7","6","7","6","7","7","5","5","7","2","5","5","6","3","6","753301347197259777","赵","137","Female","[""好她"",""坏她"",""坏我"",""好我""]","[""强她"",""弱她"",""弱我"",""强我""]","","","","","","","","yes","","","","","","","","","SRET","EW_formal","","key","j","16.66830275229332","903.0588235294117","504","朋友","全才","Positive","ability","","","","","","","","","","",""
"799","","j","psychophysics","76","361047","0.0-7.0-3.0-0.62","5","5","5","6","5","4","3","5","4","4","4","2","0","1","0","1","1","2","0","5","4","5","5","5","4","3","3","5","4","7","8","8","6","5","7","7","7","6","5","7","3","6","6","6","5","3","7","5","1","4","2","6","3","6","6","5","4","3","7","3","5","6","7","6","7","6","7","6","7","7","5","5","7","2","5","5","6","3","6","753301347197259777","赵","137","Female","[""好她"",""坏她"",""坏我"",""好我""]","[""强她"",""弱她"",""弱我"",""强我""]","","","","","","","","yes","","","","","","","","","SRET","EW_formal","","key","j","16.66659813084113","903.0588235294117","504","朋友","果决","Positive","ability","","","","","","","","","","",""
"966","","j","psychophysics","77","363015","0.0-7.0-3.0-0.63","5","5","5","6","5","4","3","5","4","4","4","2","0","1","0","1","1","2","0","5","4","5","5","5","4","3","3","5","4","7","8","8","6","5","7","7","7","6","5","7","3","6","6","6","5","3","7","5","1","4","2","6","3","6","6","5","4","3","7","3","5","6","7","6","7","6","7","6","7","7","5","5","7","2","5","5","6","3","6","753301347197259777","赵","137","Female","[""好她"",""坏她"",""坏我"",""好我""]","[""强她"",""弱她"",""弱我"",""强我""]","","","","","","","","yes","","","","","","","","","SRET","EW_formal","","key","j","16.664991452991483","903.0588235294117","504","朋友","远见","Positive","ability","","","","","","","","","","",""
"991","","j","psychophysics","78","365008","0.0-7.0-3.0-0.64","5","5","5","6","5","4","3","5","4","4","4","2","0","1","0","1","1","2","0","5","4","5","5","5","4","3","3","5","4","7","8","8","6","5","7","7","7","6","5","7","3","6","6","6","5","3","7","5","1","4","2","6","3","6","6","5","4","3","7","3","5","6","7","6","7","6","7","6","7","7","5","5","7","2","5","5","6","3","6","753301347197259777","赵","137","Female","[""好她"",""坏她"",""坏我"",""好我""]","[""强她"",""弱她"",""弱我"",""强我""]","","","","","","","","yes","","","","","","","","","SRET","EW_formal","","key","j","16.66678813559307","903.0588235294117","504","朋友","慈悲","Positive","morality","","","","","","","","","","",""
"638","","j","psychophysics","79","366647","0.0-7.0-3.0-0.65","5","5","5","6","5","4","3","5","4","4","4","2","0","1","0","1","1","2","0","5","4","5","5","5","4","3","3","5","4","7","8","8","6","5","7","7","7","6","5","7","3","6","6","6","5","3","7","5","1","4","2","6","3","6","6","5","4","3","7","3","5","6","7","6","7","6","7","6","7","7","5","5","7","2","5","5","6","3","6","753301347197259777","赵","137","Female","[""好她"",""坏她"",""坏我"",""好我""]","[""强她"",""弱她"",""弱我"",""强我""]","","","","","","","","yes","","","","","","","","","SRET","EW_formal","","key","j","16.66711224489774","903.0588235294117","504","自己","仁厚","Positive","morality","","","","","","","","","","",""
"1223","","f","psychophysics","80","368871","0.0-7.0-3.0-0.66","5","5","5","6","5","4","3","5","4","4","4","2","0","1","0","1","1","2","0","5","4","5","5","5","4","3","3","5","4","7","8","8","6","5","7","7","7","6","5","7","3","6","6","6","5","3","7","5","1","4","2","6","3","6","6","5","4","3","7","3","5","6","7","6","7","6","7","6","7","7","5","5","7","2","5","5","6","3","6","753301347197259777","赵","137","Female","[""好她"",""坏她"",""坏我"",""好我""]","[""强她"",""弱她"",""弱我"",""强我""]","","","","","","","","no","","","","","","","","","SRET","EW_formal","","key","f","16.66739393939409","903.0588235294117","504","朋友","拜金","Negative","morality","","","","","","","","","","",""
"782","","f","psychophysics","81","370655","0.0-7.0-3.0-0.67","5","5","5","6","5","4","3","5","4","4","4","2","0","1","0","1","1","2","0","5","4","5","5","5","4","3","3","5","4","7","8","8","6","5","7","7","7","6","5","7","3","6","6","6","5","3","7","5","1","4","2","6","3","6","6","5","4","3","7","3","5","6","7","6","7","6","7","6","7","7","5","5","7","2","5","5","6","3","6","753301347197259777","赵","137","Female","[""好她"",""坏她"",""坏我"",""好我""]","[""强她"",""弱她"",""弱我"",""强我""]","","","","","","","","no","","","","","","","","","SRET","EW_formal","","key","f","16.66829245283053","903.0588235294117","504","自己","无赖","Negative","morality","","","","","","","","","","",""
"672","","f","psychophysics","82","372329","0.0-7.0-3.0-0.68","5","5","5","6","5","4","3","5","4","4","4","2","0","1","0","1","1","2","0","5","4","5","5","5","4","3","3","5","4","7","8","8","6","5","7","7","7","6","5","7","3","6","6","6","5","3","7","5","1","4","2","6","3","6","6","5","4","3","7","3","5","6","7","6","7","6","7","6","7","7","5","5","7","2","5","5","6","3","6","753301347197259777","赵","137","Female","[""好她"",""坏她"",""坏我"",""好我""]","[""强她"",""弱她"",""弱我"",""强我""]","","","","","","","","no","","","","","","","","","SRET","EW_formal","","key","f","16.666121212121176","903.0588235294117","504","朋友","奸诈","Negative","morality","","","","","","","","","","",""
"1084","","j","psychophysics","83","374415","0.0-7.0-3.0-0.69","5","5","5","6","5","4","3","5","4","4","4","2","0","1","0","1","1","2","0","5","4","5","5","5","4","3","3","5","4","7","8","8","6","5","7","7","7","6","5","7","3","6","6","6","5","3","7","5","1","4","2","6","3","6","6","5","4","3","7","3","5","6","7","6","7","6","7","6","7","7","5","5","7","2","5","5","6","3","6","753301347197259777","赵","137","Female","[""好她"",""坏她"",""坏我"",""好我""]","[""强她"",""弱她"",""弱我"",""强我""]","","","","","","","","yes","","","","","","","","","SRET","EW_formal","","key","j","16.667695999999996","903.0588235294117","504","自己","思辨","Positive","ability","","","","","","","","","","",""
"799","","f","psychophysics","84","376215","0.0-7.0-3.0-0.70","5","5","5","6","5","4","3","5","4","4","4","2","0","1","0","1","1","2","0","5","4","5","5","5","4","3","3","5","4","7","8","8","6","5","7","7","7","6","5","7","3","6","6","6","5","3","7","5","1","4","2","6","3","6","6","5","4","3","7","3","5","6","7","6","7","6","7","6","7","7","5","5","7","2","5","5","6","3","6","753301347197259777","赵","137","Female","[""好她"",""坏她"",""坏我"",""好我""]","[""强她"",""弱她"",""弱我"",""强我""]","","","","","","","","no","","","","","","","","","SRET","EW_formal","","key","f","16.667009345794348","903.0588235294117","504","朋友","伪善","Negative","morality","","","","","","","","","","",""
"702","","f","psychophysics","85","377919","0.0-7.0-3.0-0.71","5","5","5","6","5","4","3","5","4","4","4","2","0","1","0","1","1","2","0","5","4","5","5","5","4","3","3","5","4","7","8","8","6","5","7","7","7","6","5","7","3","6","6","6","5","3","7","5","1","4","2","6","3","6","6","5","4","3","7","3","5","6","7","6","7","6","7","6","7","7","5","5","7","2","5","5","6","3","6","753301347197259777","赵","137","Female","[""好她"",""坏她"",""坏我"",""好我""]","[""强她"",""弱她"",""弱我"",""强我""]","","","","","","","","no","","","","","","","","","SRET","EW_formal","","key","f","16.667455445544558","903.0588235294117","504","朋友","诡诈","Negative","morality","","","","","","","","","","",""
"776","","f","psychophysics","86","379697","0.0-7.0-3.0-0.72","5","5","5","6","5","4","3","5","4","4","4","2","0","1","0","1","1","2","0","5","4","5","5","5","4","3","3","5","4","7","8","8","6","5","7","7","7","6","5","7","3","6","6","6","5","3","7","5","1","4","2","6","3","6","6","5","4","3","7","3","5","6","7","6","7","6","7","6","7","7","5","5","7","2","5","5","6","3","6","753301347197259777","赵","137","Female","[""好她"",""坏她"",""坏我"",""好我""]","[""强她"",""弱她"",""弱我"",""强我""]","","","","","","","","no","","","","","","","","","SRET","EW_formal","","key","f","16.666801886792285","903.0588235294117","504","自己","愚痴","Negative","ability","","","","","","","","","","",""
"668","","f","psychophysics","87","381367","0.0-7.0-3.0-0.73","5","5","5","6","5","4","3","5","4","4","4","2","0","1","0","1","1","2","0","5","4","5","5","5","4","3","3","5","4","7","8","8","6","5","7","7","7","6","5","7","3","6","6","6","5","3","7","5","1","4","2","6","3","6","6","5","4","3","7","3","5","6","7","6","7","6","7","6","7","7","5","5","7","2","5","5","6","3","6","753301347197259777","赵","137","Female","[""好她"",""坏她"",""坏我"",""好我""]","[""强她"",""弱她"",""弱我"",""强我""]","","","","","","","","no","","","","","","","","","SRET","EW_formal","","key","f","16.665424242424614","903.0588235294117","504","朋友","弱智","Negative","ability","","","","","","","","","","",""
"664","","f","psychophysics","88","383031","0.0-7.0-3.0-0.74","5","5","5","6","5","4","3","5","4","4","4","2","0","1","0","1","1","2","0","5","4","5","5","5","4","3","3","5","4","7","8","8","6","5","7","7","7","6","5","7","3","6","6","6","5","3","7","5","1","4","2","6","3","6","6","5","4","3","7","3","5","6","7","6","7","6","7","6","7","7","5","5","7","2","5","5","6","3","6","753301347197259777","赵","137","Female","[""好她"",""坏她"",""坏我"",""好我""]","[""强她"",""弱她"",""弱我"",""强我""]","","","","","","","","no","","","","","","","","","SRET","EW_formal","","key","f","16.66825252525259","903.0588235294117","504","朋友","狡狯","Negative","morality","","","","","","","","","","",""
"1438","","j","psychophysics","89","385471","0.0-7.0-3.0-0.75","5","5","5","6","5","4","3","5","4","4","4","2","0","1","0","1","1","2","0","5","4","5","5","5","4","3","3","5","4","7","8","8","6","5","7","7","7","6","5","7","3","6","6","6","5","3","7","5","1","4","2","6","3","6","6","5","4","3","7","3","5","6","7","6","7","6","7","6","7","7","5","5","7","2","5","5","6","3","6","753301347197259777","赵","137","Female","[""好她"",""坏她"",""坏我"",""好我""]","[""强她"",""弱她"",""弱我"",""强我""]","","","","","","","","yes","","","","","","","","","SRET","EW_formal","","key","j","16.665696551724224","903.0588235294117","504","自己","独断","Negative","ability","","","","","","","","","","",""
"925","","j","psychophysics","90","387399","0.0-7.0-3.0-0.76","5","5","5","6","5","4","3","5","4","4","4","2","0","1","0","1","1","2","0","5","4","5","5","5","4","3","3","5","4","7","8","8","6","5","7","7","7","6","5","7","3","6","6","6","5","3","7","5","1","4","2","6","3","6","6","5","4","3","7","3","5","6","7","6","7","6","7","6","7","7","5","5","7","2","5","5","6","3","6","753301347197259777","赵","137","Female","[""好她"",""坏她"",""坏我"",""好我""]","[""强她"",""弱她"",""弱我"",""强我""]","","","","","","","","yes","","","","","","","","","SRET","EW_formal","","key","j","16.666182608695436","903.0588235294117","504","朋友","专注","Positive","ability","","","","","","","","","","",""
"872","","f","psychophysics","91","389271","0.0-7.0-3.0-0.77","5","5","5","6","5","4","3","5","4","4","4","2","0","1","0","1","1","2","0","5","4","5","5","5","4","3","3","5","4","7","8","8","6","5","7","7","7","6","5","7","3","6","6","6","5","3","7","5","1","4","2","6","3","6","6","5","4","3","7","3","5","6","7","6","7","6","7","6","7","7","5","5","7","2","5","5","6","3","6","753301347197259777","赵","137","Female","[""好她"",""坏她"",""坏我"",""好我""]","[""强她"",""弱她"",""弱我"",""强我""]","","","","","","","","no","","","","","","","","","SRET","EW_formal","","key","f","16.667936936936965","903.0588235294117","504","自己","愚蠢","Negative","ability","","","","","","","","","","",""
"1096","","f","psychophysics","92","391367","0.0-7.0-3.0-0.78","5","5","5","6","5","4","3","5","4","4","4","2","0","1","0","1","1","2","0","5","4","5","5","5","4","3","3","5","4","7","8","8","6","5","7","7","7","6","5","7","3","6","6","6","5","3","7","5","1","4","2","6","3","6","6","5","4","3","7","3","5","6","7","6","7","6","7","6","7","7","5","5","7","2","5","5","6","3","6","753301347197259777","赵","137","Female","[""好她"",""坏她"",""坏我"",""好我""]","[""强她"",""弱她"",""弱我"",""强我""]","","","","","","","","no","","","","","","","","","SRET","EW_formal","","key","f","16.6672080000001","903.0588235294117","504","朋友","无为","Negative","ability","","","","","","","","","","",""
"671","","j","psychophysics","93","393039","0.0-7.0-3.0-0.79","5","5","5","6","5","4","3","5","4","4","4","2","0","1","0","1","1","2","0","5","4","5","5","5","4","3","3","5","4","7","8","8","6","5","7","7","7","6","5","7","3","6","6","6","5","3","7","5","1","4","2","6","3","6","6","5","4","3","7","3","5","6","7","6","7","6","7","6","7","7","5","5","7","2","5","5","6","3","6","753301347197259777","赵","137","Female","[""好她"",""坏她"",""坏我"",""好我""]","[""强她"",""弱她"",""弱我"",""强我""]","","","","","","","","yes","","","","","","","","","SRET","EW_formal","","key","j","16.66874747474753","903.0588235294117","504","朋友","高洁","Positive","morality","","","","","","","","","","",""
"1320","","j","psychophysics","94","395360","0.0-7.0-3.0-0.80","5","5","5","6","5","4","3","5","4","4","4","2","0","1","0","1","1","2","0","5","4","5","5","5","4","3","3","5","4","7","8","8","6","5","7","7","7","6","5","7","3","6","6","6","5","3","7","5","1","4","2","6","3","6","6","5","4","3","7","3","5","6","7","6","7","6","7","6","7","7","5","5","7","2","5","5","6","3","6","753301347197259777","赵","137","Female","[""好她"",""坏她"",""坏我"",""好我""]","[""强她"",""弱她"",""弱我"",""强我""]","","","","","","","","yes","","","","","","","","","SRET","EW_formal","","key","j","16.666181159420006","903.0588235294117","504","朋友","有力","Positive","ability","","","","","","","","","","",""
"733","","f","psychophysics","95","397095","0.0-7.0-3.0-0.81","5","5","5","6","5","4","3","5","4","4","4","2","0","1","0","1","1","2","0","5","4","5","5","5","4","3","3","5","4","7","8","8","6","5","7","7","7","6","5","7","3","6","6","6","5","3","7","5","1","4","2","6","3","6","6","5","4","3","7","3","5","6","7","6","7","6","7","6","7","7","5","5","7","2","5","5","6","3","6","753301347197259777","赵","137","Female","[""好她"",""坏她"",""坏我"",""好我""]","[""强她"",""弱她"",""弱我"",""强我""]","","","","","","","","no","","","","","","","","","SRET","EW_formal","","key","f","16.667786407767053","903.0588235294117","504","自己","无私","Positive","morality","","","","","","","","","","",""
"855","","j","psychophysics","96","398952","0.0-7.0-3.0-0.82","5","5","5","6","5","4","3","5","4","4","4","2","0","1","0","1","1","2","0","5","4","5","5","5","4","3","3","5","4","7","8","8","6","5","7","7","7","6","5","7","3","6","6","6","5","3","7","5","1","4","2","6","3","6","6","5","4","3","7","3","5","6","7","6","7","6","7","6","7","7","5","5","7","2","5","5","6","3","6","753301347197259777","赵","137","Female","[""好她"",""坏她"",""坏我"",""好我""]","[""强她"",""弱她"",""弱我"",""强我""]","","","","","","","","yes","","","","","","","","","SRET","EW_formal","","key","j","16.667873873874054","903.0588235294117","504","朋友","刻苦","Positive","ability","","","","","","","","","","",""
"660","","j","psychophysics","97","400615","0.0-7.0-3.0-0.83","5","5","5","6","5","4","3","5","4","4","4","2","0","1","0","1","1","2","0","5","4","5","5","5","4","3","3","5","4","7","8","8","6","5","7","7","7","6","5","7","3","6","6","6","5","3","7","5","1","4","2","6","3","6","6","5","4","3","7","3","5","6","7","6","7","6","7","6","7","7","5","5","7","2","5","5","6","3","6","753301347197259777","赵","137","Female","[""好她"",""坏她"",""坏我"",""好我""]","[""强她"",""弱她"",""弱我"",""强我""]","","","","","","","","yes","","","","","","","","","SRET","EW_formal","","key","j","16.666070707070624","903.0588235294117","504","自己","热心","Positive","morality","","","","","","","","","","",""
"712","","f","psychophysics","98","402330","0.0-7.0-3.0-0.84","5","5","5","6","5","4","3","5","4","4","4","2","0","1","0","1","1","2","0","5","4","5","5","5","4","3","3","5","4","7","8","8","6","5","7","7","7","6","5","7","3","6","6","6","5","3","7","5","1","4","2","6","3","6","6","5","4","3","7","3","5","6","7","6","7","6","7","6","7","7","5","5","7","2","5","5","6","3","6","753301347197259777","赵","137","Female","[""好她"",""坏她"",""坏我"",""好我""]","[""强她"",""弱她"",""弱我"",""强我""]","","","","","","","","no","","","","","","","","","SRET","EW_formal","","key","f","16.666107843136963","903.0588235294117","504","朋友","低俗","Negative","morality","","","","","","","","","","",""
"1372","","j","psychophysics","99","404704","0.0-7.0-3.0-0.85","5","5","5","6","5","4","3","5","4","4","4","2","0","1","0","1","1","2","0","5","4","5","5","5","4","3","3","5","4","7","8","8","6","5","7","7","7","6","5","7","3","6","6","6","5","3","7","5","1","4","2","6","3","6","6","5","4","3","7","3","5","6","7","6","7","6","7","6","7","7","5","5","7","2","5","5","6","3","6","753301347197259777","赵","137","Female","[""好她"",""坏她"",""坏我"",""好我""]","[""强她"",""弱她"",""弱我"",""强我""]","","","","","","","","yes","","","","","","","","","SRET","EW_formal","","key","j","16.66735460992914","903.0588235294117","504","自己","缓慢","Negative","ability","","","","","","","","","","",""
"1324","","j","psychophysics","100","407031","0.0-7.0-3.0-0.86","5","5","5","6","5","4","3","5","4","4","4","2","0","1","0","1","1","2","0","5","4","5","5","5","4","3","3","5","4","7","8","8","6","5","7","7","7","6","5","7","3","6","6","6","5","3","7","5","1","4","2","6","3","6","6","5","4","3","7","3","5","6","7","6","7","6","7","6","7","7","5","5","7","2","5","5","6","3","6","753301347197259777","赵","137","Female","[""好她"",""坏她"",""坏我"",""好我""]","[""强她"",""弱她"",""弱我"",""强我""]","","","","","","","","yes","","","","","","","","","SRET","EW_formal","","key","j","16.667884892085986","903.0588235294117","504","自己","主见","Positive","ability","","","","","","","","","","",""
"912","","j","psychophysics","101","408944","0.0-7.0-3.0-0.87","5","5","5","6","5","4","3","5","4","4","4","2","0","1","0","1","1","2","0","5","4","5","5","5","4","3","3","5","4","7","8","8","6","5","7","7","7","6","5","7","3","6","6","6","5","3","7","5","1","4","2","6","3","6","6","5","4","3","7","3","5","6","7","6","7","6","7","6","7","7","5","5","7","2","5","5","6","3","6","753301347197259777","赵","137","Female","[""好她"",""坏她"",""坏我"",""好我""]","[""强她"",""弱她"",""弱我"",""强我""]","","","","","","","","yes","","","","","","","","","SRET","EW_formal","","key","j","16.666106194690432","903.0588235294117","504","朋友","素养","Positive","morality","","","","","","","","","","",""
"21710","
    <p><div style='color:white;font-size:35px; line-height:20px;'>计算任务</div></p><br>
    <p><div style='color:red;font-size:25px; line-height:20px;'>接下来，您将看到一些四则运算题，<b>请从键盘选择 0-9 进行反应。</b></div></p>
    <p><div style='color:red;font-size:25px; line-height:20px;'>请尽可能快地进行计算，计算的速度和正确率将影响报酬的发放。</div></p>
    <p><div class='footer' style='color:white;font-size:25px; line-height:20px;'>如果对本实验还有不清楚之处，请立即向实验员咨询。</p><p style='color:white;font-size:25px; line-height:20px;'>如果您明白了规则：</p><p style='color:white;font-size:22px; line-height:20px;'>请按 继续 进入练习</p>
    </div>
    ","0","html-button-response","102","430655","0.0-7.0-4.0","5","5","5","6","5","4","3","5","4","4","4","2","0","1","0","1","1","2","0","5","4","5","5","5","4","3","3","5","4","7","8","8","6","5","7","7","7","6","5","7","3","6","6","6","5","3","7","5","1","4","2","6","3","6","6","5","4","3","7","3","5","6","7","6","7","6","7","6","7","7","5","5","7","2","5","5","6","3","6","753301347197259777","赵","137","Female","[""好她"",""坏她"",""坏我"",""好我""]","[""强她"",""弱她"",""弱我"",""强我""]","","","","","","","","","","","","","","","","","SRET_math","math_instructions","Thu Jan 04 2024 13:01:32 GMT+0800 (中国标准时间)","","","","","","","","","","","","","","","","","","","",""
"11950","","9","psychophysics","103","442607","0.0-7.0-5.0-0.0","5","5","5","6","5","4","3","5","4","4","4","2","0","1","0","1","1","2","0","5","4","5","5","5","4","3","3","5","4","7","8","8","6","5","7","7","7","6","5","7","3","6","6","6","5","3","7","5","1","4","2","6","3","6","6","5","4","3","7","3","5","6","7","6","7","6","7","6","7","7","5","5","7","2","5","5","6","3","6","753301347197259777","赵","137","Female","[""好她"",""坏她"",""坏我"",""好我""]","[""强她"",""弱她"",""弱我"",""强我""]","","","","","","","","9","","","","","","","","","SRET","SRET_math_calculate","","key","9","16.661061366806095","903.0588235294117","504","","","","","81/9= ?","9","1","","","","","","","",""
"2445","","2","psychophysics","104","445055","0.0-7.0-5.0-0.1","5","5","5","6","5","4","3","5","4","4","4","2","0","1","0","1","1","2","0","5","4","5","5","5","4","3","3","5","4","7","8","8","6","5","7","7","7","6","5","7","3","6","6","6","5","3","7","5","1","4","2","6","3","6","6","5","4","3","7","3","5","6","7","6","7","6","7","6","7","7","5","5","7","2","5","5","6","3","6","753301347197259777","赵","137","Female","[""好她"",""坏她"",""坏我"",""好我""]","[""强她"",""弱她"",""弱我"",""强我""]","","","","","","","","2","","","","","","","","","SRET","SRET_math_calculate","","key","2","16.666541095890427","903.0588235294117","504","","","","","8-6= ?","2","1","","","","","","","",""
"6878","","7","psychophysics","105","451935","0.0-7.0-5.0-0.2","5","5","5","6","5","4","3","5","4","4","4","2","0","1","0","1","1","2","0","5","4","5","5","5","4","3","3","5","4","7","8","8","6","5","7","7","7","6","5","7","3","6","6","6","5","3","7","5","1","4","2","6","3","6","6","5","4","3","7","3","5","6","7","6","7","6","7","6","7","7","5","5","7","2","5","5","6","3","6","753301347197259777","赵","137","Female","[""好她"",""坏她"",""坏我"",""好我""]","[""强她"",""弱她"",""弱我"",""强我""]","","","","","","","","7","","","","","","","","","SRET","SRET_math_calculate","","key","7","16.666405339805845","903.0588235294117","504","","","","","21/3= ? ","7","1","","","","","","","",""
"2870","","0","psychophysics","106","454807","0.0-7.0-5.0-0.3","5","5","5","6","5","4","3","5","4","4","4","2","0","1","0","1","1","2","0","5","4","5","5","5","4","3","3","5","4","7","8","8","6","5","7","7","7","6","5","7","3","6","6","6","5","3","7","5","1","4","2","6","3","6","6","5","4","3","7","3","5","6","7","6","7","6","7","6","7","7","5","5","7","2","5","5","6","3","6","753301347197259777","赵","137","Female","[""好她"",""坏她"",""坏我"",""好我""]","[""强她"",""弱她"",""弱我"",""强我""]","","","","","","","","0","","","","","","","","","SRET","SRET_math_calculate","","key","0","16.667029239766283","903.0588235294117","504","","","","","1-1= ?","0","1","","","","","","","",""
"2549","","9","psychophysics","107","457359","0.0-7.0-5.0-0.4","5","5","5","6","5","4","3","5","4","4","4","2","0","1","0","1","1","2","0","5","4","5","5","5","4","3","3","5","4","7","8","8","6","5","7","7","7","6","5","7","3","6","6","6","5","3","7","5","1","4","2","6","3","6","6","5","4","3","7","3","5","6","7","6","7","6","7","6","7","7","5","5","7","2","5","5","6","3","6","753301347197259777","赵","137","Female","[""好她"",""坏她"",""坏我"",""好我""]","[""强她"",""弱她"",""弱我"",""强我""]","","","","","","","","9","","","","","","","","","SRET","SRET_math_calculate","","key","9","16.66760526315767","903.0588235294117","504","","","","","3*3= ?","9","1","","","","","","","",""
"2877","","2","psychophysics","108","460239","0.0-7.0-5.0-0.5","5","5","5","6","5","4","3","5","4","4","4","2","0","1","0","1","1","2","0","5","4","5","5","5","4","3","3","5","4","7","8","8","6","5","7","7","7","6","5","7","3","6","6","6","5","3","7","5","1","4","2","6","3","6","6","5","4","3","7","3","5","6","7","6","7","6","7","6","7","7","5","5","7","2","5","5","6","3","6","753301347197259777","赵","137","Female","[""好她"",""坏她"",""坏我"",""好我""]","[""强她"",""弱她"",""弱我"",""强我""]","","","","","","","","2","","","","","","","","","SRET","SRET_math_calculate","","key","2","16.66758139534863","903.0588235294117","504","","","","","18/9= ?","2","1","","","","","","","",""
"2123","","3","psychophysics","109","462375","0.0-7.0-5.0-0.6","5","5","5","6","5","4","3","5","4","4","4","2","0","1","0","1","1","2","0","5","4","5","5","5","4","3","3","5","4","7","8","8","6","5","7","7","7","6","5","7","3","6","6","6","5","3","7","5","1","4","2","6","3","6","6","5","4","3","7","3","5","6","7","6","7","6","7","6","7","7","5","5","7","2","5","5","6","3","6","753301347197259777","赵","137","Female","[""好她"",""坏她"",""坏我"",""好我""]","[""强她"",""弱她"",""弱我"",""强我""]","","","","","","","","3","","","","","","","","","SRET","SRET_math_calculate","","key","3","16.66658267716549","903.0588235294117","504","","","","","8-5= ?","3","1","","","","","","","",""
"4934","","0","psychophysics","110","467311","0.0-7.0-5.0-0.7","5","5","5","6","5","4","3","5","4","4","4","2","0","1","0","1","1","2","0","5","4","5","5","5","4","3","3","5","4","7","8","8","6","5","7","7","7","6","5","7","3","6","6","6","5","3","7","5","1","4","2","6","3","6","6","5","4","3","7","3","5","6","7","6","7","6","7","6","7","7","5","5","7","2","5","5","6","3","6","753301347197259777","赵","137","Female","[""好她"",""坏她"",""坏我"",""好我""]","[""强她"",""弱她"",""弱我"",""强我""]","","","","","","","","0","","","","","","","","","SRET","SRET_math_calculate","","key","0","16.666432432432515","903.0588235294117","504","","","","","7*0= ?","0","1","","","","","","","",""
"2438","","2","psychophysics","111","469751","0.0-7.0-5.0-0.8","5","5","5","6","5","4","3","5","4","4","4","2","0","1","0","1","1","2","0","5","4","5","5","5","4","3","3","5","4","7","8","8","6","5","7","7","7","6","5","7","3","6","6","6","5","3","7","5","1","4","2","6","3","6","6","5","4","3","7","3","5","6","7","6","7","6","7","6","7","7","5","5","7","2","5","5","6","3","6","753301347197259777","赵","137","Female","[""好她"",""坏她"",""坏我"",""好我""]","[""强她"",""弱她"",""弱我"",""强我""]","","","","","","","","2","","","","","","","","","SRET","SRET_math_calculate","","key","2","16.666579310345096","903.0588235294117","504","","","","","9-7= ?","2","1","","","","","","","",""
"3253","","8","psychophysics","112","473015","0.0-7.0-5.0-0.9","5","5","5","6","5","4","3","5","4","4","4","2","0","1","0","1","1","2","0","5","4","5","5","5","4","3","3","5","4","7","8","8","6","5","7","7","7","6","5","7","3","6","6","6","5","3","7","5","1","4","2","6","3","6","6","5","4","3","7","3","5","6","7","6","7","6","7","6","7","7","5","5","7","2","5","5","6","3","6","753301347197259777","赵","137","Female","[""好她"",""坏她"",""坏我"",""好我""]","[""强她"",""弱她"",""弱我"",""强我""]","","","","","","","","8","","","","","","","","","SRET","SRET_math_calculate","","key","8","16.66725128205129","903.0588235294117","504","","","","","8*1= ?","8","1","","","","","","","",""
"2333","","9","psychophysics","113","475351","0.0-7.0-5.0-0.10","5","5","5","6","5","4","3","5","4","4","4","2","0","1","0","1","1","2","0","5","4","5","5","5","4","3","3","5","4","7","8","8","6","5","7","7","7","6","5","7","3","6","6","6","5","3","7","5","1","4","2","6","3","6","6","5","4","3","7","3","5","6","7","6","7","6","7","6","7","7","5","5","7","2","5","5","6","3","6","753301347197259777","赵","137","Female","[""好她"",""坏她"",""坏我"",""好我""]","[""强她"",""弱她"",""弱我"",""强我""]","","","","","","","","9","","","","","","","","","SRET","SRET_math_calculate","","key","9","16.66522302158284","903.0588235294117","504","","","","","18/2= ?","9","1","","","","","","","",""
"2293","","4","psychophysics","114","477647","0.0-7.0-5.0-0.11","5","5","5","6","5","4","3","5","4","4","4","2","0","1","0","1","1","2","0","5","4","5","5","5","4","3","3","5","4","7","8","8","6","5","7","7","7","6","5","7","3","6","6","6","5","3","7","5","1","4","2","6","3","6","6","5","4","3","7","3","5","6","7","6","7","6","7","6","7","7","5","5","7","2","5","5","6","3","6","753301347197259777","赵","137","Female","[""好她"",""坏她"",""坏我"",""好我""]","[""强她"",""弱她"",""弱我"",""强我""]","","","","","","","","4","","","","","","","","","SRET","SRET_math_calculate","","key","4","16.666467153284966","903.0588235294117","504","","","","","9-5= ?","4","1","","","","","","","",""
"2006","","8","psychophysics","115","479662","0.0-7.0-5.0-0.12","5","5","5","6","5","4","3","5","4","4","4","2","0","1","0","1","1","2","0","5","4","5","5","5","4","3","3","5","4","7","8","8","6","5","7","7","7","6","5","7","3","6","6","6","5","3","7","5","1","4","2","6","3","6","6","5","4","3","7","3","5","6","7","6","7","6","7","6","7","7","5","5","7","2","5","5","6","3","6","753301347197259777","赵","137","Female","[""好她"",""坏她"",""坏我"",""好我""]","[""强她"",""弱她"",""弱我"",""强我""]","","","","","","","","8","","","","","","","","","SRET","SRET_math_calculate","","key","8","16.665449999999932","903.0588235294117","504","","","","","1+7= ?","8","1","","","","","","","",""
"2495","","9","psychophysics","116","482159","0.0-7.0-5.0-0.13","5","5","5","6","5","4","3","5","4","4","4","2","0","1","0","1","1","2","0","5","4","5","5","5","4","3","3","5","4","7","8","8","6","5","7","7","7","6","5","7","3","6","6","6","5","3","7","5","1","4","2","6","3","6","6","5","4","3","7","3","5","6","7","6","7","6","7","6","7","7","5","5","7","2","5","5","6","3","6","753301347197259777","赵","137","Female","[""好她"",""坏她"",""坏我"",""好我""]","[""强她"",""弱她"",""弱我"",""强我""]","","","","","","","","9","","","","","","","","","SRET","SRET_math_calculate","","key","9","16.666358108108003","903.0588235294117","504","","","","","7+2= ?","9","1","","","","","","","",""
"2163","","8","psychophysics","117","484327","0.0-7.0-5.0-0.14","5","5","5","6","5","4","3","5","4","4","4","2","0","1","0","1","1","2","0","5","4","5","5","5","4","3","3","5","4","7","8","8","6","5","7","7","7","6","5","7","3","6","6","6","5","3","7","5","1","4","2","6","3","6","6","5","4","3","7","3","5","6","7","6","7","6","7","6","7","7","5","5","7","2","5","5","6","3","6","753301347197259777","赵","137","Female","[""好她"",""坏她"",""坏我"",""好我""]","[""强她"",""弱她"",""弱我"",""强我""]","","","","","","","","8","","","","","","","","","SRET","SRET_math_calculate","","key","8","16.667116279069464","903.0588235294117","504","","","","","4*2= ?","8","1","","","","","","","",""
"2815","","5","psychophysics","118","487143","0.0-7.0-5.0-0.15","5","5","5","6","5","4","3","5","4","4","4","2","0","1","0","1","1","2","0","5","4","5","5","5","4","3","3","5","4","7","8","8","6","5","7","7","7","6","5","7","3","6","6","6","5","3","7","5","1","4","2","6","3","6","6","5","4","3","7","3","5","6","7","6","7","6","7","6","7","7","5","5","7","2","5","5","6","3","6","753301347197259777","赵","137","Female","[""好她"",""坏她"",""坏我"",""好我""]","[""强她"",""弱她"",""弱我"",""强我""]","","","","","","","","5","","","","","","","","","SRET","SRET_math_calculate","","key","5","16.66748214285707","903.0588235294117","504","","","","","3*2= ?","6","0","","","","","","","",""
"3558","","9","psychophysics","119","490703","0.0-7.0-5.0-0.16","5","5","5","6","5","4","3","5","4","4","4","2","0","1","0","1","1","2","0","5","4","5","5","5","4","3","3","5","4","7","8","8","6","5","7","7","7","6","5","7","3","6","6","6","5","3","7","5","1","4","2","6","3","6","6","5","4","3","7","3","5","6","7","6","7","6","7","6","7","7","5","5","7","2","5","5","6","3","6","753301347197259777","赵","137","Female","[""好她"",""坏她"",""坏我"",""好我""]","[""强她"",""弱她"",""弱我"",""强我""]","","","","","","","","9","","","","","","","","","SRET","SRET_math_calculate","","key","9","16.667262910798296","903.0588235294117","504","","","","","2+7= ?","9","1","","","","","","","",""
"2941","","7","psychophysics","120","493646","0.0-7.0-5.0-0.17","5","5","5","6","5","4","3","5","4","4","4","2","0","1","0","1","1","2","0","5","4","5","5","5","4","3","3","5","4","7","8","8","6","5","7","7","7","6","5","7","3","6","6","6","5","3","7","5","1","4","2","6","3","6","6","5","4","3","7","3","5","6","7","6","7","6","7","6","7","7","5","5","7","2","5","5","6","3","6","753301347197259777","赵","137","Female","[""好她"",""坏她"",""坏我"",""好我""]","[""强她"",""弱她"",""弱我"",""强我""]","","","","","","","","7","","","","","","","","","SRET","SRET_math_calculate","","key","7","16.665176136363616","903.0588235294117","504","","","","","9-2= ?","7","1","","","","","","","",""
"3950","","8","psychophysics","121","497598","0.0-7.0-5.0-0.18","5","5","5","6","5","4","3","5","4","4","4","2","0","1","0","1","1","2","0","5","4","5","5","5","4","3","3","5","4","7","8","8","6","5","7","7","7","6","5","7","3","6","6","6","5","3","7","5","1","4","2","6","3","6","6","5","4","3","7","3","5","6","7","6","7","6","7","6","7","7","5","5","7","2","5","5","6","3","6","753301347197259777","赵","137","Female","[""好她"",""坏她"",""坏我"",""好我""]","[""强她"",""弱她"",""弱我"",""强我""]","","","","","","","","8","","","","","","","","","SRET","SRET_math_calculate","","key","8","16.667567796610054","903.0588235294117","504","","","","","56/7= ?","8","1","","","","","","","",""
"3599","","2","psychophysics","122","501199","0.0-7.0-5.0-0.19","5","5","5","6","5","4","3","5","4","4","4","2","0","1","0","1","1","2","0","5","4","5","5","5","4","3","3","5","4","7","8","8","6","5","7","7","7","6","5","7","3","6","6","6","5","3","7","5","1","4","2","6","3","6","6","5","4","3","7","3","5","6","7","6","7","6","7","6","7","7","5","5","7","2","5","5","6","3","6","753301347197259777","赵","137","Female","[""好她"",""坏她"",""坏我"",""好我""]","[""强她"",""弱她"",""弱我"",""强我""]","","","","","","","","2","","","","","","","","","SRET","SRET_math_calculate","","key","2","16.666930232557934","903.0588235294117","504","","","","","29-27= ?","2","1","","","","","","","",""
"5350","","2","psychophysics","123","506551","0.0-7.0-5.0-0.20","5","5","5","6","5","4","3","5","4","4","4","2","0","1","0","1","1","2","0","5","4","5","5","5","4","3","3","5","4","7","8","8","6","5","7","7","7","6","5","7","3","6","6","6","5","3","7","5","1","4","2","6","3","6","6","5","4","3","7","3","5","6","7","6","7","6","7","6","7","7","5","5","7","2","5","5","6","3","6","753301347197259777","赵","137","Female","[""好她"",""坏她"",""坏我"",""好我""]","[""强她"",""弱她"",""弱我"",""强我""]","","","","","","","","2","","","","","","","","","SRET","SRET_math_calculate","","key","2","16.666090625000106","903.0588235294117","504","","","","","90/45= ?","2","1","","","","","","","",""
"2071","","8","psychophysics","124","508624","0.0-7.0-5.0-0.21","5","5","5","6","5","4","3","5","4","4","4","2","0","1","0","1","1","2","0","5","4","5","5","5","4","3","3","5","4","7","8","8","6","5","7","7","7","6","5","7","3","6","6","6","5","3","7","5","1","4","2","6","3","6","6","5","4","3","7","3","5","6","7","6","7","6","7","6","7","7","5","5","7","2","5","5","6","3","6","753301347197259777","赵","137","Female","[""好她"",""坏她"",""坏我"",""好我""]","[""强她"",""弱她"",""弱我"",""强我""]","","","","","","","","8","","","","","","","","","SRET","SRET_math_calculate","","key","8","16.6670650406504","903.0588235294117","504","","","","","5+3= ?","8","1","","","","","","","",""
"5029","","1","psychophysics","125","513657","0.0-7.0-5.0-0.22","5","5","5","6","5","4","3","5","4","4","4","2","0","1","0","1","1","2","0","5","4","5","5","5","4","3","3","5","4","7","8","8","6","5","7","7","7","6","5","7","3","6","6","6","5","3","7","5","1","4","2","6","3","6","6","5","4","3","7","3","5","6","7","6","7","6","7","6","7","7","5","5","7","2","5","5","6","3","6","753301347197259777","赵","137","Female","[""好她"",""坏她"",""坏我"",""好我""]","[""强她"",""弱她"",""弱我"",""强我""]","","","","","","","","1","","","","","","","","","SRET","SRET_math_calculate","","key","1","16.666146179402023","903.0588235294117","504","","","","","4/4= ?","1","1","","","","","","","",""
"5403","","9","psychophysics","126","519063","0.0-7.0-5.0-0.23","5","5","5","6","5","4","3","5","4","4","4","2","0","1","0","1","1","2","0","5","4","5","5","5","4","3","3","5","4","7","8","8","6","5","7","7","7","6","5","7","3","6","6","6","5","3","7","5","1","4","2","6","3","6","6","5","4","3","7","3","5","6","7","6","7","6","7","6","7","7","5","5","7","2","5","5","6","3","6","753301347197259777","赵","137","Female","[""好她"",""坏她"",""坏我"",""好我""]","[""强她"",""弱她"",""弱我"",""强我""]","","","","","","","","9","","","","","","","","","SRET","SRET_math_calculate","","key","9","16.66642901234571","903.0588235294117","504","","","","","32-23= ?","9","1","","","","","","","",""
"2134","","9","psychophysics","127","521199","0.0-7.0-5.0-0.24","5","5","5","6","5","4","3","5","4","4","4","2","0","1","0","1","1","2","0","5","4","5","5","5","4","3","3","5","4","7","8","8","6","5","7","7","7","6","5","7","3","6","6","6","5","3","7","5","1","4","2","6","3","6","6","5","4","3","7","3","5","6","7","6","7","6","7","6","7","7","5","5","7","2","5","5","6","3","6","753301347197259777","赵","137","Female","[""好她"",""坏她"",""坏我"",""好我""]","[""强她"",""弱她"",""弱我"",""强我""]","","","","","","","","9","","","","","","","","","SRET","SRET_math_calculate","","key","9","16.666740157480138","903.0588235294117","504","","","","","1+8= ?","9","1","","","","","","","",""
"5479","","9","psychophysics","128","526680","0.0-7.0-5.0-0.25","5","5","5","6","5","4","3","5","4","4","4","2","0","1","0","1","1","2","0","5","4","5","5","5","4","3","3","5","4","7","8","8","6","5","7","7","7","6","5","7","3","6","6","6","5","3","7","5","1","4","2","6","3","6","6","5","4","3","7","3","5","6","7","6","7","6","7","6","7","7","5","5","7","2","5","5","6","3","6","753301347197259777","赵","137","Female","[""好她"",""坏她"",""坏我"",""好我""]","[""强她"",""弱她"",""弱我"",""强我""]","","","","","","","","9","","","","","","","","","SRET","SRET_math_calculate","","key","9","16.666012195121922","903.0588235294117","504","","","","","1*9= ?","9","1","","","","","","","",""
"1980","","8","psychophysics","129","528662","0.0-7.0-5.0-0.26","5","5","5","6","5","4","3","5","4","4","4","2","0","1","0","1","1","2","0","5","4","5","5","5","4","3","3","5","4","7","8","8","6","5","7","7","7","6","5","7","3","6","6","6","5","3","7","5","1","4","2","6","3","6","6","5","4","3","7","3","5","6","7","6","7","6","7","6","7","7","5","5","7","2","5","5","6","3","6","753301347197259777","赵","137","Female","[""好她"",""坏她"",""坏我"",""好我""]","[""强她"",""弱她"",""弱我"",""强我""]","","","","","","","","8","","","","","","","","","SRET","SRET_math_calculate","","key","8","16.666957627118652","903.0588235294117","504","","","","","7+1= ?","8","1","","","","","","","",""
"2078","","7","psychophysics","130","530743","0.0-7.0-5.0-0.27","5","5","5","6","5","4","3","5","4","4","4","2","0","1","0","1","1","2","0","5","4","5","5","5","4","3","3","5","4","7","8","8","6","5","7","7","7","6","5","7","3","6","6","6","5","3","7","5","1","4","2","6","3","6","6","5","4","3","7","3","5","6","7","6","7","6","7","6","7","7","5","5","7","2","5","5","6","3","6","753301347197259777","赵","137","Female","[""好她"",""坏她"",""坏我"",""好我""]","[""强她"",""弱她"",""弱我"",""强我""]","","","","","","","","7","","","","","","","","","SRET","SRET_math_calculate","","key","7","16.667552845527954","903.0588235294117","504","","","","","5+2= ?","7","1","","","","","","","",""
"4749","","8","psychophysics","131","535495","0.0-7.0-5.0-0.28","5","5","5","6","5","4","3","5","4","4","4","2","0","1","0","1","1","2","0","5","4","5","5","5","4","3","3","5","4","7","8","8","6","5","7","7","7","6","5","7","3","6","6","6","5","3","7","5","1","4","2","6","3","6","6","5","4","3","7","3","5","6","7","6","7","6","7","6","7","7","5","5","7","2","5","5","6","3","6","753301347197259777","赵","137","Female","[""好她"",""坏她"",""坏我"",""好我""]","[""强她"",""弱她"",""弱我"",""强我""]","","","","","","","","8","","","","","","","","","SRET","SRET_math_calculate","","key","8","16.666445614035208","903.0588235294117","504","","","","","11-3= ?","8","1","","","","","","","",""
"3928","","5","psychophysics","132","539425","0.0-7.0-5.0-0.29","5","5","5","6","5","4","3","5","4","4","4","2","0","1","0","1","1","2","0","5","4","5","5","5","4","3","3","5","4","7","8","8","6","5","7","7","7","6","5","7","3","6","6","6","5","3","7","5","1","4","2","6","3","6","6","5","4","3","7","3","5","6","7","6","7","6","7","6","7","7","5","5","7","2","5","5","6","3","6","753301347197259777","赵","137","Female","[""好她"",""坏她"",""坏我"",""好我""]","[""强她"",""弱她"",""弱我"",""强我""]","","","","","","","","5","","","","","","","","","SRET","SRET_math_calculate","","key","5","16.666149572649886","903.0588235294117","504","","","","","12-7= ?","5","1","","","","","","","",""
"2492","","1","psychophysics","133","541919","0.0-7.0-5.0-0.30","5","5","5","6","5","4","3","5","4","4","4","2","0","1","0","1","1","2","0","5","4","5","5","5","4","3","3","5","4","7","8","8","6","5","7","7","7","6","5","7","3","6","6","6","5","3","7","5","1","4","2","6","3","6","6","5","4","3","7","3","5","6","7","6","7","6","7","6","7","7","5","5","7","2","5","5","6","3","6","753301347197259777","赵","137","Female","[""好她"",""坏她"",""坏我"",""好我""]","[""强她"",""弱她"",""弱我"",""强我""]","","","","","","","","1","","","","","","","","","SRET","SRET_math_calculate","","key","1","16.666899328858392","903.0588235294117","504","","","","","9-8= ?","1","1","","","","","","","",""
"2110","","9","psychophysics","134","544031","0.0-7.0-5.0-0.31","5","5","5","6","5","4","3","5","4","4","4","2","0","1","0","1","1","2","0","5","4","5","5","5","4","3","3","5","4","7","8","8","6","5","7","7","7","6","5","7","3","6","6","6","5","3","7","5","1","4","2","6","3","6","6","5","4","3","7","3","5","6","7","6","7","6","7","6","7","7","5","5","7","2","5","5","6","3","6","753301347197259777","赵","137","Female","[""好她"",""坏她"",""坏我"",""好我""]","[""强她"",""弱她"",""弱我"",""强我""]","","","","","","","","9","","","","","","","","","SRET","SRET_math_calculate","","key","9","16.66820634920649","903.0588235294117","504","","","","","1+8= ?","9","1","","","","","","","",""
"5733","","9","psychophysics","135","549766","0.0-7.0-5.0-0.32","5","5","5","6","5","4","3","5","4","4","4","2","0","1","0","1","1","2","0","5","4","5","5","5","4","3","3","5","4","7","8","8","6","5","7","7","7","6","5","7","3","6","6","6","5","3","7","5","1","4","2","6","3","6","6","5","4","3","7","3","5","6","7","6","7","6","7","6","7","7","5","5","7","2","5","5","6","3","6","753301347197259777","赵","137","Female","[""好她"",""坏她"",""坏我"",""好我""]","[""强她"",""弱她"",""弱我"",""强我""]","","","","","","","","9","","","","","","","","","SRET","SRET_math_calculate","","key","9","16.66637317784254","903.0588235294117","504","","","","","43-34= ?","9","1","","","","","","","",""
"4614","","3","psychophysics","136","554383","0.0-7.0-5.0-0.33","5","5","5","6","5","4","3","5","4","4","4","2","0","1","0","1","1","2","0","5","4","5","5","5","4","3","3","5","4","7","8","8","6","5","7","7","7","6","5","7","3","6","6","6","5","3","7","5","1","4","2","6","3","6","6","5","4","3","7","3","5","6","7","6","7","6","7","6","7","7","5","5","7","2","5","5","6","3","6","753301347197259777","赵","137","Female","[""好她"",""坏她"",""坏我"",""好我""]","[""强她"",""弱她"",""弱我"",""强我""]","","","","","","","","3","","","","","","","","","SRET","SRET_math_calculate","","key","3","16.666391304347822","903.0588235294117","504","","","","","3*1= ?","3","1","","","","","","","",""
"4750","","9","psychophysics","137","559135","0.0-7.0-5.0-0.34","5","5","5","6","5","4","3","5","4","4","4","2","0","1","0","1","1","2","0","5","4","5","5","5","4","3","3","5","4","7","8","8","6","5","7","7","7","6","5","7","3","6","6","6","5","3","7","5","1","4","2","6","3","6","6","5","4","3","7","3","5","6","7","6","7","6","7","6","7","7","5","5","7","2","5","5","6","3","6","753301347197259777","赵","137","Female","[""好她"",""坏她"",""坏我"",""好我""]","[""强她"",""弱她"",""弱我"",""强我""]","","","","","","","","9","","","","","","","","","SRET","SRET_math_calculate","","key","9","16.666249999999884","903.0588235294117","504","","","","","9/3= ?","3","0","","","","","","","",""
"2430","","8","psychophysics","138","561567","0.0-7.0-5.0-0.35","5","5","5","6","5","4","3","5","4","4","4","2","0","1","0","1","1","2","0","5","4","5","5","5","4","3","3","5","4","7","8","8","6","5","7","7","7","6","5","7","3","6","6","6","5","3","7","5","1","4","2","6","3","6","6","5","4","3","7","3","5","6","7","6","7","6","7","6","7","7","5","5","7","2","5","5","6","3","6","753301347197259777","赵","137","Female","[""好她"",""坏她"",""坏我"",""好我""]","[""强她"",""弱她"",""弱我"",""强我""]","","","","","","","","8","","","","","","","","","SRET","SRET_math_calculate","","key","8","16.669331034482457","903.0588235294117","504","","","","","3+5= ?","8","1","","","","","","","",""
"2621","","7","psychophysics","139","564190","0.0-7.0-5.0-0.36","5","5","5","6","5","4","3","5","4","4","4","2","0","1","0","1","1","2","0","5","4","5","5","5","4","3","3","5","4","7","8","8","6","5","7","7","7","6","5","7","3","6","6","6","5","3","7","5","1","4","2","6","3","6","6","5","4","3","7","3","5","6","7","6","7","6","7","6","7","7","5","5","7","2","5","5","6","3","6","753301347197259777","赵","137","Female","[""好她"",""坏她"",""坏我"",""好我""]","[""强她"",""弱她"",""弱我"",""强我""]","","","","","","","","7","","","","","","","","","SRET","SRET_math_calculate","","key","7","16.665185897435713","903.0588235294117","504","","","","","4+3= ?","7","1","","","","","","","",""
