"rt","stimulus","response","trial_type","trial_index","time_elapsed","internal_node_id","swb_1","swb_2","swb_3","swb_4","swb_5","LOT_1","LOT_2","LOT_3","LOT_4","LOT_5","LOT_6","IPC_1","IPC_2","IPC_3","IPC_4","IPC_5","IPC_6","IPC_7","IPC_8","MorIden_1","MorIden_2","MorIden_3","MorIden_4","MorIden_5","MorIden_6","MorIden_7","MorIden_8","MorIden_9","MorIden_10","moralSeImag_1","moralSeImag_2","moralSeImag_3","moralSeImag_4","moralSeImag_5","moralSeImag_6","moralSeImag_7","moralSeImag_8","moralSeImag_9","sde_1","sde_2","sde_3","sde_4","sde_5","sde_6","sde_7","sde_8","sde_9","sde_10","trap2","sde_11","sde_12","sde_13","sde_14","sde_15","sde_16","sde_17","sde_18","sde_19","sde_20","IM_1","IM_2","IM_3","IM_4","IM_5","IM_6","IM_7","IM_8","IM_9","IM_10","IM_11","IM_12","IM_13","IM_14","IM_15","IM_16","IM_17","IM_18","IM_19","IM_20","subj_idx","friend_name","ParticipantID","Sex","Word","Word2","value","success","timeout","failed_images","failed_audio","failed_video","user_agent","responses","item_order","radio_event_ids","radio_event_times","key_event_times","mouse_event_times","straightlining","zigzagging","honeypot","task_id","screen_id","time_stamp","response_type","key_press","avg_frame_time","center_x","center_y","person","word","valence","domain","math","correct_response","correct","status","view_history","identity","duration","Image","condition","question_order","trap2_item"
"1869","
   <p><div style='color:white; font-size: 25px'>您好，欢迎参加本次实验。</div></p>
   <p><div style='color:white; font-size: 25px'>为充分保障您的权利，请确保您已经知晓并同意《参与实验同意书》以及《数据公开知情同意书》。</div></p>
   <p><div style='color:white; font-size: 25px'>如果您未见过上述内容，请咨询实验员。</div></p>
   <p style='color:white; font-size: 25px'>如果您选择继续实验，则表示您已经清楚两份知情同意书的内容并同意。</p>
   <p><div style = ""color: pink;font-size:30px;"">请确保您记得day0的实验编号，您将在本次实验输入该编号，若您忘记，请咨询实验员后作答。</div></p>
   <p><div style = ""color:lightblue;font-size:25px;"">请您尽可能认真地作答，我们将依据您在各问卷和按键任务中的作答质量发放报酬。</div></p>
   <p> <div style = ""color: green""><按空格键至下页></div> </p>
   "," ","html-keyboard-response","0","1871","0.0-0.0","6","5","7","5","5","5","4","4","2","5","5","2","1","1","-2","-1","1","2","1","5","4","5","5","5","4","4","2","4","4","4","6","7","7","3","7","6","4","7","5","5","6","6","5","1","3","1","6","6","1","6","1","6","3","2","5","5","6","5","6","2","5","3","2","2","5","2","7","3","6","3","2","3","1","3","3","2","2","3","2","653013422224441344","苏","356","Male","[""坏他"",""坏我"",""好我"",""好他""]","[""弱他"",""弱我"",""强我"",""强他""]","","","","","","","","","","","","","","","","","","","","","","","","","","","","","","","","","","","","","","",""
"","","","call-function","1","1871","0.0-1.0-0.0","6","5","7","5","5","5","4","4","2","5","5","2","1","1","-2","-1","1","2","1","5","4","5","5","5","4","4","2","4","4","4","6","7","7","3","7","6","4","7","5","5","6","6","5","1","3","1","6","6","1","6","1","6","3","2","5","5","6","5","6","2","5","3","2","2","5","2","7","3","6","3","2","3","1","3","3","2","2","3","2","653013422224441344","苏","356","Male","[""坏他"",""坏我"",""好我"",""好他""]","[""弱他"",""弱我"",""强我"",""强他""]","","","","","","","","","","","","","","","","","","","","","","","","","","","","","","","","","","","","","","",""
"8914","","[{""name"":""Sex"",""value"":""0""},{""name"":""friend_name"",""value"":""苏""},{""name"":""ParticipantID"",""value"":""356""}]","survey-html-form","2","10785","0.0-1.0-1.0","6","5","7","5","5","5","4","4","2","5","5","2","1","1","-2","-1","1","2","1","5","4","5","5","5","4","4","2","4","4","4","6","7","7","3","7","6","4","7","5","5","6","6","5","1","3","1","6","6","1","6","1","6","3","2","5","5","6","5","6","2","5","3","2","2","5","2","7","3","6","3","2","3","1","3","3","2","2","3","2","653013422224441344","苏","356","Male","[""坏他"",""坏我"",""好我"",""好他""]","[""弱他"",""弱我"",""强我"",""强他""]","","","","","","","","","","","","","","","","","","","","","","","","","","","","","","","","","","","","","","",""
"","","","preload","3","11112","0.0-2.0","6","5","7","5","5","5","4","4","2","5","5","2","1","1","-2","-1","1","2","1","5","4","5","5","5","4","4","2","4","4","4","6","7","7","3","7","6","4","7","5","5","6","6","5","1","3","1","6","6","1","6","1","6","3","2","5","5","6","5","6","2","5","3","2","2","5","2","7","3","6","3","2","3","1","3","3","2","2","3","2","653013422224441344","苏","356","Male","[""坏他"",""坏我"",""好我"",""好他""]","[""弱他"",""弱我"",""强我"",""强他""]","","true","false","[]","[]","[]","","","","","","","","","","","","","","","","","","","","","","","","","","","","","","","","",""
"","","","fullscreen","4","12646","0.0-3.0","6","5","7","5","5","5","4","4","2","5","5","2","1","1","-2","-1","1","2","1","5","4","5","5","5","4","4","2","4","4","4","6","7","7","3","7","6","4","7","5","5","6","6","5","1","3","1","6","6","1","6","1","6","3","2","5","5","6","5","6","2","5","3","2","2","5","2","7","3","6","3","2","3","1","3","3","2","2","3","2","653013422224441344","苏","356","Male","[""坏他"",""坏我"",""好我"",""好他""]","[""弱他"",""弱我"",""强我"",""强他""]","","true","","","","","{}","","","","","","","","","","","","","","","","","","","","","","","","","","","","","","","",""
"26942.300000000047","","{""Q01"":""6"",""Q02"":""5"",""Q03"":""7"",""Q04"":""5"",""Q05"":""5""}","survey-template","5","39590","0.0-4.0","6","5","7","5","5","5","4","4","2","5","5","2","1","1","-2","-1","1","2","1","5","4","5","5","5","4","4","2","4","4","4","6","7","7","3","7","6","4","7","5","5","6","6","5","1","3","1","6","6","1","6","1","6","3","2","5","5","6","5","6","2","5","3","2","2","5","2","7","3","6","3","2","3","1","3","3","2","2","3","2","653013422224441344","苏","356","Male","[""坏他"",""坏我"",""好我"",""好他""]","[""弱他"",""弱我"",""强我"",""强他""]","","","","","","","","{""Q01"":""6"",""Q02"":""5"",""Q03"":""7"",""Q04"":""5"",""Q05"":""5""}","[0,1,2,3,4]","[""Q02"",""Q03"",""Q01"",""Q02"",""Q04"",""Q05"",""Q05""]","[4673.699999999953,5493.599999999977,10466.099999999977,11077.400000000023,20077.900000000023,22293.5,25997.699999999953]","[]","[3625.5,4009.0999999999767,4673.699999999953,5286,5493.599999999977,6837.5,7897.800000000047,8586,8889.5,9657.199999999953,9913.5,10466.099999999977,11077.400000000023,19229.900000000023,20077.900000000023,22293.5,25997.699999999953,26941.599999999977]","0.6","0.25","0","","","","","","","","","","","","","","","","","","","","","","",""
"25681.5","","{""Q01"":""5"",""Q02"":""4"",""Q03"":""4"",""Q04"":""2"",""Q05"":""5"",""Q06"":""5""}","survey-template","6","65273","0.0-5.0","6","5","7","5","5","5","4","4","2","5","5","2","1","1","-2","-1","1","2","1","5","4","5","5","5","4","4","2","4","4","4","6","7","7","3","7","6","4","7","5","5","6","6","5","1","3","1","6","6","1","6","1","6","3","2","5","5","6","5","6","2","5","3","2","2","5","2","7","3","6","3","2","3","1","3","3","2","2","3","2","653013422224441344","苏","356","Male","[""坏他"",""坏我"",""好我"",""好他""]","[""弱他"",""弱我"",""强我"",""强他""]","","","","","","","","{""Q01"":""5"",""Q02"":""4"",""Q03"":""4"",""Q04"":""2"",""Q05"":""5"",""Q06"":""5""}","[0,1,2,3,4,5]","[""Q01"",""Q02"",""Q03"",""Q04"",""Q05"",""Q06""]","[2888.9000000000233,13556.800000000047,14773,19953,22836.800000000047,24904.800000000047]","[]","[2888.9000000000233,13556.800000000047,14773,19953,22333.099999999977,22836.800000000047,24904.800000000047,25680.900000000023]","0.3333333333333333","0.2","0","","","","","","","","","","","","","","","","","","","","","","",""
"29530.20000000007","","{""Q01"":""2"",""Q02"":""1"",""Q03"":""1"",""Q04"":""-2"",""Q05"":""-1"",""Q06"":""1"",""Q07"":""2"",""Q08"":""1""}","survey-template","7","94806","0.0-6.0","6","5","7","5","5","5","4","4","2","5","5","2","1","1","-2","-1","1","2","1","5","4","5","5","5","4","4","2","4","4","4","6","7","7","3","7","6","4","7","5","5","6","6","5","1","3","1","6","6","1","6","1","6","3","2","5","5","6","5","6","2","5","3","2","2","5","2","7","3","6","3","2","3","1","3","3","2","2","3","2","653013422224441344","苏","356","Male","[""坏他"",""坏我"",""好我"",""好他""]","[""弱他"",""弱我"",""强我"",""强他""]","","","","","","","","{""Q01"":""2"",""Q02"":""1"",""Q03"":""1"",""Q04"":""-2"",""Q05"":""-1"",""Q06"":""1"",""Q07"":""2"",""Q08"":""1""}","[0,1,2,3,4,5,6,7]","[""Q01"",""Q02"",""Q03"",""Q04"",""Q05"",""Q06"",""Q07"",""Q08""]","[5957.800000000047,8297.100000000093,13273.400000000023,14409.800000000047,19757.70000000007,22224.900000000023,27009.400000000023,28537.300000000047]","[]","[4353.300000000047,4966.900000000023,5957.800000000047,8297.100000000093,13273.400000000023,14409.800000000047,18949.400000000023,19757.70000000007,22224.900000000023,27009.400000000023,28281.20000000007,28537.300000000047,29529.100000000093]","0.5","0.5714285714285714","0","","","","","","","","","","","","","","","","","","","","","","",""
"48404","
    <p><div style='color:white;font-size:35px; line-height:20px;'>词汇评估任务</div></p><br>
    <p><div style='color:white;font-size:25px; line-height:20px;'>请再次回忆该亲密的朋友，你们至少2年前就认识了，并且最近2年经常见面。</div></p>
    <p><div style='color:white;font-size:25px; line-height:20px;'>在本实验中，您将会看到一些形容词。</div></p>
    <p><div style='color:yellow;font-size:25px; line-height:20px;'>您的任务是判断这些形容词是否符合对您自己或您的朋友的描述。</div></p><p style='font-size:35px'>符合按<span style=""color:lightgreen""> f 键</span>，不符合按<span style=""color:red""> j 键</span></p>","0","html-button-response","8","143213","0.0-7.0-0.0","6","5","7","5","5","5","4","4","2","5","5","2","1","1","-2","-1","1","2","1","5","4","5","5","5","4","4","2","4","4","4","6","7","7","3","7","6","4","7","5","5","6","6","5","1","3","1","6","6","1","6","1","6","3","2","5","5","6","5","6","2","5","3","2","2","5","2","7","3","6","3","2","3","1","3","3","2","2","3","2","653013422224441344","苏","356","Male","[""坏他"",""坏我"",""好我"",""好他""]","[""弱他"",""弱我"",""强我"",""强他""]","","","","","","","","","","","","","","","","","SRET_EW","EW_instructions","Tue Jan 02 2024 21:00:03 GMT+0800 (中国标准时间)","","","","","","","","","","","","","","","","","","","",""
"null","","null","psychophysics","9","146219","0.0-7.0-1.0-0.0","6","5","7","5","5","5","4","4","2","5","5","2","1","1","-2","-1","1","2","1","5","4","5","5","5","4","4","2","4","4","4","6","7","7","3","7","6","4","7","5","5","6","6","5","1","3","1","6","6","1","6","1","6","3","2","5","5","6","5","6","2","5","3","2","2","5","2","7","3","6","3","2","3","1","3","3","2","2","3","2","653013422224441344","苏","356","Male","[""坏他"",""坏我"",""好我"",""好他""]","[""弱他"",""弱我"",""强我"",""强他""]","","","","","","","","","","","","","","","","","SRET_EW","EW_practice","","key","null","16.666111111111242","822.8571428571429","510.2857142857143","自己","严谨","Positive","ability","","","","","","","","","","",""
"874","","j","psychophysics","10","148094","0.0-7.0-1.0-0.1","6","5","7","5","5","5","4","4","2","5","5","2","1","1","-2","-1","1","2","1","5","4","5","5","5","4","4","2","4","4","4","6","7","7","3","7","6","4","7","5","5","6","6","5","1","3","1","6","6","1","6","1","6","3","2","5","5","6","5","6","2","5","3","2","2","5","2","7","3","6","3","2","3","1","3","3","2","2","3","2","653013422224441344","苏","356","Male","[""坏他"",""坏我"",""好我"",""好他""]","[""弱他"",""弱我"",""强我"",""强他""]","","","","","","","","no","","","","","","","","","SRET_EW","EW_practice","","key","j","16.66607142857148","822.8571428571429","510.2857142857143","自己","刻板","Negative","ability","","","","","","","","","","",""
"629","","j","psychophysics","11","149723","0.0-7.0-1.0-0.2","6","5","7","5","5","5","4","4","2","5","5","2","1","1","-2","-1","1","2","1","5","4","5","5","5","4","4","2","4","4","4","6","7","7","3","7","6","4","7","5","5","6","6","5","1","3","1","6","6","1","6","1","6","3","2","5","5","6","5","6","2","5","3","2","2","5","2","7","3","6","3","2","3","1","3","3","2","2","3","2","653013422224441344","苏","356","Male","[""坏他"",""坏我"",""好我"",""好他""]","[""弱他"",""弱我"",""强我"",""强他""]","","","","","","","","no","","","","","","","","","SRET_EW","EW_practice","","key","j","16.666666666666668","822.8571428571429","510.2857142857143","朋友","徇私","Negative","morality","","","","","","","","","","",""
"487","","f","psychophysics","12","151211","0.0-7.0-1.0-0.3","6","5","7","5","5","5","4","4","2","5","5","2","1","1","-2","-1","1","2","1","5","4","5","5","5","4","4","2","4","4","4","6","7","7","3","7","6","4","7","5","5","6","6","5","1","3","1","6","6","1","6","1","6","3","2","5","5","6","5","6","2","5","3","2","2","5","2","7","3","6","3","2","3","1","3","3","2","2","3","2","653013422224441344","苏","356","Male","[""坏他"",""坏我"",""好我"",""好他""]","[""弱他"",""弱我"",""强我"",""强他""]","","","","","","","","yes","","","","","","","","","SRET_EW","EW_practice","","key","f","16.670786516853738","822.8571428571429","510.2857142857143","朋友","忠实","Positive","morality","","","","","","","","","","",""
"6120","
    <p><div style='color:white;font-size:35px; line-height:20px;'>请您再次阅读实验要求</div></p><br>
    <p><div style='color:white;font-size:25px; line-height:20px;'>请回忆某一个亲密的朋友，你们至少2年前就认识了，并且最近2年经常见面。</div></p>
    <p><div style='color:white;font-size:25px; line-height:20px;'>在本实验中，您将会看到一些形容词。</div></p>
    <p><div style='color:yellow;font-size:25px; line-height:20px;'>您的任务是判断这些形容词是否符合对您自己或您的朋友的描述。</div></p>
    <p><div class='footer' style='font-size:25px; line-height:20px;'>如果对本实验还有不清楚之处，请立即向实验员咨询。</p><p style='font-size:25px; line-height:20px;'>如果您明白了规则：</p><p style='font-size:22px; line-height:20px;'>请按 继续 进入正式实验</p>
    </div>
    <p style='font-size:35px'>符合按<span style=""color:lightgreen""> f 键</span>，不符合按<span style=""color:red""> j 键</span></p>","0","html-button-response","13","157332","0.0-7.0-2.0","6","5","7","5","5","5","4","4","2","5","5","2","1","1","-2","-1","1","2","1","5","4","5","5","5","4","4","2","4","4","4","6","7","7","3","7","6","4","7","5","5","6","6","5","1","3","1","6","6","1","6","1","6","3","2","5","5","6","5","6","2","5","3","2","2","5","2","7","3","6","3","2","3","1","3","3","2","2","3","2","653013422224441344","苏","356","Male","[""坏他"",""坏我"",""好我"",""好他""]","[""弱他"",""弱我"",""强我"",""强他""]","","","","","","","","","","","","","","","","","SRET_EW","prac_instructions","Tue Jan 02 2024 21:00:03 GMT+0800 (中国标准时间)","","","","","","","","","","","","","","","","","","","",""
"517","","f","psychophysics","14","158850","0.0-7.0-3.0-0.0","6","5","7","5","5","5","4","4","2","5","5","2","1","1","-2","-1","1","2","1","5","4","5","5","5","4","4","2","4","4","4","6","7","7","3","7","6","4","7","5","5","6","6","5","1","3","1","6","6","1","6","1","6","3","2","5","5","6","5","6","2","5","3","2","2","5","2","7","3","6","3","2","3","1","3","3","2","2","3","2","653013422224441344","苏","356","Male","[""坏他"",""坏我"",""好我"",""好他""]","[""弱他"",""弱我"",""强我"",""强他""]","","","","","","","","yes","","","","","","","","","SRET","EW_formal","","key","f","16.66153846153827","822.8571428571429","510.2857142857143","朋友","务实","Positive","ability","","","","","","","","","","",""
"607","","j","psychophysics","15","160460","0.0-7.0-3.0-0.1","6","5","7","5","5","5","4","4","2","5","5","2","1","1","-2","-1","1","2","1","5","4","5","5","5","4","4","2","4","4","4","6","7","7","3","7","6","4","7","5","5","6","6","5","1","3","1","6","6","1","6","1","6","3","2","5","5","6","5","6","2","5","3","2","2","5","2","7","3","6","3","2","3","1","3","3","2","2","3","2","653013422224441344","苏","356","Male","[""坏他"",""坏我"",""好我"",""好他""]","[""弱他"",""弱我"",""强我"",""强他""]","","","","","","","","no","","","","","","","","","SRET","EW_formal","","key","j","16.666666666666668","822.8571428571429","510.2857142857143","朋友","迷糊","Negative","ability","","","","","","","","","","",""
"749","","j","psychophysics","16","162210","0.0-7.0-3.0-0.2","6","5","7","5","5","5","4","4","2","5","5","2","1","1","-2","-1","1","2","1","5","4","5","5","5","4","4","2","4","4","4","6","7","7","3","7","6","4","7","5","5","6","6","5","1","3","1","6","6","1","6","1","6","3","2","5","5","6","5","6","2","5","3","2","2","5","2","7","3","6","3","2","3","1","3","3","2","2","3","2","653013422224441344","苏","356","Male","[""坏他"",""坏我"",""好我"",""好他""]","[""弱他"",""弱我"",""强我"",""强他""]","","","","","","","","no","","","","","","","","","SRET","EW_formal","","key","j","16.668932038834896","822.8571428571429","510.2857142857143","自己","坚贞","Positive","morality","","","","","","","","","","",""
"804","","j","psychophysics","17","164014","0.0-7.0-3.0-0.3","6","5","7","5","5","5","4","4","2","5","5","2","1","1","-2","-1","1","2","1","5","4","5","5","5","4","4","2","4","4","4","6","7","7","3","7","6","4","7","5","5","6","6","5","1","3","1","6","6","1","6","1","6","3","2","5","5","6","5","6","2","5","3","2","2","5","2","7","3","6","3","2","3","1","3","3","2","2","3","2","653013422224441344","苏","356","Male","[""坏他"",""坏我"",""好我"",""好他""]","[""弱他"",""弱我"",""强我"",""强他""]","","","","","","","","no","","","","","","","","","SRET","EW_formal","","key","j","16.667592592592648","822.8571428571429","510.2857142857143","自己","说谎","Negative","morality","","","","","","","","","","",""
"558","","j","psychophysics","18","165573","0.0-7.0-3.0-0.4","6","5","7","5","5","5","4","4","2","5","5","2","1","1","-2","-1","1","2","1","5","4","5","5","5","4","4","2","4","4","4","6","7","7","3","7","6","4","7","5","5","6","6","5","1","3","1","6","6","1","6","1","6","3","2","5","5","6","5","6","2","5","3","2","2","5","2","7","3","6","3","2","3","1","3","3","2","2","3","2","653013422224441344","苏","356","Male","[""坏他"",""坏我"",""好我"",""好他""]","[""弱他"",""弱我"",""强我"",""强他""]","","","","","","","","no","","","","","","","","","SRET","EW_formal","","key","j","16.66956521739137","822.8571428571429","510.2857142857143","朋友","阴毒","Negative","morality","","","","","","","","","","",""
"668","","f","psychophysics","19","167243","0.0-7.0-3.0-0.5","6","5","7","5","5","5","4","4","2","5","5","2","1","1","-2","-1","1","2","1","5","4","5","5","5","4","4","2","4","4","4","6","7","7","3","7","6","4","7","5","5","6","6","5","1","3","1","6","6","1","6","1","6","3","2","5","5","6","5","6","2","5","3","2","2","5","2","7","3","6","3","2","3","1","3","3","2","2","3","2","653013422224441344","苏","356","Male","[""坏他"",""坏我"",""好我"",""好他""]","[""弱他"",""弱我"",""强我"",""强他""]","","","","","","","","yes","","","","","","","","","SRET","EW_formal","","key","f","16.668000000000173","822.8571428571429","510.2857142857143","朋友","忠勇","Positive","morality","","","","","","","","","","",""
"537","","f","psychophysics","20","168781","0.0-7.0-3.0-0.6","6","5","7","5","5","5","4","4","2","5","5","2","1","1","-2","-1","1","2","1","5","4","5","5","5","4","4","2","4","4","4","6","7","7","3","7","6","4","7","5","5","6","6","5","1","3","1","6","6","1","6","1","6","3","2","5","5","6","5","6","2","5","3","2","2","5","2","7","3","6","3","2","3","1","3","3","2","2","3","2","653013422224441344","苏","356","Male","[""坏他"",""坏我"",""好我"",""好他""]","[""弱他"",""弱我"",""强我"",""强他""]","","","","","","","","yes","","","","","","","","","SRET","EW_formal","","key","f","16.664835164835164","822.8571428571429","510.2857142857143","朋友","正气","Positive","morality","","","","","","","","","","",""
"568","","j","psychophysics","21","170350","0.0-7.0-3.0-0.7","6","5","7","5","5","5","4","4","2","5","5","2","1","1","-2","-1","1","2","1","5","4","5","5","5","4","4","2","4","4","4","6","7","7","3","7","6","4","7","5","5","6","6","5","1","3","1","6","6","1","6","1","6","3","2","5","5","6","5","6","2","5","3","2","2","5","2","7","3","6","3","2","3","1","3","3","2","2","3","2","653013422224441344","苏","356","Male","[""坏他"",""坏我"",""好我"",""好他""]","[""弱他"",""弱我"",""强我"",""强他""]","","","","","","","","no","","","","","","","","","SRET","EW_formal","","key","j","16.667741935483935","822.8571428571429","510.2857142857143","朋友","盲目","Negative","ability","","","","","","","","","","",""
"1186","","f","psychophysics","22","172536","0.0-7.0-3.0-0.8","6","5","7","5","5","5","4","4","2","5","5","2","1","1","-2","-1","1","2","1","5","4","5","5","5","4","4","2","4","4","4","6","7","7","3","7","6","4","7","5","5","6","6","5","1","3","1","6","6","1","6","1","6","3","2","5","5","6","5","6","2","5","3","2","2","5","2","7","3","6","3","2","3","1","3","3","2","2","3","2","653013422224441344","苏","356","Male","[""坏他"",""坏我"",""好我"",""好他""]","[""弱他"",""弱我"",""强我"",""强他""]","","","","","","","","yes","","","","","","","","","SRET","EW_formal","","key","f","16.668461538461717","822.8571428571429","510.2857142857143","朋友","草率","Negative","ability","","","","","","","","","","",""
"566","","j","psychophysics","23","174104","0.0-7.0-3.0-0.9","6","5","7","5","5","5","4","4","2","5","5","2","1","1","-2","-1","1","2","1","5","4","5","5","5","4","4","2","4","4","4","6","7","7","3","7","6","4","7","5","5","6","6","5","1","3","1","6","6","1","6","1","6","3","2","5","5","6","5","6","2","5","3","2","2","5","2","7","3","6","3","2","3","1","3","3","2","2","3","2","653013422224441344","苏","356","Male","[""坏他"",""坏我"",""好我"",""好他""]","[""弱他"",""弱我"",""强我"",""强他""]","","","","","","","","no","","","","","","","","","SRET","EW_formal","","key","j","16.669892473118153","822.8571428571429","510.2857142857143","朋友","小人","Negative","morality","","","","","","","","","","",""
"539","","j","psychophysics","24","175644","0.0-7.0-3.0-0.10","6","5","7","5","5","5","4","4","2","5","5","2","1","1","-2","-1","1","2","1","5","4","5","5","5","4","4","2","4","4","4","6","7","7","3","7","6","4","7","5","5","6","6","5","1","3","1","6","6","1","6","1","6","3","2","5","5","6","5","6","2","5","3","2","2","5","2","7","3","6","3","2","3","1","3","3","2","2","3","2","653013422224441344","苏","356","Male","[""坏他"",""坏我"",""好我"",""好他""]","[""弱他"",""弱我"",""强我"",""强他""]","","","","","","","","no","","","","","","","","","SRET","EW_formal","","key","j","16.670652173912853","822.8571428571429","510.2857142857143","朋友","下流","Negative","morality","","","","","","","","","","",""
"662","","f","psychophysics","25","177308","0.0-7.0-3.0-0.11","6","5","7","5","5","5","4","4","2","5","5","2","1","1","-2","-1","1","2","1","5","4","5","5","5","4","4","2","4","4","4","6","7","7","3","7","6","4","7","5","5","6","6","5","1","3","1","6","6","1","6","1","6","3","2","5","5","6","5","6","2","5","3","2","2","5","2","7","3","6","3","2","3","1","3","3","2","2","3","2","653013422224441344","苏","356","Male","[""坏他"",""坏我"",""好我"",""好他""]","[""弱他"",""弱我"",""强我"",""强他""]","","","","","","","","yes","","","","","","","","","SRET","EW_formal","","key","f","16.664285714285775","822.8571428571429","510.2857142857143","自己","忠良","Positive","morality","","","","","","","","","","",""
"441","","j","psychophysics","26","178752","0.0-7.0-3.0-0.12","6","5","7","5","5","5","4","4","2","5","5","2","1","1","-2","-1","1","2","1","5","4","5","5","5","4","4","2","4","4","4","6","7","7","3","7","6","4","7","5","5","6","6","5","1","3","1","6","6","1","6","1","6","3","2","5","5","6","5","6","2","5","3","2","2","5","2","7","3","6","3","2","3","1","3","3","2","2","3","2","653013422224441344","苏","356","Male","[""坏他"",""坏我"",""好我"",""好他""]","[""弱他"",""弱我"",""强我"",""强他""]","","","","","","","","no","","","","","","","","","SRET","EW_formal","","key","j","16.669767441860195","822.8571428571429","510.2857142857143","自己","奸险","Negative","morality","","","","","","","","","","",""
"960","","f","psychophysics","27","180712","0.0-7.0-3.0-0.13","6","5","7","5","5","5","4","4","2","5","5","2","1","1","-2","-1","1","2","1","5","4","5","5","5","4","4","2","4","4","4","6","7","7","3","7","6","4","7","5","5","6","6","5","1","3","1","6","6","1","6","1","6","3","2","5","5","6","5","6","2","5","3","2","2","5","2","7","3","6","3","2","3","1","3","3","2","2","3","2","653013422224441344","苏","356","Male","[""坏他"",""坏我"",""好我"",""好他""]","[""弱他"",""弱我"",""强我"",""强他""]","","","","","","","","yes","","","","","","","","","SRET","EW_formal","","key","f","16.666666666666668","822.8571428571429","510.2857142857143","自己","独断","Negative","ability","","","","","","","","","","",""
"894","","f","psychophysics","28","182607","0.0-7.0-3.0-0.14","6","5","7","5","5","5","4","4","2","5","5","2","1","1","-2","-1","1","2","1","5","4","5","5","5","4","4","2","4","4","4","6","7","7","3","7","6","4","7","5","5","6","6","5","1","3","1","6","6","1","6","1","6","3","2","5","5","6","5","6","2","5","3","2","2","5","2","7","3","6","3","2","3","1","3","3","2","2","3","2","653013422224441344","苏","356","Male","[""坏他"",""坏我"",""好我"",""好他""]","[""弱他"",""弱我"",""强我"",""强他""]","","","","","","","","yes","","","","","","","","","SRET","EW_formal","","key","f","16.66607142857148","822.8571428571429","510.2857142857143","自己","干练","Positive","ability","","","","","","","","","","",""
"1135","","f","psychophysics","29","184743","0.0-7.0-3.0-0.15","6","5","7","5","5","5","4","4","2","5","5","2","1","1","-2","-1","1","2","1","5","4","5","5","5","4","4","2","4","4","4","6","7","7","3","7","6","4","7","5","5","6","6","5","1","3","1","6","6","1","6","1","6","3","2","5","5","6","5","6","2","5","3","2","2","5","2","7","3","6","3","2","3","1","3","3","2","2","3","2","653013422224441344","苏","356","Male","[""坏他"",""坏我"",""好我"",""好他""]","[""弱他"",""弱我"",""强我"",""强他""]","","","","","","","","yes","","","","","","","","","SRET","EW_formal","","key","f","16.66796875","822.8571428571429","510.2857142857143","朋友","变通","Positive","ability","","","","","","","","","","",""
"813","","j","psychophysics","30","186557","0.0-7.0-3.0-0.16","6","5","7","5","5","5","4","4","2","5","5","2","1","1","-2","-1","1","2","1","5","4","5","5","5","4","4","2","4","4","4","6","7","7","3","7","6","4","7","5","5","6","6","5","1","3","1","6","6","1","6","1","6","3","2","5","5","6","5","6","2","5","3","2","2","5","2","7","3","6","3","2","3","1","3","3","2","2","3","2","653013422224441344","苏","356","Male","[""坏他"",""坏我"",""好我"",""好他""]","[""弱他"",""弱我"",""强我"",""强他""]","","","","","","","","no","","","","","","","","","SRET","EW_formal","","key","j","16.667289719626115","822.8571428571429","510.2857142857143","自己","怠惰","Negative","ability","","","","","","","","","","",""
"1089","","j","psychophysics","31","188647","0.0-7.0-3.0-0.17","6","5","7","5","5","5","4","4","2","5","5","2","1","1","-2","-1","1","2","1","5","4","5","5","5","4","4","2","4","4","4","6","7","7","3","7","6","4","7","5","5","6","6","5","1","3","1","6","6","1","6","1","6","3","2","5","5","6","5","6","2","5","3","2","2","5","2","7","3","6","3","2","3","1","3","3","2","2","3","2","653013422224441344","苏","356","Male","[""坏他"",""坏我"",""好我"",""好他""]","[""弱他"",""弱我"",""强我"",""强他""]","","","","","","","","no","","","","","","","","","SRET","EW_formal","","key","j","16.668","822.8571428571429","510.2857142857143","自己","屈才","Negative","ability","","","","","","","","","","",""
"754","","j","psychophysics","32","190402","0.0-7.0-3.0-0.18","6","5","7","5","5","5","4","4","2","5","5","2","1","1","-2","-1","1","2","1","5","4","5","5","5","4","4","2","4","4","4","6","7","7","3","7","6","4","7","5","5","6","6","5","1","3","1","6","6","1","6","1","6","3","2","5","5","6","5","6","2","5","3","2","2","5","2","7","3","6","3","2","3","1","3","3","2","2","3","2","653013422224441344","苏","356","Male","[""坏他"",""坏我"",""好我"",""好他""]","[""弱他"",""弱我"",""强我"",""强他""]","","","","","","","","no","","","","","","","","","SRET","EW_formal","","key","j","16.666346153846323","822.8571428571429","510.2857142857143","朋友","卑鄙","Negative","morality","","","","","","","","","","",""
"643","","j","psychophysics","33","192046","0.0-7.0-3.0-0.19","6","5","7","5","5","5","4","4","2","5","5","2","1","1","-2","-1","1","2","1","5","4","5","5","5","4","4","2","4","4","4","6","7","7","3","7","6","4","7","5","5","6","6","5","1","3","1","6","6","1","6","1","6","3","2","5","5","6","5","6","2","5","3","2","2","5","2","7","3","6","3","2","3","1","3","3","2","2","3","2","653013422224441344","苏","356","Male","[""坏他"",""坏我"",""好我"",""好他""]","[""弱他"",""弱我"",""强我"",""强他""]","","","","","","","","no","","","","","","","","","SRET","EW_formal","","key","j","16.6693877551021","822.8571428571429","510.2857142857143","自己","贪腐","Negative","morality","","","","","","","","","","",""
"674","","j","psychophysics","34","193721","0.0-7.0-3.0-0.20","6","5","7","5","5","5","4","4","2","5","5","2","1","1","-2","-1","1","2","1","5","4","5","5","5","4","4","2","4","4","4","6","7","7","3","7","6","4","7","5","5","6","6","5","1","3","1","6","6","1","6","1","6","3","2","5","5","6","5","6","2","5","3","2","2","5","2","7","3","6","3","2","3","1","3","3","2","2","3","2","653013422224441344","苏","356","Male","[""坏他"",""坏我"",""好我"",""好他""]","[""弱他"",""弱我"",""强我"",""强他""]","","","","","","","","no","","","","","","","","","SRET","EW_formal","","key","j","16.66868686868669","822.8571428571429","510.2857142857143","自己","不仁","Negative","morality","","","","","","","","","","",""
"677","","j","psychophysics","35","195400","0.0-7.0-3.0-0.21","6","5","7","5","5","5","4","4","2","5","5","2","1","1","-2","-1","1","2","1","5","4","5","5","5","4","4","2","4","4","4","6","7","7","3","7","6","4","7","5","5","6","6","5","1","3","1","6","6","1","6","1","6","3","2","5","5","6","5","6","2","5","3","2","2","5","2","7","3","6","3","2","3","1","3","3","2","2","3","2","653013422224441344","苏","356","Male","[""坏他"",""坏我"",""好我"",""好他""]","[""弱他"",""弱我"",""强我"",""强他""]","","","","","","","","no","","","","","","","","","SRET","EW_formal","","key","j","16.66899999999994","822.8571428571429","510.2857142857143","自己","刻薄","Negative","morality","","","","","","","","","","",""
"694","","f","psychophysics","36","197095","0.0-7.0-3.0-0.22","6","5","7","5","5","5","4","4","2","5","5","2","1","1","-2","-1","1","2","1","5","4","5","5","5","4","4","2","4","4","4","6","7","7","3","7","6","4","7","5","5","6","6","5","1","3","1","6","6","1","6","1","6","3","2","5","5","6","5","6","2","5","3","2","2","5","2","7","3","6","3","2","3","1","3","3","2","2","3","2","653013422224441344","苏","356","Male","[""坏他"",""坏我"",""好我"",""好他""]","[""弱他"",""弱我"",""强我"",""强他""]","","","","","","","","yes","","","","","","","","","SRET","EW_formal","","key","f","16.66732673267321","822.8571428571429","510.2857142857143","自己","仁爱","Positive","morality","","","","","","","","","","",""
"752","","j","psychophysics","37","198849","0.0-7.0-3.0-0.23","6","5","7","5","5","5","4","4","2","5","5","2","1","1","-2","-1","1","2","1","5","4","5","5","5","4","4","2","4","4","4","6","7","7","3","7","6","4","7","5","5","6","6","5","1","3","1","6","6","1","6","1","6","3","2","5","5","6","5","6","2","5","3","2","2","5","2","7","3","6","3","2","3","1","3","3","2","2","3","2","653013422224441344","苏","356","Male","[""坏他"",""坏我"",""好我"",""好他""]","[""弱他"",""弱我"",""强我"",""强他""]","","","","","","","","no","","","","","","","","","SRET","EW_formal","","key","j","16.667307692307915","822.8571428571429","510.2857142857143","自己","庸碌","Negative","ability","","","","","","","","","","",""
"695","","f","psychophysics","38","200544","0.0-7.0-3.0-0.24","6","5","7","5","5","5","4","4","2","5","5","2","1","1","-2","-1","1","2","1","5","4","5","5","5","4","4","2","4","4","4","6","7","7","3","7","6","4","7","5","5","6","6","5","1","3","1","6","6","1","6","1","6","3","2","5","5","6","5","6","2","5","3","2","2","5","2","7","3","6","3","2","3","1","3","3","2","2","3","2","653013422224441344","苏","356","Male","[""坏他"",""坏我"",""好我"",""好他""]","[""弱他"",""弱我"",""强我"",""强他""]","","","","","","","","yes","","","","","","","","","SRET","EW_formal","","key","f","16.66930693069313","822.8571428571429","510.2857142857143","自己","坦荡","Positive","morality","","","","","","","","","","",""
"889","","f","psychophysics","39","202434","0.0-7.0-3.0-0.25","6","5","7","5","5","5","4","4","2","5","5","2","1","1","-2","-1","1","2","1","5","4","5","5","5","4","4","2","4","4","4","6","7","7","3","7","6","4","7","5","5","6","6","5","1","3","1","6","6","1","6","1","6","3","2","5","5","6","5","6","2","5","3","2","2","5","2","7","3","6","3","2","3","1","3","3","2","2","3","2","653013422224441344","苏","356","Male","[""坏他"",""坏我"",""好我"",""好他""]","[""弱他"",""弱我"",""强我"",""强他""]","","","","","","","","yes","","","","","","","","","SRET","EW_formal","","key","f","16.665178571428573","822.8571428571429","510.2857142857143","朋友","淡泊","Positive","morality","","","","","","","","","","",""
"888","","j","psychophysics","40","204323","0.0-7.0-3.0-0.26","6","5","7","5","5","5","4","4","2","5","5","2","1","1","-2","-1","1","2","1","5","4","5","5","5","4","4","2","4","4","4","6","7","7","3","7","6","4","7","5","5","6","6","5","1","3","1","6","6","1","6","1","6","3","2","5","5","6","5","6","2","5","3","2","2","5","2","7","3","6","3","2","3","1","3","3","2","2","3","2","653013422224441344","苏","356","Male","[""坏他"",""坏我"",""好我"",""好他""]","[""弱他"",""弱我"",""强我"",""强他""]","","","","","","","","no","","","","","","","","","SRET","EW_formal","","key","j","16.667857142857297","822.8571428571429","510.2857142857143","自己","浅薄","Negative","ability","","","","","","","","","","",""
"789","","j","psychophysics","41","206113","0.0-7.0-3.0-0.27","6","5","7","5","5","5","4","4","2","5","5","2","1","1","-2","-1","1","2","1","5","4","5","5","5","4","4","2","4","4","4","6","7","7","3","7","6","4","7","5","5","6","6","5","1","3","1","6","6","1","6","1","6","3","2","5","5","6","5","6","2","5","3","2","2","5","2","7","3","6","3","2","3","1","3","3","2","2","3","2","653013422224441344","苏","356","Male","[""坏他"",""坏我"",""好我"",""好他""]","[""弱他"",""弱我"",""强我"",""强他""]","","","","","","","","no","","","","","","","","","SRET","EW_formal","","key","j","16.671028037383067","822.8571428571429","510.2857142857143","自己","愚痴","Negative","ability","","","","","","","","","","",""
"803","","f","psychophysics","42","207918","0.0-7.0-3.0-0.28","6","5","7","5","5","5","4","4","2","5","5","2","1","1","-2","-1","1","2","1","5","4","5","5","5","4","4","2","4","4","4","6","7","7","3","7","6","4","7","5","5","6","6","5","1","3","1","6","6","1","6","1","6","3","2","5","5","6","5","6","2","5","3","2","2","5","2","7","3","6","3","2","3","1","3","3","2","2","3","2","653013422224441344","苏","356","Male","[""坏他"",""坏我"",""好我"",""好他""]","[""弱他"",""弱我"",""强我"",""强他""]","","","","","","","","yes","","","","","","","","","SRET","EW_formal","","key","f","16.669158878504728","822.8571428571429","510.2857142857143","自己","骁勇","Positive","ability","","","","","","","","","","",""
"841","","j","psychophysics","43","209759","0.0-7.0-3.0-0.29","6","5","7","5","5","5","4","4","2","5","5","2","1","1","-2","-1","1","2","1","5","4","5","5","5","4","4","2","4","4","4","6","7","7","3","7","6","4","7","5","5","6","6","5","1","3","1","6","6","1","6","1","6","3","2","5","5","6","5","6","2","5","3","2","2","5","2","7","3","6","3","2","3","1","3","3","2","2","3","2","653013422224441344","苏","356","Male","[""坏他"",""坏我"",""好我"",""好他""]","[""弱他"",""弱我"",""强我"",""强他""]","","","","","","","","no","","","","","","","","","SRET","EW_formal","","key","j","16.66697247706406","822.8571428571429","510.2857142857143","自己","自私","Negative","morality","","","","","","","","","","",""
"677","","j","psychophysics","44","211443","0.0-7.0-3.0-0.30","6","5","7","5","5","5","4","4","2","5","5","2","1","1","-2","-1","1","2","1","5","4","5","5","5","4","4","2","4","4","4","6","7","7","3","7","6","4","7","5","5","6","6","5","1","3","1","6","6","1","6","1","6","3","2","5","5","6","5","6","2","5","3","2","2","5","2","7","3","6","3","2","3","1","3","3","2","2","3","2","653013422224441344","苏","356","Male","[""坏他"",""坏我"",""好我"",""好他""]","[""弱他"",""弱我"",""强我"",""强他""]","","","","","","","","no","","","","","","","","","SRET","EW_formal","","key","j","16.668000000000173","822.8571428571429","510.2857142857143","自己","恶劣","Negative","morality","","","","","","","","","","",""
"713","","j","psychophysics","45","213158","0.0-7.0-3.0-0.31","6","5","7","5","5","5","4","4","2","5","5","2","1","1","-2","-1","1","2","1","5","4","5","5","5","4","4","2","4","4","4","6","7","7","3","7","6","4","7","5","5","6","6","5","1","3","1","6","6","1","6","1","6","3","2","5","5","6","5","6","2","5","3","2","2","5","2","7","3","6","3","2","3","1","3","3","2","2","3","2","653013422224441344","苏","356","Male","[""坏他"",""坏我"",""好我"",""好他""]","[""弱他"",""弱我"",""强我"",""强他""]","","","","","","","","no","","","","","","","","","SRET","EW_formal","","key","j","16.667647058823587","822.8571428571429","510.2857142857143","自己","无为","Negative","ability","","","","","","","","","","",""
"787","","f","psychophysics","46","214946","0.0-7.0-3.0-0.32","6","5","7","5","5","5","4","4","2","5","5","2","1","1","-2","-1","1","2","1","5","4","5","5","5","4","4","2","4","4","4","6","7","7","3","7","6","4","7","5","5","6","6","5","1","3","1","6","6","1","6","1","6","3","2","5","5","6","5","6","2","5","3","2","2","5","2","7","3","6","3","2","3","1","3","3","2","2","3","2","653013422224441344","苏","356","Male","[""坏他"",""坏我"",""好我"",""好他""]","[""弱他"",""弱我"",""强我"",""强他""]","","","","","","","","yes","","","","","","","","","SRET","EW_formal","","key","f","16.66822429906542","822.8571428571429","510.2857142857143","自己","沉着","Positive","ability","","","","","","","","","","",""
"1079","","f","psychophysics","47","217028","0.0-7.0-3.0-0.33","6","5","7","5","5","5","4","4","2","5","5","2","1","1","-2","-1","1","2","1","5","4","5","5","5","4","4","2","4","4","4","6","7","7","3","7","6","4","7","5","5","6","6","5","1","3","1","6","6","1","6","1","6","3","2","5","5","6","5","6","2","5","3","2","2","5","2","7","3","6","3","2","3","1","3","3","2","2","3","2","653013422224441344","苏","356","Male","[""坏他"",""坏我"",""好我"",""好他""]","[""弱他"",""弱我"",""强我"",""强他""]","","","","","","","","yes","","","","","","","","","SRET","EW_formal","","key","f","16.66693548387106","822.8571428571429","510.2857142857143","自己","勤奋","Positive","ability","","","","","","","","","","",""
"1967","","f","psychophysics","48","219996","0.0-7.0-3.0-0.34","6","5","7","5","5","5","4","4","2","5","5","2","1","1","-2","-1","1","2","1","5","4","5","5","5","4","4","2","4","4","4","6","7","7","3","7","6","4","7","5","5","6","6","5","1","3","1","6","6","1","6","1","6","3","2","5","5","6","5","6","2","5","3","2","2","5","2","7","3","6","3","2","3","1","3","3","2","2","3","2","653013422224441344","苏","356","Male","[""坏他"",""坏我"",""好我"",""好他""]","[""弱他"",""弱我"",""强我"",""强他""]","","","","","","","","yes","","","","","","","","","SRET","EW_formal","","key","f","16.667231638418112","822.8571428571429","510.2857142857143","朋友","善良","Positive","morality","","","","","","","","","","",""
"544","","j","psychophysics","49","221540","0.0-7.0-3.0-0.35","6","5","7","5","5","5","4","4","2","5","5","2","1","1","-2","-1","1","2","1","5","4","5","5","5","4","4","2","4","4","4","6","7","7","3","7","6","4","7","5","5","6","6","5","1","3","1","6","6","1","6","1","6","3","2","5","5","6","5","6","2","5","3","2","2","5","2","7","3","6","3","2","3","1","3","3","2","2","3","2","653013422224441344","苏","356","Male","[""坏他"",""坏我"",""好我"",""好他""]","[""弱他"",""弱我"",""强我"",""强他""]","","","","","","","","no","","","","","","","","","SRET","EW_formal","","key","j","16.66813186813206","822.8571428571429","510.2857142857143","朋友","愚钝","Negative","ability","","","","","","","","","","",""
"668","","j","psychophysics","50","223209","0.0-7.0-3.0-0.36","6","5","7","5","5","5","4","4","2","5","5","2","1","1","-2","-1","1","2","1","5","4","5","5","5","4","4","2","4","4","4","6","7","7","3","7","6","4","7","5","5","6","6","5","1","3","1","6","6","1","6","1","6","3","2","5","5","6","5","6","2","5","3","2","2","5","2","7","3","6","3","2","3","1","3","3","2","2","3","2","653013422224441344","苏","356","Male","[""坏他"",""坏我"",""好我"",""好他""]","[""弱他"",""弱我"",""强我"",""强他""]","","","","","","","","no","","","","","","","","","SRET","EW_formal","","key","j","16.66565656565651","822.8571428571429","510.2857142857143","朋友","迂拙","Negative","ability","","","","","","","","","","",""
"783","","f","psychophysics","51","224994","0.0-7.0-3.0-0.37","6","5","7","5","5","5","4","4","2","5","5","2","1","1","-2","-1","1","2","1","5","4","5","5","5","4","4","2","4","4","4","6","7","7","3","7","6","4","7","5","5","6","6","5","1","3","1","6","6","1","6","1","6","3","2","5","5","6","5","6","2","5","3","2","2","5","2","7","3","6","3","2","3","1","3","3","2","2","3","2","653013422224441344","苏","356","Male","[""坏他"",""坏我"",""好我"",""好他""]","[""弱他"",""弱我"",""强我"",""强他""]","","","","","","","","yes","","","","","","","","","SRET","EW_formal","","key","f","16.665420560747773","822.8571428571429","510.2857142857143","自己","宽容","Positive","morality","","","","","","","","","","",""
"659","","f","psychophysics","52","226653","0.0-7.0-3.0-0.38","6","5","7","5","5","5","4","4","2","5","5","2","1","1","-2","-1","1","2","1","5","4","5","5","5","4","4","2","4","4","4","6","7","7","3","7","6","4","7","5","5","6","6","5","1","3","1","6","6","1","6","1","6","3","2","5","5","6","5","6","2","5","3","2","2","5","2","7","3","6","3","2","3","1","3","3","2","2","3","2","653013422224441344","苏","356","Male","[""坏他"",""坏我"",""好我"",""好他""]","[""弱他"",""弱我"",""强我"",""强他""]","","","","","","","","yes","","","","","","","","","SRET","EW_formal","","key","f","16.6653061224491","822.8571428571429","510.2857142857143","自己","刚正","Positive","morality","","","","","","","","","","",""
"785","","f","psychophysics","53","228439","0.0-7.0-3.0-0.39","6","5","7","5","5","5","4","4","2","5","5","2","1","1","-2","-1","1","2","1","5","4","5","5","5","4","4","2","4","4","4","6","7","7","3","7","6","4","7","5","5","6","6","5","1","3","1","6","6","1","6","1","6","3","2","5","5","6","5","6","2","5","3","2","2","5","2","7","3","6","3","2","3","1","3","3","2","2","3","2","653013422224441344","苏","356","Male","[""坏他"",""坏我"",""好我"",""好他""]","[""弱他"",""弱我"",""强我"",""强他""]","","","","","","","","yes","","","","","","","","","SRET","EW_formal","","key","f","16.669811320754718","822.8571428571429","510.2857142857143","自己","博识","Positive","ability","","","","","","","","","","",""
"623","","j","psychophysics","54","230063","0.0-7.0-3.0-0.40","6","5","7","5","5","5","4","4","2","5","5","2","1","1","-2","-1","1","2","1","5","4","5","5","5","4","4","2","4","4","4","6","7","7","3","7","6","4","7","5","5","6","6","5","1","3","1","6","6","1","6","1","6","3","2","5","5","6","5","6","2","5","3","2","2","5","2","7","3","6","3","2","3","1","3","3","2","2","3","2","653013422224441344","苏","356","Male","[""坏他"",""坏我"",""好我"",""好他""]","[""弱他"",""弱我"",""强我"",""强他""]","","","","","","","","no","","","","","","","","","SRET","EW_formal","","key","j","16.669072164948393","822.8571428571429","510.2857142857143","朋友","拙笨","Negative","ability","","","","","","","","","","",""
"1238","","j","psychophysics","55","232303","0.0-7.0-3.0-0.41","6","5","7","5","5","5","4","4","2","5","5","2","1","1","-2","-1","1","2","1","5","4","5","5","5","4","4","2","4","4","4","6","7","7","3","7","6","4","7","5","5","6","6","5","1","3","1","6","6","1","6","1","6","3","2","5","5","6","5","6","2","5","3","2","2","5","2","7","3","6","3","2","3","1","3","3","2","2","3","2","653013422224441344","苏","356","Male","[""坏他"",""坏我"",""好我"",""好他""]","[""弱他"",""弱我"",""强我"",""强他""]","","","","","","","","no","","","","","","","","","SRET","EW_formal","","key","j","16.665413533834588","822.8571428571429","510.2857142857143","朋友","中用","Positive","ability","","","","","","","","","","",""
"643","","f","psychophysics","56","233947","0.0-7.0-3.0-0.42","6","5","7","5","5","5","4","4","2","5","5","2","1","1","-2","-1","1","2","1","5","4","5","5","5","4","4","2","4","4","4","6","7","7","3","7","6","4","7","5","5","6","6","5","1","3","1","6","6","1","6","1","6","3","2","5","5","6","5","6","2","5","3","2","2","5","2","7","3","6","3","2","3","1","3","3","2","2","3","2","653013422224441344","苏","356","Male","[""坏他"",""坏我"",""好我"",""好他""]","[""弱他"",""弱我"",""强我"",""强他""]","","","","","","","","yes","","","","","","","","","SRET","EW_formal","","key","f","16.668367346938776","822.8571428571429","510.2857142857143","自己","坚持","Positive","ability","","","","","","","","","","",""
"779","","f","psychophysics","57","235727","0.0-7.0-3.0-0.43","6","5","7","5","5","5","4","4","2","5","5","2","1","1","-2","-1","1","2","1","5","4","5","5","5","4","4","2","4","4","4","6","7","7","3","7","6","4","7","5","5","6","6","5","1","3","1","6","6","1","6","1","6","3","2","5","5","6","5","6","2","5","3","2","2","5","2","7","3","6","3","2","3","1","3","3","2","2","3","2","653013422224441344","苏","356","Male","[""坏他"",""坏我"",""好我"",""好他""]","[""弱他"",""弱我"",""强我"",""强他""]","","","","","","","","yes","","","","","","","","","SRET","EW_formal","","key","f","16.66792452830178","822.8571428571429","510.2857142857143","自己","廉正","Positive","morality","","","","","","","","","","",""
"1173","","f","psychophysics","58","237902","0.0-7.0-3.0-0.44","6","5","7","5","5","5","4","4","2","5","5","2","1","1","-2","-1","1","2","1","5","4","5","5","5","4","4","2","4","4","4","6","7","7","3","7","6","4","7","5","5","6","6","5","1","3","1","6","6","1","6","1","6","3","2","5","5","6","5","6","2","5","3","2","2","5","2","7","3","6","3","2","3","1","3","3","2","2","3","2","653013422224441344","苏","356","Male","[""坏他"",""坏我"",""好我"",""好他""]","[""弱他"",""弱我"",""强我"",""强他""]","","","","","","","","yes","","","","","","","","","SRET","EW_formal","","key","f","16.6658914728684","822.8571428571429","510.2857142857143","朋友","逞强","Negative","ability","","","","","","","","","","",""
"1035","","f","psychophysics","59","239938","0.0-7.0-3.0-0.45","6","5","7","5","5","5","4","4","2","5","5","2","1","1","-2","-1","1","2","1","5","4","5","5","5","4","4","2","4","4","4","6","7","7","3","7","6","4","7","5","5","6","6","5","1","3","1","6","6","1","6","1","6","3","2","5","5","6","5","6","2","5","3","2","2","5","2","7","3","6","3","2","3","1","3","3","2","2","3","2","653013422224441344","苏","356","Male","[""坏他"",""坏我"",""好我"",""好他""]","[""弱他"",""弱我"",""强我"",""强他""]","","","","","","","","yes","","","","","","","","","SRET","EW_formal","","key","f","16.667768595041228","822.8571428571429","510.2857142857143","朋友","无敌","Positive","ability","","","","","","","","","","",""
"738","","f","psychophysics","60","241678","0.0-7.0-3.0-0.46","6","5","7","5","5","5","4","4","2","5","5","2","1","1","-2","-1","1","2","1","5","4","5","5","5","4","4","2","4","4","4","6","7","7","3","7","6","4","7","5","5","6","6","5","1","3","1","6","6","1","6","1","6","3","2","5","5","6","5","6","2","5","3","2","2","5","2","7","3","6","3","2","3","1","3","3","2","2","3","2","653013422224441344","苏","356","Male","[""坏他"",""坏我"",""好我"",""好他""]","[""弱他"",""弱我"",""强我"",""强他""]","","","","","","","","yes","","","","","","","","","SRET","EW_formal","","key","f","16.669230769230825","822.8571428571429","510.2857142857143","朋友","诚信","Positive","morality","","","","","","","","","","",""
"632","","f","psychophysics","61","243312","0.0-7.0-3.0-0.47","6","5","7","5","5","5","4","4","2","5","5","2","1","1","-2","-1","1","2","1","5","4","5","5","5","4","4","2","4","4","4","6","7","7","3","7","6","4","7","5","5","6","6","5","1","3","1","6","6","1","6","1","6","3","2","5","5","6","5","6","2","5","3","2","2","5","2","7","3","6","3","2","3","1","3","3","2","2","3","2","653013422224441344","苏","356","Male","[""坏他"",""坏我"",""好我"",""好他""]","[""弱他"",""弱我"",""强我"",""强他""]","","","","","","","","yes","","","","","","","","","SRET","EW_formal","","key","f","16.664948453608247","822.8571428571429","510.2857142857143","自己","慷慨","Positive","morality","","","","","","","","","","",""
"1175","","f","psychophysics","62","245488","0.0-7.0-3.0-0.48","6","5","7","5","5","5","4","4","2","5","5","2","1","1","-2","-1","1","2","1","5","4","5","5","5","4","4","2","4","4","4","6","7","7","3","7","6","4","7","5","5","6","6","5","1","3","1","6","6","1","6","1","6","3","2","5","5","6","5","6","2","5","3","2","2","5","2","7","3","6","3","2","3","1","3","3","2","2","3","2","653013422224441344","苏","356","Male","[""坏他"",""坏我"",""好我"",""好他""]","[""弱他"",""弱我"",""强我"",""强他""]","","","","","","","","yes","","","","","","","","","SRET","EW_formal","","key","f","16.66821705426343","822.8571428571429","510.2857142857143","朋友","懂行","Positive","ability","","","","","","","","","","",""
"838","","f","psychophysics","63","247328","0.0-7.0-3.0-0.49","6","5","7","5","5","5","4","4","2","5","5","2","1","1","-2","-1","1","2","1","5","4","5","5","5","4","4","2","4","4","4","6","7","7","3","7","6","4","7","5","5","6","6","5","1","3","1","6","6","1","6","1","6","3","2","5","5","6","5","6","2","5","3","2","2","5","2","7","3","6","3","2","3","1","3","3","2","2","3","2","653013422224441344","苏","356","Male","[""坏他"",""坏我"",""好我"",""好他""]","[""弱他"",""弱我"",""强我"",""强他""]","","","","","","","","yes","","","","","","","","","SRET","EW_formal","","key","f","16.667272727272675","822.8571428571429","510.2857142857143","自己","果断","Positive","ability","","","","","","","","","","",""
"929","","f","psychophysics","64","249259","0.0-7.0-3.0-0.50","6","5","7","5","5","5","4","4","2","5","5","2","1","1","-2","-1","1","2","1","5","4","5","5","5","4","4","2","4","4","4","6","7","7","3","7","6","4","7","5","5","6","6","5","1","3","1","6","6","1","6","1","6","3","2","5","5","6","5","6","2","5","3","2","2","5","2","7","3","6","3","2","3","1","3","3","2","2","3","2","653013422224441344","苏","356","Male","[""坏他"",""坏我"",""好我"",""好他""]","[""弱他"",""弱我"",""强我"",""强他""]","","","","","","","","yes","","","","","","","","","SRET","EW_formal","","key","f","16.667543859649175","822.8571428571429","510.2857142857143","自己","自律","Positive","ability","","","","","","","","","","",""
"676","","f","psychophysics","65","250937","0.0-7.0-3.0-0.51","6","5","7","5","5","5","4","4","2","5","5","2","1","1","-2","-1","1","2","1","5","4","5","5","5","4","4","2","4","4","4","6","7","7","3","7","6","4","7","5","5","6","6","5","1","3","1","6","6","1","6","1","6","3","2","5","5","6","5","6","2","5","3","2","2","5","2","7","3","6","3","2","3","1","3","3","2","2","3","2","653013422224441344","苏","356","Male","[""坏他"",""坏我"",""好我"",""好他""]","[""弱他"",""弱我"",""强我"",""强他""]","","","","","","","","yes","","","","","","","","","SRET","EW_formal","","key","f","16.66899999999994","822.8571428571429","510.2857142857143","朋友","独立","Positive","ability","","","","","","","","","","",""
"804","","j","psychophysics","66","252742","0.0-7.0-3.0-0.52","6","5","7","5","5","5","4","4","2","5","5","2","1","1","-2","-1","1","2","1","5","4","5","5","5","4","4","2","4","4","4","6","7","7","3","7","6","4","7","5","5","6","6","5","1","3","1","6","6","1","6","1","6","3","2","5","5","6","5","6","2","5","3","2","2","5","2","7","3","6","3","2","3","1","3","3","2","2","3","2","653013422224441344","苏","356","Male","[""坏他"",""坏我"",""好我"",""好他""]","[""弱他"",""弱我"",""强我"",""强他""]","","","","","","","","no","","","","","","","","","SRET","EW_formal","","key","j","16.66822429906542","822.8571428571429","510.2857142857143","朋友","无耻","Negative","morality","","","","","","","","","","",""
"527","","f","psychophysics","67","254281","0.0-7.0-3.0-0.53","6","5","7","5","5","5","4","4","2","5","5","2","1","1","-2","-1","1","2","1","5","4","5","5","5","4","4","2","4","4","4","6","7","7","3","7","6","4","7","5","5","6","6","5","1","3","1","6","6","1","6","1","6","3","2","5","5","6","5","6","2","5","3","2","2","5","2","7","3","6","3","2","3","1","3","3","2","2","3","2","653013422224441344","苏","356","Male","[""坏他"",""坏我"",""好我"",""好他""]","[""弱他"",""弱我"",""强我"",""强他""]","","","","","","","","yes","","","","","","","","","SRET","EW_formal","","key","f","16.66956521739137","822.8571428571429","510.2857142857143","自己","孝顺","Positive","morality","","","","","","","","","","",""
"579","","j","psychophysics","68","255860","0.0-7.0-3.0-0.54","6","5","7","5","5","5","4","4","2","5","5","2","1","1","-2","-1","1","2","1","5","4","5","5","5","4","4","2","4","4","4","6","7","7","3","7","6","4","7","5","5","6","6","5","1","3","1","6","6","1","6","1","6","3","2","5","5","6","5","6","2","5","3","2","2","5","2","7","3","6","3","2","3","1","3","3","2","2","3","2","653013422224441344","苏","356","Male","[""坏他"",""坏我"",""好我"",""好他""]","[""弱他"",""弱我"",""强我"",""强他""]","","","","","","","","no","","","","","","","","","SRET","EW_formal","","key","j","16.66914893617015","822.8571428571429","510.2857142857143","朋友","贪污","Negative","morality","","","","","","","","","","",""
"933","","j","psychophysics","69","257795","0.0-7.0-3.0-0.55","6","5","7","5","5","5","4","4","2","5","5","2","1","1","-2","-1","1","2","1","5","4","5","5","5","4","4","2","4","4","4","6","7","7","3","7","6","4","7","5","5","6","6","5","1","3","1","6","6","1","6","1","6","3","2","5","5","6","5","6","2","5","3","2","2","5","2","7","3","6","3","2","3","1","3","3","2","2","3","2","653013422224441344","苏","356","Male","[""坏他"",""坏我"",""好我"",""好他""]","[""弱他"",""弱我"",""强我"",""强他""]","","","","","","","","no","","","","","","","","","SRET","EW_formal","","key","j","16.666956521738978","822.8571428571429","510.2857142857143","朋友","短浅","Negative","ability","","","","","","","","","","",""
"833","","f","psychophysics","70","259630","0.0-7.0-3.0-0.56","6","5","7","5","5","5","4","4","2","5","5","2","1","1","-2","-1","1","2","1","5","4","5","5","5","4","4","2","4","4","4","6","7","7","3","7","6","4","7","5","5","6","6","5","1","3","1","6","6","1","6","1","6","3","2","5","5","6","5","6","2","5","3","2","2","5","2","7","3","6","3","2","3","1","3","3","2","2","3","2","653013422224441344","苏","356","Male","[""坏他"",""坏我"",""好我"",""好他""]","[""弱他"",""弱我"",""强我"",""强他""]","","","","","","","","yes","","","","","","","","","SRET","EW_formal","","key","f","16.66697247706406","822.8571428571429","510.2857142857143","朋友","娴熟","Positive","ability","","","","","","","","","","",""
"539","","f","psychophysics","71","261169","0.0-7.0-3.0-0.57","6","5","7","5","5","5","4","4","2","5","5","2","1","1","-2","-1","1","2","1","5","4","5","5","5","4","4","2","4","4","4","6","7","7","3","7","6","4","7","5","5","6","6","5","1","3","1","6","6","1","6","1","6","3","2","5","5","6","5","6","2","5","3","2","2","5","2","7","3","6","3","2","3","1","3","3","2","2","3","2","653013422224441344","苏","356","Male","[""坏他"",""坏我"",""好我"",""好他""]","[""弱他"",""弱我"",""强我"",""强他""]","","","","","","","","yes","","","","","","","","","SRET","EW_formal","","key","f","16.66813186813174","822.8571428571429","510.2857142857143","朋友","敏捷","Positive","ability","","","","","","","","","","",""
"828","","f","psychophysics","72","262999","0.0-7.0-3.0-0.58","6","5","7","5","5","5","4","4","2","5","5","2","1","1","-2","-1","1","2","1","5","4","5","5","5","4","4","2","4","4","4","6","7","7","3","7","6","4","7","5","5","6","6","5","1","3","1","6","6","1","6","1","6","3","2","5","5","6","5","6","2","5","3","2","2","5","2","7","3","6","3","2","3","1","3","3","2","2","3","2","653013422224441344","苏","356","Male","[""坏他"",""坏我"",""好我"",""好他""]","[""弱他"",""弱我"",""强我"",""强他""]","","","","","","","","yes","","","","","","","","","SRET","EW_formal","","key","f","16.668807339449756","822.8571428571429","510.2857142857143","朋友","热心","Positive","morality","","","","","","","","","","",""
"959","","j","psychophysics","73","264960","0.0-7.0-3.0-0.59","6","5","7","5","5","5","4","4","2","5","5","2","1","1","-2","-1","1","2","1","5","4","5","5","5","4","4","2","4","4","4","6","7","7","3","7","6","4","7","5","5","6","6","5","1","3","1","6","6","1","6","1","6","3","2","5","5","6","5","6","2","5","3","2","2","5","2","7","3","6","3","2","3","1","3","3","2","2","3","2","653013422224441344","苏","356","Male","[""坏他"",""坏我"",""好我"",""好他""]","[""弱他"",""弱我"",""强我"",""强他""]","","","","","","","","no","","","","","","","","","SRET","EW_formal","","key","j","16.664957264957167","822.8571428571429","510.2857142857143","朋友","逞能","Negative","ability","","","","","","","","","","",""
"869","","f","psychophysics","74","266829","0.0-7.0-3.0-0.60","6","5","7","5","5","5","4","4","2","5","5","2","1","1","-2","-1","1","2","1","5","4","5","5","5","4","4","2","4","4","4","6","7","7","3","7","6","4","7","5","5","6","6","5","1","3","1","6","6","1","6","1","6","3","2","5","5","6","5","6","2","5","3","2","2","5","2","7","3","6","3","2","3","1","3","3","2","2","3","2","653013422224441344","苏","356","Male","[""坏他"",""坏我"",""好我"",""好他""]","[""弱他"",""弱我"",""强我"",""强他""]","","","","","","","","yes","","","","","","","","","SRET","EW_formal","","key","f","16.666666666666668","822.8571428571429","510.2857142857143","朋友","肯干","Positive","ability","","","","","","","","","","",""
"864","","j","psychophysics","75","268694","0.0-7.0-3.0-0.61","6","5","7","5","5","5","4","4","2","5","5","2","1","1","-2","-1","1","2","1","5","4","5","5","5","4","4","2","4","4","4","6","7","7","3","7","6","4","7","5","5","6","6","5","1","3","1","6","6","1","6","1","6","3","2","5","5","6","5","6","2","5","3","2","2","5","2","7","3","6","3","2","3","1","3","3","2","2","3","2","653013422224441344","苏","356","Male","[""坏他"",""坏我"",""好我"",""好他""]","[""弱他"",""弱我"",""强我"",""强他""]","","","","","","","","no","","","","","","","","","SRET","EW_formal","","key","j","16.666666666666668","822.8571428571429","510.2857142857143","自己","无知","Negative","ability","","","","","","","","","","",""
"647","","f","psychophysics","76","270343","0.0-7.0-3.0-0.62","6","5","7","5","5","5","4","4","2","5","5","2","1","1","-2","-1","1","2","1","5","4","5","5","5","4","4","2","4","4","4","6","7","7","3","7","6","4","7","5","5","6","6","5","1","3","1","6","6","1","6","1","6","3","2","5","5","6","5","6","2","5","3","2","2","5","2","7","3","6","3","2","3","1","3","3","2","2","3","2","653013422224441344","苏","356","Male","[""坏他"",""坏我"",""好我"",""好他""]","[""弱他"",""弱我"",""强我"",""强他""]","","","","","","","","yes","","","","","","","","","SRET","EW_formal","","key","f","16.66428571428607","822.8571428571429","510.2857142857143","朋友","果决","Positive","ability","","","","","","","","","","",""
"730","","j","psychophysics","77","272073","0.0-7.0-3.0-0.63","6","5","7","5","5","5","4","4","2","5","5","2","1","1","-2","-1","1","2","1","5","4","5","5","5","4","4","2","4","4","4","6","7","7","3","7","6","4","7","5","5","6","6","5","1","3","1","6","6","1","6","1","6","3","2","5","5","6","5","6","2","5","3","2","2","5","2","7","3","6","3","2","3","1","3","3","2","2","3","2","653013422224441344","苏","356","Male","[""坏他"",""坏我"",""好我"",""好他""]","[""弱他"",""弱我"",""强我"",""强他""]","","","","","","","","no","","","","","","","","","SRET","EW_formal","","key","j","16.6647058823534","822.8571428571429","510.2857142857143","朋友","淫乱","Negative","morality","","","","","","","","","","",""
"653","","f","psychophysics","78","273727","0.0-7.0-3.0-0.64","6","5","7","5","5","5","4","4","2","5","5","2","1","1","-2","-1","1","2","1","5","4","5","5","5","4","4","2","4","4","4","6","7","7","3","7","6","4","7","5","5","6","6","5","1","3","1","6","6","1","6","1","6","3","2","5","5","6","5","6","2","5","3","2","2","5","2","7","3","6","3","2","3","1","3","3","2","2","3","2","653013422224441344","苏","356","Male","[""坏他"",""坏我"",""好我"",""好他""]","[""弱他"",""弱我"",""强我"",""强他""]","","","","","","","","yes","","","","","","","","","SRET","EW_formal","","key","f","16.66969696969685","822.8571428571429","510.2857142857143","自己","才尽","Negative","ability","","","","","","","","","","",""
"1439","","j","psychophysics","79","276168","0.0-7.0-3.0-0.65","6","5","7","5","5","5","4","4","2","5","5","2","1","1","-2","-1","1","2","1","5","4","5","5","5","4","4","2","4","4","4","6","7","7","3","7","6","4","7","5","5","6","6","5","1","3","1","6","6","1","6","1","6","3","2","5","5","6","5","6","2","5","3","2","2","5","2","7","3","6","3","2","3","1","3","3","2","2","3","2","653013422224441344","苏","356","Male","[""坏他"",""坏我"",""好我"",""好他""]","[""弱他"",""弱我"",""强我"",""强他""]","","","","","","","","no","","","","","","","","","SRET","EW_formal","","key","j","16.666206896551564","822.8571428571429","510.2857142857143","朋友","无能","Negative","ability","","","","","","","","","","",""
"754","","f","psychophysics","80","277923","0.0-7.0-3.0-0.66","6","5","7","5","5","5","4","4","2","5","5","2","1","1","-2","-1","1","2","1","5","4","5","5","5","4","4","2","4","4","4","6","7","7","3","7","6","4","7","5","5","6","6","5","1","3","1","6","6","1","6","1","6","3","2","5","5","6","5","6","2","5","3","2","2","5","2","7","3","6","3","2","3","1","3","3","2","2","3","2","653013422224441344","苏","356","Male","[""坏他"",""坏我"",""好我"",""好他""]","[""弱他"",""弱我"",""强我"",""强他""]","","","","","","","","yes","","","","","","","","","SRET","EW_formal","","key","f","16.669230769230545","822.8571428571429","510.2857142857143","自己","君子","Positive","morality","","","","","","","","","","",""
"580","","f","psychophysics","81","279505","0.0-7.0-3.0-0.67","6","5","7","5","5","5","4","4","2","5","5","2","1","1","-2","-1","1","2","1","5","4","5","5","5","4","4","2","4","4","4","6","7","7","3","7","6","4","7","5","5","6","6","5","1","3","1","6","6","1","6","1","6","3","2","5","5","6","5","6","2","5","3","2","2","5","2","7","3","6","3","2","3","1","3","3","2","2","3","2","653013422224441344","苏","356","Male","[""坏他"",""坏我"",""好我"",""好他""]","[""弱他"",""弱我"",""强我"",""强他""]","","","","","","","","yes","","","","","","","","","SRET","EW_formal","","key","f","16.66914893616984","822.8571428571429","510.2857142857143","朋友","文明","Positive","morality","","","","","","","","","","",""
"1980","","f","psychophysics","82","282486","0.0-7.0-3.0-0.68","6","5","7","5","5","5","4","4","2","5","5","2","1","1","-2","-1","1","2","1","5","4","5","5","5","4","4","2","4","4","4","6","7","7","3","7","6","4","7","5","5","6","6","5","1","3","1","6","6","1","6","1","6","3","2","5","5","6","5","6","2","5","3","2","2","5","2","7","3","6","3","2","3","1","3","3","2","2","3","2","653013422224441344","苏","356","Male","[""坏他"",""坏我"",""好我"",""好他""]","[""弱他"",""弱我"",""强我"",""强他""]","","","","","","","","yes","","","","","","","","","SRET","EW_formal","","key","f","16.667415730337012","822.8571428571429","510.2857142857143","自己","势利","Negative","morality","","","","","","","","","","",""
"1040","","f","psychophysics","83","284526","0.0-7.0-3.0-0.69","6","5","7","5","5","5","4","4","2","5","5","2","1","1","-2","-1","1","2","1","5","4","5","5","5","4","4","2","4","4","4","6","7","7","3","7","6","4","7","5","5","6","6","5","1","3","1","6","6","1","6","1","6","3","2","5","5","6","5","6","2","5","3","2","2","5","2","7","3","6","3","2","3","1","3","3","2","2","3","2","653013422224441344","苏","356","Male","[""坏他"",""坏我"",""好我"",""好他""]","[""弱他"",""弱我"",""强我"",""强他""]","","","","","","","","yes","","","","","","","","","SRET","EW_formal","","key","f","16.6655737704919","822.8571428571429","510.2857142857143","朋友","拖延","Negative","ability","","","","","","","","","","",""
"672","","f","psychophysics","84","286199","0.0-7.0-3.0-0.70","6","5","7","5","5","5","4","4","2","5","5","2","1","1","-2","-1","1","2","1","5","4","5","5","5","4","4","2","4","4","4","6","7","7","3","7","6","4","7","5","5","6","6","5","1","3","1","6","6","1","6","1","6","3","2","5","5","6","5","6","2","5","3","2","2","5","2","7","3","6","3","2","3","1","3","3","2","2","3","2","653013422224441344","苏","356","Male","[""坏他"",""坏我"",""好我"",""好他""]","[""弱他"",""弱我"",""强我"",""强他""]","","","","","","","","yes","","","","","","","","","SRET","EW_formal","","key","f","16.6656565656568","822.8571428571429","510.2857142857143","朋友","侠义","Positive","morality","","","","","","","","","","",""
"667","","f","psychophysics","85","287869","0.0-7.0-3.0-0.71","6","5","7","5","5","5","4","4","2","5","5","2","1","1","-2","-1","1","2","1","5","4","5","5","5","4","4","2","4","4","4","6","7","7","3","7","6","4","7","5","5","6","6","5","1","3","1","6","6","1","6","1","6","3","2","5","5","6","5","6","2","5","3","2","2","5","2","7","3","6","3","2","3","1","3","3","2","2","3","2","653013422224441344","苏","356","Male","[""坏他"",""坏我"",""好我"",""好他""]","[""弱他"",""弱我"",""强我"",""强他""]","","","","","","","","yes","","","","","","","","","SRET","EW_formal","","key","f","16.66969696969744","822.8571428571429","510.2857142857143","朋友","礼貌","Positive","morality","","","","","","","","","","",""
"704","","j","psychophysics","86","289574","0.0-7.0-3.0-0.72","6","5","7","5","5","5","4","4","2","5","5","2","1","1","-2","-1","1","2","1","5","4","5","5","5","4","4","2","4","4","4","6","7","7","3","7","6","4","7","5","5","6","6","5","1","3","1","6","6","1","6","1","6","3","2","5","5","6","5","6","2","5","3","2","2","5","2","7","3","6","3","2","3","1","3","3","2","2","3","2","653013422224441344","苏","356","Male","[""坏他"",""坏我"",""好我"",""好他""]","[""弱他"",""弱我"",""强我"",""强他""]","","","","","","","","no","","","","","","","","","SRET","EW_formal","","key","j","16.667326732672922","822.8571428571429","510.2857142857143","自己","伪善","Negative","morality","","","","","","","","","","",""
"648","","f","psychophysics","87","291224","0.0-7.0-3.0-0.73","6","5","7","5","5","5","4","4","2","5","5","2","1","1","-2","-1","1","2","1","5","4","5","5","5","4","4","2","4","4","4","6","7","7","3","7","6","4","7","5","5","6","6","5","1","3","1","6","6","1","6","1","6","3","2","5","5","6","5","6","2","5","3","2","2","5","2","7","3","6","3","2","3","1","3","3","2","2","3","2","653013422224441344","苏","356","Male","[""坏他"",""坏我"",""好我"",""好他""]","[""弱他"",""弱我"",""强我"",""强他""]","","","","","","","","yes","","","","","","","","","SRET","EW_formal","","key","f","16.6693877551024","822.8571428571429","510.2857142857143","朋友","守信","Positive","morality","","","","","","","","","","",""
"1098","","j","psychophysics","88","293323","0.0-7.0-3.0-0.74","6","5","7","5","5","5","4","4","2","5","5","2","1","1","-2","-1","1","2","1","5","4","5","5","5","4","4","2","4","4","4","6","7","7","3","7","6","4","7","5","5","6","6","5","1","3","1","6","6","1","6","1","6","3","2","5","5","6","5","6","2","5","3","2","2","5","2","7","3","6","3","2","3","1","3","3","2","2","3","2","653013422224441344","苏","356","Male","[""坏他"",""坏我"",""好我"",""好他""]","[""弱他"",""弱我"",""强我"",""强他""]","","","","","","","","no","","","","","","","","","SRET","EW_formal","","key","j","16.668799999999813","822.8571428571429","510.2857142857143","朋友","不端","Negative","morality","","","","","","","","","","",""
"722","","f","psychophysics","89","295048","0.0-7.0-3.0-0.75","6","5","7","5","5","5","4","4","2","5","5","2","1","1","-2","-1","1","2","1","5","4","5","5","5","4","4","2","4","4","4","6","7","7","3","7","6","4","7","5","5","6","6","5","1","3","1","6","6","1","6","1","6","3","2","5","5","6","5","6","2","5","3","2","2","5","2","7","3","6","3","2","3","1","3","3","2","2","3","2","653013422224441344","苏","356","Male","[""坏他"",""坏我"",""好我"",""好他""]","[""弱他"",""弱我"",""强我"",""强他""]","","","","","","","","yes","","","","","","","","","SRET","EW_formal","","key","f","16.66990291262136","822.8571428571429","510.2857142857143","自己","博学","Positive","ability","","","","","","","","","","",""
"955","","j","psychophysics","90","297004","0.0-7.0-3.0-0.76","6","5","7","5","5","5","4","4","2","5","5","2","1","1","-2","-1","1","2","1","5","4","5","5","5","4","4","2","4","4","4","6","7","7","3","7","6","4","7","5","5","6","6","5","1","3","1","6","6","1","6","1","6","3","2","5","5","6","5","6","2","5","3","2","2","5","2","7","3","6","3","2","3","1","3","3","2","2","3","2","653013422224441344","苏","356","Male","[""坏他"",""坏我"",""好我"",""好他""]","[""弱他"",""弱我"",""强我"",""强他""]","","","","","","","","no","","","","","","","","","SRET","EW_formal","","key","j","16.667241379310546","822.8571428571429","510.2857142857143","朋友","背叛","Negative","morality","","","","","","","","","","",""
"612","","j","psychophysics","91","298618","0.0-7.0-3.0-0.77","6","5","7","5","5","5","4","4","2","5","5","2","1","1","-2","-1","1","2","1","5","4","5","5","5","4","4","2","4","4","4","6","7","7","3","7","6","4","7","5","5","6","6","5","1","3","1","6","6","1","6","1","6","3","2","5","5","6","5","6","2","5","3","2","2","5","2","7","3","6","3","2","3","1","3","3","2","2","3","2","653013422224441344","苏","356","Male","[""坏他"",""坏我"",""好我"",""好他""]","[""弱他"",""弱我"",""强我"",""强他""]","","","","","","","","no","","","","","","","","","SRET","EW_formal","","key","j","16.670833333333576","822.8571428571429","510.2857142857143","朋友","歹毒","Negative","morality","","","","","","","","","","",""
"648","","j","psychophysics","92","300266","0.0-7.0-3.0-0.78","6","5","7","5","5","5","4","4","2","5","5","2","1","1","-2","-1","1","2","1","5","4","5","5","5","4","4","2","4","4","4","6","7","7","3","7","6","4","7","5","5","6","6","5","1","3","1","6","6","1","6","1","6","3","2","5","5","6","5","6","2","5","3","2","2","5","2","7","3","6","3","2","3","1","3","3","2","2","3","2","653013422224441344","苏","356","Male","[""坏他"",""坏我"",""好我"",""好他""]","[""弱他"",""弱我"",""强我"",""强他""]","","","","","","","","no","","","","","","","","","SRET","EW_formal","","key","j","16.668367346938776","822.8571428571429","510.2857142857143","自己","诡诈","Negative","morality","","","","","","","","","","",""
"774","","f","psychophysics","93","302042","0.0-7.0-3.0-0.79","6","5","7","5","5","5","4","4","2","5","5","2","1","1","-2","-1","1","2","1","5","4","5","5","5","4","4","2","4","4","4","6","7","7","3","7","6","4","7","5","5","6","6","5","1","3","1","6","6","1","6","1","6","3","2","5","5","6","5","6","2","5","3","2","2","5","2","7","3","6","3","2","3","1","3","3","2","2","3","2","653013422224441344","苏","356","Male","[""坏他"",""坏我"",""好我"",""好他""]","[""弱他"",""弱我"",""强我"",""强他""]","","","","","","","","yes","","","","","","","","","SRET","EW_formal","","key","f","16.667619047618825","822.8571428571429","510.2857142857143","自己","高效","Positive","ability","","","","","","","","","","",""
"483","","f","psychophysics","94","303526","0.0-7.0-3.0-0.80","6","5","7","5","5","5","4","4","2","5","5","2","1","1","-2","-1","1","2","1","5","4","5","5","5","4","4","2","4","4","4","6","7","7","3","7","6","4","7","5","5","6","6","5","1","3","1","6","6","1","6","1","6","3","2","5","5","6","5","6","2","5","3","2","2","5","2","7","3","6","3","2","3","1","3","3","2","2","3","2","653013422224441344","苏","356","Male","[""坏他"",""坏我"",""好我"",""好他""]","[""弱他"",""弱我"",""强我"",""强他""]","","","","","","","","yes","","","","","","","","","SRET","EW_formal","","key","f","16.66629213483133","822.8571428571429","510.2857142857143","自己","义气","Positive","morality","","","","","","","","","","",""
"632","","j","psychophysics","95","305160","0.0-7.0-3.0-0.81","6","5","7","5","5","5","4","4","2","5","5","2","1","1","-2","-1","1","2","1","5","4","5","5","5","4","4","2","4","4","4","6","7","7","3","7","6","4","7","5","5","6","6","5","1","3","1","6","6","1","6","1","6","3","2","5","5","6","5","6","2","5","3","2","2","5","2","7","3","6","3","2","3","1","3","3","2","2","3","2","653013422224441344","苏","356","Male","[""坏他"",""坏我"",""好我"",""好他""]","[""弱他"",""弱我"",""强我"",""强他""]","","","","","","","","no","","","","","","","","","SRET","EW_formal","","key","j","16.66597938144366","822.8571428571429","510.2857142857143","自己","低劣","Negative","morality","","","","","","","","","","",""
"874","","f","psychophysics","96","307035","0.0-7.0-3.0-0.82","6","5","7","5","5","5","4","4","2","5","5","2","1","1","-2","-1","1","2","1","5","4","5","5","5","4","4","2","4","4","4","6","7","7","3","7","6","4","7","5","5","6","6","5","1","3","1","6","6","1","6","1","6","3","2","5","5","6","5","6","2","5","3","2","2","5","2","7","3","6","3","2","3","1","3","3","2","2","3","2","653013422224441344","苏","356","Male","[""坏他"",""坏我"",""好我"",""好他""]","[""弱他"",""弱我"",""强我"",""强他""]","","","","","","","","yes","","","","","","","","","SRET","EW_formal","","key","f","16.665765765765975","822.8571428571429","510.2857142857143","朋友","周到","Positive","ability","","","","","","","","","","",""
"800","","j","psychophysics","97","308836","0.0-7.0-3.0-0.83","6","5","7","5","5","5","4","4","2","5","5","2","1","1","-2","-1","1","2","1","5","4","5","5","5","4","4","2","4","4","4","6","7","7","3","7","6","4","7","5","5","6","6","5","1","3","1","6","6","1","6","1","6","3","2","5","5","6","5","6","2","5","3","2","2","5","2","7","3","6","3","2","3","1","3","3","2","2","3","2","653013422224441344","苏","356","Male","[""坏他"",""坏我"",""好我"",""好他""]","[""弱他"",""弱我"",""强我"",""强他""]","","","","","","","","no","","","","","","","","","SRET","EW_formal","","key","j","16.666355140186806","822.8571428571429","510.2857142857143","自己","迟钝","Negative","ability","","","","","","","","","","",""
"610","","j","psychophysics","98","310449","0.0-7.0-3.0-0.84","6","5","7","5","5","5","4","4","2","5","5","2","1","1","-2","-1","1","2","1","5","4","5","5","5","4","4","2","4","4","4","6","7","7","3","7","6","4","7","5","5","6","6","5","1","3","1","6","6","1","6","1","6","3","2","5","5","6","5","6","2","5","3","2","2","5","2","7","3","6","3","2","3","1","3","3","2","2","3","2","653013422224441344","苏","356","Male","[""坏他"",""坏我"",""好我"",""好他""]","[""弱他"",""弱我"",""强我"",""强他""]","","","","","","","","no","","","","","","","","","SRET","EW_formal","","key","j","16.669791666666544","822.8571428571429","510.2857142857143","朋友","低俗","Negative","morality","","","","","","","","","","",""
"574","","f","psychophysics","99","312023","0.0-7.0-3.0-0.85","6","5","7","5","5","5","4","4","2","5","5","2","1","1","-2","-1","1","2","1","5","4","5","5","5","4","4","2","4","4","4","6","7","7","3","7","6","4","7","5","5","6","6","5","1","3","1","6","6","1","6","1","6","3","2","5","5","6","5","6","2","5","3","2","2","5","2","7","3","6","3","2","3","1","3","3","2","2","3","2","653013422224441344","苏","356","Male","[""坏他"",""坏我"",""好我"",""好他""]","[""弱他"",""弱我"",""强我"",""强他""]","","","","","","","","yes","","","","","","","","","SRET","EW_formal","","key","f","16.668817204300574","822.8571428571429","510.2857142857143","自己","主见","Positive","ability","","","","","","","","","","",""
"793","","f","psychophysics","100","313818","0.0-7.0-3.0-0.86","6","5","7","5","5","5","4","4","2","5","5","2","1","1","-2","-1","1","2","1","5","4","5","5","5","4","4","2","4","4","4","6","7","7","3","7","6","4","7","5","5","6","6","5","1","3","1","6","6","1","6","1","6","3","2","5","5","6","5","6","2","5","3","2","2","5","2","7","3","6","3","2","3","1","3","3","2","2","3","2","653013422224441344","苏","356","Male","[""坏他"",""坏我"",""好我"",""好他""]","[""弱他"",""弱我"",""强我"",""强他""]","","","","","","","","yes","","","","","","","","","SRET","EW_formal","","key","f","16.670093457944034","822.8571428571429","510.2857142857143","朋友","素养","Positive","morality","","","","","","","","","","",""
"673","","j","psychophysics","101","315492","0.0-7.0-3.0-0.87","6","5","7","5","5","5","4","4","2","5","5","2","1","1","-2","-1","1","2","1","5","4","5","5","5","4","4","2","4","4","4","6","7","7","3","7","6","4","7","5","5","6","6","5","1","3","1","6","6","1","6","1","6","3","2","5","5","6","5","6","2","5","3","2","2","5","2","7","3","6","3","2","3","1","3","3","2","2","3","2","653013422224441344","苏","356","Male","[""坏他"",""坏我"",""好我"",""好他""]","[""弱他"",""弱我"",""强我"",""强他""]","","","","","","","","no","","","","","","","","","SRET","EW_formal","","key","j","16.66600000000035","822.8571428571429","510.2857142857143","自己","缓慢","Negative","ability","","","","","","","","","","",""
"7530","
    <p><div style='color:white;font-size:35px; line-height:20px;'>计算任务</div></p><br>
    <p><div style='color:red;font-size:25px; line-height:20px;'>接下来，您将看到一些四则运算题，<b>请从键盘选择 0-9 进行反应。</b></div></p>
    <p><div style='color:red;font-size:25px; line-height:20px;'>请尽可能快地进行计算，计算的速度和正确率将影响报酬的发放。</div></p>
    <p><div class='footer' style='color:white;font-size:25px; line-height:20px;'>如果对本实验还有不清楚之处，请立即向实验员咨询。</p><p style='color:white;font-size:25px; line-height:20px;'>如果您明白了规则：</p><p style='color:white;font-size:22px; line-height:20px;'>请按 继续 进入练习</p>
    </div>
    ","0","html-button-response","102","323023","0.0-7.0-4.0","6","5","7","5","5","5","4","4","2","5","5","2","1","1","-2","-1","1","2","1","5","4","5","5","5","4","4","2","4","4","4","6","7","7","3","7","6","4","7","5","5","6","6","5","1","3","1","6","6","1","6","1","6","3","2","5","5","6","5","6","2","5","3","2","2","5","2","7","3","6","3","2","3","1","3","3","2","2","3","2","653013422224441344","苏","356","Male","[""坏他"",""坏我"",""好我"",""好他""]","[""弱他"",""弱我"",""强我"",""强他""]","","","","","","","","","","","","","","","","","SRET_math","math_instructions","Tue Jan 02 2024 21:00:03 GMT+0800 (中国标准时间)","","","","","","","","","","","","","","","","","","","",""
"2003","","0","psychophysics","103","325027","0.0-7.0-5.0-0.0","6","5","7","5","5","5","4","4","2","5","5","2","1","1","-2","-1","1","2","1","5","4","5","5","5","4","4","2","4","4","4","6","7","7","3","7","6","4","7","5","5","6","6","5","1","3","1","6","6","1","6","1","6","3","2","5","5","6","5","6","2","5","3","2","2","5","2","7","3","6","3","2","3","1","3","3","2","2","3","2","653013422224441344","苏","356","Male","[""坏他"",""坏我"",""好我"",""好他""]","[""弱他"",""弱我"",""强我"",""强他""]","","","","","","","","0","","","","","","","","","SRET","SRET_math_calculate","","key","0","16.664462809917065","822.8571428571429","510.2857142857143","","","","","9-9= ?","0","1","","","","","","","",""
"2201","","9","psychophysics","104","327233","0.0-7.0-5.0-0.1","6","5","7","5","5","5","4","4","2","5","5","2","1","1","-2","-1","1","2","1","5","4","5","5","5","4","4","2","4","4","4","6","7","7","3","7","6","4","7","5","5","6","6","5","1","3","1","6","6","1","6","1","6","3","2","5","5","6","5","6","2","5","3","2","2","5","2","7","3","6","3","2","3","1","3","3","2","2","3","2","653013422224441344","苏","356","Male","[""坏他"",""坏我"",""好我"",""好他""]","[""弱他"",""弱我"",""强我"",""强他""]","","","","","","","","9","","","","","","","","","SRET","SRET_math_calculate","","key","9","16.66793893129771","822.8571428571429","510.2857142857143","","","","","6+3= ?","9","1","","","","","","","",""
"1802","","8","psychophysics","105","329035","0.0-7.0-5.0-0.2","6","5","7","5","5","5","4","4","2","5","5","2","1","1","-2","-1","1","2","1","5","4","5","5","5","4","4","2","4","4","4","6","7","7","3","7","6","4","7","5","5","6","6","5","1","3","1","6","6","1","6","1","6","3","2","5","5","6","5","6","2","5","3","2","2","5","2","7","3","6","3","2","3","1","3","3","2","2","3","2","653013422224441344","苏","356","Male","[""坏他"",""坏我"",""好我"",""好他""]","[""弱他"",""弱我"",""强我"",""强他""]","","","","","","","","8","","","","","","","","","SRET","SRET_math_calculate","","key","8","16.666355140186806","822.8571428571429","510.2857142857143","","","","","2+6= ?","8","1","","","","","","","",""
"2244","","3","psychophysics","106","331284","0.0-7.0-5.0-0.3","6","5","7","5","5","5","4","4","2","5","5","2","1","1","-2","-1","1","2","1","5","4","5","5","5","4","4","2","4","4","4","6","7","7","3","7","6","4","7","5","5","6","6","5","1","3","1","6","6","1","6","1","6","3","2","5","5","6","5","6","2","5","3","2","2","5","2","7","3","6","3","2","3","1","3","3","2","2","3","2","653013422224441344","苏","356","Male","[""坏他"",""坏我"",""好我"",""好他""]","[""弱他"",""弱我"",""强我"",""强他""]","","","","","","","","3","","","","","","","","","SRET","SRET_math_calculate","","key","3","16.66865671641817","822.8571428571429","510.2857142857143","","","","","6/2= ?","3","1","","","","","","","",""
"2009","","7","psychophysics","107","333294","0.0-7.0-5.0-0.4","6","5","7","5","5","5","4","4","2","5","5","2","1","1","-2","-1","1","2","1","5","4","5","5","5","4","4","2","4","4","4","6","7","7","3","7","6","4","7","5","5","6","6","5","1","3","1","6","6","1","6","1","6","3","2","5","5","6","5","6","2","5","3","2","2","5","2","7","3","6","3","2","3","1","3","3","2","2","3","2","653013422224441344","苏","356","Male","[""坏他"",""坏我"",""好我"",""好他""]","[""弱他"",""弱我"",""强我"",""强他""]","","","","","","","","7","","","","","","","","","SRET","SRET_math_calculate","","key","7","16.66833333333343","822.8571428571429","510.2857142857143","","","","","12-5= ?","7","1","","","","","","","",""
"2292","","1","psychophysics","108","335591","0.0-7.0-5.0-0.5","6","5","7","5","5","5","4","4","2","5","5","2","1","1","-2","-1","1","2","1","5","4","5","5","5","4","4","2","4","4","4","6","7","7","3","7","6","4","7","5","5","6","6","5","1","3","1","6","6","1","6","1","6","3","2","5","5","6","5","6","2","5","3","2","2","5","2","7","3","6","3","2","3","1","3","3","2","2","3","2","653013422224441344","苏","356","Male","[""坏他"",""坏我"",""好我"",""好他""]","[""弱他"",""弱我"",""强我"",""强他""]","","","","","","","","1","","","","","","","","","SRET","SRET_math_calculate","","key","1","16.66691176470597","822.8571428571429","510.2857142857143","","","","","30-29= ?","1","1","","","","","","","",""
"2235","","7","psychophysics","109","337832","0.0-7.0-5.0-0.6","6","5","7","5","5","5","4","4","2","5","5","2","1","1","-2","-1","1","2","1","5","4","5","5","5","4","4","2","4","4","4","6","7","7","3","7","6","4","7","5","5","6","6","5","1","3","1","6","6","1","6","1","6","3","2","5","5","6","5","6","2","5","3","2","2","5","2","7","3","6","3","2","3","1","3","3","2","2","3","2","653013422224441344","苏","356","Male","[""坏他"",""坏我"",""好我"",""好他""]","[""弱他"",""弱我"",""强我"",""强他""]","","","","","","","","7","","","","","","","","","SRET","SRET_math_calculate","","key","7","16.667164179104653","822.8571428571429","510.2857142857143","","","","","2+5= ?","7","1","","","","","","","",""
"3639","","9","psychophysics","110","341471","0.0-7.0-5.0-0.7","6","5","7","5","5","5","4","4","2","5","5","2","1","1","-2","-1","1","2","1","5","4","5","5","5","4","4","2","4","4","4","6","7","7","3","7","6","4","7","5","5","6","6","5","1","3","1","6","6","1","6","1","6","3","2","5","5","6","5","6","2","5","3","2","2","5","2","7","3","6","3","2","3","1","3","3","2","2","3","2","653013422224441344","苏","356","Male","[""坏他"",""坏我"",""好我"",""好他""]","[""弱他"",""弱我"",""强我"",""强他""]","","","","","","","","9","","","","","","","","","SRET","SRET_math_calculate","","key","9","16.66682027649775","822.8571428571429","510.2857142857143","","","","","43-34= ?","9","1","","","","","","","",""
"3117","","8","psychophysics","111","344590","0.0-7.0-5.0-0.8","6","5","7","5","5","5","4","4","2","5","5","2","1","1","-2","-1","1","2","1","5","4","5","5","5","4","4","2","4","4","4","6","7","7","3","7","6","4","7","5","5","6","6","5","1","3","1","6","6","1","6","1","6","3","2","5","5","6","5","6","2","5","3","2","2","5","2","7","3","6","3","2","3","1","3","3","2","2","3","2","653013422224441344","苏","356","Male","[""坏他"",""坏我"",""好我"",""好他""]","[""弱他"",""弱我"",""强我"",""强他""]","","","","","","","","8","","","","","","","","","SRET","SRET_math_calculate","","key","8","16.66827956989241","822.8571428571429","510.2857142857143","","","","","2*4= ?","8","1","","","","","","","",""
"2140","","2","psychophysics","112","346731","0.0-7.0-5.0-0.9","6","5","7","5","5","5","4","4","2","5","5","2","1","1","-2","-1","1","2","1","5","4","5","5","5","4","4","2","4","4","4","6","7","7","3","7","6","4","7","5","5","6","6","5","1","3","1","6","6","1","6","1","6","3","2","5","5","6","5","6","2","5","3","2","2","5","2","7","3","6","3","2","3","1","3","3","2","2","3","2","653013422224441344","苏","356","Male","[""坏他"",""坏我"",""好我"",""好他""]","[""弱他"",""弱我"",""强我"",""强他""]","","","","","","","","2","","","","","","","","","SRET","SRET_math_calculate","","key","2","16.668749999999818","822.8571428571429","510.2857142857143","","","","","9/3= ?","3","0","","","","","","","",""
"1874","","7","psychophysics","113","348606","0.0-7.0-5.0-0.10","6","5","7","5","5","5","4","4","2","5","5","2","1","1","-2","-1","1","2","1","5","4","5","5","5","4","4","2","4","4","4","6","7","7","3","7","6","4","7","5","5","6","6","5","1","3","1","6","6","1","6","1","6","3","2","5","5","6","5","6","2","5","3","2","2","5","2","7","3","6","3","2","3","1","3","3","2","2","3","2","653013422224441344","苏","356","Male","[""坏他"",""坏我"",""好我"",""好他""]","[""弱他"",""弱我"",""强我"",""强他""]","","","","","","","","7","","","","","","","","","SRET","SRET_math_calculate","","key","7","16.668468468468575","822.8571428571429","510.2857142857143","","","","","5+2= ?","7","1","","","","","","","",""
"1987","","9","psychophysics","114","350593","0.0-7.0-5.0-0.11","6","5","7","5","5","5","4","4","2","5","5","2","1","1","-2","-1","1","2","1","5","4","5","5","5","4","4","2","4","4","4","6","7","7","3","7","6","4","7","5","5","6","6","5","1","3","1","6","6","1","6","1","6","3","2","5","5","6","5","6","2","5","3","2","2","5","2","7","3","6","3","2","3","1","3","3","2","2","3","2","653013422224441344","苏","356","Male","[""坏他"",""坏我"",""好我"",""好他""]","[""弱他"",""弱我"",""强我"",""强他""]","","","","","","","","9","","","","","","","","","SRET","SRET_math_calculate","","key","9","16.668907563025503","822.8571428571429","510.2857142857143","","","","","1+8= ?","9","1","","","","","","","",""
"1797","","2","psychophysics","115","352391","0.0-7.0-5.0-0.12","6","5","7","5","5","5","4","4","2","5","5","2","1","1","-2","-1","1","2","1","5","4","5","5","5","4","4","2","4","4","4","6","7","7","3","7","6","4","7","5","5","6","6","5","1","3","1","6","6","1","6","1","6","3","2","5","5","6","5","6","2","5","3","2","2","5","2","7","3","6","3","2","3","1","3","3","2","2","3","2","653013422224441344","苏","356","Male","[""坏他"",""坏我"",""好我"",""好他""]","[""弱他"",""弱我"",""强我"",""强他""]","","","","","","","","2","","","","","","","","","SRET","SRET_math_calculate","","key","2","16.666355140187353","822.8571428571429","510.2857142857143","","","","","8-6= ?","2","1","","","","","","","",""
"2282","","5","psychophysics","116","354678","0.0-7.0-5.0-0.13","6","5","7","5","5","5","4","4","2","5","5","2","1","1","-2","-1","1","2","1","5","4","5","5","5","4","4","2","4","4","4","6","7","7","3","7","6","4","7","5","5","6","6","5","1","3","1","6","6","1","6","1","6","3","2","5","5","6","5","6","2","5","3","2","2","5","2","7","3","6","3","2","3","1","3","3","2","2","3","2","653013422224441344","苏","356","Male","[""坏他"",""坏我"",""好我"",""好他""]","[""弱他"",""弱我"",""强我"",""强他""]","","","","","","","","5","","","","","","","","","SRET","SRET_math_calculate","","key","5","16.665441176470587","822.8571428571429","510.2857142857143","","","","","8-3= ? ","5","1","","","","","","","",""
"1754","","7","psychophysics","117","356432","0.0-7.0-5.0-0.14","6","5","7","5","5","5","4","4","2","5","5","2","1","1","-2","-1","1","2","1","5","4","5","5","5","4","4","2","4","4","4","6","7","7","3","7","6","4","7","5","5","6","6","5","1","3","1","6","6","1","6","1","6","3","2","5","5","6","5","6","2","5","3","2","2","5","2","7","3","6","3","2","3","1","3","3","2","2","3","2","653013422224441344","苏","356","Male","[""坏他"",""坏我"",""好我"",""好他""]","[""弱他"",""弱我"",""强我"",""强他""]","","","","","","","","7","","","","","","","","","SRET","SRET_math_calculate","","key","7","16.667307692307915","822.8571428571429","510.2857142857143","","","","","9-2= ?","7","1","","","","","","","",""
"2026","","2","psychophysics","118","358459","0.0-7.0-5.0-0.15","6","5","7","5","5","5","4","4","2","5","5","2","1","1","-2","-1","1","2","1","5","4","5","5","5","4","4","2","4","4","4","6","7","7","3","7","6","4","7","5","5","6","6","5","1","3","1","6","6","1","6","1","6","3","2","5","5","6","5","6","2","5","3","2","2","5","2","7","3","6","3","2","3","1","3","3","2","2","3","2","653013422224441344","苏","356","Male","[""坏他"",""坏我"",""好我"",""好他""]","[""弱他"",""弱我"",""强我"",""强他""]","","","","","","","","2","","","","","","","","","SRET","SRET_math_calculate","","key","2","16.666115702479146","822.8571428571429","510.2857142857143","","","","","22/11= ?","2","1","","","","","","","",""
"1830","","7","psychophysics","119","360293","0.0-7.0-5.0-0.16","6","5","7","5","5","5","4","4","2","5","5","2","1","1","-2","-1","1","2","1","5","4","5","5","5","4","4","2","4","4","4","6","7","7","3","7","6","4","7","5","5","6","6","5","1","3","1","6","6","1","6","1","6","3","2","5","5","6","5","6","2","5","3","2","2","5","2","7","3","6","3","2","3","1","3","3","2","2","3","2","653013422224441344","苏","356","Male","[""坏他"",""坏我"",""好我"",""好他""]","[""弱他"",""弱我"",""强我"",""强他""]","","","","","","","","7","","","","","","","","","SRET","SRET_math_calculate","","key","7","16.66605504587188","822.8571428571429","510.2857142857143","","","","","6+1= ?","7","1","","","","","","","",""
"2265","","4","psychophysics","120","362559","0.0-7.0-5.0-0.17","6","5","7","5","5","5","4","4","2","5","5","2","1","1","-2","-1","1","2","1","5","4","5","5","5","4","4","2","4","4","4","6","7","7","3","7","6","4","7","5","5","6","6","5","1","3","1","6","6","1","6","1","6","3","2","5","5","6","5","6","2","5","3","2","2","5","2","7","3","6","3","2","3","1","3","3","2","2","3","2","653013422224441344","苏","356","Male","[""坏他"",""坏我"",""好我"",""好他""]","[""弱他"",""弱我"",""强我"",""强他""]","","","","","","","","4","","","","","","","","","SRET","SRET_math_calculate","","key","4","16.667407407407666","822.8571428571429","510.2857142857143","","","","","20/5= ?","4","1","","","","","","","",""
"1789","","2","psychophysics","121","364349","0.0-7.0-5.0-0.18","6","5","7","5","5","5","4","4","2","5","5","2","1","1","-2","-1","1","2","1","5","4","5","5","5","4","4","2","4","4","4","6","7","7","3","7","6","4","7","5","5","6","6","5","1","3","1","6","6","1","6","1","6","3","2","5","5","6","5","6","2","5","3","2","2","5","2","7","3","6","3","2","3","1","3","3","2","2","3","2","653013422224441344","苏","356","Male","[""坏他"",""坏我"",""好我"",""好他""]","[""弱他"",""弱我"",""强我"",""强他""]","","","","","","","","2","","","","","","","","","SRET","SRET_math_calculate","","key","2","16.66509433962264","822.8571428571429","510.2857142857143","","","","","9-7= ?","2","1","","","","","","","",""
"2245","","2","psychophysics","122","366595","0.0-7.0-5.0-0.19","6","5","7","5","5","5","4","4","2","5","5","2","1","1","-2","-1","1","2","1","5","4","5","5","5","4","4","2","4","4","4","6","7","7","3","7","6","4","7","5","5","6","6","5","1","3","1","6","6","1","6","1","6","3","2","5","5","6","5","6","2","5","3","2","2","5","2","7","3","6","3","2","3","1","3","3","2","2","3","2","653013422224441344","苏","356","Male","[""坏他"",""坏我"",""好我"",""好他""]","[""弱他"",""弱我"",""强我"",""强他""]","","","","","","","","2","","","","","","","","","SRET","SRET_math_calculate","","key","2","16.668656716417736","822.8571428571429","510.2857142857143","","","","","18/9= ?","2","1","","","","","","","",""
"1724","","4","psychophysics","123","368320","0.0-7.0-5.0-0.20","6","5","7","5","5","5","4","4","2","5","5","2","1","1","-2","-1","1","2","1","5","4","5","5","5","4","4","2","4","4","4","6","7","7","3","7","6","4","7","5","5","6","6","5","1","3","1","6","6","1","6","1","6","3","2","5","5","6","5","6","2","5","3","2","2","5","2","7","3","6","3","2","3","1","3","3","2","2","3","2","653013422224441344","苏","356","Male","[""坏他"",""坏我"",""好我"",""好他""]","[""弱他"",""弱我"",""强我"",""强他""]","","","","","","","","4","","","","","","","","","SRET","SRET_math_calculate","","key","4","16.666666666666668","822.8571428571429","510.2857142857143","","","","","3+1= ?","4","1","","","","","","","",""
"1740","","1","psychophysics","124","370065","0.0-7.0-5.0-0.21","6","5","7","5","5","5","4","4","2","5","5","2","1","1","-2","-1","1","2","1","5","4","5","5","5","4","4","2","4","4","4","6","7","7","3","7","6","4","7","5","5","6","6","5","1","3","1","6","6","1","6","1","6","3","2","5","5","6","5","6","2","5","3","2","2","5","2","7","3","6","3","2","3","1","3","3","2","2","3","2","653013422224441344","苏","356","Male","[""坏他"",""坏我"",""好我"",""好他""]","[""弱他"",""弱我"",""强我"",""强他""]","","","","","","","","1","","","","","","","","","SRET","SRET_math_calculate","","key","1","16.67019230769242","822.8571428571429","510.2857142857143","","","","","9-8= ?","1","1","","","","","","","",""
"2030","","7","psychophysics","125","372096","0.0-7.0-5.0-0.22","6","5","7","5","5","5","4","4","2","5","5","2","1","1","-2","-1","1","2","1","5","4","5","5","5","4","4","2","4","4","4","6","7","7","3","7","6","4","7","5","5","6","6","5","1","3","1","6","6","1","6","1","6","3","2","5","5","6","5","6","2","5","3","2","2","5","2","7","3","6","3","2","3","1","3","3","2","2","3","2","653013422224441344","苏","356","Male","[""坏他"",""坏我"",""好我"",""好他""]","[""弱他"",""弱我"",""强我"",""强他""]","","","","","","","","7","","","","","","","","","SRET","SRET_math_calculate","","key","7","16.666115702479146","822.8571428571429","510.2857142857143","","","","","11-3= ?","8","0","","","","","","","",""
"2587","","6","psychophysics","126","374683","0.0-7.0-5.0-0.23","6","5","7","5","5","5","4","4","2","5","5","2","1","1","-2","-1","1","2","1","5","4","5","5","5","4","4","2","4","4","4","6","7","7","3","7","6","4","7","5","5","6","6","5","1","3","1","6","6","1","6","1","6","3","2","5","5","6","5","6","2","5","3","2","2","5","2","7","3","6","3","2","3","1","3","3","2","2","3","2","653013422224441344","苏","356","Male","[""坏他"",""坏我"",""好我"",""好他""]","[""弱他"",""弱我"",""强我"",""强他""]","","","","","","","","6","","","","","","","","","SRET","SRET_math_calculate","","key","6","16.666233766233994","822.8571428571429","510.2857142857143","","","","","2+4= ?","6","1","","","","","","","",""
"2441","","3","psychophysics","127","377125","0.0-7.0-5.0-0.24","6","5","7","5","5","5","4","4","2","5","5","2","1","1","-2","-1","1","2","1","5","4","5","5","5","4","4","2","4","4","4","6","7","7","3","7","6","4","7","5","5","6","6","5","1","3","1","6","6","1","6","1","6","3","2","5","5","6","5","6","2","5","3","2","2","5","2","7","3","6","3","2","3","1","3","3","2","2","3","2","653013422224441344","苏","356","Male","[""坏他"",""坏我"",""好我"",""好他""]","[""弱他"",""弱我"",""强我"",""强他""]","","","","","","","","3","","","","","","","","","SRET","SRET_math_calculate","","key","3","16.667123287670993","822.8571428571429","510.2857142857143","","","","","12/4= ?","3","1","","","","","","","",""
"1834","","7","psychophysics","128","378960","0.0-7.0-5.0-0.25","6","5","7","5","5","5","4","4","2","5","5","2","1","1","-2","-1","1","2","1","5","4","5","5","5","4","4","2","4","4","4","6","7","7","3","7","6","4","7","5","5","6","6","5","1","3","1","6","6","1","6","1","6","3","2","5","5","6","5","6","2","5","3","2","2","5","2","7","3","6","3","2","3","1","3","3","2","2","3","2","653013422224441344","苏","356","Male","[""坏他"",""坏我"",""好我"",""好他""]","[""弱他"",""弱我"",""强我"",""强他""]","","","","","","","","7","","","","","","","","","SRET","SRET_math_calculate","","key","7","16.666972477063794","822.8571428571429","510.2857142857143","","","","","1+6= ?","7","1","","","","","","","",""
"1730","","8","psychophysics","129","380694","0.0-7.0-5.0-0.26","6","5","7","5","5","5","4","4","2","5","5","2","1","1","-2","-1","1","2","1","5","4","5","5","5","4","4","2","4","4","4","6","7","7","3","7","6","4","7","5","5","6","6","5","1","3","1","6","6","1","6","1","6","3","2","5","5","6","5","6","2","5","3","2","2","5","2","7","3","6","3","2","3","1","3","3","2","2","3","2","653013422224441344","苏","356","Male","[""坏他"",""坏我"",""好我"",""好他""]","[""弱他"",""弱我"",""强我"",""强他""]","","","","","","","","8","","","","","","","","","SRET","SRET_math_calculate","","key","8","16.66504854368932","822.8571428571429","510.2857142857143","","","","","4+4= ?","8","1","","","","","","","",""
"3349","","8","psychophysics","130","384044","0.0-7.0-5.0-0.27","6","5","7","5","5","5","4","4","2","5","5","2","1","1","-2","-1","1","2","1","5","4","5","5","5","4","4","2","4","4","4","6","7","7","3","7","6","4","7","5","5","6","6","5","1","3","1","6","6","1","6","1","6","3","2","5","5","6","5","6","2","5","3","2","2","5","2","7","3","6","3","2","3","1","3","3","2","2","3","2","653013422224441344","苏","356","Male","[""坏他"",""坏我"",""好我"",""好他""]","[""弱他"",""弱我"",""强我"",""强他""]","","","","","","","","8","","","","","","","","","SRET","SRET_math_calculate","","key","8","16.6675","822.8571428571429","510.2857142857143","","","","","13-5= ?","8","1","","","","","","","",""
"2867","","8","psychophysics","131","386911","0.0-7.0-5.0-0.28","6","5","7","5","5","5","4","4","2","5","5","2","1","1","-2","-1","1","2","1","5","4","5","5","5","4","4","2","4","4","4","6","7","7","3","7","6","4","7","5","5","6","6","5","1","3","1","6","6","1","6","1","6","3","2","5","5","6","5","6","2","5","3","2","2","5","2","7","3","6","3","2","3","1","3","3","2","2","3","2","653013422224441344","苏","356","Male","[""坏他"",""坏我"",""好我"",""好他""]","[""弱他"",""弱我"",""强我"",""强他""]","","","","","","","","8","","","","","","","","","SRET","SRET_math_calculate","","key","8","16.666081871344826","822.8571428571429","510.2857142857143","","","","","72/9= ?","8","1","","","","","","","",""
"1664","","8","psychophysics","132","388576","0.0-7.0-5.0-0.29","6","5","7","5","5","5","4","4","2","5","5","2","1","1","-2","-1","1","2","1","5","4","5","5","5","4","4","2","4","4","4","6","7","7","3","7","6","4","7","5","5","6","6","5","1","3","1","6","6","1","6","1","6","3","2","5","5","6","5","6","2","5","3","2","2","5","2","7","3","6","3","2","3","1","3","3","2","2","3","2","653013422224441344","苏","356","Male","[""坏他"",""坏我"",""好我"",""好他""]","[""弱他"",""弱我"",""强我"",""强他""]","","","","","","","","8","","","","","","","","","SRET","SRET_math_calculate","","key","8","16.66969696969685","822.8571428571429","510.2857142857143","","","","","6+2= ?","8","1","","","","","","","",""
"1799","","8","psychophysics","133","390376","0.0-7.0-5.0-0.30","6","5","7","5","5","5","4","4","2","5","5","2","1","1","-2","-1","1","2","1","5","4","5","5","5","4","4","2","4","4","4","6","7","7","3","7","6","4","7","5","5","6","6","5","1","3","1","6","6","1","6","1","6","3","2","5","5","6","5","6","2","5","3","2","2","5","2","7","3","6","3","2","3","1","3","3","2","2","3","2","653013422224441344","苏","356","Male","[""坏他"",""坏我"",""好我"",""好他""]","[""弱他"",""弱我"",""强我"",""强他""]","","","","","","","","8","","","","","","","","","SRET","SRET_math_calculate","","key","8","16.669158878504998","822.8571428571429","510.2857142857143","","","","","50-42= ?","8","1","","","","","","","",""
"2075","","9","psychophysics","134","392452","0.0-7.0-5.0-0.31","6","5","7","5","5","5","4","4","2","5","5","2","1","1","-2","-1","1","2","1","5","4","5","5","5","4","4","2","4","4","4","6","7","7","3","7","6","4","7","5","5","6","6","5","1","3","1","6","6","1","6","1","6","3","2","5","5","6","5","6","2","5","3","2","2","5","2","7","3","6","3","2","3","1","3","3","2","2","3","2","653013422224441344","苏","356","Male","[""坏他"",""坏我"",""好我"",""好他""]","[""弱他"",""弱我"",""强我"",""强他""]","","","","","","","","9","","","","","","","","","SRET","SRET_math_calculate","","key","9","16.66747967479656","822.8571428571429","510.2857142857143","","","","","7*0= ?","0","0","","","","","","","",""
"2035","","9","psychophysics","135","394488","0.0-7.0-5.0-0.32","6","5","7","5","5","5","4","4","2","5","5","2","1","1","-2","-1","1","2","1","5","4","5","5","5","4","4","2","4","4","4","6","7","7","3","7","6","4","7","5","5","6","6","5","1","3","1","6","6","1","6","1","6","3","2","5","5","6","5","6","2","5","3","2","2","5","2","7","3","6","3","2","3","1","3","3","2","2","3","2","653013422224441344","苏","356","Male","[""坏他"",""坏我"",""好我"",""好他""]","[""弱他"",""弱我"",""强我"",""强他""]","","","","","","","","9","","","","","","","","","SRET","SRET_math_calculate","","key","9","16.668595041322025","822.8571428571429","510.2857142857143","","","","","8+1= ?","9","1","","","","","","","",""
"2806","","5","psychophysics","136","397295","0.0-7.0-5.0-0.33","6","5","7","5","5","5","4","4","2","5","5","2","1","1","-2","-1","1","2","1","5","4","5","5","5","4","4","2","4","4","4","6","7","7","3","7","6","4","7","5","5","6","6","5","1","3","1","6","6","1","6","1","6","3","2","5","5","6","5","6","2","5","3","2","2","5","2","7","3","6","3","2","3","1","3","3","2","2","3","2","653013422224441344","苏","356","Male","[""坏他"",""坏我"",""好我"",""好他""]","[""弱他"",""弱我"",""强我"",""强他""]","","","","","","","","5","","","","","","","","","SRET","SRET_math_calculate","","key","5","16.66904761904741","822.8571428571429","510.2857142857143","","","","","4+1= ?","5","1","","","","","","","",""
