"rt","stimulus","response","trial_type","trial_index","time_elapsed","internal_node_id","swb_1","swb_2","swb_3","swb_4","swb_5","LOT_1","LOT_2","LOT_3","LOT_4","LOT_5","LOT_6","IPC_1","IPC_2","IPC_3","IPC_4","IPC_5","IPC_6","IPC_7","IPC_8","MorIden_1","MorIden_2","MorIden_3","MorIden_4","MorIden_5","MorIden_6","MorIden_7","MorIden_8","MorIden_9","MorIden_10","moralSeImag_1","moralSeImag_2","moralSeImag_3","moralSeImag_4","moralSeImag_5","moralSeImag_6","moralSeImag_7","moralSeImag_8","moralSeImag_9","sde_1","sde_2","sde_3","sde_4","sde_5","sde_6","sde_7","sde_8","sde_9","sde_10","trap2","sde_11","sde_12","sde_13","sde_14","sde_15","sde_16","sde_17","sde_18","sde_19","sde_20","IM_1","IM_2","IM_3","IM_4","IM_5","IM_6","IM_7","IM_8","IM_9","IM_10","IM_11","IM_12","IM_13","IM_14","IM_15","IM_16","IM_17","IM_18","IM_19","IM_20","subj_idx","friend_name","ParticipantID","Sex","Word","Word2","value","success","timeout","failed_images","failed_audio","failed_video","user_agent","responses","item_order","radio_event_ids","radio_event_times","key_event_times","mouse_event_times","straightlining","zigzagging","honeypot","view_history","response_type","key_press","avg_frame_time","center_x","center_y","correct_response","correct","identity","Image","word","condition","task_id","screen_id","time_stamp","person","valence","domain","math","status","duration","question_order","trap2_item"
"4851","
   <p><div style='color:white; font-size: 25px'>您好，欢迎参加本次实验。</div></p>
   <p><div style='color:white; font-size: 25px'>为充分保障您的权利，请确保您已经知晓并同意《参与实验同意书》以及《数据公开知情同意书》。</div></p>
   <p><div style='color:white; font-size: 25px'>如果您未见过上述内容，请咨询实验员。</div></p>
   <p style='color:white; font-size: 25px'>如果您选择继续实验，则表示您已经清楚两份知情同意书的内容并同意。</p>
   <p><div style = ""color: pink;font-size:30px;"">请确保您记得day0的实验编号，您将在本次实验输入该编号，若您忘记，请咨询实验员后作答。</div></p>
   <p><div style = ""color:lightblue;font-size:25px;"">请您尽可能认真地作答，我们将依据您在各问卷和按键任务中的作答质量发放报酬。</div></p>
   <p> <div style = ""color: green""><按空格键至下页></div> </p>
   "," ","html-keyboard-response","0","4859","0.0-0.0","3","3","3","4","4","3","4","3","4","4","5","2","-1","-1","-2","-1","0","1","1","5","4","5","4","4","3","4","2","1","3","4","5","4","5","4","3","2","5","4","3","6","3","4","5","3","4","4","3","4","1","4","3","3","2","2","5","4","4","3","3","4","5","4","3","3","6","4","6","5","7","4","7","6","1","4","4","2","6","2","7","786940746056998913","林","628","Female","[""好我"",""坏她"",""坏我"",""好她""]","[""强我"",""弱她"",""弱我"",""强她""]","","","","","","","","","","","","","","","","","","","","","","","","","","","","","","","","","","","","","","",""
"","","","call-function","1","4865","0.0-1.0-0.0","3","3","3","4","4","3","4","3","4","4","5","2","-1","-1","-2","-1","0","1","1","5","4","5","4","4","3","4","2","1","3","4","5","4","5","4","3","2","5","4","3","6","3","4","5","3","4","4","3","4","1","4","3","3","2","2","5","4","4","3","3","4","5","4","3","3","6","4","6","5","7","4","7","6","1","4","4","2","6","2","7","786940746056998913","林","628","Female","[""好我"",""坏她"",""坏我"",""好她""]","[""强我"",""弱她"",""弱我"",""强她""]","","","","","","","","","","","","","","","","","","","","","","","","","","","","","","","","","","","","","","",""
"11380","","[{""name"":""Sex"",""value"":""1""},{""name"":""friend_name"",""value"":""林""},{""name"":""ParticipantID"",""value"":""628""}]","survey-html-form","2","16251","0.0-1.0-1.0","3","3","3","4","4","3","4","3","4","4","5","2","-1","-1","-2","-1","0","1","1","5","4","5","4","4","3","4","2","1","3","4","5","4","5","4","3","2","5","4","3","6","3","4","5","3","4","4","3","4","1","4","3","3","2","2","5","4","4","3","3","4","5","4","3","3","6","4","6","5","7","4","7","6","1","4","4","2","6","2","7","786940746056998913","林","628","Female","[""好我"",""坏她"",""坏我"",""好她""]","[""强我"",""弱她"",""弱我"",""强她""]","","","","","","","","","","","","","","","","","","","","","","","","","","","","","","","","","","","","","","",""
"","","","preload","3","16872","0.0-2.0","3","3","3","4","4","3","4","3","4","4","5","2","-1","-1","-2","-1","0","1","1","5","4","5","4","4","3","4","2","1","3","4","5","4","5","4","3","2","5","4","3","6","3","4","5","3","4","4","3","4","1","4","3","3","2","2","5","4","4","3","3","4","5","4","3","3","6","4","6","5","7","4","7","6","1","4","4","2","6","2","7","786940746056998913","林","628","Female","[""好我"",""坏她"",""坏我"",""好她""]","[""强我"",""弱她"",""弱我"",""强她""]","","true","false","[]","[]","[]","","","","","","","","","","","","","","","","","","","","","","","","","","","","","","","","",""
"","","","fullscreen","4","33389","0.0-3.0","3","3","3","4","4","3","4","3","4","4","5","2","-1","-1","-2","-1","0","1","1","5","4","5","4","4","3","4","2","1","3","4","5","4","5","4","3","2","5","4","3","6","3","4","5","3","4","4","3","4","1","4","3","3","2","2","5","4","4","3","3","4","5","4","3","3","6","4","6","5","7","4","7","6","1","4","4","2","6","2","7","786940746056998913","林","628","Female","[""好我"",""坏她"",""坏我"",""好她""]","[""强我"",""弱她"",""弱我"",""强她""]","","true","","","","","{}","","","","","","","","","","","","","","","","","","","","","","","","","","","","","","","",""
"19536","","{""Q01"":""3"",""Q02"":""3"",""Q03"":""3"",""Q04"":""4"",""Q05"":""4""}","survey-template","5","52931","0.0-4.0","3","3","3","4","4","3","4","3","4","4","5","2","-1","-1","-2","-1","0","1","1","5","4","5","4","4","3","4","2","1","3","4","5","4","5","4","3","2","5","4","3","6","3","4","5","3","4","4","3","4","1","4","3","3","2","2","5","4","4","3","3","4","5","4","3","3","6","4","6","5","7","4","7","6","1","4","4","2","6","2","7","786940746056998913","林","628","Female","[""好我"",""坏她"",""坏我"",""好她""]","[""强我"",""弱她"",""弱我"",""强她""]","","","","","","","","{""Q01"":""3"",""Q02"":""3"",""Q03"":""3"",""Q04"":""4"",""Q05"":""4""}","[0,1,2,3,4]","[""Q01"",""Q01"",""Q02"",""Q03"",""Q04"",""Q04"",""Q04"",""Q05""]","[4895.79999999702,5816.20000000298,7621.20000000298,8957.20000000298,10898.20000000298,13967,15388.09999999404,18157.59999999404]","[]","[4895.79999999702,5816.20000000298,7621.20000000298,8957.20000000298,10898.20000000298,13967,15388.09999999404,18157.59999999404,19534.09999999404]","0.6","0.25","0","","","","","","","","","","","","","","","","","","","","","","",""
"34276.5","","{""Q01"":""3"",""Q02"":""4"",""Q03"":""3"",""Q04"":""4"",""Q05"":""4"",""Q06"":""5""}","survey-template","6","87215","0.0-5.0","3","3","3","4","4","3","4","3","4","4","5","2","-1","-1","-2","-1","0","1","1","5","4","5","4","4","3","4","2","1","3","4","5","4","5","4","3","2","5","4","3","6","3","4","5","3","4","4","3","4","1","4","3","3","2","2","5","4","4","3","3","4","5","4","3","3","6","4","6","5","7","4","7","6","1","4","4","2","6","2","7","786940746056998913","林","628","Female","[""好我"",""坏她"",""坏我"",""好她""]","[""强我"",""弱她"",""弱我"",""强她""]","","","","","","","","{""Q01"":""3"",""Q02"":""4"",""Q03"":""3"",""Q04"":""4"",""Q05"":""4"",""Q06"":""5""}","[0,1,2,3,4,5]","[""Q01"",""Q01"",""Q01"",""Q02"",""Q02"",""Q03"",""Q04"",""Q05"",""Q06"",""Q06""]","[7098.399999991059,9571,10899.89999999106,15341.79999999702,17666.79999999702,20965.29999999702,26538.89999999106,29087.89999999106,32558.5,33423]","[]","[7098.399999991059,9571,10899.89999999106,15341.79999999702,17666.79999999702,20965.29999999702,25799.20000000298,26538.89999999106,28800.09999999404,29087.89999999106,32558.5,33174.20000000298,33423,34275.09999999404]","0.5","0.6","0","","","","","","","","","","","","","","","","","","","","","","",""
"26411.10000000894","","{""Q01"":""2"",""Q02"":""-1"",""Q03"":""-1"",""Q04"":""-2"",""Q05"":""-1"",""Q06"":""0"",""Q07"":""1"",""Q08"":""1""}","survey-template","7","113631","0.0-6.0","3","3","3","4","4","3","4","3","4","4","5","2","-1","-1","-2","-1","0","1","1","5","4","5","4","4","3","4","2","1","3","4","5","4","5","4","3","2","5","4","3","6","3","4","5","3","4","4","3","4","1","4","3","3","2","2","5","4","4","3","3","4","5","4","3","3","6","4","6","5","7","4","7","6","1","4","4","2","6","2","7","786940746056998913","林","628","Female","[""好我"",""坏她"",""坏我"",""好她""]","[""强我"",""弱她"",""弱我"",""强她""]","","","","","","","","{""Q01"":""2"",""Q02"":""-1"",""Q03"":""-1"",""Q04"":""-2"",""Q05"":""-1"",""Q06"":""0"",""Q07"":""1"",""Q08"":""1""}","[0,1,2,3,4,5,6,7]","[""Q01"",""Q02"",""Q03"",""Q04"",""Q04"",""Q05"",""Q06"",""Q07"",""Q07"",""Q08""]","[3919.1000000089407,6540.100000008941,8960.90000000596,11225.79999999702,12366.90000000596,14797,18765.90000000596,21739,22498.90000000596,25597]","[]","[3919.1000000089407,6540.100000008941,8960.90000000596,11225.79999999702,12366.90000000596,14797,18144.90000000596,18765.90000000596,21739,22498.90000000596,25597,26409.10000000894]","0.375","0.5714285714285714","0","","","","","","","","","","","","","","","","","","","","","","",""
"17785","","","instructions","8","131421","0.0-7.0","3","3","3","4","4","3","4","3","4","4","5","2","-1","-1","-2","-1","0","1","1","5","4","5","4","4","3","4","2","1","3","4","5","4","5","4","3","2","5","4","3","6","3","4","5","3","4","4","3","4","1","4","3","3","2","2","5","4","4","3","3","4","5","4","3","3","6","4","6","5","7","4","7","6","1","4","4","2","6","2","7","786940746056998913","林","628","Female","[""好我"",""坏她"",""坏我"",""好她""]","[""强我"",""弱她"",""弱我"",""强她""]","","","","","","","","","","","","","","","","","[{""page_index"":0,""viewing_time"":17785}]","","","","","","","","","","","","","","","","","","","","","",""
"30960","","","instructions","9","162383","0.0-8.0-0.0-0.0","3","3","3","4","4","3","4","3","4","4","5","2","-1","-1","-2","-1","0","1","1","5","4","5","4","4","3","4","2","1","3","4","5","4","5","4","3","2","5","4","3","6","3","4","5","3","4","4","3","4","1","4","3","3","2","2","5","4","4","3","3","4","5","4","3","3","6","4","6","5","7","4","7","6","1","4","4","2","6","2","7","786940746056998913","林","628","Female","[""好我"",""坏她"",""坏我"",""好她""]","[""强我"",""弱她"",""弱我"",""强她""]","","","","","","","","","","","","","","","","","[{""page_index"":0,""viewing_time"":9082},{""page_index"":1,""viewing_time"":14915},{""page_index"":2,""viewing_time"":5335},{""page_index"":3,""viewing_time"":1629}]","","","","","","","","","","","","","","","","","","","","","",""
"558","","f","psychophysics","10","163949","0.0-8.0-0.0-1.0-0.0-0.0","3","3","3","4","4","3","4","3","4","4","5","2","-1","-1","-2","-1","0","1","1","5","4","5","4","4","3","4","2","1","3","4","5","4","5","4","3","2","5","4","3","6","3","4","5","3","4","4","3","4","1","4","3","3","2","2","5","4","4","3","3","4","5","4","3","3","6","4","6","5","7","4","7","6","1","4","4","2","6","2","7","786940746056998913","林","628","Female","[""好我"",""坏她"",""坏我"",""好她""]","[""强我"",""弱她"",""弱我"",""强她""]","","","","","","","","match","","","","","","","","","","key","f","16.669402173912953","720","446","j","false","nonmatch","img/hexagon.png","好我","好她","prac_ALT2_moral","practice_moral","","","","","","","","",""
"null","<span style='color:red; font-size: 70px;'>错误! </span>","null","html-keyboard-response","11","164454","0.0-8.0-0.0-1.0-0.0-1.0","3","3","3","4","4","3","4","3","4","4","5","2","-1","-1","-2","-1","0","1","1","5","4","5","4","4","3","4","2","1","3","4","5","4","5","4","3","2","5","4","3","6","3","4","5","3","4","4","3","4","1","4","3","3","2","2","5","4","4","3","3","4","5","4","3","3","6","4","6","5","7","4","7","6","1","4","4","2","6","2","7","786940746056998913","林","628","Female","[""好我"",""坏她"",""坏我"",""好她""]","[""强我"",""弱她"",""弱我"",""强她""]","","","","","","","","","","","","","","","","","","","","","","","","","","","","","","feedback_test","","","","","","","","",""
"657","","j","psychophysics","12","166115","0.0-8.0-0.0-1.0-0.0-0.1","3","3","3","4","4","3","4","3","4","4","5","2","-1","-1","-2","-1","0","1","1","5","4","5","4","4","3","4","2","1","3","4","5","4","5","4","3","2","5","4","3","6","3","4","5","3","4","4","3","4","1","4","3","3","2","2","5","4","4","3","3","4","5","4","3","3","6","4","6","5","7","4","7","6","1","4","4","2","6","2","7","786940746056998913","林","628","Female","[""好我"",""坏她"",""坏我"",""好她""]","[""强我"",""弱她"",""弱我"",""强她""]","","","","","","","","nonmatch","","","","","","","","","","key","j","16.667306122448764","720","446","j","true","nonmatch","img/triangle.png","好我","坏我","prac_ALT2_moral","practice_moral","","","","","","","","",""
"null","<span style='color:GreenYellow; font-size: 70px;'>正确! </span>","null","html-keyboard-response","13","166619","0.0-8.0-0.0-1.0-0.0-1.1","3","3","3","4","4","3","4","3","4","4","5","2","-1","-1","-2","-1","0","1","1","5","4","5","4","4","3","4","2","1","3","4","5","4","5","4","3","2","5","4","3","6","3","4","5","3","4","4","3","4","1","4","3","3","2","2","5","4","4","3","3","4","5","4","3","3","6","4","6","5","7","4","7","6","1","4","4","2","6","2","7","786940746056998913","林","628","Female","[""好我"",""坏她"",""坏我"",""好她""]","[""强我"",""弱她"",""弱我"",""强她""]","","","","","","","","","","","","","","","","","","","","","","","","","","","","","","feedback_test","","","","","","","","",""
"731","","j","psychophysics","14","168354","0.0-8.0-0.0-1.0-0.0-0.2","3","3","3","4","4","3","4","3","4","4","5","2","-1","-1","-2","-1","0","1","1","5","4","5","4","4","3","4","2","1","3","4","5","4","5","4","3","2","5","4","3","6","3","4","5","3","4","4","3","4","1","4","3","3","2","2","5","4","4","3","3","4","5","4","3","3","6","4","6","5","7","4","7","6","1","4","4","2","6","2","7","786940746056998913","林","628","Female","[""好我"",""坏她"",""坏我"",""好她""]","[""强我"",""弱她"",""弱我"",""强她""]","","","","","","","","nonmatch","","","","","","","","","","key","j","16.66843689320376","720","446","j","true","nonmatch","img/trapezoid.png","好她","坏她","prac_ALT2_moral","practice_moral","","","","","","","","",""
"null","<span style='color:GreenYellow; font-size: 70px;'>正确! </span>","null","html-keyboard-response","15","168857","0.0-8.0-0.0-1.0-0.0-1.2","3","3","3","4","4","3","4","3","4","4","5","2","-1","-1","-2","-1","0","1","1","5","4","5","4","4","3","4","2","1","3","4","5","4","5","4","3","2","5","4","3","6","3","4","5","3","4","4","3","4","1","4","3","3","2","2","5","4","4","3","3","4","5","4","3","3","6","4","6","5","7","4","7","6","1","4","4","2","6","2","7","786940746056998913","林","628","Female","[""好我"",""坏她"",""坏我"",""好她""]","[""强我"",""弱她"",""弱我"",""强她""]","","","","","","","","","","","","","","","","","","","","","","","","","","","","","","feedback_test","","","","","","","","",""
"892","","f","psychophysics","16","170753","0.0-8.0-0.0-1.0-0.0-0.3","3","3","3","4","4","3","4","3","4","4","5","2","-1","-1","-2","-1","0","1","1","5","4","5","4","4","3","4","2","1","3","4","5","4","5","4","3","2","5","4","3","6","3","4","5","3","4","4","3","4","1","4","3","3","2","2","5","4","4","3","3","4","5","4","3","3","6","4","6","5","7","4","7","6","1","4","4","2","6","2","7","786940746056998913","林","628","Female","[""好我"",""坏她"",""坏我"",""好她""]","[""强我"",""弱她"",""弱我"",""强她""]","","","","","","","","match","","","","","","","","","","key","f","16.66761061946905","720","446","j","false","nonmatch","img/circle.png","坏她","好我","prac_ALT2_moral","practice_moral","","","","","","","","",""
"null","<span style='color:red; font-size: 70px;'>错误! </span>","null","html-keyboard-response","17","171255","0.0-8.0-0.0-1.0-0.0-1.3","3","3","3","4","4","3","4","3","4","4","5","2","-1","-1","-2","-1","0","1","1","5","4","5","4","4","3","4","2","1","3","4","5","4","5","4","3","2","5","4","3","6","3","4","5","3","4","4","3","4","1","4","3","3","2","2","5","4","4","3","3","4","5","4","3","3","6","4","6","5","7","4","7","6","1","4","4","2","6","2","7","786940746056998913","林","628","Female","[""好我"",""坏她"",""坏我"",""好她""]","[""强我"",""弱她"",""弱我"",""强她""]","","","","","","","","","","","","","","","","","","","","","","","","","","","","","","feedback_test","","","","","","","","",""
"993","","f","psychophysics","18","173253","0.0-8.0-0.0-1.0-0.0-0.4","3","3","3","4","4","3","4","3","4","4","5","2","-1","-1","-2","-1","0","1","1","5","4","5","4","4","3","4","2","1","3","4","5","4","5","4","3","2","5","4","3","6","3","4","5","3","4","4","3","4","1","4","3","3","2","2","5","4","4","3","3","4","5","4","3","3","6","4","6","5","7","4","7","6","1","4","4","2","6","2","7","786940746056998913","林","628","Female","[""好我"",""坏她"",""坏我"",""好她""]","[""强我"",""弱她"",""弱我"",""强她""]","","","","","","","","match","","","","","","","","","","key","f","16.668394957983352","720","446","f","true","match","img/triangle.png","坏我","坏我","prac_ALT2_moral","practice_moral","","","","","","","","",""
"null","<span style='color:GreenYellow; font-size: 70px;'>正确! </span>","null","html-keyboard-response","19","173756","0.0-8.0-0.0-1.0-0.0-1.4","3","3","3","4","4","3","4","3","4","4","5","2","-1","-1","-2","-1","0","1","1","5","4","5","4","4","3","4","2","1","3","4","5","4","5","4","3","2","5","4","3","6","3","4","5","3","4","4","3","4","1","4","3","3","2","2","5","4","4","3","3","4","5","4","3","3","6","4","6","5","7","4","7","6","1","4","4","2","6","2","7","786940746056998913","林","628","Female","[""好我"",""坏她"",""坏我"",""好她""]","[""强我"",""弱她"",""弱我"",""强她""]","","","","","","","","","","","","","","","","","","","","","","","","","","","","","","feedback_test","","","","","","","","",""
"867","","j","psychophysics","20","175626","0.0-8.0-0.0-1.0-0.0-0.5","3","3","3","4","4","3","4","3","4","4","5","2","-1","-1","-2","-1","0","1","1","5","4","5","4","4","3","4","2","1","3","4","5","4","5","4","3","2","5","4","3","6","3","4","5","3","4","4","3","4","1","4","3","3","2","2","5","4","4","3","3","4","5","4","3","3","6","4","6","5","7","4","7","6","1","4","4","2","6","2","7","786940746056998913","林","628","Female","[""好我"",""坏她"",""坏我"",""好她""]","[""强我"",""弱她"",""弱我"",""强她""]","","","","","","","","nonmatch","","","","","","","","","","key","j","16.668414414414574","720","446","j","true","nonmatch","img/trapezoid.png","好我","坏她","prac_ALT2_moral","practice_moral","","","","","","","","",""
"null","<span style='color:GreenYellow; font-size: 70px;'>正确! </span>","null","html-keyboard-response","21","176129","0.0-8.0-0.0-1.0-0.0-1.5","3","3","3","4","4","3","4","3","4","4","5","2","-1","-1","-2","-1","0","1","1","5","4","5","4","4","3","4","2","1","3","4","5","4","5","4","3","2","5","4","3","6","3","4","5","3","4","4","3","4","1","4","3","3","2","2","5","4","4","3","3","4","5","4","3","3","6","4","6","5","7","4","7","6","1","4","4","2","6","2","7","786940746056998913","林","628","Female","[""好我"",""坏她"",""坏我"",""好她""]","[""强我"",""弱她"",""弱我"",""强她""]","","","","","","","","","","","","","","","","","","","","","","","","","","","","","","feedback_test","","","","","","","","",""
"784","","j","psychophysics","22","177917","0.0-8.0-0.0-1.0-0.0-0.6","3","3","3","4","4","3","4","3","4","4","5","2","-1","-1","-2","-1","0","1","1","5","4","5","4","4","3","4","2","1","3","4","5","4","5","4","3","2","5","4","3","6","3","4","5","3","4","4","3","4","1","4","3","3","2","2","5","4","4","3","3","4","5","4","3","3","6","4","6","5","7","4","7","6","1","4","4","2","6","2","7","786940746056998913","林","628","Female","[""好我"",""坏她"",""坏我"",""好她""]","[""强我"",""弱她"",""弱我"",""强她""]","","","","","","","","nonmatch","","","","","","","","","","key","j","16.66211428571426","720","446","f","false","match","img/trapezoid.png","坏她","坏她","prac_ALT2_moral","practice_moral","","","","","","","","",""
"null","<span style='color:red; font-size: 70px;'>错误! </span>","null","html-keyboard-response","23","178422","0.0-8.0-0.0-1.0-0.0-1.6","3","3","3","4","4","3","4","3","4","4","5","2","-1","-1","-2","-1","0","1","1","5","4","5","4","4","3","4","2","1","3","4","5","4","5","4","3","2","5","4","3","6","3","4","5","3","4","4","3","4","1","4","3","3","2","2","5","4","4","3","3","4","5","4","3","3","6","4","6","5","7","4","7","6","1","4","4","2","6","2","7","786940746056998913","林","628","Female","[""好我"",""坏她"",""坏我"",""好她""]","[""强我"",""弱她"",""弱我"",""强她""]","","","","","","","","","","","","","","","","","","","","","","","","","","","","","","feedback_test","","","","","","","","",""
"746","","f","psychophysics","24","180170","0.0-8.0-0.0-1.0-0.0-0.7","3","3","3","4","4","3","4","3","4","4","5","2","-1","-1","-2","-1","0","1","1","5","4","5","4","4","3","4","2","1","3","4","5","4","5","4","3","2","5","4","3","6","3","4","5","3","4","4","3","4","1","4","3","3","2","2","5","4","4","3","3","4","5","4","3","3","6","4","6","5","7","4","7","6","1","4","4","2","6","2","7","786940746056998913","林","628","Female","[""好我"",""坏她"",""坏我"",""好她""]","[""强我"",""弱她"",""弱我"",""强她""]","","","","","","","","match","","","","","","","","","","key","f","16.66818269230778","720","446","f","true","match","img/hexagon.png","好她","好她","prac_ALT2_moral","practice_moral","","","","","","","","",""
"null","<span style='color:GreenYellow; font-size: 70px;'>正确! </span>","null","html-keyboard-response","25","180672","0.0-8.0-0.0-1.0-0.0-1.7","3","3","3","4","4","3","4","3","4","4","5","2","-1","-1","-2","-1","0","1","1","5","4","5","4","4","3","4","2","1","3","4","5","4","5","4","3","2","5","4","3","6","3","4","5","3","4","4","3","4","1","4","3","3","2","2","5","4","4","3","3","4","5","4","3","3","6","4","6","5","7","4","7","6","1","4","4","2","6","2","7","786940746056998913","林","628","Female","[""好我"",""坏她"",""坏我"",""好她""]","[""强我"",""弱她"",""弱我"",""强她""]","","","","","","","","","","","","","","","","","","","","","","","","","","","","","","feedback_test","","","","","","","","",""
"582","","f","psychophysics","26","182257","0.0-8.0-0.0-1.0-0.0-0.8","3","3","3","4","4","3","4","3","4","4","5","2","-1","-1","-2","-1","0","1","1","5","4","5","4","4","3","4","2","1","3","4","5","4","5","4","3","2","5","4","3","6","3","4","5","3","4","4","3","4","1","4","3","3","2","2","5","4","4","3","3","4","5","4","3","3","6","4","6","5","7","4","7","6","1","4","4","2","6","2","7","786940746056998913","林","628","Female","[""好我"",""坏她"",""坏我"",""好她""]","[""强我"",""弱她"",""弱我"",""强她""]","","","","","","","","match","","","","","","","","","","key","f","16.667265957446787","720","446","f","true","match","img/circle.png","好我","好我","prac_ALT2_moral","practice_moral","","","","","","","","",""
"null","<span style='color:GreenYellow; font-size: 70px;'>正确! </span>","null","html-keyboard-response","27","182758","0.0-8.0-0.0-1.0-0.0-1.8","3","3","3","4","4","3","4","3","4","4","5","2","-1","-1","-2","-1","0","1","1","5","4","5","4","4","3","4","2","1","3","4","5","4","5","4","3","2","5","4","3","6","3","4","5","3","4","4","3","4","1","4","3","3","2","2","5","4","4","3","3","4","5","4","3","3","6","4","6","5","7","4","7","6","1","4","4","2","6","2","7","786940746056998913","林","628","Female","[""好我"",""坏她"",""坏我"",""好她""]","[""强我"",""弱她"",""弱我"",""强她""]","","","","","","","","","","","","","","","","","","","","","","","","","","","","","","feedback_test","","","","","","","","",""
"944","","f","psychophysics","28","184705","0.0-8.0-0.0-1.0-0.0-0.9","3","3","3","4","4","3","4","3","4","4","5","2","-1","-1","-2","-1","0","1","1","5","4","5","4","4","3","4","2","1","3","4","5","4","5","4","3","2","5","4","3","6","3","4","5","3","4","4","3","4","1","4","3","3","2","2","5","4","4","3","3","4","5","4","3","3","6","4","6","5","7","4","7","6","1","4","4","2","6","2","7","786940746056998913","林","628","Female","[""好我"",""坏她"",""坏我"",""好她""]","[""强我"",""弱她"",""弱我"",""强她""]","","","","","","","","match","","","","","","","","","","key","f","16.668025862069044","720","446","j","false","nonmatch","img/triangle.png","坏她","坏我","prac_ALT2_moral","practice_moral","","","","","","","","",""
"null","<span style='color:red; font-size: 70px;'>错误! </span>","null","html-keyboard-response","29","185207","0.0-8.0-0.0-1.0-0.0-1.9","3","3","3","4","4","3","4","3","4","4","5","2","-1","-1","-2","-1","0","1","1","5","4","5","4","4","3","4","2","1","3","4","5","4","5","4","3","2","5","4","3","6","3","4","5","3","4","4","3","4","1","4","3","3","2","2","5","4","4","3","3","4","5","4","3","3","6","4","6","5","7","4","7","6","1","4","4","2","6","2","7","786940746056998913","林","628","Female","[""好我"",""坏她"",""坏我"",""好她""]","[""强我"",""弱她"",""弱我"",""强她""]","","","","","","","","","","","","","","","","","","","","","","","","","","","","","","feedback_test","","","","","","","","",""
"799","","f","psychophysics","30","187010","0.0-8.0-0.0-1.0-0.0-0.10","3","3","3","4","4","3","4","3","4","4","5","2","-1","-1","-2","-1","0","1","1","5","4","5","4","4","3","4","2","1","3","4","5","4","5","4","3","2","5","4","3","6","3","4","5","3","4","4","3","4","1","4","3","3","2","2","5","4","4","3","3","4","5","4","3","3","6","4","6","5","7","4","7","6","1","4","4","2","6","2","7","786940746056998913","林","628","Female","[""好我"",""坏她"",""坏我"",""好她""]","[""强我"",""弱她"",""弱我"",""强她""]","","","","","","","","match","","","","","","","","","","key","f","16.66852336448604","720","446","f","true","match","img/circle.png","好我","好我","prac_ALT2_moral","practice_moral","","","","","","","","",""
"null","<span style='color:GreenYellow; font-size: 70px;'>正确! </span>","null","html-keyboard-response","31","187513","0.0-8.0-0.0-1.0-0.0-1.10","3","3","3","4","4","3","4","3","4","4","5","2","-1","-1","-2","-1","0","1","1","5","4","5","4","4","3","4","2","1","3","4","5","4","5","4","3","2","5","4","3","6","3","4","5","3","4","4","3","4","1","4","3","3","2","2","5","4","4","3","3","4","5","4","3","3","6","4","6","5","7","4","7","6","1","4","4","2","6","2","7","786940746056998913","林","628","Female","[""好我"",""坏她"",""坏我"",""好她""]","[""强我"",""弱她"",""弱我"",""强她""]","","","","","","","","","","","","","","","","","","","","","","","","","","","","","","feedback_test","","","","","","","","",""
"744","","j","psychophysics","32","189260","0.0-8.0-0.0-1.0-0.0-0.11","3","3","3","4","4","3","4","3","4","4","5","2","-1","-1","-2","-1","0","1","1","5","4","5","4","4","3","4","2","1","3","4","5","4","5","4","3","2","5","4","3","6","3","4","5","3","4","4","3","4","1","4","3","3","2","2","5","4","4","3","3","4","5","4","3","3","6","4","6","5","7","4","7","6","1","4","4","2","6","2","7","786940746056998913","林","628","Female","[""好我"",""坏她"",""坏我"",""好她""]","[""强我"",""弱她"",""弱我"",""强她""]","","","","","","","","nonmatch","","","","","","","","","","key","j","16.663067961164785","720","446","j","true","nonmatch","img/triangle.png","好她","坏我","prac_ALT2_moral","practice_moral","","","","","","","","",""
"null","<span style='color:GreenYellow; font-size: 70px;'>正确! </span>","null","html-keyboard-response","33","189762","0.0-8.0-0.0-1.0-0.0-1.11","3","3","3","4","4","3","4","3","4","4","5","2","-1","-1","-2","-1","0","1","1","5","4","5","4","4","3","4","2","1","3","4","5","4","5","4","3","2","5","4","3","6","3","4","5","3","4","4","3","4","1","4","3","3","2","2","5","4","4","3","3","4","5","4","3","3","6","4","6","5","7","4","7","6","1","4","4","2","6","2","7","786940746056998913","林","628","Female","[""好我"",""坏她"",""坏我"",""好她""]","[""强我"",""弱她"",""弱我"",""强她""]","","","","","","","","","","","","","","","","","","","","","","","","","","","","","","feedback_test","","","","","","","","",""
"1180","","j","psychophysics","34","191945","0.0-8.0-0.0-1.0-0.0-0.12","3","3","3","4","4","3","4","3","4","4","5","2","-1","-1","-2","-1","0","1","1","5","4","5","4","4","3","4","2","1","3","4","5","4","5","4","3","2","5","4","3","6","3","4","5","3","4","4","3","4","1","4","3","3","2","2","5","4","4","3","3","4","5","4","3","3","6","4","6","5","7","4","7","6","1","4","4","2","6","2","7","786940746056998913","林","628","Female","[""好我"",""坏她"",""坏我"",""好她""]","[""强我"",""弱她"",""弱我"",""强她""]","","","","","","","","nonmatch","","","","","","","","","","key","j","16.66839999999994","720","446","f","false","match","img/triangle.png","坏我","坏我","prac_ALT2_moral","practice_moral","","","","","","","","",""
"null","<span style='color:red; font-size: 70px;'>错误! </span>","null","html-keyboard-response","35","192447","0.0-8.0-0.0-1.0-0.0-1.12","3","3","3","4","4","3","4","3","4","4","5","2","-1","-1","-2","-1","0","1","1","5","4","5","4","4","3","4","2","1","3","4","5","4","5","4","3","2","5","4","3","6","3","4","5","3","4","4","3","4","1","4","3","3","2","2","5","4","4","3","3","4","5","4","3","3","6","4","6","5","7","4","7","6","1","4","4","2","6","2","7","786940746056998913","林","628","Female","[""好我"",""坏她"",""坏我"",""好她""]","[""强我"",""弱她"",""弱我"",""强她""]","","","","","","","","","","","","","","","","","","","","","","","","","","","","","","feedback_test","","","","","","","","",""
"646","","f","psychophysics","36","194097","0.0-8.0-0.0-1.0-0.0-0.13","3","3","3","4","4","3","4","3","4","4","5","2","-1","-1","-2","-1","0","1","1","5","4","5","4","4","3","4","2","1","3","4","5","4","5","4","3","2","5","4","3","6","3","4","5","3","4","4","3","4","1","4","3","3","2","2","5","4","4","3","3","4","5","4","3","3","6","4","6","5","7","4","7","6","1","4","4","2","6","2","7","786940746056998913","林","628","Female","[""好我"",""坏她"",""坏我"",""好她""]","[""强我"",""弱她"",""弱我"",""强她""]","","","","","","","","match","","","","","","","","","","key","f","16.660216494845635","720","446","f","true","match","img/circle.png","好我","好我","prac_ALT2_moral","practice_moral","","","","","","","","",""
"null","<span style='color:GreenYellow; font-size: 70px;'>正确! </span>","null","html-keyboard-response","37","194599","0.0-8.0-0.0-1.0-0.0-1.13","3","3","3","4","4","3","4","3","4","4","5","2","-1","-1","-2","-1","0","1","1","5","4","5","4","4","3","4","2","1","3","4","5","4","5","4","3","2","5","4","3","6","3","4","5","3","4","4","3","4","1","4","3","3","2","2","5","4","4","3","3","4","5","4","3","3","6","4","6","5","7","4","7","6","1","4","4","2","6","2","7","786940746056998913","林","628","Female","[""好我"",""坏她"",""坏我"",""好她""]","[""强我"",""弱她"",""弱我"",""强她""]","","","","","","","","","","","","","","","","","","","","","","","","","","","","","","feedback_test","","","","","","","","",""
"1079","","j","psychophysics","38","196681","0.0-8.0-0.0-1.0-0.0-0.14","3","3","3","4","4","3","4","3","4","4","5","2","-1","-1","-2","-1","0","1","1","5","4","5","4","4","3","4","2","1","3","4","5","4","5","4","3","2","5","4","3","6","3","4","5","3","4","4","3","4","1","4","3","3","2","2","5","4","4","3","3","4","5","4","3","3","6","4","6","5","7","4","7","6","1","4","4","2","6","2","7","786940746056998913","林","628","Female","[""好我"",""坏她"",""坏我"",""好她""]","[""强我"",""弱她"",""弱我"",""强她""]","","","","","","","","nonmatch","","","","","","","","","","key","j","16.667439024390255","720","446","j","true","nonmatch","img/hexagon.png","坏她","好她","prac_ALT2_moral","practice_moral","","","","","","","","",""
"null","<span style='color:GreenYellow; font-size: 70px;'>正确! </span>","null","html-keyboard-response","39","197183","0.0-8.0-0.0-1.0-0.0-1.14","3","3","3","4","4","3","4","3","4","4","5","2","-1","-1","-2","-1","0","1","1","5","4","5","4","4","3","4","2","1","3","4","5","4","5","4","3","2","5","4","3","6","3","4","5","3","4","4","3","4","1","4","3","3","2","2","5","4","4","3","3","4","5","4","3","3","6","4","6","5","7","4","7","6","1","4","4","2","6","2","7","786940746056998913","林","628","Female","[""好我"",""坏她"",""坏我"",""好她""]","[""强我"",""弱她"",""弱我"",""强她""]","","","","","","","","","","","","","","","","","","","","","","","","","","","","","","feedback_test","","","","","","","","",""
"944","","j","psychophysics","40","199130","0.0-8.0-0.0-1.0-0.0-0.15","3","3","3","4","4","3","4","3","4","4","5","2","-1","-1","-2","-1","0","1","1","5","4","5","4","4","3","4","2","1","3","4","5","4","5","4","3","2","5","4","3","6","3","4","5","3","4","4","3","4","1","4","3","3","2","2","5","4","4","3","3","4","5","4","3","3","6","4","6","5","7","4","7","6","1","4","4","2","6","2","7","786940746056998913","林","628","Female","[""好我"",""坏她"",""坏我"",""好她""]","[""强我"",""弱她"",""弱我"",""强她""]","","","","","","","","nonmatch","","","","","","","","","","key","j","16.66826086956527","720","446","j","true","nonmatch","img/trapezoid.png","坏我","坏她","prac_ALT2_moral","practice_moral","","","","","","","","",""
"null","<span style='color:GreenYellow; font-size: 70px;'>正确! </span>","null","html-keyboard-response","41","199632","0.0-8.0-0.0-1.0-0.0-1.15","3","3","3","4","4","3","4","3","4","4","5","2","-1","-1","-2","-1","0","1","1","5","4","5","4","4","3","4","2","1","3","4","5","4","5","4","3","2","5","4","3","6","3","4","5","3","4","4","3","4","1","4","3","3","2","2","5","4","4","3","3","4","5","4","3","3","6","4","6","5","7","4","7","6","1","4","4","2","6","2","7","786940746056998913","林","628","Female","[""好我"",""坏她"",""坏我"",""好她""]","[""强我"",""弱她"",""弱我"",""强她""]","","","","","","","","","","","","","","","","","","","","","","","","","","","","","","feedback_test","","","","","","","","",""
"818","","f","psychophysics","42","201452","0.0-8.0-0.0-1.0-0.0-0.16","3","3","3","4","4","3","4","3","4","4","5","2","-1","-1","-2","-1","0","1","1","5","4","5","4","4","3","4","2","1","3","4","5","4","5","4","3","2","5","4","3","6","3","4","5","3","4","4","3","4","1","4","3","3","2","2","5","4","4","3","3","4","5","4","3","3","6","4","6","5","7","4","7","6","1","4","4","2","6","2","7","786940746056998913","林","628","Female","[""好我"",""坏她"",""坏我"",""好她""]","[""强我"",""弱她"",""弱我"",""强她""]","","","","","","","","match","","","","","","","","","","key","f","16.667101851851772","720","446","f","true","match","img/trapezoid.png","坏她","坏她","prac_ALT2_moral","practice_moral","","","","","","","","",""
"null","<span style='color:GreenYellow; font-size: 70px;'>正确! </span>","null","html-keyboard-response","43","201954","0.0-8.0-0.0-1.0-0.0-1.16","3","3","3","4","4","3","4","3","4","4","5","2","-1","-1","-2","-1","0","1","1","5","4","5","4","4","3","4","2","1","3","4","5","4","5","4","3","2","5","4","3","6","3","4","5","3","4","4","3","4","1","4","3","3","2","2","5","4","4","3","3","4","5","4","3","3","6","4","6","5","7","4","7","6","1","4","4","2","6","2","7","786940746056998913","林","628","Female","[""好我"",""坏她"",""坏我"",""好她""]","[""强我"",""弱她"",""弱我"",""强她""]","","","","","","","","","","","","","","","","","","","","","","","","","","","","","","feedback_test","","","","","","","","",""
"669","","j","psychophysics","44","203625","0.0-8.0-0.0-1.0-0.0-0.17","3","3","3","4","4","3","4","3","4","4","5","2","-1","-1","-2","-1","0","1","1","5","4","5","4","4","3","4","2","1","3","4","5","4","5","4","3","2","5","4","3","6","3","4","5","3","4","4","3","4","1","4","3","3","2","2","5","4","4","3","3","4","5","4","3","3","6","4","6","5","7","4","7","6","1","4","4","2","6","2","7","786940746056998913","林","628","Female","[""好我"",""坏她"",""坏我"",""好她""]","[""强我"",""弱她"",""弱我"",""强她""]","","","","","","","","nonmatch","","","","","","","","","","key","j","16.66858585858588","720","446","j","true","nonmatch","img/circle.png","坏我","好我","prac_ALT2_moral","practice_moral","","","","","","","","",""
"null","<span style='color:GreenYellow; font-size: 70px;'>正确! </span>","null","html-keyboard-response","45","204127","0.0-8.0-0.0-1.0-0.0-1.17","3","3","3","4","4","3","4","3","4","4","5","2","-1","-1","-2","-1","0","1","1","5","4","5","4","4","3","4","2","1","3","4","5","4","5","4","3","2","5","4","3","6","3","4","5","3","4","4","3","4","1","4","3","3","2","2","5","4","4","3","3","4","5","4","3","3","6","4","6","5","7","4","7","6","1","4","4","2","6","2","7","786940746056998913","林","628","Female","[""好我"",""坏她"",""坏我"",""好她""]","[""强我"",""弱她"",""弱我"",""强她""]","","","","","","","","","","","","","","","","","","","","","","","","","","","","","","feedback_test","","","","","","","","",""
"968","","j","psychophysics","46","206098","0.0-8.0-0.0-1.0-0.0-0.18","3","3","3","4","4","3","4","3","4","4","5","2","-1","-1","-2","-1","0","1","1","5","4","5","4","4","3","4","2","1","3","4","5","4","5","4","3","2","5","4","3","6","3","4","5","3","4","4","3","4","1","4","3","3","2","2","5","4","4","3","3","4","5","4","3","3","6","4","6","5","7","4","7","6","1","4","4","2","6","2","7","786940746056998913","林","628","Female","[""好我"",""坏她"",""坏我"",""好她""]","[""强我"",""弱她"",""弱我"",""强她""]","","","","","","","","nonmatch","","","","","","","","","","key","j","16.66852991452986","720","446","f","false","match","img/triangle.png","坏我","坏我","prac_ALT2_moral","practice_moral","","","","","","","","",""
"null","<span style='color:red; font-size: 70px;'>错误! </span>","null","html-keyboard-response","47","206602","0.0-8.0-0.0-1.0-0.0-1.18","3","3","3","4","4","3","4","3","4","4","5","2","-1","-1","-2","-1","0","1","1","5","4","5","4","4","3","4","2","1","3","4","5","4","5","4","3","2","5","4","3","6","3","4","5","3","4","4","3","4","1","4","3","3","2","2","5","4","4","3","3","4","5","4","3","3","6","4","6","5","7","4","7","6","1","4","4","2","6","2","7","786940746056998913","林","628","Female","[""好我"",""坏她"",""坏我"",""好她""]","[""强我"",""弱她"",""弱我"",""强她""]","","","","","","","","","","","","","","","","","","","","","","","","","","","","","","feedback_test","","","","","","","","",""
"716","","j","psychophysics","48","208322","0.0-8.0-0.0-1.0-0.0-0.19","3","3","3","4","4","3","4","3","4","4","5","2","-1","-1","-2","-1","0","1","1","5","4","5","4","4","3","4","2","1","3","4","5","4","5","4","3","2","5","4","3","6","3","4","5","3","4","4","3","4","1","4","3","3","2","2","5","4","4","3","3","4","5","4","3","3","6","4","6","5","7","4","7","6","1","4","4","2","6","2","7","786940746056998913","林","628","Female","[""好我"",""坏她"",""坏我"",""好她""]","[""强我"",""弱她"",""弱我"",""强她""]","","","","","","","","nonmatch","","","","","","","","","","key","j","16.668921568627553","720","446","j","true","nonmatch","img/circle.png","好她","好我","prac_ALT2_moral","practice_moral","","","","","","","","",""
"null","<span style='color:GreenYellow; font-size: 70px;'>正确! </span>","null","html-keyboard-response","49","208823","0.0-8.0-0.0-1.0-0.0-1.19","3","3","3","4","4","3","4","3","4","4","5","2","-1","-1","-2","-1","0","1","1","5","4","5","4","4","3","4","2","1","3","4","5","4","5","4","3","2","5","4","3","6","3","4","5","3","4","4","3","4","1","4","3","3","2","2","5","4","4","3","3","4","5","4","3","3","6","4","6","5","7","4","7","6","1","4","4","2","6","2","7","786940746056998913","林","628","Female","[""好我"",""坏她"",""坏我"",""好她""]","[""强我"",""弱她"",""弱我"",""强她""]","","","","","","","","","","","","","","","","","","","","","","","","","","","","","","feedback_test","","","","","","","","",""
"779","","j","psychophysics","50","210605","0.0-8.0-0.0-1.0-0.0-0.20","3","3","3","4","4","3","4","3","4","4","5","2","-1","-1","-2","-1","0","1","1","5","4","5","4","4","3","4","2","1","3","4","5","4","5","4","3","2","5","4","3","6","3","4","5","3","4","4","3","4","1","4","3","3","2","2","5","4","4","3","3","4","5","4","3","3","6","4","6","5","7","4","7","6","1","4","4","2","6","2","7","786940746056998913","林","628","Female","[""好我"",""坏她"",""坏我"",""好她""]","[""强我"",""弱她"",""弱我"",""强她""]","","","","","","","","nonmatch","","","","","","","","","","key","j","16.668094339622634","720","446","j","true","nonmatch","img/hexagon.png","坏我","好她","prac_ALT2_moral","practice_moral","","","","","","","","",""
"null","<span style='color:GreenYellow; font-size: 70px;'>正确! </span>","null","html-keyboard-response","51","211107","0.0-8.0-0.0-1.0-0.0-1.20","3","3","3","4","4","3","4","3","4","4","5","2","-1","-1","-2","-1","0","1","1","5","4","5","4","4","3","4","2","1","3","4","5","4","5","4","3","2","5","4","3","6","3","4","5","3","4","4","3","4","1","4","3","3","2","2","5","4","4","3","3","4","5","4","3","3","6","4","6","5","7","4","7","6","1","4","4","2","6","2","7","786940746056998913","林","628","Female","[""好我"",""坏她"",""坏我"",""好她""]","[""强我"",""弱她"",""弱我"",""强她""]","","","","","","","","","","","","","","","","","","","","","","","","","","","","","","feedback_test","","","","","","","","",""
"1197","","f","psychophysics","52","213307","0.0-8.0-0.0-1.0-0.0-0.21","3","3","3","4","4","3","4","3","4","4","5","2","-1","-1","-2","-1","0","1","1","5","4","5","4","4","3","4","2","1","3","4","5","4","5","4","3","2","5","4","3","6","3","4","5","3","4","4","3","4","1","4","3","3","2","2","5","4","4","3","3","4","5","4","3","3","6","4","6","5","7","4","7","6","1","4","4","2","6","2","7","786940746056998913","林","628","Female","[""好我"",""坏她"",""坏我"",""好她""]","[""强我"",""弱她"",""弱我"",""强她""]","","","","","","","","match","","","","","","","","","","key","f","16.667702290076203","720","446","f","true","match","img/trapezoid.png","坏她","坏她","prac_ALT2_moral","practice_moral","","","","","","","","",""
"null","<span style='color:GreenYellow; font-size: 70px;'>正确! </span>","null","html-keyboard-response","53","213809","0.0-8.0-0.0-1.0-0.0-1.21","3","3","3","4","4","3","4","3","4","4","5","2","-1","-1","-2","-1","0","1","1","5","4","5","4","4","3","4","2","1","3","4","5","4","5","4","3","2","5","4","3","6","3","4","5","3","4","4","3","4","1","4","3","3","2","2","5","4","4","3","3","4","5","4","3","3","6","4","6","5","7","4","7","6","1","4","4","2","6","2","7","786940746056998913","林","628","Female","[""好我"",""坏她"",""坏我"",""好她""]","[""强我"",""弱她"",""弱我"",""强她""]","","","","","","","","","","","","","","","","","","","","","","","","","","","","","","feedback_test","","","","","","","","",""
"1014","","f","psychophysics","54","215826","0.0-8.0-0.0-1.0-0.0-0.22","3","3","3","4","4","3","4","3","4","4","5","2","-1","-1","-2","-1","0","1","1","5","4","5","4","4","3","4","2","1","3","4","5","4","5","4","3","2","5","4","3","6","3","4","5","3","4","4","3","4","1","4","3","3","2","2","5","4","4","3","3","4","5","4","3","3","6","4","6","5","7","4","7","6","1","4","4","2","6","2","7","786940746056998913","林","628","Female","[""好我"",""坏她"",""坏我"",""好她""]","[""强我"",""弱她"",""弱我"",""强她""]","","","","","","","","match","","","","","","","","","","key","f","16.668325000000188","720","446","f","true","match","img/hexagon.png","好她","好她","prac_ALT2_moral","practice_moral","","","","","","","","",""
"null","<span style='color:GreenYellow; font-size: 70px;'>正确! </span>","null","html-keyboard-response","55","216329","0.0-8.0-0.0-1.0-0.0-1.22","3","3","3","4","4","3","4","3","4","4","5","2","-1","-1","-2","-1","0","1","1","5","4","5","4","4","3","4","2","1","3","4","5","4","5","4","3","2","5","4","3","6","3","4","5","3","4","4","3","4","1","4","3","3","2","2","5","4","4","3","3","4","5","4","3","3","6","4","6","5","7","4","7","6","1","4","4","2","6","2","7","786940746056998913","林","628","Female","[""好我"",""坏她"",""坏我"",""好她""]","[""强我"",""弱她"",""弱我"",""强她""]","","","","","","","","","","","","","","","","","","","","","","","","","","","","","","feedback_test","","","","","","","","",""
"678","","f","psychophysics","56","218009","0.0-8.0-0.0-1.0-0.0-0.23","3","3","3","4","4","3","4","3","4","4","5","2","-1","-1","-2","-1","0","1","1","5","4","5","4","4","3","4","2","1","3","4","5","4","5","4","3","2","5","4","3","6","3","4","5","3","4","4","3","4","1","4","3","3","2","2","5","4","4","3","3","4","5","4","3","3","6","4","6","5","7","4","7","6","1","4","4","2","6","2","7","786940746056998913","林","628","Female","[""好我"",""坏她"",""坏我"",""好她""]","[""强我"",""弱她"",""弱我"",""强她""]","","","","","","","","match","","","","","","","","","","key","f","16.668239999999933","720","446","f","true","match","img/hexagon.png","好她","好她","prac_ALT2_moral","practice_moral","","","","","","","","",""
"null","<span style='color:GreenYellow; font-size: 70px;'>正确! </span>","null","html-keyboard-response","57","218511","0.0-8.0-0.0-1.0-0.0-1.23","3","3","3","4","4","3","4","3","4","4","5","2","-1","-1","-2","-1","0","1","1","5","4","5","4","4","3","4","2","1","3","4","5","4","5","4","3","2","5","4","3","6","3","4","5","3","4","4","3","4","1","4","3","3","2","2","5","4","4","3","3","4","5","4","3","3","6","4","6","5","7","4","7","6","1","4","4","2","6","2","7","786940746056998913","林","628","Female","[""好我"",""坏她"",""坏我"",""好她""]","[""强我"",""弱她"",""弱我"",""强她""]","","","","","","","","","","","","","","","","","","","","","","","","","","","","","","feedback_test","","","","","","","","",""
"942","","j","psychophysics","58","220458","0.0-8.0-0.0-1.0-0.0-0.24","3","3","3","4","4","3","4","3","4","4","5","2","-1","-1","-2","-1","0","1","1","5","4","5","4","4","3","4","2","1","3","4","5","4","5","4","3","2","5","4","3","6","3","4","5","3","4","4","3","4","1","4","3","3","2","2","5","4","4","3","3","4","5","4","3","3","6","4","6","5","7","4","7","6","1","4","4","2","6","2","7","786940746056998913","林","628","Female","[""好我"",""坏她"",""坏我"",""好她""]","[""强我"",""弱她"",""弱我"",""强她""]","","","","","","","","nonmatch","","","","","","","","","","key","j","16.66818103448268","720","446","j","true","nonmatch","img/hexagon.png","坏我","好她","prac_ALT2_moral","practice_moral","","","","","","","","",""
"null","<span style='color:GreenYellow; font-size: 70px;'>正确! </span>","null","html-keyboard-response","59","220962","0.0-8.0-0.0-1.0-0.0-1.24","3","3","3","4","4","3","4","3","4","4","5","2","-1","-1","-2","-1","0","1","1","5","4","5","4","4","3","4","2","1","3","4","5","4","5","4","3","2","5","4","3","6","3","4","5","3","4","4","3","4","1","4","3","3","2","2","5","4","4","3","3","4","5","4","3","3","6","4","6","5","7","4","7","6","1","4","4","2","6","2","7","786940746056998913","林","628","Female","[""好我"",""坏她"",""坏我"",""好她""]","[""强我"",""弱她"",""弱我"",""强她""]","","","","","","","","","","","","","","","","","","","","","","","","","","","","","","feedback_test","","","","","","","","",""
"533","","f","psychophysics","60","222498","0.0-8.0-0.0-1.0-0.0-0.25","3","3","3","4","4","3","4","3","4","4","5","2","-1","-1","-2","-1","0","1","1","5","4","5","4","4","3","4","2","1","3","4","5","4","5","4","3","2","5","4","3","6","3","4","5","3","4","4","3","4","1","4","3","3","2","2","5","4","4","3","3","4","5","4","3","3","6","4","6","5","7","4","7","6","1","4","4","2","6","2","7","786940746056998913","林","628","Female","[""好我"",""坏她"",""坏我"",""好她""]","[""强我"",""弱她"",""弱我"",""强她""]","","","","","","","","match","","","","","","","","","","key","f","16.669340659340698","720","446","f","true","match","img/circle.png","好我","好我","prac_ALT2_moral","practice_moral","","","","","","","","",""
"null","<span style='color:GreenYellow; font-size: 70px;'>正确! </span>","null","html-keyboard-response","61","223001","0.0-8.0-0.0-1.0-0.0-1.25","3","3","3","4","4","3","4","3","4","4","5","2","-1","-1","-2","-1","0","1","1","5","4","5","4","4","3","4","2","1","3","4","5","4","5","4","3","2","5","4","3","6","3","4","5","3","4","4","3","4","1","4","3","3","2","2","5","4","4","3","3","4","5","4","3","3","6","4","6","5","7","4","7","6","1","4","4","2","6","2","7","786940746056998913","林","628","Female","[""好我"",""坏她"",""坏我"",""好她""]","[""强我"",""弱她"",""弱我"",""强她""]","","","","","","","","","","","","","","","","","","","","","","","","","","","","","","feedback_test","","","","","","","","",""
"622","","j","psychophysics","62","224626","0.0-8.0-0.0-1.0-0.0-0.26","3","3","3","4","4","3","4","3","4","4","5","2","-1","-1","-2","-1","0","1","1","5","4","5","4","4","3","4","2","1","3","4","5","4","5","4","3","2","5","4","3","6","3","4","5","3","4","4","3","4","1","4","3","3","2","2","5","4","4","3","3","4","5","4","3","3","6","4","6","5","7","4","7","6","1","4","4","2","6","2","7","786940746056998913","林","628","Female","[""好我"",""坏她"",""坏我"",""好她""]","[""强我"",""弱她"",""弱我"",""强她""]","","","","","","","","nonmatch","","","","","","","","","","key","j","16.667791666666442","720","446","j","true","nonmatch","img/trapezoid.png","好她","坏她","prac_ALT2_moral","practice_moral","","","","","","","","",""
"null","<span style='color:GreenYellow; font-size: 70px;'>正确! </span>","null","html-keyboard-response","63","225127","0.0-8.0-0.0-1.0-0.0-1.26","3","3","3","4","4","3","4","3","4","4","5","2","-1","-1","-2","-1","0","1","1","5","4","5","4","4","3","4","2","1","3","4","5","4","5","4","3","2","5","4","3","6","3","4","5","3","4","4","3","4","1","4","3","3","2","2","5","4","4","3","3","4","5","4","3","3","6","4","6","5","7","4","7","6","1","4","4","2","6","2","7","786940746056998913","林","628","Female","[""好我"",""坏她"",""坏我"",""好她""]","[""强我"",""弱她"",""弱我"",""强她""]","","","","","","","","","","","","","","","","","","","","","","","","","","","","","","feedback_test","","","","","","","","",""
"675","","f","psychophysics","64","226805","0.0-8.0-0.0-1.0-0.0-0.27","3","3","3","4","4","3","4","3","4","4","5","2","-1","-1","-2","-1","0","1","1","5","4","5","4","4","3","4","2","1","3","4","5","4","5","4","3","2","5","4","3","6","3","4","5","3","4","4","3","4","1","4","3","3","2","2","5","4","4","3","3","4","5","4","3","3","6","4","6","5","7","4","7","6","1","4","4","2","6","2","7","786940746056998913","林","628","Female","[""好我"",""坏她"",""坏我"",""好她""]","[""强我"",""弱她"",""弱我"",""强她""]","","","","","","","","match","","","","","","","","","","key","f","16.66744000000006","720","446","f","true","match","img/trapezoid.png","坏她","坏她","prac_ALT2_moral","practice_moral","","","","","","","","",""
"null","<span style='color:GreenYellow; font-size: 70px;'>正确! </span>","null","html-keyboard-response","65","227308","0.0-8.0-0.0-1.0-0.0-1.27","3","3","3","4","4","3","4","3","4","4","5","2","-1","-1","-2","-1","0","1","1","5","4","5","4","4","3","4","2","1","3","4","5","4","5","4","3","2","5","4","3","6","3","4","5","3","4","4","3","4","1","4","3","3","2","2","5","4","4","3","3","4","5","4","3","3","6","4","6","5","7","4","7","6","1","4","4","2","6","2","7","786940746056998913","林","628","Female","[""好我"",""坏她"",""坏我"",""好她""]","[""强我"",""弱她"",""弱我"",""强她""]","","","","","","","","","","","","","","","","","","","","","","","","","","","","","","feedback_test","","","","","","","","",""
"683","","j","psychophysics","66","228994","0.0-8.0-0.0-1.0-0.0-0.28","3","3","3","4","4","3","4","3","4","4","5","2","-1","-1","-2","-1","0","1","1","5","4","5","4","4","3","4","2","1","3","4","5","4","5","4","3","2","5","4","3","6","3","4","5","3","4","4","3","4","1","4","3","3","2","2","5","4","4","3","3","4","5","4","3","3","6","4","6","5","7","4","7","6","1","4","4","2","6","2","7","786940746056998913","林","628","Female","[""好我"",""坏她"",""坏我"",""好她""]","[""强我"",""弱她"",""弱我"",""强她""]","","","","","","","","nonmatch","","","","","","","","","","key","j","16.668759999999892","720","446","f","false","match","img/hexagon.png","好她","好她","prac_ALT2_moral","practice_moral","","","","","","","","",""
"null","<span style='color:red; font-size: 70px;'>错误! </span>","null","html-keyboard-response","67","229497","0.0-8.0-0.0-1.0-0.0-1.28","3","3","3","4","4","3","4","3","4","4","5","2","-1","-1","-2","-1","0","1","1","5","4","5","4","4","3","4","2","1","3","4","5","4","5","4","3","2","5","4","3","6","3","4","5","3","4","4","3","4","1","4","3","3","2","2","5","4","4","3","3","4","5","4","3","3","6","4","6","5","7","4","7","6","1","4","4","2","6","2","7","786940746056998913","林","628","Female","[""好我"",""坏她"",""坏我"",""好她""]","[""强我"",""弱她"",""弱我"",""强她""]","","","","","","","","","","","","","","","","","","","","","","","","","","","","","","feedback_test","","","","","","","","",""
"673","","f","psychophysics","68","231174","0.0-8.0-0.0-1.0-0.0-0.29","3","3","3","4","4","3","4","3","4","4","5","2","-1","-1","-2","-1","0","1","1","5","4","5","4","4","3","4","2","1","3","4","5","4","5","4","3","2","5","4","3","6","3","4","5","3","4","4","3","4","1","4","3","3","2","2","5","4","4","3","3","4","5","4","3","3","6","4","6","5","7","4","7","6","1","4","4","2","6","2","7","786940746056998913","林","628","Female","[""好我"",""坏她"",""坏我"",""好她""]","[""强我"",""弱她"",""弱我"",""强她""]","","","","","","","","match","","","","","","","","","","key","f","16.668710000000136","720","446","j","false","nonmatch","img/circle.png","坏我","好我","prac_ALT2_moral","practice_moral","","","","","","","","",""
"null","<span style='color:red; font-size: 70px;'>错误! </span>","null","html-keyboard-response","69","231677","0.0-8.0-0.0-1.0-0.0-1.29","3","3","3","4","4","3","4","3","4","4","5","2","-1","-1","-2","-1","0","1","1","5","4","5","4","4","3","4","2","1","3","4","5","4","5","4","3","2","5","4","3","6","3","4","5","3","4","4","3","4","1","4","3","3","2","2","5","4","4","3","3","4","5","4","3","3","6","4","6","5","7","4","7","6","1","4","4","2","6","2","7","786940746056998913","林","628","Female","[""好我"",""坏她"",""坏我"",""好她""]","[""强我"",""弱她"",""弱我"",""强她""]","","","","","","","","","","","","","","","","","","","","","","","","","","","","","","feedback_test","","","","","","","","",""
"881","","f","psychophysics","70","233561","0.0-8.0-0.0-1.0-0.0-0.30","3","3","3","4","4","3","4","3","4","4","5","2","-1","-1","-2","-1","0","1","1","5","4","5","4","4","3","4","2","1","3","4","5","4","5","4","3","2","5","4","3","6","3","4","5","3","4","4","3","4","1","4","3","3","2","2","5","4","4","3","3","4","5","4","3","3","6","4","6","5","7","4","7","6","1","4","4","2","6","2","7","786940746056998913","林","628","Female","[""好我"",""坏她"",""坏我"",""好她""]","[""强我"",""弱她"",""弱我"",""强她""]","","","","","","","","match","","","","","","","","","","key","f","16.668178571428662","720","446","j","false","nonmatch","img/triangle.png","坏她","坏我","prac_ALT2_moral","practice_moral","","","","","","","","",""
"null","<span style='color:red; font-size: 70px;'>错误! </span>","null","html-keyboard-response","71","234063","0.0-8.0-0.0-1.0-0.0-1.30","3","3","3","4","4","3","4","3","4","4","5","2","-1","-1","-2","-1","0","1","1","5","4","5","4","4","3","4","2","1","3","4","5","4","5","4","3","2","5","4","3","6","3","4","5","3","4","4","3","4","1","4","3","3","2","2","5","4","4","3","3","4","5","4","3","3","6","4","6","5","7","4","7","6","1","4","4","2","6","2","7","786940746056998913","林","628","Female","[""好我"",""坏她"",""坏我"",""好她""]","[""强我"",""弱她"",""弱我"",""强她""]","","","","","","","","","","","","","","","","","","","","","","","","","","","","","","feedback_test","","","","","","","","",""
"null","","null","psychophysics","72","236274","0.0-8.0-0.0-1.0-0.0-0.31","3","3","3","4","4","3","4","3","4","4","5","2","-1","-1","-2","-1","0","1","1","5","4","5","4","4","3","4","2","1","3","4","5","4","5","4","3","2","5","4","3","6","3","4","5","3","4","4","3","4","1","4","3","3","2","2","5","4","4","3","3","4","5","4","3","3","6","4","6","5","7","4","7","6","1","4","4","2","6","2","7","786940746056998913","林","628","Female","[""好我"",""坏她"",""坏我"",""好她""]","[""强我"",""弱她"",""弱我"",""强她""]","","","","","","","","null","","","","","","","","","","key","null","16.668553030303112","720","446","f","false","match","img/trapezoid.png","坏她","坏她","prac_ALT2_moral","practice_moral","","","","","","","","",""
"null","<span class='add_' style='color:yellow; font-size: 70px;'> 太慢! </span>","null","html-keyboard-response","73","236776","0.0-8.0-0.0-1.0-0.0-1.31","3","3","3","4","4","3","4","3","4","4","5","2","-1","-1","-2","-1","0","1","1","5","4","5","4","4","3","4","2","1","3","4","5","4","5","4","3","2","5","4","3","6","3","4","5","3","4","4","3","4","1","4","3","3","2","2","5","4","4","3","3","4","5","4","3","3","6","4","6","5","7","4","7","6","1","4","4","2","6","2","7","786940746056998913","林","628","Female","[""好我"",""坏她"",""坏我"",""好她""]","[""强我"",""弱她"",""弱我"",""强她""]","","","","","","","","","","","","","","","","","","","","","","","","","","","","","","feedback_test","","","","","","","","",""
"686","","j","psychophysics","74","238465","0.0-8.0-0.0-1.0-0.0-0.32","3","3","3","4","4","3","4","3","4","4","5","2","-1","-1","-2","-1","0","1","1","5","4","5","4","4","3","4","2","1","3","4","5","4","5","4","3","2","5","4","3","6","3","4","5","3","4","4","3","4","1","4","3","3","2","2","5","4","4","3","3","4","5","4","3","3","6","4","6","5","7","4","7","6","1","4","4","2","6","2","7","786940746056998913","林","628","Female","[""好我"",""坏她"",""坏我"",""好她""]","[""强我"",""弱她"",""弱我"",""强她""]","","","","","","","","nonmatch","","","","","","","","","","key","j","16.668120000000055","720","446","j","true","nonmatch","img/trapezoid.png","好我","坏她","prac_ALT2_moral","practice_moral","","","","","","","","",""
"null","<span style='color:GreenYellow; font-size: 70px;'>正确! </span>","null","html-keyboard-response","75","238967","0.0-8.0-0.0-1.0-0.0-1.32","3","3","3","4","4","3","4","3","4","4","5","2","-1","-1","-2","-1","0","1","1","5","4","5","4","4","3","4","2","1","3","4","5","4","5","4","3","2","5","4","3","6","3","4","5","3","4","4","3","4","1","4","3","3","2","2","5","4","4","3","3","4","5","4","3","3","6","4","6","5","7","4","7","6","1","4","4","2","6","2","7","786940746056998913","林","628","Female","[""好我"",""坏她"",""坏我"",""好她""]","[""强我"",""弱她"",""弱我"",""强她""]","","","","","","","","","","","","","","","","","","","","","","","","","","","","","","feedback_test","","","","","","","","",""
"521","","f","psychophysics","76","240491","0.0-8.0-0.0-1.0-0.0-0.33","3","3","3","4","4","3","4","3","4","4","5","2","-1","-1","-2","-1","0","1","1","5","4","5","4","4","3","4","2","1","3","4","5","4","5","4","3","2","5","4","3","6","3","4","5","3","4","4","3","4","1","4","3","3","2","2","5","4","4","3","3","4","5","4","3","3","6","4","6","5","7","4","7","6","1","4","4","2","6","2","7","786940746056998913","林","628","Female","[""好我"",""坏她"",""坏我"",""好她""]","[""强我"",""弱她"",""弱我"",""强她""]","","","","","","","","match","","","","","","","","","","key","f","16.66801111111094","720","446","f","true","match","img/circle.png","好我","好我","prac_ALT2_moral","practice_moral","","","","","","","","",""
"null","<span style='color:GreenYellow; font-size: 70px;'>正确! </span>","null","html-keyboard-response","77","240993","0.0-8.0-0.0-1.0-0.0-1.33","3","3","3","4","4","3","4","3","4","4","5","2","-1","-1","-2","-1","0","1","1","5","4","5","4","4","3","4","2","1","3","4","5","4","5","4","3","2","5","4","3","6","3","4","5","3","4","4","3","4","1","4","3","3","2","2","5","4","4","3","3","4","5","4","3","3","6","4","6","5","7","4","7","6","1","4","4","2","6","2","7","786940746056998913","林","628","Female","[""好我"",""坏她"",""坏我"",""好她""]","[""强我"",""弱她"",""弱我"",""强她""]","","","","","","","","","","","","","","","","","","","","","","","","","","","","","","feedback_test","","","","","","","","",""
"622","","f","psychophysics","78","242618","0.0-8.0-0.0-1.0-0.0-0.34","3","3","3","4","4","3","4","3","4","4","5","2","-1","-1","-2","-1","0","1","1","5","4","5","4","4","3","4","2","1","3","4","5","4","5","4","3","2","5","4","3","6","3","4","5","3","4","4","3","4","1","4","3","3","2","2","5","4","4","3","3","4","5","4","3","3","6","4","6","5","7","4","7","6","1","4","4","2","6","2","7","786940746056998913","林","628","Female","[""好我"",""坏她"",""坏我"",""好她""]","[""强我"",""弱她"",""弱我"",""强她""]","","","","","","","","match","","","","","","","","","","key","f","16.66796875","720","446","f","true","match","img/hexagon.png","好她","好她","prac_ALT2_moral","practice_moral","","","","","","","","",""
"null","<span style='color:GreenYellow; font-size: 70px;'>正确! </span>","null","html-keyboard-response","79","243121","0.0-8.0-0.0-1.0-0.0-1.34","3","3","3","4","4","3","4","3","4","4","5","2","-1","-1","-2","-1","0","1","1","5","4","5","4","4","3","4","2","1","3","4","5","4","5","4","3","2","5","4","3","6","3","4","5","3","4","4","3","4","1","4","3","3","2","2","5","4","4","3","3","4","5","4","3","3","6","4","6","5","7","4","7","6","1","4","4","2","6","2","7","786940746056998913","林","628","Female","[""好我"",""坏她"",""坏我"",""好她""]","[""强我"",""弱她"",""弱我"",""强她""]","","","","","","","","","","","","","","","","","","","","","","","","","","","","","","feedback_test","","","","","","","","",""
"718","","j","psychophysics","80","244843","0.0-8.0-0.0-1.0-0.0-0.35","3","3","3","4","4","3","4","3","4","4","5","2","-1","-1","-2","-1","0","1","1","5","4","5","4","4","3","4","2","1","3","4","5","4","5","4","3","2","5","4","3","6","3","4","5","3","4","4","3","4","1","4","3","3","2","2","5","4","4","3","3","4","5","4","3","3","6","4","6","5","7","4","7","6","1","4","4","2","6","2","7","786940746056998913","林","628","Female","[""好我"",""坏她"",""坏我"",""好她""]","[""强我"",""弱她"",""弱我"",""强她""]","","","","","","","","nonmatch","","","","","","","","","","key","j","16.66781372549018","720","446","j","true","nonmatch","img/circle.png","好她","好我","prac_ALT2_moral","practice_moral","","","","","","","","",""
"null","<span style='color:GreenYellow; font-size: 70px;'>正确! </span>","null","html-keyboard-response","81","245345","0.0-8.0-0.0-1.0-0.0-1.35","3","3","3","4","4","3","4","3","4","4","5","2","-1","-1","-2","-1","0","1","1","5","4","5","4","4","3","4","2","1","3","4","5","4","5","4","3","2","5","4","3","6","3","4","5","3","4","4","3","4","1","4","3","3","2","2","5","4","4","3","3","4","5","4","3","3","6","4","6","5","7","4","7","6","1","4","4","2","6","2","7","786940746056998913","林","628","Female","[""好我"",""坏她"",""坏我"",""好她""]","[""强我"",""弱她"",""弱我"",""强她""]","","","","","","","","","","","","","","","","","","","","","","","","","","","","","","feedback_test","","","","","","","","",""
"950","","j","psychophysics","82","247298","0.0-8.0-0.0-1.0-0.0-0.36","3","3","3","4","4","3","4","3","4","4","5","2","-1","-1","-2","-1","0","1","1","5","4","5","4","4","3","4","2","1","3","4","5","4","5","4","3","2","5","4","3","6","3","4","5","3","4","4","3","4","1","4","3","3","2","2","5","4","4","3","3","4","5","4","3","3","6","4","6","5","7","4","7","6","1","4","4","2","6","2","7","786940746056998913","林","628","Female","[""好我"",""坏她"",""坏我"",""好她""]","[""强我"",""弱她"",""弱我"",""强她""]","","","","","","","","nonmatch","","","","","","","","","","key","j","16.667258620689672","720","446","f","false","match","img/trapezoid.png","坏她","坏她","prac_ALT2_moral","practice_moral","","","","","","","","",""
"null","<span style='color:red; font-size: 70px;'>错误! </span>","null","html-keyboard-response","83","247800","0.0-8.0-0.0-1.0-0.0-1.36","3","3","3","4","4","3","4","3","4","4","5","2","-1","-1","-2","-1","0","1","1","5","4","5","4","4","3","4","2","1","3","4","5","4","5","4","3","2","5","4","3","6","3","4","5","3","4","4","3","4","1","4","3","3","2","2","5","4","4","3","3","4","5","4","3","3","6","4","6","5","7","4","7","6","1","4","4","2","6","2","7","786940746056998913","林","628","Female","[""好我"",""坏她"",""坏我"",""好她""]","[""强我"",""弱她"",""弱我"",""强她""]","","","","","","","","","","","","","","","","","","","","","","","","","","","","","","feedback_test","","","","","","","","",""
"659","","j","psychophysics","84","249466","0.0-8.0-0.0-1.0-0.0-0.37","3","3","3","4","4","3","4","3","4","4","5","2","-1","-1","-2","-1","0","1","1","5","4","5","4","4","3","4","2","1","3","4","5","4","5","4","3","2","5","4","3","6","3","4","5","3","4","4","3","4","1","4","3","3","2","2","5","4","4","3","3","4","5","4","3","3","6","4","6","5","7","4","7","6","1","4","4","2","6","2","7","786940746056998913","林","628","Female","[""好我"",""坏她"",""坏我"",""好她""]","[""强我"",""弱她"",""弱我"",""强她""]","","","","","","","","nonmatch","","","","","","","","","","key","j","16.668909090908887","720","446","f","false","match","img/hexagon.png","好她","好她","prac_ALT2_moral","practice_moral","","","","","","","","",""
"null","<span style='color:red; font-size: 70px;'>错误! </span>","null","html-keyboard-response","85","249968","0.0-8.0-0.0-1.0-0.0-1.37","3","3","3","4","4","3","4","3","4","4","5","2","-1","-1","-2","-1","0","1","1","5","4","5","4","4","3","4","2","1","3","4","5","4","5","4","3","2","5","4","3","6","3","4","5","3","4","4","3","4","1","4","3","3","2","2","5","4","4","3","3","4","5","4","3","3","6","4","6","5","7","4","7","6","1","4","4","2","6","2","7","786940746056998913","林","628","Female","[""好我"",""坏她"",""坏我"",""好她""]","[""强我"",""弱她"",""弱我"",""强她""]","","","","","","","","","","","","","","","","","","","","","","","","","","","","","","feedback_test","","","","","","","","",""
"null","","null","psychophysics","86","252175","0.0-8.0-0.0-1.0-0.0-0.38","3","3","3","4","4","3","4","3","4","4","5","2","-1","-1","-2","-1","0","1","1","5","4","5","4","4","3","4","2","1","3","4","5","4","5","4","3","2","5","4","3","6","3","4","5","3","4","4","3","4","1","4","3","3","2","2","5","4","4","3","3","4","5","4","3","3","6","4","6","5","7","4","7","6","1","4","4","2","6","2","7","786940746056998913","林","628","Female","[""好我"",""坏她"",""坏我"",""好她""]","[""强我"",""弱她"",""弱我"",""强她""]","","","","","","","","null","","","","","","","","","","key","null","16.658625954198463","720","446","j","false","nonmatch","img/hexagon.png","坏她","好她","prac_ALT2_moral","practice_moral","","","","","","","","",""
"null","<span class='add_' style='color:yellow; font-size: 70px;'> 太慢! </span>","null","html-keyboard-response","87","252676","0.0-8.0-0.0-1.0-0.0-1.38","3","3","3","4","4","3","4","3","4","4","5","2","-1","-1","-2","-1","0","1","1","5","4","5","4","4","3","4","2","1","3","4","5","4","5","4","3","2","5","4","3","6","3","4","5","3","4","4","3","4","1","4","3","3","2","2","5","4","4","3","3","4","5","4","3","3","6","4","6","5","7","4","7","6","1","4","4","2","6","2","7","786940746056998913","林","628","Female","[""好我"",""坏她"",""坏我"",""好她""]","[""强我"",""弱她"",""弱我"",""强她""]","","","","","","","","","","","","","","","","","","","","","","","","","","","","","","feedback_test","","","","","","","","",""
"706","","j","psychophysics","88","254385","0.0-8.0-0.0-1.0-0.0-0.39","3","3","3","4","4","3","4","3","4","4","5","2","-1","-1","-2","-1","0","1","1","5","4","5","4","4","3","4","2","1","3","4","5","4","5","4","3","2","5","4","3","6","3","4","5","3","4","4","3","4","1","4","3","3","2","2","5","4","4","3","3","4","5","4","3","3","6","4","6","5","7","4","7","6","1","4","4","2","6","2","7","786940746056998913","林","628","Female","[""好我"",""坏她"",""坏我"",""好她""]","[""强我"",""弱她"",""弱我"",""强她""]","","","","","","","","nonmatch","","","","","","","","","","key","j","16.667693069306985","720","446","j","true","nonmatch","img/circle.png","坏她","好我","prac_ALT2_moral","practice_moral","","","","","","","","",""
"null","<span style='color:GreenYellow; font-size: 70px;'>正确! </span>","null","html-keyboard-response","89","254888","0.0-8.0-0.0-1.0-0.0-1.39","3","3","3","4","4","3","4","3","4","4","5","2","-1","-1","-2","-1","0","1","1","5","4","5","4","4","3","4","2","1","3","4","5","4","5","4","3","2","5","4","3","6","3","4","5","3","4","4","3","4","1","4","3","3","2","2","5","4","4","3","3","4","5","4","3","3","6","4","6","5","7","4","7","6","1","4","4","2","6","2","7","786940746056998913","林","628","Female","[""好我"",""坏她"",""坏我"",""好她""]","[""强我"",""弱她"",""弱我"",""强她""]","","","","","","","","","","","","","","","","","","","","","","","","","","","","","","feedback_test","","","","","","","","",""
"584","","f","psychophysics","90","256476","0.0-8.0-0.0-1.0-0.0-0.40","3","3","3","4","4","3","4","3","4","4","5","2","-1","-1","-2","-1","0","1","1","5","4","5","4","4","3","4","2","1","3","4","5","4","5","4","3","2","5","4","3","6","3","4","5","3","4","4","3","4","1","4","3","3","2","2","5","4","4","3","3","4","5","4","3","3","6","4","6","5","7","4","7","6","1","4","4","2","6","2","7","786940746056998913","林","628","Female","[""好我"",""坏她"",""坏我"",""好她""]","[""强我"",""弱她"",""弱我"",""强她""]","","","","","","","","match","","","","","","","","","","key","f","16.667893617021345","720","446","f","true","match","img/circle.png","好我","好我","prac_ALT2_moral","practice_moral","","","","","","","","",""
"null","<span style='color:GreenYellow; font-size: 70px;'>正确! </span>","null","html-keyboard-response","91","256977","0.0-8.0-0.0-1.0-0.0-1.40","3","3","3","4","4","3","4","3","4","4","5","2","-1","-1","-2","-1","0","1","1","5","4","5","4","4","3","4","2","1","3","4","5","4","5","4","3","2","5","4","3","6","3","4","5","3","4","4","3","4","1","4","3","3","2","2","5","4","4","3","3","4","5","4","3","3","6","4","6","5","7","4","7","6","1","4","4","2","6","2","7","786940746056998913","林","628","Female","[""好我"",""坏她"",""坏我"",""好她""]","[""强我"",""弱她"",""弱我"",""强她""]","","","","","","","","","","","","","","","","","","","","","","","","","","","","","","feedback_test","","","","","","","","",""
"621","","j","psychophysics","92","258604","0.0-8.0-0.0-1.0-0.0-0.41","3","3","3","4","4","3","4","3","4","4","5","2","-1","-1","-2","-1","0","1","1","5","4","5","4","4","3","4","2","1","3","4","5","4","5","4","3","2","5","4","3","6","3","4","5","3","4","4","3","4","1","4","3","3","2","2","5","4","4","3","3","4","5","4","3","3","6","4","6","5","7","4","7","6","1","4","4","2","6","2","7","786940746056998913","林","628","Female","[""好我"",""坏她"",""坏我"",""好她""]","[""强我"",""弱她"",""弱我"",""强她""]","","","","","","","","nonmatch","","","","","","","","","","key","j","16.66908333333322","720","446","f","false","match","img/triangle.png","坏我","坏我","prac_ALT2_moral","practice_moral","","","","","","","","",""
"null","<span style='color:red; font-size: 70px;'>错误! </span>","null","html-keyboard-response","93","259107","0.0-8.0-0.0-1.0-0.0-1.41","3","3","3","4","4","3","4","3","4","4","5","2","-1","-1","-2","-1","0","1","1","5","4","5","4","4","3","4","2","1","3","4","5","4","5","4","3","2","5","4","3","6","3","4","5","3","4","4","3","4","1","4","3","3","2","2","5","4","4","3","3","4","5","4","3","3","6","4","6","5","7","4","7","6","1","4","4","2","6","2","7","786940746056998913","林","628","Female","[""好我"",""坏她"",""坏我"",""好她""]","[""强我"",""弱她"",""弱我"",""强她""]","","","","","","","","","","","","","","","","","","","","","","","","","","","","","","feedback_test","","","","","","","","",""
"613","","j","psychophysics","94","260724","0.0-8.0-0.0-1.0-0.0-0.42","3","3","3","4","4","3","4","3","4","4","5","2","-1","-1","-2","-1","0","1","1","5","4","5","4","4","3","4","2","1","3","4","5","4","5","4","3","2","5","4","3","6","3","4","5","3","4","4","3","4","1","4","3","3","2","2","5","4","4","3","3","4","5","4","3","3","6","4","6","5","7","4","7","6","1","4","4","2","6","2","7","786940746056998913","林","628","Female","[""好我"",""坏她"",""坏我"",""好她""]","[""强我"",""弱她"",""弱我"",""强她""]","","","","","","","","nonmatch","","","","","","","","","","key","j","16.66939583333351","720","446","j","true","nonmatch","img/trapezoid.png","坏我","坏她","prac_ALT2_moral","practice_moral","","","","","","","","",""
"null","<span style='color:GreenYellow; font-size: 70px;'>正确! </span>","null","html-keyboard-response","95","261229","0.0-8.0-0.0-1.0-0.0-1.42","3","3","3","4","4","3","4","3","4","4","5","2","-1","-1","-2","-1","0","1","1","5","4","5","4","4","3","4","2","1","3","4","5","4","5","4","3","2","5","4","3","6","3","4","5","3","4","4","3","4","1","4","3","3","2","2","5","4","4","3","3","4","5","4","3","3","6","4","6","5","7","4","7","6","1","4","4","2","6","2","7","786940746056998913","林","628","Female","[""好我"",""坏她"",""坏我"",""好她""]","[""强我"",""弱她"",""弱我"",""强她""]","","","","","","","","","","","","","","","","","","","","","","","","","","","","","","feedback_test","","","","","","","","",""
"635","","j","psychophysics","96","262867","0.0-8.0-0.0-1.0-0.0-0.43","3","3","3","4","4","3","4","3","4","4","5","2","-1","-1","-2","-1","0","1","1","5","4","5","4","4","3","4","2","1","3","4","5","4","5","4","3","2","5","4","3","6","3","4","5","3","4","4","3","4","1","4","3","3","2","2","5","4","4","3","3","4","5","4","3","3","6","4","6","5","7","4","7","6","1","4","4","2","6","2","7","786940746056998913","林","628","Female","[""好我"",""坏她"",""坏我"",""好她""]","[""强我"",""弱她"",""弱我"",""强她""]","","","","","","","","nonmatch","","","","","","","","","","key","j","16.668247422680484","720","446","f","false","match","img/triangle.png","坏我","坏我","prac_ALT2_moral","practice_moral","","","","","","","","",""
"null","<span style='color:red; font-size: 70px;'>错误! </span>","null","html-keyboard-response","97","263369","0.0-8.0-0.0-1.0-0.0-1.43","3","3","3","4","4","3","4","3","4","4","5","2","-1","-1","-2","-1","0","1","1","5","4","5","4","4","3","4","2","1","3","4","5","4","5","4","3","2","5","4","3","6","3","4","5","3","4","4","3","4","1","4","3","3","2","2","5","4","4","3","3","4","5","4","3","3","6","4","6","5","7","4","7","6","1","4","4","2","6","2","7","786940746056998913","林","628","Female","[""好我"",""坏她"",""坏我"",""好她""]","[""强我"",""弱她"",""弱我"",""强她""]","","","","","","","","","","","","","","","","","","","","","","","","","","","","","","feedback_test","","","","","","","","",""
"837","","f","psychophysics","98","265209","0.0-8.0-0.0-1.0-0.0-0.44","3","3","3","4","4","3","4","3","4","4","5","2","-1","-1","-2","-1","0","1","1","5","4","5","4","4","3","4","2","1","3","4","5","4","5","4","3","2","5","4","3","6","3","4","5","3","4","4","3","4","1","4","3","3","2","2","5","4","4","3","3","4","5","4","3","3","6","4","6","5","7","4","7","6","1","4","4","2","6","2","7","786940746056998913","林","628","Female","[""好我"",""坏她"",""坏我"",""好她""]","[""强我"",""弱她"",""弱我"",""强她""]","","","","","","","","match","","","","","","","","","","key","f","16.657972477064064","720","446","f","true","match","img/triangle.png","坏我","坏我","prac_ALT2_moral","practice_moral","","","","","","","","",""
"null","<span style='color:GreenYellow; font-size: 70px;'>正确! </span>","null","html-keyboard-response","99","265711","0.0-8.0-0.0-1.0-0.0-1.44","3","3","3","4","4","3","4","3","4","4","5","2","-1","-1","-2","-1","0","1","1","5","4","5","4","4","3","4","2","1","3","4","5","4","5","4","3","2","5","4","3","6","3","4","5","3","4","4","3","4","1","4","3","3","2","2","5","4","4","3","3","4","5","4","3","3","6","4","6","5","7","4","7","6","1","4","4","2","6","2","7","786940746056998913","林","628","Female","[""好我"",""坏她"",""坏我"",""好她""]","[""强我"",""弱她"",""弱我"",""强她""]","","","","","","","","","","","","","","","","","","","","","","","","","","","","","","feedback_test","","","","","","","","",""
"585","","j","psychophysics","100","267298","0.0-8.0-0.0-1.0-0.0-0.45","3","3","3","4","4","3","4","3","4","4","5","2","-1","-1","-2","-1","0","1","1","5","4","5","4","4","3","4","2","1","3","4","5","4","5","4","3","2","5","4","3","6","3","4","5","3","4","4","3","4","1","4","3","3","2","2","5","4","4","3","3","4","5","4","3","3","6","4","6","5","7","4","7","6","1","4","4","2","6","2","7","786940746056998913","林","628","Female","[""好我"",""坏她"",""坏我"",""好她""]","[""强我"",""弱她"",""弱我"",""强她""]","","","","","","","","nonmatch","","","","","","","","","","key","j","16.66806382978734","720","446","j","true","nonmatch","img/triangle.png","好她","坏我","prac_ALT2_moral","practice_moral","","","","","","","","",""
"null","<span style='color:GreenYellow; font-size: 70px;'>正确! </span>","null","html-keyboard-response","101","267801","0.0-8.0-0.0-1.0-0.0-1.45","3","3","3","4","4","3","4","3","4","4","5","2","-1","-1","-2","-1","0","1","1","5","4","5","4","4","3","4","2","1","3","4","5","4","5","4","3","2","5","4","3","6","3","4","5","3","4","4","3","4","1","4","3","3","2","2","5","4","4","3","3","4","5","4","3","3","6","4","6","5","7","4","7","6","1","4","4","2","6","2","7","786940746056998913","林","628","Female","[""好我"",""坏她"",""坏我"",""好她""]","[""强我"",""弱她"",""弱我"",""强她""]","","","","","","","","","","","","","","","","","","","","","","","","","","","","","","feedback_test","","","","","","","","",""
"662","","j","psychophysics","102","269467","0.0-8.0-0.0-1.0-0.0-0.46","3","3","3","4","4","3","4","3","4","4","5","2","-1","-1","-2","-1","0","1","1","5","4","5","4","4","3","4","2","1","3","4","5","4","5","4","3","2","5","4","3","6","3","4","5","3","4","4","3","4","1","4","3","3","2","2","5","4","4","3","3","4","5","4","3","3","6","4","6","5","7","4","7","6","1","4","4","2","6","2","7","786940746056998913","林","628","Female","[""好我"",""坏她"",""坏我"",""好她""]","[""强我"",""弱她"",""弱我"",""强她""]","","","","","","","","nonmatch","","","","","","","","","","key","j","16.66890909090918","720","446","j","true","nonmatch","img/triangle.png","好我","坏我","prac_ALT2_moral","practice_moral","","","","","","","","",""
"null","<span style='color:GreenYellow; font-size: 70px;'>正确! </span>","null","html-keyboard-response","103","269969","0.0-8.0-0.0-1.0-0.0-1.46","3","3","3","4","4","3","4","3","4","4","5","2","-1","-1","-2","-1","0","1","1","5","4","5","4","4","3","4","2","1","3","4","5","4","5","4","3","2","5","4","3","6","3","4","5","3","4","4","3","4","1","4","3","3","2","2","5","4","4","3","3","4","5","4","3","3","6","4","6","5","7","4","7","6","1","4","4","2","6","2","7","786940746056998913","林","628","Female","[""好我"",""坏她"",""坏我"",""好她""]","[""强我"",""弱她"",""弱我"",""强她""]","","","","","","","","","","","","","","","","","","","","","","","","","","","","","","feedback_test","","","","","","","","",""
"904","","f","psychophysics","104","271877","0.0-8.0-0.0-1.0-0.0-0.47","3","3","3","4","4","3","4","3","4","4","5","2","-1","-1","-2","-1","0","1","1","5","4","5","4","4","3","4","2","1","3","4","5","4","5","4","3","2","5","4","3","6","3","4","5","3","4","4","3","4","1","4","3","3","2","2","5","4","4","3","3","4","5","4","3","3","6","4","6","5","7","4","7","6","1","4","4","2","6","2","7","786940746056998913","林","628","Female","[""好我"",""坏她"",""坏我"",""好她""]","[""强我"",""弱她"",""弱我"",""强她""]","","","","","","","","match","","","","","","","","","","key","f","16.66214159292074","720","446","j","false","nonmatch","img/hexagon.png","好我","好她","prac_ALT2_moral","practice_moral","","","","","","","","",""
"null","<span style='color:red; font-size: 70px;'>错误! </span>","null","html-keyboard-response","105","272381","0.0-8.0-0.0-1.0-0.0-1.47","3","3","3","4","4","3","4","3","4","4","5","2","-1","-1","-2","-1","0","1","1","5","4","5","4","4","3","4","2","1","3","4","5","4","5","4","3","2","5","4","3","6","3","4","5","3","4","4","3","4","1","4","3","3","2","2","5","4","4","3","3","4","5","4","3","3","6","4","6","5","7","4","7","6","1","4","4","2","6","2","7","786940746056998913","林","628","Female","[""好我"",""坏她"",""坏我"",""好她""]","[""强我"",""弱她"",""弱我"",""强她""]","","","","","","","","","","","","","","","","","","","","","","","","","","","","","","feedback_test","","","","","","","","",""
"12895","<style>.context{color:white; font-size: 35px; line-height:40px}</style>                            <div><p class='context'>您正确回答了67% 的试次。</p><p class='context'>您的平均反应时为749毫秒。</p><p class='context'>恭喜您完成练习。按空格键进入正式实验。</p><p class='footer' style='font-size: 35px; line-height:40px;'>请在进入正式实验实验之前将您的<span style='color: lightgreen;'>食指</span>放在电脑键盘的相应键位上进行按键。</p>","f","html-keyboard-response","106","285284","0.0-8.0-0.0-2.0","3","3","3","4","4","3","4","3","4","4","5","2","-1","-1","-2","-1","0","1","1","5","4","5","4","4","3","4","2","1","3","4","5","4","5","4","3","2","5","4","3","6","3","4","5","3","4","4","3","4","1","4","3","3","2","2","5","4","4","3","3","4","5","4","3","3","6","4","6","5","7","4","7","6","1","4","4","2","6","2","7","786940746056998913","林","628","Female","[""好我"",""坏她"",""坏我"",""好她""]","[""强我"",""弱她"",""弱我"",""强她""]","","","","","","","","","","","","","","","","","","","","","","","","","","","","","","","","","","","","","","",""
"253","
    <p style='color: white; font-size: 22px'>请您将手指放在按键上，准备进入正式的匹配任务。</p>
    <p> <div style = ""color: green""><按空格键进入下一阶段的匹配任务></div></p>
    ","h","html-keyboard-response","107","285547","0.0-8.0-0.0-3.0","3","3","3","4","4","3","4","3","4","4","5","2","-1","-1","-2","-1","0","1","1","5","4","5","4","4","3","4","2","1","3","4","5","4","5","4","3","2","5","4","3","6","3","4","5","3","4","4","3","4","1","4","3","3","2","2","5","4","4","3","3","4","5","4","3","3","6","4","6","5","7","4","7","6","1","4","4","2","6","2","7","786940746056998913","林","628","Female","[""好我"",""坏她"",""坏我"",""好她""]","[""强我"",""弱她"",""弱我"",""强她""]","","","","","","","","","","","","","","","","","","","","","","","","","","","","","","","","","","","","","","",""
"null","","null","psychophysics","108","287757","0.0-8.0-0.0-4.0-0.0-0.0","3","3","3","4","4","3","4","3","4","4","5","2","-1","-1","-2","-1","0","1","1","5","4","5","4","4","3","4","2","1","3","4","5","4","5","4","3","2","5","4","3","6","3","4","5","3","4","4","3","4","1","4","3","3","2","2","5","4","4","3","3","4","5","4","3","3","6","4","6","5","7","4","7","6","1","4","4","2","6","2","7","786940746056998913","林","628","Female","[""好我"",""坏她"",""坏我"",""好她""]","[""强我"",""弱她"",""弱我"",""强她""]","","","","","","","","null","","","","","","","","","","key","null","16.668633587786374","720","446","j","false","nonmatch","img/circle.png","坏我","好我","ALT2","moral","","","","","","","","",""
"null","<span class='add_' style='color:yellow; font-size: 70px;'> 太慢! </span>","null","html-keyboard-response","109","288263","0.0-8.0-0.0-4.0-0.0-1.0","3","3","3","4","4","3","4","3","4","4","5","2","-1","-1","-2","-1","0","1","1","5","4","5","4","4","3","4","2","1","3","4","5","4","5","4","3","2","5","4","3","6","3","4","5","3","4","4","3","4","1","4","3","3","2","2","5","4","4","3","3","4","5","4","3","3","6","4","6","5","7","4","7","6","1","4","4","2","6","2","7","786940746056998913","林","628","Female","[""好我"",""坏她"",""坏我"",""好她""]","[""强我"",""弱她"",""弱我"",""强她""]","","","","","","","","","","","","","","","","","","","","","","","","","","","","","","feedback_test","","","","","","","","",""
"848","","j","psychophysics","110","290115","0.0-8.0-0.0-4.0-0.0-0.1","3","3","3","4","4","3","4","3","4","4","5","2","-1","-1","-2","-1","0","1","1","5","4","5","4","4","3","4","2","1","3","4","5","4","5","4","3","2","5","4","3","6","3","4","5","3","4","4","3","4","1","4","3","3","2","2","5","4","4","3","3","4","5","4","3","3","6","4","6","5","7","4","7","6","1","4","4","2","6","2","7","786940746056998913","林","628","Female","[""好我"",""坏她"",""坏我"",""好她""]","[""强我"",""弱她"",""弱我"",""强她""]","","","","","","","","nonmatch","","","","","","","","","","key","j","16.668418181818296","720","446","f","false","match","img/trapezoid.png","坏她","坏她","ALT2","moral","","","","","","","","",""
"null","<span style='color:red; font-size: 70px;'>错误! </span>","null","html-keyboard-response","111","290617","0.0-8.0-0.0-4.0-0.0-1.1","3","3","3","4","4","3","4","3","4","4","5","2","-1","-1","-2","-1","0","1","1","5","4","5","4","4","3","4","2","1","3","4","5","4","5","4","3","2","5","4","3","6","3","4","5","3","4","4","3","4","1","4","3","3","2","2","5","4","4","3","3","4","5","4","3","3","6","4","6","5","7","4","7","6","1","4","4","2","6","2","7","786940746056998913","林","628","Female","[""好我"",""坏她"",""坏我"",""好她""]","[""强我"",""弱她"",""弱我"",""强她""]","","","","","","","","","","","","","","","","","","","","","","","","","","","","","","feedback_test","","","","","","","","",""
"874","","j","psychophysics","112","292495","0.0-8.0-0.0-4.0-0.0-0.2","3","3","3","4","4","3","4","3","4","4","5","2","-1","-1","-2","-1","0","1","1","5","4","5","4","4","3","4","2","1","3","4","5","4","5","4","3","2","5","4","3","6","3","4","5","3","4","4","3","4","1","4","3","3","2","2","5","4","4","3","3","4","5","4","3","3","6","4","6","5","7","4","7","6","1","4","4","2","6","2","7","786940746056998913","林","628","Female","[""好我"",""坏她"",""坏我"",""好她""]","[""强我"",""弱她"",""弱我"",""强她""]","","","","","","","","nonmatch","","","","","","","","","","key","j","16.66825892857118","720","446","j","true","nonmatch","img/trapezoid.png","好我","坏她","ALT2","moral","","","","","","","","",""
"null","<span style='color:GreenYellow; font-size: 70px;'>正确! </span>","null","html-keyboard-response","113","292999","0.0-8.0-0.0-4.0-0.0-1.2","3","3","3","4","4","3","4","3","4","4","5","2","-1","-1","-2","-1","0","1","1","5","4","5","4","4","3","4","2","1","3","4","5","4","5","4","3","2","5","4","3","6","3","4","5","3","4","4","3","4","1","4","3","3","2","2","5","4","4","3","3","4","5","4","3","3","6","4","6","5","7","4","7","6","1","4","4","2","6","2","7","786940746056998913","林","628","Female","[""好我"",""坏她"",""坏我"",""好她""]","[""强我"",""弱她"",""弱我"",""强她""]","","","","","","","","","","","","","","","","","","","","","","","","","","","","","","feedback_test","","","","","","","","",""
"632","","f","psychophysics","114","294634","0.0-8.0-0.0-4.0-0.0-0.3","3","3","3","4","4","3","4","3","4","4","5","2","-1","-1","-2","-1","0","1","1","5","4","5","4","4","3","4","2","1","3","4","5","4","5","4","3","2","5","4","3","6","3","4","5","3","4","4","3","4","1","4","3","3","2","2","5","4","4","3","3","4","5","4","3","3","6","4","6","5","7","4","7","6","1","4","4","2","6","2","7","786940746056998913","林","628","Female","[""好我"",""坏她"",""坏我"",""好她""]","[""强我"",""弱她"",""弱我"",""强她""]","","","","","","","","match","","","","","","","","","","key","f","16.66721649484507","720","446","j","false","nonmatch","img/hexagon.png","好我","好她","ALT2","moral","","","","","","","","",""
"null","<span style='color:red; font-size: 70px;'>错误! </span>","null","html-keyboard-response","115","295136","0.0-8.0-0.0-4.0-0.0-1.3","3","3","3","4","4","3","4","3","4","4","5","2","-1","-1","-2","-1","0","1","1","5","4","5","4","4","3","4","2","1","3","4","5","4","5","4","3","2","5","4","3","6","3","4","5","3","4","4","3","4","1","4","3","3","2","2","5","4","4","3","3","4","5","4","3","3","6","4","6","5","7","4","7","6","1","4","4","2","6","2","7","786940746056998913","林","628","Female","[""好我"",""坏她"",""坏我"",""好她""]","[""强我"",""弱她"",""弱我"",""强她""]","","","","","","","","","","","","","","","","","","","","","","","","","","","","","","feedback_test","","","","","","","","",""
"776","","j","psychophysics","116","296914","0.0-8.0-0.0-4.0-0.0-0.4","3","3","3","4","4","3","4","3","4","4","5","2","-1","-1","-2","-1","0","1","1","5","4","5","4","4","3","4","2","1","3","4","5","4","5","4","3","2","5","4","3","6","3","4","5","3","4","4","3","4","1","4","3","3","2","2","5","4","4","3","3","4","5","4","3","3","6","4","6","5","7","4","7","6","1","4","4","2","6","2","7","786940746056998913","林","628","Female","[""好我"",""坏她"",""坏我"",""好她""]","[""强我"",""弱她"",""弱我"",""强她""]","","","","","","","","nonmatch","","","","","","","","","","key","j","16.667660377358466","720","446","j","true","nonmatch","img/triangle.png","好我","坏我","ALT2","moral","","","","","","","","",""
"null","<span style='color:GreenYellow; font-size: 70px;'>正确! </span>","null","html-keyboard-response","117","297415","0.0-8.0-0.0-4.0-0.0-1.4","3","3","3","4","4","3","4","3","4","4","5","2","-1","-1","-2","-1","0","1","1","5","4","5","4","4","3","4","2","1","3","4","5","4","5","4","3","2","5","4","3","6","3","4","5","3","4","4","3","4","1","4","3","3","2","2","5","4","4","3","3","4","5","4","3","3","6","4","6","5","7","4","7","6","1","4","4","2","6","2","7","786940746056998913","林","628","Female","[""好我"",""坏她"",""坏我"",""好她""]","[""强我"",""弱她"",""弱我"",""强她""]","","","","","","","","","","","","","","","","","","","","","","","","","","","","","","feedback_test","","","","","","","","",""
"912","","j","psychophysics","118","299330","0.0-8.0-0.0-4.0-0.0-0.5","3","3","3","4","4","3","4","3","4","4","5","2","-1","-1","-2","-1","0","1","1","5","4","5","4","4","3","4","2","1","3","4","5","4","5","4","3","2","5","4","3","6","3","4","5","3","4","4","3","4","1","4","3","3","2","2","5","4","4","3","3","4","5","4","3","3","6","4","6","5","7","4","7","6","1","4","4","2","6","2","7","786940746056998913","林","628","Female","[""好我"",""坏她"",""坏我"",""好她""]","[""强我"",""弱她"",""弱我"",""强她""]","","","","","","","","nonmatch","","","","","","","","","","key","j","16.66794736842112","720","446","f","false","match","img/triangle.png","坏我","坏我","ALT2","moral","","","","","","","","",""
"null","<span style='color:red; font-size: 70px;'>错误! </span>","null","html-keyboard-response","119","299831","0.0-8.0-0.0-4.0-0.0-1.5","3","3","3","4","4","3","4","3","4","4","5","2","-1","-1","-2","-1","0","1","1","5","4","5","4","4","3","4","2","1","3","4","5","4","5","4","3","2","5","4","3","6","3","4","5","3","4","4","3","4","1","4","3","3","2","2","5","4","4","3","3","4","5","4","3","3","6","4","6","5","7","4","7","6","1","4","4","2","6","2","7","786940746056998913","林","628","Female","[""好我"",""坏她"",""坏我"",""好她""]","[""强我"",""弱她"",""弱我"",""强她""]","","","","","","","","","","","","","","","","","","","","","","","","","","","","","","feedback_test","","","","","","","","",""
"799","","f","psychophysics","120","301633","0.0-8.0-0.0-4.0-0.0-0.6","3","3","3","4","4","3","4","3","4","4","5","2","-1","-1","-2","-1","0","1","1","5","4","5","4","4","3","4","2","1","3","4","5","4","5","4","3","2","5","4","3","6","3","4","5","3","4","4","3","4","1","4","3","3","2","2","5","4","4","3","3","4","5","4","3","3","6","4","6","5","7","4","7","6","1","4","4","2","6","2","7","786940746056998913","林","628","Female","[""好我"",""坏她"",""坏我"",""好她""]","[""强我"",""弱她"",""弱我"",""强她""]","","","","","","","","match","","","","","","","","","","key","f","16.66701869158864","720","446","f","true","match","img/hexagon.png","好她","好她","ALT2","moral","","","","","","","","",""
"null","<span style='color:GreenYellow; font-size: 70px;'>正确! </span>","null","html-keyboard-response","121","302135","0.0-8.0-0.0-4.0-0.0-1.6","3","3","3","4","4","3","4","3","4","4","5","2","-1","-1","-2","-1","0","1","1","5","4","5","4","4","3","4","2","1","3","4","5","4","5","4","3","2","5","4","3","6","3","4","5","3","4","4","3","4","1","4","3","3","2","2","5","4","4","3","3","4","5","4","3","3","6","4","6","5","7","4","7","6","1","4","4","2","6","2","7","786940746056998913","林","628","Female","[""好我"",""坏她"",""坏我"",""好她""]","[""强我"",""弱她"",""弱我"",""强她""]","","","","","","","","","","","","","","","","","","","","","","","","","","","","","","feedback_test","","","","","","","","",""
"673","","j","psychophysics","122","303812","0.0-8.0-0.0-4.0-0.0-0.7","3","3","3","4","4","3","4","3","4","4","5","2","-1","-1","-2","-1","0","1","1","5","4","5","4","4","3","4","2","1","3","4","5","4","5","4","3","2","5","4","3","6","3","4","5","3","4","4","3","4","1","4","3","3","2","2","5","4","4","3","3","4","5","4","3","3","6","4","6","5","7","4","7","6","1","4","4","2","6","2","7","786940746056998913","林","628","Female","[""好我"",""坏她"",""坏我"",""好她""]","[""强我"",""弱她"",""弱我"",""强她""]","","","","","","","","nonmatch","","","","","","","","","","key","j","16.667430000000167","720","446","j","true","nonmatch","img/triangle.png","坏她","坏我","ALT2","moral","","","","","","","","",""
"null","<span style='color:GreenYellow; font-size: 70px;'>正确! </span>","null","html-keyboard-response","123","304314","0.0-8.0-0.0-4.0-0.0-1.7","3","3","3","4","4","3","4","3","4","4","5","2","-1","-1","-2","-1","0","1","1","5","4","5","4","4","3","4","2","1","3","4","5","4","5","4","3","2","5","4","3","6","3","4","5","3","4","4","3","4","1","4","3","3","2","2","5","4","4","3","3","4","5","4","3","3","6","4","6","5","7","4","7","6","1","4","4","2","6","2","7","786940746056998913","林","628","Female","[""好我"",""坏她"",""坏我"",""好她""]","[""强我"",""弱她"",""弱我"",""强她""]","","","","","","","","","","","","","","","","","","","","","","","","","","","","","","feedback_test","","","","","","","","",""
"543","","f","psychophysics","124","305861","0.0-8.0-0.0-4.0-0.0-0.8","3","3","3","4","4","3","4","3","4","4","5","2","-1","-1","-2","-1","0","1","1","5","4","5","4","4","3","4","2","1","3","4","5","4","5","4","3","2","5","4","3","6","3","4","5","3","4","4","3","4","1","4","3","3","2","2","5","4","4","3","3","4","5","4","3","3","6","4","6","5","7","4","7","6","1","4","4","2","6","2","7","786940746056998913","林","628","Female","[""好我"",""坏她"",""坏我"",""好她""]","[""强我"",""弱她"",""弱我"",""强她""]","","","","","","","","match","","","","","","","","","","key","f","16.667608695651996","720","446","f","true","match","img/circle.png","好我","好我","ALT2","moral","","","","","","","","",""
"null","<span style='color:GreenYellow; font-size: 70px;'>正确! </span>","null","html-keyboard-response","125","306364","0.0-8.0-0.0-4.0-0.0-1.8","3","3","3","4","4","3","4","3","4","4","5","2","-1","-1","-2","-1","0","1","1","5","4","5","4","4","3","4","2","1","3","4","5","4","5","4","3","2","5","4","3","6","3","4","5","3","4","4","3","4","1","4","3","3","2","2","5","4","4","3","3","4","5","4","3","3","6","4","6","5","7","4","7","6","1","4","4","2","6","2","7","786940746056998913","林","628","Female","[""好我"",""坏她"",""坏我"",""好她""]","[""强我"",""弱她"",""弱我"",""强她""]","","","","","","","","","","","","","","","","","","","","","","","","","","","","","","feedback_test","","","","","","","","",""
"595","","j","psychophysics","126","307963","0.0-8.0-0.0-4.0-0.0-0.9","3","3","3","4","4","3","4","3","4","4","5","2","-1","-1","-2","-1","0","1","1","5","4","5","4","4","3","4","2","1","3","4","5","4","5","4","3","2","5","4","3","6","3","4","5","3","4","4","3","4","1","4","3","3","2","2","5","4","4","3","3","4","5","4","3","3","6","4","6","5","7","4","7","6","1","4","4","2","6","2","7","786940746056998913","林","628","Female","[""好我"",""坏她"",""坏我"",""好她""]","[""强我"",""弱她"",""弱我"",""强她""]","","","","","","","","nonmatch","","","","","","","","","","key","j","16.668210526316205","720","446","j","true","nonmatch","img/circle.png","坏她","好我","ALT2","moral","","","","","","","","",""
"null","<span style='color:GreenYellow; font-size: 70px;'>正确! </span>","null","html-keyboard-response","127","308466","0.0-8.0-0.0-4.0-0.0-1.9","3","3","3","4","4","3","4","3","4","4","5","2","-1","-1","-2","-1","0","1","1","5","4","5","4","4","3","4","2","1","3","4","5","4","5","4","3","2","5","4","3","6","3","4","5","3","4","4","3","4","1","4","3","3","2","2","5","4","4","3","3","4","5","4","3","3","6","4","6","5","7","4","7","6","1","4","4","2","6","2","7","786940746056998913","林","628","Female","[""好我"",""坏她"",""坏我"",""好她""]","[""强我"",""弱她"",""弱我"",""强她""]","","","","","","","","","","","","","","","","","","","","","","","","","","","","","","feedback_test","","","","","","","","",""
"854","","f","psychophysics","128","310323","0.0-8.0-0.0-4.0-0.0-0.10","3","3","3","4","4","3","4","3","4","4","5","2","-1","-1","-2","-1","0","1","1","5","4","5","4","4","3","4","2","1","3","4","5","4","5","4","3","2","5","4","3","6","3","4","5","3","4","4","3","4","1","4","3","3","2","2","5","4","4","3","3","4","5","4","3","3","6","4","6","5","7","4","7","6","1","4","4","2","6","2","7","786940746056998913","林","628","Female","[""好我"",""坏她"",""坏我"",""好她""]","[""强我"",""弱她"",""弱我"",""强她""]","","","","","","","","match","","","","","","","","","","key","f","16.66813636363632","720","446","f","true","match","img/trapezoid.png","坏她","坏她","ALT2","moral","","","","","","","","",""
"null","<span style='color:GreenYellow; font-size: 70px;'>正确! </span>","null","html-keyboard-response","129","310827","0.0-8.0-0.0-4.0-0.0-1.10","3","3","3","4","4","3","4","3","4","4","5","2","-1","-1","-2","-1","0","1","1","5","4","5","4","4","3","4","2","1","3","4","5","4","5","4","3","2","5","4","3","6","3","4","5","3","4","4","3","4","1","4","3","3","2","2","5","4","4","3","3","4","5","4","3","3","6","4","6","5","7","4","7","6","1","4","4","2","6","2","7","786940746056998913","林","628","Female","[""好我"",""坏她"",""坏我"",""好她""]","[""强我"",""弱她"",""弱我"",""强她""]","","","","","","","","","","","","","","","","","","","","","","","","","","","","","","feedback_test","","","","","","","","",""
"617","","f","psychophysics","130","312447","0.0-8.0-0.0-4.0-0.0-0.11","3","3","3","4","4","3","4","3","4","4","5","2","-1","-1","-2","-1","0","1","1","5","4","5","4","4","3","4","2","1","3","4","5","4","5","4","3","2","5","4","3","6","3","4","5","3","4","4","3","4","1","4","3","3","2","2","5","4","4","3","3","4","5","4","3","3","6","4","6","5","7","4","7","6","1","4","4","2","6","2","7","786940746056998913","林","628","Female","[""好我"",""坏她"",""坏我"",""好她""]","[""强我"",""弱她"",""弱我"",""强她""]","","","","","","","","match","","","","","","","","","","key","f","16.668270833333736","720","446","f","true","match","img/circle.png","好我","好我","ALT2","moral","","","","","","","","",""
"null","<span style='color:GreenYellow; font-size: 70px;'>正确! </span>","null","html-keyboard-response","131","312950","0.0-8.0-0.0-4.0-0.0-1.11","3","3","3","4","4","3","4","3","4","4","5","2","-1","-1","-2","-1","0","1","1","5","4","5","4","4","3","4","2","1","3","4","5","4","5","4","3","2","5","4","3","6","3","4","5","3","4","4","3","4","1","4","3","3","2","2","5","4","4","3","3","4","5","4","3","3","6","4","6","5","7","4","7","6","1","4","4","2","6","2","7","786940746056998913","林","628","Female","[""好我"",""坏她"",""坏我"",""好她""]","[""强我"",""弱她"",""弱我"",""强她""]","","","","","","","","","","","","","","","","","","","","","","","","","","","","","","feedback_test","","","","","","","","",""
"910","","j","psychophysics","132","314863","0.0-8.0-0.0-4.0-0.0-0.12","3","3","3","4","4","3","4","3","4","4","5","2","-1","-1","-2","-1","0","1","1","5","4","5","4","4","3","4","2","1","3","4","5","4","5","4","3","2","5","4","3","6","3","4","5","3","4","4","3","4","1","4","3","3","2","2","5","4","4","3","3","4","5","4","3","3","6","4","6","5","7","4","7","6","1","4","4","2","6","2","7","786940746056998913","林","628","Female","[""好我"",""坏她"",""坏我"",""好她""]","[""强我"",""弱她"",""弱我"",""强她""]","","","","","","","","nonmatch","","","","","","","","","","key","j","16.66792982456166","720","446","j","true","nonmatch","img/hexagon.png","坏我","好她","ALT2","moral","","","","","","","","",""
"null","<span style='color:GreenYellow; font-size: 70px;'>正确! </span>","null","html-keyboard-response","133","315366","0.0-8.0-0.0-4.0-0.0-1.12","3","3","3","4","4","3","4","3","4","4","5","2","-1","-1","-2","-1","0","1","1","5","4","5","4","4","3","4","2","1","3","4","5","4","5","4","3","2","5","4","3","6","3","4","5","3","4","4","3","4","1","4","3","3","2","2","5","4","4","3","3","4","5","4","3","3","6","4","6","5","7","4","7","6","1","4","4","2","6","2","7","786940746056998913","林","628","Female","[""好我"",""坏她"",""坏我"",""好她""]","[""强我"",""弱她"",""弱我"",""强她""]","","","","","","","","","","","","","","","","","","","","","","","","","","","","","","feedback_test","","","","","","","","",""
"1028","","f","psychophysics","134","317398","0.0-8.0-0.0-4.0-0.0-0.13","3","3","3","4","4","3","4","3","4","4","5","2","-1","-1","-2","-1","0","1","1","5","4","5","4","4","3","4","2","1","3","4","5","4","5","4","3","2","5","4","3","6","3","4","5","3","4","4","3","4","1","4","3","3","2","2","5","4","4","3","3","4","5","4","3","3","6","4","6","5","7","4","7","6","1","4","4","2","6","2","7","786940746056998913","林","628","Female","[""好我"",""坏她"",""坏我"",""好她""]","[""强我"",""弱她"",""弱我"",""强她""]","","","","","","","","match","","","","","","","","","","key","f","16.668818181817908","720","446","f","true","match","img/hexagon.png","好她","好她","ALT2","moral","","","","","","","","",""
"null","<span style='color:GreenYellow; font-size: 70px;'>正确! </span>","null","html-keyboard-response","135","317900","0.0-8.0-0.0-4.0-0.0-1.13","3","3","3","4","4","3","4","3","4","4","5","2","-1","-1","-2","-1","0","1","1","5","4","5","4","4","3","4","2","1","3","4","5","4","5","4","3","2","5","4","3","6","3","4","5","3","4","4","3","4","1","4","3","3","2","2","5","4","4","3","3","4","5","4","3","3","6","4","6","5","7","4","7","6","1","4","4","2","6","2","7","786940746056998913","林","628","Female","[""好我"",""坏她"",""坏我"",""好她""]","[""强我"",""弱她"",""弱我"",""强她""]","","","","","","","","","","","","","","","","","","","","","","","","","","","","","","feedback_test","","","","","","","","",""
"852","","f","psychophysics","136","319755","0.0-8.0-0.0-4.0-0.0-0.14","3","3","3","4","4","3","4","3","4","4","5","2","-1","-1","-2","-1","0","1","1","5","4","5","4","4","3","4","2","1","3","4","5","4","5","4","3","2","5","4","3","6","3","4","5","3","4","4","3","4","1","4","3","3","2","2","5","4","4","3","3","4","5","4","3","3","6","4","6","5","7","4","7","6","1","4","4","2","6","2","7","786940746056998913","林","628","Female","[""好我"",""坏她"",""坏我"",""好她""]","[""强我"",""弱她"",""弱我"",""强她""]","","","","","","","","match","","","","","","","","","","key","f","16.667472727272912","720","446","f","true","match","img/hexagon.png","好她","好她","ALT2","moral","","","","","","","","",""
"null","<span style='color:GreenYellow; font-size: 70px;'>正确! </span>","null","html-keyboard-response","137","320256","0.0-8.0-0.0-4.0-0.0-1.14","3","3","3","4","4","3","4","3","4","4","5","2","-1","-1","-2","-1","0","1","1","5","4","5","4","4","3","4","2","1","3","4","5","4","5","4","3","2","5","4","3","6","3","4","5","3","4","4","3","4","1","4","3","3","2","2","5","4","4","3","3","4","5","4","3","3","6","4","6","5","7","4","7","6","1","4","4","2","6","2","7","786940746056998913","林","628","Female","[""好我"",""坏她"",""坏我"",""好她""]","[""强我"",""弱她"",""弱我"",""强她""]","","","","","","","","","","","","","","","","","","","","","","","","","","","","","","feedback_test","","","","","","","","",""
