"rt","stimulus","response","trial_type","trial_index","time_elapsed","internal_node_id","swb_1","swb_2","swb_3","swb_4","swb_5","LOT_1","LOT_2","LOT_3","LOT_4","LOT_5","LOT_6","IPC_1","IPC_2","IPC_3","IPC_4","IPC_5","IPC_6","IPC_7","IPC_8","MorIden_1","MorIden_2","MorIden_3","MorIden_4","MorIden_5","MorIden_6","MorIden_7","MorIden_8","MorIden_9","MorIden_10","moralSeImag_1","moralSeImag_2","moralSeImag_3","moralSeImag_4","moralSeImag_5","moralSeImag_6","moralSeImag_7","moralSeImag_8","moralSeImag_9","sde_1","sde_2","sde_3","sde_4","sde_5","sde_6","sde_7","sde_8","sde_9","sde_10","trap2","sde_11","sde_12","sde_13","sde_14","sde_15","sde_16","sde_17","sde_18","sde_19","sde_20","IM_1","IM_2","IM_3","IM_4","IM_5","IM_6","IM_7","IM_8","IM_9","IM_10","IM_11","IM_12","IM_13","IM_14","IM_15","IM_16","IM_17","IM_18","IM_19","IM_20","subj_idx","friend_name","ParticipantID","Sex","Word","Word2","value","success","timeout","failed_images","failed_audio","failed_video","user_agent","responses","item_order","radio_event_ids","radio_event_times","key_event_times","mouse_event_times","straightlining","zigzagging","honeypot","task_id","screen_id","time_stamp","response_type","key_press","avg_frame_time","center_x","center_y","person","word","valence","domain","math","correct_response","correct","status","view_history","identity","duration","Image","condition","question_order","trap2_item"
"2642","
   <p><div style='color:white; font-size: 25px'>您好，欢迎参加本次实验。</div></p>
   <p><div style='color:white; font-size: 25px'>为充分保障您的权利，请确保您已经知晓并同意《参与实验同意书》以及《数据公开知情同意书》。</div></p>
   <p><div style='color:white; font-size: 25px'>如果您未见过上述内容，请咨询实验员。</div></p>
   <p style='color:white; font-size: 25px'>如果您选择继续实验，则表示您已经清楚两份知情同意书的内容并同意。</p>
   <p><div style = ""color: pink;font-size:30px;"">请确保您记得day0的实验编号，您将在本次实验输入该编号，若您忘记，请咨询实验员后作答。</div></p>
   <p><div style = ""color:lightblue;font-size:25px;"">请您尽可能认真地作答，我们将依据您在各问卷和按键任务中的作答质量发放报酬。</div></p>
   <p> <div style = ""color: green""><按空格键至下页></div> </p>
   "," ","html-keyboard-response","0","2648","0.0-0.0","6","6","7","6","6","4","3","4","5","5","4","1","1","1","2","1","1","1","1","4","4","5","5","5","4","4","5","4","4","5","7","7","7","7","8","6","8","8","5","6","2","6","5","5","5","1","6","5","1","5","3","6","3","6","6","5","7","2","6","7","6","3","7","6","7","7","5","7","6","7","7","7","7","7","7","3","7","6","6","776085809274294274","张","313","Female","[""好我"",""坏我"",""坏她"",""好她""]","[""强我"",""弱我"",""弱她"",""强她""]","","","","","","","","","","","","","","","","","","","","","","","","","","","","","","","","","","","","","","",""
"","","","call-function","1","2652","0.0-1.0-0.0","6","6","7","6","6","4","3","4","5","5","4","1","1","1","2","1","1","1","1","4","4","5","5","5","4","4","5","4","4","5","7","7","7","7","8","6","8","8","5","6","2","6","5","5","5","1","6","5","1","5","3","6","3","6","6","5","7","2","6","7","6","3","7","6","7","7","5","7","6","7","7","7","7","7","7","3","7","6","6","776085809274294274","张","313","Female","[""好我"",""坏我"",""坏她"",""好她""]","[""强我"",""弱我"",""弱她"",""强她""]","","","","","","","","","","","","","","","","","","","","","","","","","","","","","","","","","","","","","","",""
"30835","","[{""name"":""Sex"",""value"":""1""},{""name"":""friend_name"",""value"":""张""},{""name"":""ParticipantID"",""value"":""313""}]","survey-html-form","2","33489","0.0-1.0-1.0","6","6","7","6","6","4","3","4","5","5","4","1","1","1","2","1","1","1","1","4","4","5","5","5","4","4","5","4","4","5","7","7","7","7","8","6","8","8","5","6","2","6","5","5","5","1","6","5","1","5","3","6","3","6","6","5","7","2","6","7","6","3","7","6","7","7","5","7","6","7","7","7","7","7","7","3","7","6","6","776085809274294274","张","313","Female","[""好我"",""坏我"",""坏她"",""好她""]","[""强我"",""弱我"",""弱她"",""强她""]","","","","","","","","","","","","","","","","","","","","","","","","","","","","","","","","","","","","","","",""
"","","","preload","3","33581","0.0-2.0","6","6","7","6","6","4","3","4","5","5","4","1","1","1","2","1","1","1","1","4","4","5","5","5","4","4","5","4","4","5","7","7","7","7","8","6","8","8","5","6","2","6","5","5","5","1","6","5","1","5","3","6","3","6","6","5","7","2","6","7","6","3","7","6","7","7","5","7","6","7","7","7","7","7","7","3","7","6","6","776085809274294274","张","313","Female","[""好我"",""坏我"",""坏她"",""好她""]","[""强我"",""弱我"",""弱她"",""强她""]","","true","false","[]","[]","[]","","","","","","","","","","","","","","","","","","","","","","","","","","","","","","","","",""
"","","","fullscreen","4","51770","0.0-3.0","6","6","7","6","6","4","3","4","5","5","4","1","1","1","2","1","1","1","1","4","4","5","5","5","4","4","5","4","4","5","7","7","7","7","8","6","8","8","5","6","2","6","5","5","5","1","6","5","1","5","3","6","3","6","6","5","7","2","6","7","6","3","7","6","7","7","5","7","6","7","7","7","7","7","7","3","7","6","6","776085809274294274","张","313","Female","[""好我"",""坏我"",""坏她"",""好她""]","[""强我"",""弱我"",""弱她"",""强她""]","","true","","","","","{}","","","","","","","","","","","","","","","","","","","","","","","","","","","","","","","",""
"8941.400000095367","","{""Q01"":""6"",""Q02"":""6"",""Q03"":""7"",""Q04"":""6"",""Q05"":""6""}","survey-template","5","60715","0.0-4.0","6","6","7","6","6","4","3","4","5","5","4","1","1","1","2","1","1","1","1","4","4","5","5","5","4","4","5","4","4","5","7","7","7","7","8","6","8","8","5","6","2","6","5","5","5","1","6","5","1","5","3","6","3","6","6","5","7","2","6","7","6","3","7","6","7","7","5","7","6","7","7","7","7","7","7","3","7","6","6","776085809274294274","张","313","Female","[""好我"",""坏我"",""坏她"",""好她""]","[""强我"",""弱我"",""弱她"",""强她""]","","","","","","","","{""Q01"":""6"",""Q02"":""6"",""Q03"":""7"",""Q04"":""6"",""Q05"":""6""}","[0,1,2,3,4]","[""Q01"",""Q02"",""Q03"",""Q04"",""Q05""]","[3702.4000000953674,4693,5613,7059.800000071526,8411]","[]","[3702.4000000953674,4693,5613,7059.800000071526,8411,8939]","0.8","0.5","0","","","","","","","","","","","","","","","","","","","","","","",""
"14832.5","","{""Q01"":""4"",""Q02"":""3"",""Q03"":""4"",""Q04"":""5"",""Q05"":""5"",""Q06"":""4""}","survey-template","6","75553","0.0-5.0","6","6","7","6","6","4","3","4","5","5","4","1","1","1","2","1","1","1","1","4","4","5","5","5","4","4","5","4","4","5","7","7","7","7","8","6","8","8","5","6","2","6","5","5","5","1","6","5","1","5","3","6","3","6","6","5","7","2","6","7","6","3","7","6","7","7","5","7","6","7","7","7","7","7","7","3","7","6","6","776085809274294274","张","313","Female","[""好我"",""坏我"",""坏她"",""好她""]","[""强我"",""弱我"",""弱她"",""强她""]","","","","","","","","{""Q01"":""4"",""Q02"":""3"",""Q03"":""4"",""Q04"":""5"",""Q05"":""5"",""Q06"":""4""}","[0,1,2,3,4,5]","[""Q01"",""Q02"",""Q03"",""Q04"",""Q05"",""Q06""]","[2824.600000023842,6017.100000023842,6833.399999976158,9343.5,11022.300000071526,14254.300000071526]","[]","[2824.600000023842,5281.600000023842,6017.100000023842,6833.399999976158,9343.5,11022.300000071526,13304.300000071526,14254.300000071526,14829.399999976158]","0.5","0.4","0","","","","","","","","","","","","","","","","","","","","","","",""
"18541.5","","{""Q01"":""1"",""Q02"":""1"",""Q03"":""1"",""Q04"":""2"",""Q05"":""1"",""Q06"":""1"",""Q07"":""1"",""Q08"":""1""}","survey-template","7","94100","0.0-6.0","6","6","7","6","6","4","3","4","5","5","4","1","1","1","2","1","1","1","1","4","4","5","5","5","4","4","5","4","4","5","7","7","7","7","8","6","8","8","5","6","2","6","5","5","5","1","6","5","1","5","3","6","3","6","6","5","7","2","6","7","6","3","7","6","7","7","5","7","6","7","7","7","7","7","7","3","7","6","6","776085809274294274","张","313","Female","[""好我"",""坏我"",""坏她"",""好她""]","[""强我"",""弱我"",""弱她"",""强她""]","","","","","","","","{""Q01"":""1"",""Q02"":""1"",""Q03"":""1"",""Q04"":""2"",""Q05"":""1"",""Q06"":""1"",""Q07"":""1"",""Q08"":""1""}","[0,1,2,3,4,5,6,7]","[""Q01"",""Q02"",""Q03"",""Q04"",""Q05"",""Q06"",""Q07"",""Q08""]","[2127.2999999523163,6685,9764.199999928474,10307.199999928474,12616,14383.099999904633,17347.099999904633,18018]","[]","[2127.2999999523163,6685,7916.899999976158,9764.199999928474,10307.199999928474,12616,14383.099999904633,17347.099999904633,18018,18537.899999976158]","0.875","0.2857142857142857","0","","","","","","","","","","","","","","","","","","","","","","",""
"4988","
    <p><div style='color:white;font-size:35px; line-height:20px;'>词汇评估任务</div></p><br>
    <p><div style='color:white;font-size:25px; line-height:20px;'>请再次回忆该亲密的朋友，你们至少2年前就认识了，并且最近2年经常见面。</div></p>
    <p><div style='color:white;font-size:25px; line-height:20px;'>在本实验中，您将会看到一些形容词。</div></p>
    <p><div style='color:yellow;font-size:25px; line-height:20px;'>您的任务是判断这些形容词是否符合对您自己或您的朋友的描述。</div></p><p style='font-size:35px'>符合按<span style=""color:lightgreen""> j 键</span>，不符合按<span style=""color:red""> f 键</span></p>","0","html-button-response","8","99093","0.0-7.0-0.0","6","6","7","6","6","4","3","4","5","5","4","1","1","1","2","1","1","1","1","4","4","5","5","5","4","4","5","4","4","5","7","7","7","7","8","6","8","8","5","6","2","6","5","5","5","1","6","5","1","5","3","6","3","6","6","5","7","2","6","7","6","3","7","6","7","7","5","7","6","7","7","7","7","7","7","3","7","6","6","776085809274294274","张","313","Female","[""好我"",""坏我"",""坏她"",""好她""]","[""强我"",""弱我"",""弱她"",""强她""]","","","","","","","","","","","","","","","","","SRET_EW","EW_instructions","Tue Jan 02 2024 21:53:33 GMT+0800 (中国标准时间)","","","","","","","","","","","","","","","","","","","",""
"1862","","j","psychophysics","9","101959","0.0-7.0-1.0-0.0","6","6","7","6","6","4","3","4","5","5","4","1","1","1","2","1","1","1","1","4","4","5","5","5","4","4","5","4","4","5","7","7","7","7","8","6","8","8","5","6","2","6","5","5","5","1","6","5","1","5","3","6","3","6","6","5","7","2","6","7","6","3","7","6","7","7","5","7","6","7","7","7","7","7","7","3","7","6","6","776085809274294274","张","313","Female","[""好我"",""坏我"",""坏她"",""好她""]","[""强我"",""弱我"",""弱她"",""强她""]","","","","","","","","yes","","","","","","","","","SRET_EW","EW_practice","","key","j","16.667296511627875","960","536","自己","严谨","Positive","ability","","","","","","","","","","",""
"906","","j","psychophysics","10","103866","0.0-7.0-1.0-0.1","6","6","7","6","6","4","3","4","5","5","4","1","1","1","2","1","1","1","1","4","4","5","5","5","4","4","5","4","4","5","7","7","7","7","8","6","8","8","5","6","2","6","5","5","5","1","6","5","1","5","3","6","3","6","6","5","7","2","6","7","6","3","7","6","7","7","5","7","6","7","7","7","7","7","7","3","7","6","6","776085809274294274","张","313","Female","[""好我"",""坏我"",""坏她"",""好她""]","[""强我"",""弱我"",""弱她"",""强她""]","","","","","","","","yes","","","","","","","","","SRET_EW","EW_practice","","key","j","16.81585714285705","960","536","朋友","忠实","Positive","morality","","","","","","","","","","",""
"958","","f","psychophysics","11","105826","0.0-7.0-1.0-0.2","6","6","7","6","6","4","3","4","5","5","4","1","1","1","2","1","1","1","1","4","4","5","5","5","4","4","5","4","4","5","7","7","7","7","8","6","8","8","5","6","2","6","5","5","5","1","6","5","1","5","3","6","3","6","6","5","7","2","6","7","6","3","7","6","7","7","5","7","6","7","7","7","7","7","7","3","7","6","6","776085809274294274","张","313","Female","[""好我"",""坏我"",""坏她"",""好她""]","[""强我"",""弱我"",""弱她"",""强她""]","","","","","","","","no","","","","","","","","","SRET_EW","EW_practice","","key","f","16.667213675213787","960","536","自己","刻板","Negative","ability","","","","","","","","","","",""
"887","","f","psychophysics","12","107717","0.0-7.0-1.0-0.3","6","6","7","6","6","4","3","4","5","5","4","1","1","1","2","1","1","1","1","4","4","5","5","5","4","4","5","4","4","5","7","7","7","7","8","6","8","8","5","6","2","6","5","5","5","1","6","5","1","5","3","6","3","6","6","5","7","2","6","7","6","3","7","6","7","7","5","7","6","7","7","7","7","7","7","3","7","6","6","776085809274294274","张","313","Female","[""好我"",""坏我"",""坏她"",""好她""]","[""强我"",""弱我"",""弱她"",""强她""]","","","","","","","","no","","","","","","","","","SRET_EW","EW_practice","","key","f","16.666678571428616","960","536","朋友","徇私","Negative","morality","","","","","","","","","","",""
"21182","
    <p><div style='color:white;font-size:35px; line-height:20px;'>请您再次阅读实验要求</div></p><br>
    <p><div style='color:white;font-size:25px; line-height:20px;'>请回忆某一个亲密的朋友，你们至少2年前就认识了，并且最近2年经常见面。</div></p>
    <p><div style='color:white;font-size:25px; line-height:20px;'>在本实验中，您将会看到一些形容词。</div></p>
    <p><div style='color:yellow;font-size:25px; line-height:20px;'>您的任务是判断这些形容词是否符合对您自己或您的朋友的描述。</div></p>
    <p><div class='footer' style='font-size:25px; line-height:20px;'>如果对本实验还有不清楚之处，请立即向实验员咨询。</p><p style='font-size:25px; line-height:20px;'>如果您明白了规则：</p><p style='font-size:22px; line-height:20px;'>请按 继续 进入正式实验</p>
    </div>
    <p style='font-size:35px'>符合按<span style=""color:lightgreen""> j 键</span>，不符合按<span style=""color:red""> f 键</span></p>","0","html-button-response","13","128902","0.0-7.0-2.0","6","6","7","6","6","4","3","4","5","5","4","1","1","1","2","1","1","1","1","4","4","5","5","5","4","4","5","4","4","5","7","7","7","7","8","6","8","8","5","6","2","6","5","5","5","1","6","5","1","5","3","6","3","6","6","5","7","2","6","7","6","3","7","6","7","7","5","7","6","7","7","7","7","7","7","3","7","6","6","776085809274294274","张","313","Female","[""好我"",""坏我"",""坏她"",""好她""]","[""强我"",""弱我"",""弱她"",""强她""]","","","","","","","","","","","","","","","","","SRET_EW","prac_instructions","Tue Jan 02 2024 21:53:33 GMT+0800 (中国标准时间)","","","","","","","","","","","","","","","","","","","",""
"920","","j","psychophysics","14","130824","0.0-7.0-3.0-0.0","6","6","7","6","6","4","3","4","5","5","4","1","1","1","2","1","1","1","1","4","4","5","5","5","4","4","5","4","4","5","7","7","7","7","8","6","8","8","5","6","2","6","5","5","5","1","6","5","1","5","3","6","3","6","6","5","7","2","6","7","6","3","7","6","7","7","5","7","6","7","7","7","7","7","7","3","7","6","6","776085809274294274","张","313","Female","[""好我"",""坏我"",""坏她"",""好她""]","[""强我"",""弱我"",""弱她"",""强她""]","","","","","","","","yes","","","","","","","","","SRET","EW_formal","","key","j","16.6664434782609","960","536","自己","坚贞","Positive","morality","","","","","","","","","","",""
"951","","j","psychophysics","15","132777","0.0-7.0-3.0-0.1","6","6","7","6","6","4","3","4","5","5","4","1","1","1","2","1","1","1","1","4","4","5","5","5","4","4","5","4","4","5","7","7","7","7","8","6","8","8","5","6","2","6","5","5","5","1","6","5","1","5","3","6","3","6","6","5","7","2","6","7","6","3","7","6","7","7","5","7","6","7","7","7","7","7","7","3","7","6","6","776085809274294274","张","313","Female","[""好我"",""坏我"",""坏她"",""好她""]","[""强我"",""弱我"",""弱她"",""强她""]","","","","","","","","yes","","","","","","","","","SRET","EW_formal","","key","j","16.667206896551793","960","536","朋友","务实","Positive","ability","","","","","","","","","","",""
"720","","f","psychophysics","16","134500","0.0-7.0-3.0-0.2","6","6","7","6","6","4","3","4","5","5","4","1","1","1","2","1","1","1","1","4","4","5","5","5","4","4","5","4","4","5","7","7","7","7","8","6","8","8","5","6","2","6","5","5","5","1","6","5","1","5","3","6","3","6","6","5","7","2","6","7","6","3","7","6","7","7","5","7","6","7","7","7","7","7","7","3","7","6","6","776085809274294274","张","313","Female","[""好我"",""坏我"",""坏她"",""好她""]","[""强我"",""弱我"",""弱她"",""强她""]","","","","","","","","no","","","","","","","","","SRET","EW_formal","","key","f","16.66612745098046","960","536","朋友","迷糊","Negative","ability","","","","","","","","","","",""
"689","","f","psychophysics","17","136190","0.0-7.0-3.0-0.3","6","6","7","6","6","4","3","4","5","5","4","1","1","1","2","1","1","1","1","4","4","5","5","5","4","4","5","4","4","5","7","7","7","7","8","6","8","8","5","6","2","6","5","5","5","1","6","5","1","5","3","6","3","6","6","5","7","2","6","7","6","3","7","6","7","7","5","7","6","7","7","7","7","7","7","3","7","6","6","776085809274294274","张","313","Female","[""好我"",""坏我"",""坏她"",""好她""]","[""强我"",""弱我"",""弱她"",""强她""]","","","","","","","","no","","","","","","","","","SRET","EW_formal","","key","f","16.667059405940805","960","536","自己","说谎","Negative","morality","","","","","","","","","","",""
"702","","f","psychophysics","18","137894","0.0-7.0-3.0-0.4","6","6","7","6","6","4","3","4","5","5","4","1","1","1","2","1","1","1","1","4","4","5","5","5","4","4","5","4","4","5","7","7","7","7","8","6","8","8","5","6","2","6","5","5","5","1","6","5","1","5","3","6","3","6","6","5","7","2","6","7","6","3","7","6","7","7","5","7","6","7","7","7","7","7","7","3","7","6","6","776085809274294274","张","313","Female","[""好我"",""坏我"",""坏她"",""好她""]","[""强我"",""弱我"",""弱她"",""强她""]","","","","","","","","no","","","","","","","","","SRET","EW_formal","","key","f","16.668009900990217","960","536","朋友","窝囊","Negative","ability","","","","","","","","","","",""
"810","","j","psychophysics","19","139708","0.0-7.0-3.0-0.5","6","6","7","6","6","4","3","4","5","5","4","1","1","1","2","1","1","1","1","4","4","5","5","5","4","4","5","4","4","5","7","7","7","7","8","6","8","8","5","6","2","6","5","5","5","1","6","5","1","5","3","6","3","6","6","5","7","2","6","7","6","3","7","6","7","7","5","7","6","7","7","7","7","7","7","3","7","6","6","776085809274294274","张","313","Female","[""好我"",""坏我"",""坏她"",""好她""]","[""强我"",""弱我"",""弱她"",""强她""]","","","","","","","","yes","","","","","","","","","SRET","EW_formal","","key","j","16.666620370370328","960","536","朋友","忠良","Positive","morality","","","","","","","","","","",""
"645","","f","psychophysics","20","141356","0.0-7.0-3.0-0.6","6","6","7","6","6","4","3","4","5","5","4","1","1","1","2","1","1","1","1","4","4","5","5","5","4","4","5","4","4","5","7","7","7","7","8","6","8","8","5","6","2","6","5","5","5","1","6","5","1","5","3","6","3","6","6","5","7","2","6","7","6","3","7","6","7","7","5","7","6","7","7","7","7","7","7","3","7","6","6","776085809274294274","张","313","Female","[""好我"",""坏我"",""坏她"",""好她""]","[""强我"",""弱我"",""弱她"",""强她""]","","","","","","","","no","","","","","","","","","SRET","EW_formal","","key","f","16.66707142857135","960","536","朋友","笨蛋","Negative","ability","","","","","","","","","","",""
"633","","f","psychophysics","21","142991","0.0-7.0-3.0-0.7","6","6","7","6","6","4","3","4","5","5","4","1","1","1","2","1","1","1","1","4","4","5","5","5","4","4","5","4","4","5","7","7","7","7","8","6","8","8","5","6","2","6","5","5","5","1","6","5","1","5","3","6","3","6","6","5","7","2","6","7","6","3","7","6","7","7","5","7","6","7","7","7","7","7","7","3","7","6","6","776085809274294274","张","313","Female","[""好我"",""坏我"",""坏她"",""好她""]","[""强我"",""弱我"",""弱她"",""强她""]","","","","","","","","no","","","","","","","","","SRET","EW_formal","","key","f","16.665804123711478","960","536","朋友","贪污","Negative","morality","","","","","","","","","","",""
"710","","f","psychophysics","22","144704","0.0-7.0-3.0-0.8","6","6","7","6","6","4","3","4","5","5","4","1","1","1","2","1","1","1","1","4","4","5","5","5","4","4","5","4","4","5","7","7","7","7","8","6","8","8","5","6","2","6","5","5","5","1","6","5","1","5","3","6","3","6","6","5","7","2","6","7","6","3","7","6","7","7","5","7","6","7","7","7","7","7","7","3","7","6","6","776085809274294274","张","313","Female","[""好我"",""坏我"",""坏她"",""好她""]","[""强我"",""弱我"",""弱她"",""强她""]","","","","","","","","no","","","","","","","","","SRET","EW_formal","","key","f","16.667578431372487","960","536","自己","背叛","Negative","morality","","","","","","","","","","",""
"613","","f","psychophysics","23","146329","0.0-7.0-3.0-0.9","6","6","7","6","6","4","3","4","5","5","4","1","1","1","2","1","1","1","1","4","4","5","5","5","4","4","5","4","4","5","7","7","7","7","8","6","8","8","5","6","2","6","5","5","5","1","6","5","1","5","3","6","3","6","6","5","7","2","6","7","6","3","7","6","7","7","5","7","6","7","7","7","7","7","7","3","7","6","6","776085809274294274","张","313","Female","[""好我"",""坏我"",""坏她"",""好她""]","[""强我"",""弱我"",""弱她"",""强她""]","","","","","","","","no","","","","","","","","","SRET","EW_formal","","key","f","16.668427083333274","960","536","自己","奸诈","Negative","morality","","","","","","","","","","",""
"922","","j","psychophysics","24","148253","0.0-7.0-3.0-0.10","6","6","7","6","6","4","3","4","5","5","4","1","1","1","2","1","1","1","1","4","4","5","5","5","4","4","5","4","4","5","7","7","7","7","8","6","8","8","5","6","2","6","5","5","5","1","6","5","1","5","3","6","3","6","6","5","7","2","6","7","6","3","7","6","7","7","5","7","6","7","7","7","7","7","7","3","7","6","6","776085809274294274","张","313","Female","[""好我"",""坏我"",""坏她"",""好她""]","[""强我"",""弱我"",""弱她"",""强她""]","","","","","","","","yes","","","","","","","","","SRET","EW_formal","","key","j","16.66735087719306","960","536","自己","思辨","Positive","ability","","","","","","","","","","",""
"582","","j","psychophysics","25","149841","0.0-7.0-3.0-0.11","6","6","7","6","6","4","3","4","5","5","4","1","1","1","2","1","1","1","1","4","4","5","5","5","4","4","5","4","4","5","7","7","7","7","8","6","8","8","5","6","2","6","5","5","5","1","6","5","1","5","3","6","3","6","6","5","7","2","6","7","6","3","7","6","7","7","5","7","6","7","7","7","7","7","7","3","7","6","6","776085809274294274","张","313","Female","[""好我"",""坏我"",""坏她"",""好她""]","[""强我"",""弱我"",""弱她"",""强她""]","","","","","","","","yes","","","","","","","","","SRET","EW_formal","","key","j","16.666852631578895","960","536","自己","礼貌","Positive","morality","","","","","","","","","","",""
"609","","j","psychophysics","26","151455","0.0-7.0-3.0-0.12","6","6","7","6","6","4","3","4","5","5","4","1","1","1","2","1","1","1","1","4","4","5","5","5","4","4","5","4","4","5","7","7","7","7","8","6","8","8","5","6","2","6","5","5","5","1","6","5","1","5","3","6","3","6","6","5","7","2","6","7","6","3","7","6","7","7","5","7","6","7","7","7","7","7","7","3","7","6","6","776085809274294274","张","313","Female","[""好我"",""坏我"",""坏她"",""好她""]","[""强我"",""弱我"",""弱她"",""强她""]","","","","","","","","yes","","","","","","","","","SRET","EW_formal","","key","j","16.666273684210548","960","536","自己","高效","Positive","ability","","","","","","","","","","",""
"633","","f","psychophysics","27","153091","0.0-7.0-3.0-0.13","6","6","7","6","6","4","3","4","5","5","4","1","1","1","2","1","1","1","1","4","4","5","5","5","4","4","5","4","4","5","7","7","7","7","8","6","8","8","5","6","2","6","5","5","5","1","6","5","1","5","3","6","3","6","6","5","7","2","6","7","6","3","7","6","7","7","5","7","6","7","7","7","7","7","7","3","7","6","6","776085809274294274","张","313","Female","[""好我"",""坏我"",""坏她"",""好她""]","[""强我"",""弱我"",""弱她"",""强她""]","","","","","","","","no","","","","","","","","","SRET","EW_formal","","key","f","16.667061224489828","960","536","朋友","弱智","Negative","ability","","","","","","","","","","",""
"977","","f","psychophysics","28","155073","0.0-7.0-3.0-0.14","6","6","7","6","6","4","3","4","5","5","4","1","1","1","2","1","1","1","1","4","4","5","5","5","4","4","5","4","4","5","7","7","7","7","8","6","8","8","5","6","2","6","5","5","5","1","6","5","1","5","3","6","3","6","6","5","7","2","6","7","6","3","7","6","7","7","5","7","6","7","7","7","7","7","7","3","7","6","6","776085809274294274","张","313","Female","[""好我"",""坏我"",""坏她"",""好她""]","[""强我"",""弱我"",""弱她"",""强她""]","","","","","","","","no","","","","","","","","","SRET","EW_formal","","key","f","16.667499999999873","960","536","朋友","变通","Positive","ability","","","","","","","","","","",""
"630","","j","psychophysics","29","156706","0.0-7.0-3.0-0.15","6","6","7","6","6","4","3","4","5","5","4","1","1","1","2","1","1","1","1","4","4","5","5","5","4","4","5","4","4","5","7","7","7","7","8","6","8","8","5","6","2","6","5","5","5","1","6","5","1","5","3","6","3","6","6","5","7","2","6","7","6","3","7","6","7","7","5","7","6","7","7","7","7","7","7","3","7","6","6","776085809274294274","张","313","Female","[""好我"",""坏我"",""坏她"",""好她""]","[""强我"",""弱我"",""弱她"",""强她""]","","","","","","","","yes","","","","","","","","","SRET","EW_formal","","key","j","16.668927835051534","960","536","朋友","厚道","Positive","morality","","","","","","","","","","",""
"914","","f","psychophysics","30","158623","0.0-7.0-3.0-0.16","6","6","7","6","6","4","3","4","5","5","4","1","1","1","2","1","1","1","1","4","4","5","5","5","4","4","5","4","4","5","7","7","7","7","8","6","8","8","5","6","2","6","5","5","5","1","6","5","1","5","3","6","3","6","6","5","7","2","6","7","6","3","7","6","7","7","5","7","6","7","7","7","7","7","7","3","7","6","6","776085809274294274","张","313","Female","[""好我"",""坏我"",""坏她"",""好她""]","[""强我"",""弱我"",""弱她"",""强她""]","","","","","","","","no","","","","","","","","","SRET","EW_formal","","key","f","16.666517543859715","960","536","自己","才尽","Negative","ability","","","","","","","","","","",""
"685","","f","psychophysics","31","160310","0.0-7.0-3.0-0.17","6","6","7","6","6","4","3","4","5","5","4","1","1","1","2","1","1","1","1","4","4","5","5","5","4","4","5","4","4","5","7","7","7","7","8","6","8","8","5","6","2","6","5","5","5","1","6","5","1","5","3","6","3","6","6","5","7","2","6","7","6","3","7","6","7","7","5","7","6","7","7","7","7","7","7","3","7","6","6","776085809274294274","张","313","Female","[""好我"",""坏我"",""坏她"",""好她""]","[""强我"",""弱我"",""弱她"",""强她""]","","","","","","","","no","","","","","","","","","SRET","EW_formal","","key","f","16.835595959596127","960","536","朋友","畏难","Negative","ability","","","","","","","","","","",""
"696","","f","psychophysics","32","162008","0.0-7.0-3.0-0.18","6","6","7","6","6","4","3","4","5","5","4","1","1","1","2","1","1","1","1","4","4","5","5","5","4","4","5","4","4","5","7","7","7","7","8","6","8","8","5","6","2","6","5","5","5","1","6","5","1","5","3","6","3","6","6","5","7","2","6","7","6","3","7","6","7","7","5","7","6","7","7","7","7","7","7","3","7","6","6","776085809274294274","张","313","Female","[""好我"",""坏我"",""坏她"",""好她""]","[""强我"",""弱我"",""弱她"",""强她""]","","","","","","","","no","","","","","","","","","SRET","EW_formal","","key","f","16.66742574257429","960","536","朋友","虚假","Negative","morality","","","","","","","","","","",""
"763","","j","psychophysics","33","163775","0.0-7.0-3.0-0.19","6","6","7","6","6","4","3","4","5","5","4","1","1","1","2","1","1","1","1","4","4","5","5","5","4","4","5","4","4","5","7","7","7","7","8","6","8","8","5","6","2","6","5","5","5","1","6","5","1","5","3","6","3","6","6","5","7","2","6","7","6","3","7","6","7","7","5","7","6","7","7","7","7","7","7","3","7","6","6","776085809274294274","张","313","Female","[""好我"",""坏我"",""坏她"",""好她""]","[""强我"",""弱我"",""弱她"",""强她""]","","","","","","","","yes","","","","","","","","","SRET","EW_formal","","key","j","16.666238095237972","960","536","自己","廉明","Positive","morality","","","","","","","","","","",""
"576","","j","psychophysics","34","165361","0.0-7.0-3.0-0.20","6","6","7","6","6","4","3","4","5","5","4","1","1","1","2","1","1","1","1","4","4","5","5","5","4","4","5","4","4","5","7","7","7","7","8","6","8","8","5","6","2","6","5","5","5","1","6","5","1","5","3","6","3","6","6","5","7","2","6","7","6","3","7","6","7","7","5","7","6","7","7","7","7","7","7","3","7","6","6","776085809274294274","张","313","Female","[""好我"",""坏我"",""坏她"",""好她""]","[""强我"",""弱我"",""弱她"",""强她""]","","","","","","","","yes","","","","","","","","","SRET","EW_formal","","key","j","16.667872340425518","960","536","自己","坚持","Positive","ability","","","","","","","","","","",""
"971","","j","psychophysics","35","167335","0.0-7.0-3.0-0.21","6","6","7","6","6","4","3","4","5","5","4","1","1","1","2","1","1","1","1","4","4","5","5","5","4","4","5","4","4","5","7","7","7","7","8","6","8","8","5","6","2","6","5","5","5","1","6","5","1","5","3","6","3","6","6","5","7","2","6","7","6","3","7","6","7","7","5","7","6","7","7","7","7","7","7","3","7","6","6","776085809274294274","张","313","Female","[""好我"",""坏我"",""坏她"",""好她""]","[""强我"",""弱我"",""弱她"",""强她""]","","","","","","","","yes","","","","","","","","","SRET","EW_formal","","key","j","16.666641025641052","960","536","自己","懂行","Positive","ability","","","","","","","","","","",""
"537","","j","psychophysics","36","168875","0.0-7.0-3.0-0.22","6","6","7","6","6","4","3","4","5","5","4","1","1","1","2","1","1","1","1","4","4","5","5","5","4","4","5","4","4","5","7","7","7","7","8","6","8","8","5","6","2","6","5","5","5","1","6","5","1","5","3","6","3","6","6","5","7","2","6","7","6","3","7","6","7","7","5","7","6","7","7","7","7","7","7","3","7","6","6","776085809274294274","张","313","Female","[""好我"",""坏我"",""坏她"",""好她""]","[""强我"",""弱我"",""弱她"",""强她""]","","","","","","","","yes","","","","","","","","","SRET","EW_formal","","key","j","16.667858695652168","960","536","朋友","有力","Positive","ability","","","","","","","","","","",""
"681","","f","psychophysics","37","170559","0.0-7.0-3.0-0.23","6","6","7","6","6","4","3","4","5","5","4","1","1","1","2","1","1","1","1","4","4","5","5","5","4","4","5","4","4","5","7","7","7","7","8","6","8","8","5","6","2","6","5","5","5","1","6","5","1","5","3","6","3","6","6","5","7","2","6","7","6","3","7","6","7","7","5","7","6","7","7","7","7","7","7","3","7","6","6","776085809274294274","张","313","Female","[""好我"",""坏我"",""坏她"",""好她""]","[""强我"",""弱我"",""弱她"",""强她""]","","","","","","","","no","","","","","","","","","SRET","EW_formal","","key","f","16.668280000000085","960","536","朋友","淫乱","Negative","morality","","","","","","","","","","",""
"742","","j","psychophysics","38","172310","0.0-7.0-3.0-0.24","6","6","7","6","6","4","3","4","5","5","4","1","1","1","2","1","1","1","1","4","4","5","5","5","4","4","5","4","4","5","7","7","7","7","8","6","8","8","5","6","2","6","5","5","5","1","6","5","1","5","3","6","3","6","6","5","7","2","6","7","6","3","7","6","7","7","5","7","6","7","7","7","7","7","7","3","7","6","6","776085809274294274","张","313","Female","[""好我"",""坏我"",""坏她"",""好她""]","[""强我"",""弱我"",""弱她"",""强她""]","","","","","","","","yes","","","","","","","","","SRET","EW_formal","","key","j","16.66780769230788","960","536","自己","坦荡","Positive","morality","","","","","","","","","","",""
"631","","f","psychophysics","39","173942","0.0-7.0-3.0-0.25","6","6","7","6","6","4","3","4","5","5","4","1","1","1","2","1","1","1","1","4","4","5","5","5","4","4","5","4","4","5","7","7","7","7","8","6","8","8","5","6","2","6","5","5","5","1","6","5","1","5","3","6","3","6","6","5","7","2","6","7","6","3","7","6","7","7","5","7","6","7","7","7","7","7","7","3","7","6","6","776085809274294274","张","313","Female","[""好我"",""坏我"",""坏她"",""好她""]","[""强我"",""弱我"",""弱她"",""强她""]","","","","","","","","no","","","","","","","","","SRET","EW_formal","","key","f","16.66764948453626","960","536","自己","马虎","Negative","ability","","","","","","","","","","",""
"807","","j","psychophysics","40","175750","0.0-7.0-3.0-0.26","6","6","7","6","6","4","3","4","5","5","4","1","1","1","2","1","1","1","1","4","4","5","5","5","4","4","5","4","4","5","7","7","7","7","8","6","8","8","5","6","2","6","5","5","5","1","6","5","1","5","3","6","3","6","6","5","7","2","6","7","6","3","7","6","7","7","5","7","6","7","7","7","7","7","7","3","7","6","6","776085809274294274","张","313","Female","[""好我"",""坏我"",""坏她"",""好她""]","[""强我"",""弱我"",""弱她"",""强她""]","","","","","","","","yes","","","","","","","","","SRET","EW_formal","","key","j","16.667177570093518","960","536","自己","中用","Positive","ability","","","","","","","","","","",""
"676","","j","psychophysics","41","177433","0.0-7.0-3.0-0.27","6","6","7","6","6","4","3","4","5","5","4","1","1","1","2","1","1","1","1","4","4","5","5","5","4","4","5","4","4","5","7","7","7","7","8","6","8","8","5","6","2","6","5","5","5","1","6","5","1","5","3","6","3","6","6","5","7","2","6","7","6","3","7","6","7","7","5","7","6","7","7","7","7","7","7","3","7","6","6","776085809274294274","张","313","Female","[""好我"",""坏我"",""坏她"",""好她""]","[""强我"",""弱我"",""弱她"",""强她""]","","","","","","","","yes","","","","","","","","","SRET","EW_formal","","key","j","16.667709999999786","960","536","自己","全才","Positive","ability","","","","","","","","","","",""
"971","","j","psychophysics","42","179406","0.0-7.0-3.0-0.28","6","6","7","6","6","4","3","4","5","5","4","1","1","1","2","1","1","1","1","4","4","5","5","5","4","4","5","4","4","5","7","7","7","7","8","6","8","8","5","6","2","6","5","5","5","1","6","5","1","5","3","6","3","6","6","5","7","2","6","7","6","3","7","6","7","7","5","7","6","7","7","7","7","7","7","3","7","6","6","776085809274294274","张","313","Female","[""好我"",""坏我"",""坏她"",""好她""]","[""强我"",""弱我"",""弱她"",""强她""]","","","","","","","","yes","","","","","","","","","SRET","EW_formal","","key","j","16.667864406779575","960","536","自己","娴熟","Positive","ability","","","","","","","","","","",""
"891","","f","psychophysics","43","181298","0.0-7.0-3.0-0.29","6","6","7","6","6","4","3","4","5","5","4","1","1","1","2","1","1","1","1","4","4","5","5","5","4","4","5","4","4","5","7","7","7","7","8","6","8","8","5","6","2","6","5","5","5","1","6","5","1","5","3","6","3","6","6","5","7","2","6","7","6","3","7","6","7","7","5","7","6","7","7","7","7","7","7","3","7","6","6","776085809274294274","张","313","Female","[""好我"",""坏我"",""坏她"",""好她""]","[""强我"",""弱我"",""弱她"",""强她""]","","","","","","","","no","","","","","","","","","SRET","EW_formal","","key","f","16.66628571428581","960","536","自己","迂拙","Negative","ability","","","","","","","","","","",""
"782","","f","psychophysics","44","183082","0.0-7.0-3.0-0.30","6","6","7","6","6","4","3","4","5","5","4","1","1","1","2","1","1","1","1","4","4","5","5","5","4","4","5","4","4","5","7","7","7","7","8","6","8","8","5","6","2","6","5","5","5","1","6","5","1","5","3","6","3","6","6","5","7","2","6","7","6","3","7","6","7","7","5","7","6","7","7","7","7","7","7","3","7","6","6","776085809274294274","张","313","Female","[""好我"",""坏我"",""坏她"",""好她""]","[""强我"",""弱我"",""弱她"",""强她""]","","","","","","","","no","","","","","","","","","SRET","EW_formal","","key","f","16.667594339622774","960","536","自己","外行","Negative","ability","","","","","","","","","","",""
"696","","j","psychophysics","45","184783","0.0-7.0-3.0-0.31","6","6","7","6","6","4","3","4","5","5","4","1","1","1","2","1","1","1","1","4","4","5","5","5","4","4","5","4","4","5","7","7","7","7","8","6","8","8","5","6","2","6","5","5","5","1","6","5","1","5","3","6","3","6","6","5","7","2","6","7","6","3","7","6","7","7","5","7","6","7","7","7","7","7","7","3","7","6","6","776085809274294274","张","313","Female","[""好我"",""坏我"",""坏她"",""好她""]","[""强我"",""弱我"",""弱她"",""强她""]","","","","","","","","yes","","","","","","","","","SRET","EW_formal","","key","j","16.66758415841591","960","536","朋友","侠义","Positive","morality","","","","","","","","","","",""
"695","","f","psychophysics","46","186482","0.0-7.0-3.0-0.32","6","6","7","6","6","4","3","4","5","5","4","1","1","1","2","1","1","1","1","4","4","5","5","5","4","4","5","4","4","5","7","7","7","7","8","6","8","8","5","6","2","6","5","5","5","1","6","5","1","5","3","6","3","6","6","5","7","2","6","7","6","3","7","6","7","7","5","7","6","7","7","7","7","7","7","3","7","6","6","776085809274294274","张","313","Female","[""好我"",""坏我"",""坏她"",""好她""]","[""强我"",""弱我"",""弱她"",""强她""]","","","","","","","","no","","","","","","","","","SRET","EW_formal","","key","f","16.666653465346773","960","536","自己","愚痴","Negative","ability","","","","","","","","","","",""
"650","","j","psychophysics","47","188141","0.0-7.0-3.0-0.33","6","6","7","6","6","4","3","4","5","5","4","1","1","1","2","1","1","1","1","4","4","5","5","5","4","4","5","4","4","5","7","7","7","7","8","6","8","8","5","6","2","6","5","5","5","1","6","5","1","5","3","6","3","6","6","5","7","2","6","7","6","3","7","6","7","7","5","7","6","7","7","7","7","7","7","3","7","6","6","776085809274294274","张","313","Female","[""好我"",""坏我"",""坏她"",""好她""]","[""强我"",""弱我"",""弱她"",""强她""]","","","","","","","","yes","","","","","","","","","SRET","EW_formal","","key","j","16.66678787878805","960","536","自己","善良","Positive","morality","","","","","","","","","","",""
"767","","f","psychophysics","48","189910","0.0-7.0-3.0-0.34","6","6","7","6","6","4","3","4","5","5","4","1","1","1","2","1","1","1","1","4","4","5","5","5","4","4","5","4","4","5","7","7","7","7","8","6","8","8","5","6","2","6","5","5","5","1","6","5","1","5","3","6","3","6","6","5","7","2","6","7","6","3","7","6","7","7","5","7","6","7","7","7","7","7","7","3","7","6","6","776085809274294274","张","313","Female","[""好我"",""坏我"",""坏她"",""好她""]","[""强我"",""弱我"",""弱她"",""强她""]","","","","","","","","no","","","","","","","","","SRET","EW_formal","","key","f","16.66720952380953","960","536","朋友","浅薄","Negative","ability","","","","","","","","","","",""
"743","","j","psychophysics","49","191656","0.0-7.0-3.0-0.35","6","6","7","6","6","4","3","4","5","5","4","1","1","1","2","1","1","1","1","4","4","5","5","5","4","4","5","4","4","5","7","7","7","7","8","6","8","8","5","6","2","6","5","5","5","1","6","5","1","5","3","6","3","6","6","5","7","2","6","7","6","3","7","6","7","7","5","7","6","7","7","7","7","7","7","3","7","6","6","776085809274294274","张","313","Female","[""好我"",""坏我"",""坏她"",""好她""]","[""强我"",""弱我"",""弱她"",""强她""]","","","","","","","","yes","","","","","","","","","SRET","EW_formal","","key","j","16.667682692307537","960","536","朋友","慷慨","Positive","morality","","","","","","","","","","",""
"856","","j","psychophysics","50","193514","0.0-7.0-3.0-0.36","6","6","7","6","6","4","3","4","5","5","4","1","1","1","2","1","1","1","1","4","4","5","5","5","4","4","5","4","4","5","7","7","7","7","8","6","8","8","5","6","2","6","5","5","5","1","6","5","1","5","3","6","3","6","6","5","7","2","6","7","6","3","7","6","7","7","5","7","6","7","7","7","7","7","7","3","7","6","6","776085809274294274","张","313","Female","[""好我"",""坏我"",""坏她"",""好她""]","[""强我"",""弱我"",""弱她"",""强她""]","","","","","","","","yes","","","","","","","","","SRET","EW_formal","","key","j","16.665827272727356","960","536","朋友","高洁","Positive","morality","","","","","","","","","","",""
"840","","f","psychophysics","51","195359","0.0-7.0-3.0-0.37","6","6","7","6","6","4","3","4","5","5","4","1","1","1","2","1","1","1","1","4","4","5","5","5","4","4","5","4","4","5","7","7","7","7","8","6","8","8","5","6","2","6","5","5","5","1","6","5","1","5","3","6","3","6","6","5","7","2","6","7","6","3","7","6","7","7","5","7","6","7","7","7","7","7","7","3","7","6","6","776085809274294274","张","313","Female","[""好我"",""坏我"",""坏她"",""好她""]","[""强我"",""弱我"",""弱她"",""强她""]","","","","","","","","no","","","","","","","","","SRET","EW_formal","","key","f","16.667936363636347","960","536","自己","逞能","Negative","ability","","","","","","","","","","",""
"748","","f","psychophysics","52","197109","0.0-7.0-3.0-0.38","6","6","7","6","6","4","3","4","5","5","4","1","1","1","2","1","1","1","1","4","4","5","5","5","4","4","5","4","4","5","7","7","7","7","8","6","8","8","5","6","2","6","5","5","5","1","6","5","1","5","3","6","3","6","6","5","7","2","6","7","6","3","7","6","7","7","5","7","6","7","7","7","7","7","7","3","7","6","6","776085809274294274","张","313","Female","[""好我"",""坏我"",""坏她"",""好她""]","[""强我"",""弱我"",""弱她"",""强她""]","","","","","","","","no","","","","","","","","","SRET","EW_formal","","key","f","16.667336538461733","960","536","自己","罪恶","Negative","morality","","","","","","","","","","",""
"826","","j","psychophysics","53","198940","0.0-7.0-3.0-0.39","6","6","7","6","6","4","3","4","5","5","4","1","1","1","2","1","1","1","1","4","4","5","5","5","4","4","5","4","4","5","7","7","7","7","8","6","8","8","5","6","2","6","5","5","5","1","6","5","1","5","3","6","3","6","6","5","7","2","6","7","6","3","7","6","7","7","5","7","6","7","7","7","7","7","7","3","7","6","6","776085809274294274","张","313","Female","[""好我"",""坏我"",""坏她"",""好她""]","[""强我"",""弱我"",""弱她"",""强她""]","","","","","","","","yes","","","","","","","","","SRET","EW_formal","","key","j","16.667972477064296","960","536","自己","淡泊","Positive","morality","","","","","","","","","","",""
"639","","f","psychophysics","54","200582","0.0-7.0-3.0-0.40","6","6","7","6","6","4","3","4","5","5","4","1","1","1","2","1","1","1","1","4","4","5","5","5","4","4","5","4","4","5","7","7","7","7","8","6","8","8","5","6","2","6","5","5","5","1","6","5","1","5","3","6","3","6","6","5","7","2","6","7","6","3","7","6","7","7","5","7","6","7","7","7","7","7","7","3","7","6","6","776085809274294274","张","313","Female","[""好我"",""坏我"",""坏她"",""好她""]","[""强我"",""弱我"",""弱她"",""强她""]","","","","","","","","no","","","","","","","","","SRET","EW_formal","","key","f","16.665917525773317","960","536","自己","小人","Negative","morality","","","","","","","","","","",""
"794","","f","psychophysics","55","202378","0.0-7.0-3.0-0.41","6","6","7","6","6","4","3","4","5","5","4","1","1","1","2","1","1","1","1","4","4","5","5","5","4","4","5","4","4","5","7","7","7","7","8","6","8","8","5","6","2","6","5","5","5","1","6","5","1","5","3","6","3","6","6","5","7","2","6","7","6","3","7","6","7","7","5","7","6","7","7","7","7","7","7","3","7","6","6","776085809274294274","张","313","Female","[""好我"",""坏我"",""坏她"",""好她""]","[""强我"",""弱我"",""弱她"",""强她""]","","","","","","","","no","","","","","","","","","SRET","EW_formal","","key","f","16.666149532710197","960","536","朋友","势利","Negative","morality","","","","","","","","","","",""
"945","","j","psychophysics","56","204326","0.0-7.0-3.0-0.42","6","6","7","6","6","4","3","4","5","5","4","1","1","1","2","1","1","1","1","4","4","5","5","5","4","4","5","4","4","5","7","7","7","7","8","6","8","8","5","6","2","6","5","5","5","1","6","5","1","5","3","6","3","6","6","5","7","2","6","7","6","3","7","6","7","7","5","7","6","7","7","7","7","7","7","3","7","6","6","776085809274294274","张","313","Female","[""好我"",""坏我"",""坏她"",""好她""]","[""强我"",""弱我"",""弱她"",""强她""]","","","","","","","","yes","","","","","","","","","SRET","EW_formal","","key","j","16.667896551724095","960","536","自己","学霸","Positive","ability","","","","","","","","","","",""
"647","","j","psychophysics","57","205976","0.0-7.0-3.0-0.43","6","6","7","6","6","4","3","4","5","5","4","1","1","1","2","1","1","1","1","4","4","5","5","5","4","4","5","4","4","5","7","7","7","7","8","6","8","8","5","6","2","6","5","5","5","1","6","5","1","5","3","6","3","6","6","5","7","2","6","7","6","3","7","6","7","7","5","7","6","7","7","7","7","7","7","3","7","6","6","776085809274294274","张","313","Female","[""好我"",""坏我"",""坏她"",""好她""]","[""强我"",""弱我"",""弱她"",""强她""]","","","","","","","","yes","","","","","","","","","SRET","EW_formal","","key","j","16.667387755102137","960","536","朋友","智慧","Positive","ability","","","","","","","","","","",""
"678","","j","psychophysics","58","207657","0.0-7.0-3.0-0.44","6","6","7","6","6","4","3","4","5","5","4","1","1","1","2","1","1","1","1","4","4","5","5","5","4","4","5","4","4","5","7","7","7","7","8","6","8","8","5","6","2","6","5","5","5","1","6","5","1","5","3","6","3","6","6","5","7","2","6","7","6","3","7","6","7","7","5","7","6","7","7","7","7","7","7","3","7","6","6","776085809274294274","张","313","Female","[""好我"",""坏我"",""坏她"",""好她""]","[""强我"",""弱我"",""弱她"",""强她""]","","","","","","","","yes","","","","","","","","","SRET","EW_formal","","key","j","16.6679800000001","960","536","朋友","奉献","Positive","morality","","","","","","","","","","",""
"648","","j","psychophysics","59","209308","0.0-7.0-3.0-0.45","6","6","7","6","6","4","3","4","5","5","4","1","1","1","2","1","1","1","1","4","4","5","5","5","4","4","5","4","4","5","7","7","7","7","8","6","8","8","5","6","2","6","5","5","5","1","6","5","1","5","3","6","3","6","6","5","7","2","6","7","6","3","7","6","7","7","5","7","6","7","7","7","7","7","7","3","7","6","6","776085809274294274","张","313","Female","[""好我"",""坏我"",""坏她"",""好她""]","[""强我"",""弱我"",""弱她"",""强她""]","","","","","","","","yes","","","","","","","","","SRET","EW_formal","","key","j","16.665632653061408","960","536","自己","廉正","Positive","morality","","","","","","","","","","",""
"649","","f","psychophysics","60","210958","0.0-7.0-3.0-0.46","6","6","7","6","6","4","3","4","5","5","4","1","1","1","2","1","1","1","1","4","4","5","5","5","4","4","5","4","4","5","7","7","7","7","8","6","8","8","5","6","2","6","5","5","5","1","6","5","1","5","3","6","3","6","6","5","7","2","6","7","6","3","7","6","7","7","5","7","6","7","7","7","7","7","7","3","7","6","6","776085809274294274","张","313","Female","[""好我"",""坏我"",""坏她"",""好她""]","[""强我"",""弱我"",""弱她"",""强她""]","","","","","","","","no","","","","","","","","","SRET","EW_formal","","key","f","16.666612244898047","960","536","自己","犹豫","Negative","ability","","","","","","","","","","",""
"718","","f","psychophysics","61","212679","0.0-7.0-3.0-0.47","6","6","7","6","6","4","3","4","5","5","4","1","1","1","2","1","1","1","1","4","4","5","5","5","4","4","5","4","4","5","7","7","7","7","8","6","8","8","5","6","2","6","5","5","5","1","6","5","1","5","3","6","3","6","6","5","7","2","6","7","6","3","7","6","7","7","5","7","6","7","7","7","7","7","7","3","7","6","6","776085809274294274","张","313","Female","[""好我"",""坏我"",""坏她"",""好她""]","[""强我"",""弱我"",""弱她"",""强她""]","","","","","","","","no","","","","","","","","","SRET","EW_formal","","key","f","16.666598039215565","960","536","自己","拖延","Negative","ability","","","","","","","","","","",""
"760","","j","psychophysics","62","214440","0.0-7.0-3.0-0.48","6","6","7","6","6","4","3","4","5","5","4","1","1","1","2","1","1","1","1","4","4","5","5","5","4","4","5","4","4","5","7","7","7","7","8","6","8","8","5","6","2","6","5","5","5","1","6","5","1","5","3","6","3","6","6","5","7","2","6","7","6","3","7","6","7","7","5","7","6","7","7","7","7","7","7","3","7","6","6","776085809274294274","张","313","Female","[""好我"",""坏我"",""坏她"",""好她""]","[""强我"",""弱我"",""弱她"",""强她""]","","","","","","","","yes","","","","","","","","","SRET","EW_formal","","key","j","16.667123809523904","960","536","朋友","仁厚","Positive","morality","","","","","","","","","","",""
"651","","f","psychophysics","63","216095","0.0-7.0-3.0-0.49","6","6","7","6","6","4","3","4","5","5","4","1","1","1","2","1","1","1","1","4","4","5","5","5","4","4","5","4","4","5","7","7","7","7","8","6","8","8","5","6","2","6","5","5","5","1","6","5","1","5","3","6","3","6","6","5","7","2","6","7","6","3","7","6","7","7","5","7","6","7","7","7","7","7","7","3","7","6","6","776085809274294274","张","313","Female","[""好我"",""坏我"",""坏她"",""好她""]","[""强我"",""弱我"",""弱她"",""强她""]","","","","","","","","no","","","","","","","","","SRET","EW_formal","","key","f","16.666204081632657","960","536","自己","阴毒","Negative","morality","","","","","","","","","","",""
"729","","f","psychophysics","64","217831","0.0-7.0-3.0-0.50","6","6","7","6","6","4","3","4","5","5","4","1","1","1","2","1","1","1","1","4","4","5","5","5","4","4","5","4","4","5","7","7","7","7","8","6","8","8","5","6","2","6","5","5","5","1","6","5","1","5","3","6","3","6","6","5","7","2","6","7","6","3","7","6","7","7","5","7","6","7","7","7","7","7","7","3","7","6","6","776085809274294274","张","313","Female","[""好我"",""坏我"",""坏她"",""好她""]","[""强我"",""弱我"",""弱她"",""强她""]","","","","","","","","no","","","","","","","","","SRET","EW_formal","","key","f","16.66811650485457","960","536","朋友","不端","Negative","morality","","","","","","","","","","",""
"721","","f","psychophysics","65","219555","0.0-7.0-3.0-0.51","6","6","7","6","6","4","3","4","5","5","4","1","1","1","2","1","1","1","1","4","4","5","5","5","4","4","5","4","4","5","7","7","7","7","8","6","8","8","5","6","2","6","5","5","5","1","6","5","1","5","3","6","3","6","6","5","7","2","6","7","6","3","7","6","7","7","5","7","6","7","7","7","7","7","7","3","7","6","6","776085809274294274","张","313","Female","[""好我"",""坏我"",""坏她"",""好她""]","[""强我"",""弱我"",""弱她"",""强她""]","","","","","","","","no","","","","","","","","","SRET","EW_formal","","key","f","16.666669902912776","960","536","朋友","卑鄙","Negative","morality","","","","","","","","","","",""
"650","","f","psychophysics","66","221206","0.0-7.0-3.0-0.52","6","6","7","6","6","4","3","4","5","5","4","1","1","1","2","1","1","1","1","4","4","5","5","5","4","4","5","4","4","5","7","7","7","7","8","6","8","8","5","6","2","6","5","5","5","1","6","5","1","5","3","6","3","6","6","5","7","2","6","7","6","3","7","6","7","7","5","7","6","7","7","7","7","7","7","3","7","6","6","776085809274294274","张","313","Female","[""好我"",""坏我"",""坏她"",""好她""]","[""强我"",""弱我"",""弱她"",""强她""]","","","","","","","","no","","","","","","","","","SRET","EW_formal","","key","f","16.667540816326472","960","536","朋友","无耻","Negative","morality","","","","","","","","","","",""
"799","","j","psychophysics","67","223008","0.0-7.0-3.0-0.53","6","6","7","6","6","4","3","4","5","5","4","1","1","1","2","1","1","1","1","4","4","5","5","5","4","4","5","4","4","5","7","7","7","7","8","6","8","8","5","6","2","6","5","5","5","1","6","5","1","5","3","6","3","6","6","5","7","2","6","7","6","3","7","6","7","7","5","7","6","7","7","7","7","7","7","3","7","6","6","776085809274294274","张","313","Female","[""好我"",""坏我"",""坏她"",""好她""]","[""强我"",""弱我"",""弱她"",""强她""]","","","","","","","","yes","","","","","","","","","SRET","EW_formal","","key","j","16.667224299065523","960","536","自己","独立","Positive","ability","","","","","","","","","","",""
"614","","f","psychophysics","68","224626","0.0-7.0-3.0-0.54","6","6","7","6","6","4","3","4","5","5","4","1","1","1","2","1","1","1","1","4","4","5","5","5","4","4","5","4","4","5","7","7","7","7","8","6","8","8","5","6","2","6","5","5","5","1","6","5","1","5","3","6","3","6","6","5","7","2","6","7","6","3","7","6","7","7","5","7","6","7","7","7","7","7","7","3","7","6","6","776085809274294274","张","313","Female","[""好我"",""坏我"",""坏她"",""好她""]","[""强我"",""弱我"",""弱她"",""强她""]","","","","","","","","no","","","","","","","","","SRET","EW_formal","","key","f","16.66635416666668","960","536","朋友","混账","Negative","morality","","","","","","","","","","",""
"1278","","f","psychophysics","69","226906","0.0-7.0-3.0-0.55","6","6","7","6","6","4","3","4","5","5","4","1","1","1","2","1","1","1","1","4","4","5","5","5","4","4","5","4","4","5","7","7","7","7","8","6","8","8","5","6","2","6","5","5","5","1","6","5","1","5","3","6","3","6","6","5","7","2","6","7","6","3","7","6","7","7","5","7","6","7","7","7","7","7","7","3","7","6","6","776085809274294274","张","313","Female","[""好我"",""坏我"",""坏她"",""好她""]","[""强我"",""弱我"",""弱她"",""强她""]","","","","","","","","no","","","","","","","","","SRET","EW_formal","","key","f","16.66749999999999","960","536","朋友","龌龊","Negative","morality","","","","","","","","","","",""
"805","","f","psychophysics","70","228714","0.0-7.0-3.0-0.56","6","6","7","6","6","4","3","4","5","5","4","1","1","1","2","1","1","1","1","4","4","5","5","5","4","4","5","4","4","5","7","7","7","7","8","6","8","8","5","6","2","6","5","5","5","1","6","5","1","5","3","6","3","6","6","5","7","2","6","7","6","3","7","6","7","7","5","7","6","7","7","7","7","7","7","3","7","6","6","776085809274294274","张","313","Female","[""好我"",""坏我"",""坏她"",""好她""]","[""强我"",""弱我"",""弱她"",""强她""]","","","","","","","","no","","","","","","","","","SRET","EW_formal","","key","f","16.666607476635424","960","536","朋友","业余","Negative","ability","","","","","","","","","","",""
"758","","f","psychophysics","71","230473","0.0-7.0-3.0-0.57","6","6","7","6","6","4","3","4","5","5","4","1","1","1","2","1","1","1","1","4","4","5","5","5","4","4","5","4","4","5","7","7","7","7","8","6","8","8","5","6","2","6","5","5","5","1","6","5","1","5","3","6","3","6","6","5","7","2","6","7","6","3","7","6","7","7","5","7","6","7","7","7","7","7","7","3","7","6","6","776085809274294274","张","313","Female","[""好我"",""坏我"",""坏她"",""好她""]","[""强我"",""弱我"",""弱她"",""强她""]","","","","","","","","no","","","","","","","","","SRET","EW_formal","","key","f","16.667885714285685","960","536","自己","虚伪","Negative","morality","","","","","","","","","","",""
"885","","j","psychophysics","72","232361","0.0-7.0-3.0-0.58","6","6","7","6","6","4","3","4","5","5","4","1","1","1","2","1","1","1","1","4","4","5","5","5","4","4","5","4","4","5","7","7","7","7","8","6","8","8","5","6","2","6","5","5","5","1","6","5","1","5","3","6","3","6","6","5","7","2","6","7","6","3","7","6","7","7","5","7","6","7","7","7","7","7","7","3","7","6","6","776085809274294274","张","313","Female","[""好我"",""坏我"",""坏她"",""好她""]","[""强我"",""弱我"",""弱她"",""强她""]","","","","","","","","yes","","","","","","","","","SRET","EW_formal","","key","j","16.666491071428545","960","536","朋友","周到","Positive","ability","","","","","","","","","","",""
"693","","f","psychophysics","73","234056","0.0-7.0-3.0-0.59","6","6","7","6","6","4","3","4","5","5","4","1","1","1","2","1","1","1","1","4","4","5","5","5","4","4","5","4","4","5","7","7","7","7","8","6","8","8","5","6","2","6","5","5","5","1","6","5","1","5","3","6","3","6","6","5","7","2","6","7","6","3","7","6","7","7","5","7","6","7","7","7","7","7","7","3","7","6","6","776085809274294274","张","313","Female","[""好我"",""坏我"",""坏她"",""好她""]","[""强我"",""弱我"",""弱她"",""强她""]","","","","","","","","no","","","","","","","","","SRET","EW_formal","","key","f","16.667683168316703","960","536","自己","缺德","Negative","morality","","","","","","","","","","",""
"777","","j","psychophysics","74","235835","0.0-7.0-3.0-0.60","6","6","7","6","6","4","3","4","5","5","4","1","1","1","2","1","1","1","1","4","4","5","5","5","4","4","5","4","4","5","7","7","7","7","8","6","8","8","5","6","2","6","5","5","5","1","6","5","1","5","3","6","3","6","6","5","7","2","6","7","6","3","7","6","7","7","5","7","6","7","7","7","7","7","7","3","7","6","6","776085809274294274","张","313","Female","[""好我"",""坏我"",""坏她"",""好她""]","[""强我"",""弱我"",""弱她"",""强她""]","","","","","","","","yes","","","","","","","","","SRET","EW_formal","","key","j","16.666933333333247","960","536","朋友","毅力","Positive","ability","","","","","","","","","","",""
"870","","j","psychophysics","75","237711","0.0-7.0-3.0-0.61","6","6","7","6","6","4","3","4","5","5","4","1","1","1","2","1","1","1","1","4","4","5","5","5","4","4","5","4","4","5","7","7","7","7","8","6","8","8","5","6","2","6","5","5","5","1","6","5","1","5","3","6","3","6","6","5","7","2","6","7","6","3","7","6","7","7","5","7","6","7","7","7","7","7","7","3","7","6","6","776085809274294274","张","313","Female","[""好我"",""坏我"",""坏她"",""好她""]","[""强我"",""弱我"",""弱她"",""强她""]","","","","","","","","yes","","","","","","","","","SRET","EW_formal","","key","j","16.666044642857223","960","536","朋友","能干","Positive","ability","","","","","","","","","","",""
"771","","f","psychophysics","76","239486","0.0-7.0-3.0-0.62","6","6","7","6","6","4","3","4","5","5","4","1","1","1","2","1","1","1","1","4","4","5","5","5","4","4","5","4","4","5","7","7","7","7","8","6","8","8","5","6","2","6","5","5","5","1","6","5","1","5","3","6","3","6","6","5","7","2","6","7","6","3","7","6","7","7","5","7","6","7","7","7","7","7","7","3","7","6","6","776085809274294274","张","313","Female","[""好我"",""坏我"",""坏她"",""好她""]","[""强我"",""弱我"",""弱她"",""强她""]","","","","","","","","no","","","","","","","","","SRET","EW_formal","","key","f","16.66607619047614","960","536","自己","短浅","Negative","ability","","","","","","","","","","",""
"784","","j","psychophysics","77","241273","0.0-7.0-3.0-0.63","6","6","7","6","6","4","3","4","5","5","4","1","1","1","2","1","1","1","1","4","4","5","5","5","4","4","5","4","4","5","7","7","7","7","8","6","8","8","5","6","2","6","5","5","5","1","6","5","1","5","3","6","3","6","6","5","7","2","6","7","6","3","7","6","7","7","5","7","6","7","7","7","7","7","7","3","7","6","6","776085809274294274","张","313","Female","[""好我"",""坏我"",""坏她"",""好她""]","[""强我"",""弱我"",""弱她"",""强她""]","","","","","","","","yes","","","","","","","","","SRET","EW_formal","","key","j","16.821037735849046","960","536","自己","忠勇","Positive","morality","","","","","","","","","","",""
"827","","j","psychophysics","78","243102","0.0-7.0-3.0-0.64","6","6","7","6","6","4","3","4","5","5","4","1","1","1","2","1","1","1","1","4","4","5","5","5","4","4","5","4","4","5","7","7","7","7","8","6","8","8","5","6","2","6","5","5","5","1","6","5","1","5","3","6","3","6","6","5","7","2","6","7","6","3","7","6","7","7","5","7","6","7","7","7","7","7","7","3","7","6","6","776085809274294274","张","313","Female","[""好我"",""坏我"",""坏她"",""好她""]","[""强我"",""弱我"",""弱她"",""强她""]","","","","","","","","yes","","","","","","","","","SRET","EW_formal","","key","j","16.666862385321053","960","536","自己","守信","Positive","morality","","","","","","","","","","",""
"829","","j","psychophysics","79","244935","0.0-7.0-3.0-0.65","6","6","7","6","6","4","3","4","5","5","4","1","1","1","2","1","1","1","1","4","4","5","5","5","4","4","5","4","4","5","7","7","7","7","8","6","8","8","5","6","2","6","5","5","5","1","6","5","1","5","3","6","3","6","6","5","7","2","6","7","6","3","7","6","7","7","5","7","6","7","7","7","7","7","7","3","7","6","6","776085809274294274","张","313","Female","[""好我"",""坏我"",""坏她"",""好她""]","[""强我"",""弱我"",""弱她"",""强她""]","","","","","","","","yes","","","","","","","","","SRET","EW_formal","","key","j","16.666953703703864","960","536","朋友","君子","Positive","morality","","","","","","","","","","",""
"632","","j","psychophysics","80","246573","0.0-7.0-3.0-0.66","6","6","7","6","6","4","3","4","5","5","4","1","1","1","2","1","1","1","1","4","4","5","5","5","4","4","5","4","4","5","7","7","7","7","8","6","8","8","5","6","2","6","5","5","5","1","6","5","1","5","3","6","3","6","6","5","7","2","6","7","6","3","7","6","7","7","5","7","6","7","7","7","7","7","7","3","7","6","6","776085809274294274","张","313","Female","[""好我"",""坏我"",""坏她"",""好她""]","[""强我"",""弱我"",""弱她"",""强她""]","","","","","","","","yes","","","","","","","","","SRET","EW_formal","","key","j","16.666857142857282","960","536","朋友","细心","Positive","ability","","","","","","","","","","",""
"723","","f","psychophysics","81","248298","0.0-7.0-3.0-0.67","6","6","7","6","6","4","3","4","5","5","4","1","1","1","2","1","1","1","1","4","4","5","5","5","4","4","5","4","4","5","7","7","7","7","8","6","8","8","5","6","2","6","5","5","5","1","6","5","1","5","3","6","3","6","6","5","7","2","6","7","6","3","7","6","7","7","5","7","6","7","7","7","7","7","7","3","7","6","6","776085809274294274","张","313","Female","[""好我"",""坏我"",""坏她"",""好她""]","[""强我"",""弱我"",""弱她"",""强她""]","","","","","","","","no","","","","","","","","","SRET","EW_formal","","key","f","16.667950980392096","960","536","朋友","短视","Negative","ability","","","","","","","","","","",""
"606","","j","psychophysics","82","249907","0.0-7.0-3.0-0.68","6","6","7","6","6","4","3","4","5","5","4","1","1","1","2","1","1","1","1","4","4","5","5","5","4","4","5","4","4","5","7","7","7","7","8","6","8","8","5","6","2","6","5","5","5","1","6","5","1","5","3","6","3","6","6","5","7","2","6","7","6","3","7","6","7","7","5","7","6","7","7","7","7","7","7","3","7","6","6","776085809274294274","张","313","Female","[""好我"",""坏我"",""坏她"",""好她""]","[""强我"",""弱我"",""弱她"",""强她""]","","","","","","","","yes","","","","","","","","","SRET","EW_formal","","key","j","16.66740624999996","960","536","自己","守法","Positive","morality","","","","","","","","","","",""
"951","","j","psychophysics","83","251861","0.0-7.0-3.0-0.69","6","6","7","6","6","4","3","4","5","5","4","1","1","1","2","1","1","1","1","4","4","5","5","5","4","4","5","4","4","5","7","7","7","7","8","6","8","8","5","6","2","6","5","5","5","1","6","5","1","5","3","6","3","6","6","5","7","2","6","7","6","3","7","6","7","7","5","7","6","7","7","7","7","7","7","3","7","6","6","776085809274294274","张","313","Female","[""好我"",""坏我"",""坏她"",""好她""]","[""强我"",""弱我"",""弱她"",""强她""]","","","","","","","","yes","","","","","","","","","SRET","EW_formal","","key","j","16.66731896551711","960","536","自己","利落","Positive","ability","","","","","","","","","","",""
"882","","j","psychophysics","84","253745","0.0-7.0-3.0-0.70","6","6","7","6","6","4","3","4","5","5","4","1","1","1","2","1","1","1","1","4","4","5","5","5","4","4","5","4","4","5","7","7","7","7","8","6","8","8","5","6","2","6","5","5","5","1","6","5","1","5","3","6","3","6","6","5","7","2","6","7","6","3","7","6","7","7","5","7","6","7","7","7","7","7","7","3","7","6","6","776085809274294274","张","313","Female","[""好我"",""坏我"",""坏她"",""好她""]","[""强我"",""弱我"",""弱她"",""强她""]","","","","","","","","yes","","","","","","","","","SRET","EW_formal","","key","j","16.667500000000082","960","536","自己","孝顺","Positive","morality","","","","","","","","","","",""
"1272","","f","psychophysics","85","256023","0.0-7.0-3.0-0.71","6","6","7","6","6","4","3","4","5","5","4","1","1","1","2","1","1","1","1","4","4","5","5","5","4","4","5","4","4","5","7","7","7","7","8","6","8","8","5","6","2","6","5","5","5","1","6","5","1","5","3","6","3","6","6","5","7","2","6","7","6","3","7","6","7","7","5","7","6","7","7","7","7","7","7","3","7","6","6","776085809274294274","张","313","Female","[""好我"",""坏我"",""坏她"",""好她""]","[""强我"",""弱我"",""弱她"",""强她""]","","","","","","","","no","","","","","","","","","SRET","EW_formal","","key","f","16.666602941176652","960","536","朋友","粗心","Negative","ability","","","","","","","","","","",""
"968","","f","psychophysics","86","257994","0.0-7.0-3.0-0.72","6","6","7","6","6","4","3","4","5","5","4","1","1","1","2","1","1","1","1","4","4","5","5","5","4","4","5","4","4","5","7","7","7","7","8","6","8","8","5","6","2","6","5","5","5","1","6","5","1","5","3","6","3","6","6","5","7","2","6","7","6","3","7","6","7","7","5","7","6","7","7","7","7","7","7","3","7","6","6","776085809274294274","张","313","Female","[""好我"",""坏我"",""坏她"",""好她""]","[""强我"",""弱我"",""弱她"",""强她""]","","","","","","","","no","","","","","","","","","SRET","EW_formal","","key","f","16.667564102564192","960","536","朋友","差生","Negative","ability","","","","","","","","","","",""
"874","","j","psychophysics","87","259869","0.0-7.0-3.0-0.73","6","6","7","6","6","4","3","4","5","5","4","1","1","1","2","1","1","1","1","4","4","5","5","5","4","4","5","4","4","5","7","7","7","7","8","6","8","8","5","6","2","6","5","5","5","1","6","5","1","5","3","6","3","6","6","5","7","2","6","7","6","3","7","6","7","7","5","7","6","7","7","7","7","7","7","3","7","6","6","776085809274294274","张","313","Female","[""好我"",""坏我"",""坏她"",""好她""]","[""强我"",""弱我"",""弱她"",""强她""]","","","","","","","","yes","","","","","","","","","SRET","EW_formal","","key","j","16.667090090090273","960","536","朋友","勤恳","Positive","morality","","","","","","","","","","",""
"822","","f","psychophysics","88","261704","0.0-7.0-3.0-0.74","6","6","7","6","6","4","3","4","5","5","4","1","1","1","2","1","1","1","1","4","4","5","5","5","4","4","5","4","4","5","7","7","7","7","8","6","8","8","5","6","2","6","5","5","5","1","6","5","1","5","3","6","3","6","6","5","7","2","6","7","6","3","7","6","7","7","5","7","6","7","7","7","7","7","7","3","7","6","6","776085809274294274","张","313","Female","[""好我"",""坏我"",""坏她"",""好她""]","[""强我"",""弱我"",""弱她"",""强她""]","","","","","","","","no","","","","","","","","","SRET","EW_formal","","key","f","16.665972477064358","960","536","自己","蛇蝎","Negative","morality","","","","","","","","","","",""
"652","","f","psychophysics","89","263362","0.0-7.0-3.0-0.75","6","6","7","6","6","4","3","4","5","5","4","1","1","1","2","1","1","1","1","4","4","5","5","5","4","4","5","4","4","5","7","7","7","7","8","6","8","8","5","6","2","6","5","5","5","1","6","5","1","5","3","6","3","6","6","5","7","2","6","7","6","3","7","6","7","7","5","7","6","7","7","7","7","7","7","3","7","6","6","776085809274294274","张","313","Female","[""好我"",""坏我"",""坏她"",""好她""]","[""强我"",""弱我"",""弱她"",""强她""]","","","","","","","","no","","","","","","","","","SRET","EW_formal","","key","f","16.66775757575706","960","536","自己","偏私","Negative","morality","","","","","","","","","","",""
"1107","","f","psychophysics","90","265472","0.0-7.0-3.0-0.76","6","6","7","6","6","4","3","4","5","5","4","1","1","1","2","1","1","1","1","4","4","5","5","5","4","4","5","4","4","5","7","7","7","7","8","6","8","8","5","6","2","6","5","5","5","1","6","5","1","5","3","6","3","6","6","5","7","2","6","7","6","3","7","6","7","7","5","7","6","7","7","7","7","7","7","3","7","6","6","776085809274294274","张","313","Female","[""好我"",""坏我"",""坏她"",""好她""]","[""强我"",""弱我"",""弱她"",""强她""]","","","","","","","","no","","","","","","","","","SRET","EW_formal","","key","f","16.666968253968257","960","536","自己","利己","Negative","morality","","","","","","","","","","",""
"780","","j","psychophysics","91","267256","0.0-7.0-3.0-0.77","6","6","7","6","6","4","3","4","5","5","4","1","1","1","2","1","1","1","1","4","4","5","5","5","4","4","5","4","4","5","7","7","7","7","8","6","8","8","5","6","2","6","5","5","5","1","6","5","1","5","3","6","3","6","6","5","7","2","6","7","6","3","7","6","7","7","5","7","6","7","7","7","7","7","7","3","7","6","6","776085809274294274","张","313","Female","[""好我"",""坏我"",""坏她"",""好她""]","[""强我"",""弱我"",""弱她"",""强她""]","","","","","","","","yes","","","","","","","","","SRET","EW_formal","","key","j","16.66694339622638","960","536","朋友","肯干","Positive","ability","","","","","","","","","","",""
"708","","f","psychophysics","92","268966","0.0-7.0-3.0-0.78","6","6","7","6","6","4","3","4","5","5","4","1","1","1","2","1","1","1","1","4","4","5","5","5","4","4","5","4","4","5","7","7","7","7","8","6","8","8","5","6","2","6","5","5","5","1","6","5","1","5","3","6","3","6","6","5","7","2","6","7","6","3","7","6","7","7","5","7","6","7","7","7","7","7","7","3","7","6","6","776085809274294274","张","313","Female","[""好我"",""坏我"",""坏她"",""好她""]","[""强我"",""弱我"",""弱她"",""强她""]","","","","","","","","no","","","","","","","","","SRET","EW_formal","","key","f","16.668336633663156","960","536","朋友","黑心","Negative","morality","","","","","","","","","","",""
"716","","f","psychophysics","93","270690","0.0-7.0-3.0-0.79","6","6","7","6","6","4","3","4","5","5","4","1","1","1","2","1","1","1","1","4","4","5","5","5","4","4","5","4","4","5","7","7","7","7","8","6","8","8","5","6","2","6","5","5","5","1","6","5","1","5","3","6","3","6","6","5","7","2","6","7","6","3","7","6","7","7","5","7","6","7","7","7","7","7","7","3","7","6","6","776085809274294274","张","313","Female","[""好我"",""坏我"",""坏她"",""好她""]","[""强我"",""弱我"",""弱她"",""强她""]","","","","","","","","no","","","","","","","","","SRET","EW_formal","","key","f","16.667174757281387","960","536","自己","愚蠢","Negative","ability","","","","","","","","","","",""
"894","","j","psychophysics","94","272587","0.0-7.0-3.0-0.80","6","6","7","6","6","4","3","4","5","5","4","1","1","1","2","1","1","1","1","4","4","5","5","5","4","4","5","4","4","5","7","7","7","7","8","6","8","8","5","6","2","6","5","5","5","1","6","5","1","5","3","6","3","6","6","5","7","2","6","7","6","3","7","6","7","7","5","7","6","7","7","7","7","7","7","3","7","6","6","776085809274294274","张","313","Female","[""好我"",""坏我"",""坏她"",""好她""]","[""强我"",""弱我"",""弱她"",""强她""]","","","","","","","","yes","","","","","","","","","SRET","EW_formal","","key","j","16.668178571428662","960","536","朋友","慈悲","Positive","morality","","","","","","","","","","",""
"843","","f","psychophysics","95","274433","0.0-7.0-3.0-0.81","6","6","7","6","6","4","3","4","5","5","4","1","1","1","2","1","1","1","1","4","4","5","5","5","4","4","5","4","4","5","7","7","7","7","8","6","8","8","5","6","2","6","5","5","5","1","6","5","1","5","3","6","3","6","6","5","7","2","6","7","6","3","7","6","7","7","5","7","6","7","7","7","7","7","7","3","7","6","6","776085809274294274","张","313","Female","[""好我"",""坏我"",""坏她"",""好她""]","[""强我"",""弱我"",""弱她"",""强她""]","","","","","","","","no","","","","","","","","","SRET","EW_formal","","key","f","16.667372727272927","960","536","朋友","新手","Negative","ability","","","","","","","","","","",""
"776","","f","psychophysics","96","276210","0.0-7.0-3.0-0.82","6","6","7","6","6","4","3","4","5","5","4","1","1","1","2","1","1","1","1","4","4","5","5","5","4","4","5","4","4","5","7","7","7","7","8","6","8","8","5","6","2","6","5","5","5","1","6","5","1","5","3","6","3","6","6","5","7","2","6","7","6","3","7","6","7","7","5","7","6","7","7","7","7","7","7","3","7","6","6","776085809274294274","张","313","Female","[""好我"",""坏我"",""坏她"",""好她""]","[""强我"",""弱我"",""弱她"",""强她""]","","","","","","","","no","","","","","","","","","SRET","EW_formal","","key","f","16.668433962264075","960","536","朋友","远见","Positive","ability","","","","","","","","","","",""
"1134","","j","psychophysics","97","278348","0.0-7.0-3.0-0.83","6","6","7","6","6","4","3","4","5","5","4","1","1","1","2","1","1","1","1","4","4","5","5","5","4","4","5","4","4","5","7","7","7","7","8","6","8","8","5","6","2","6","5","5","5","1","6","5","1","5","3","6","3","6","6","5","7","2","6","7","6","3","7","6","7","7","5","7","6","7","7","7","7","7","7","3","7","6","6","776085809274294274","张","313","Female","[""好我"",""坏我"",""坏她"",""好她""]","[""强我"",""弱我"",""弱她"",""强她""]","","","","","","","","yes","","","","","","","","","SRET","EW_formal","","key","j","16.667984251968296","960","536","朋友","果断","Positive","ability","","","","","","","","","","",""
"932","","f","psychophysics","98","280283","0.0-7.0-3.0-0.84","6","6","7","6","6","4","3","4","5","5","4","1","1","1","2","1","1","1","1","4","4","5","5","5","4","4","5","4","4","5","7","7","7","7","8","6","8","8","5","6","2","6","5","5","5","1","6","5","1","5","3","6","3","6","6","5","7","2","6","7","6","3","7","6","7","7","5","7","6","7","7","7","7","7","7","3","7","6","6","776085809274294274","张","313","Female","[""好我"",""坏我"",""坏她"",""好她""]","[""强我"",""弱我"",""弱她"",""强她""]","","","","","","","","no","","","","","","","","","SRET","EW_formal","","key","f","16.666582608695204","960","536","自己","缓慢","Negative","ability","","","","","","","","","","",""
"687","","f","psychophysics","99","281973","0.0-7.0-3.0-0.85","6","6","7","6","6","4","3","4","5","5","4","1","1","1","2","1","1","1","1","4","4","5","5","5","4","4","5","4","4","5","7","7","7","7","8","6","8","8","5","6","2","6","5","5","5","1","6","5","1","5","3","6","3","6","6","5","7","2","6","7","6","3","7","6","7","7","5","7","6","7","7","7","7","7","7","3","7","6","6","776085809274294274","张","313","Female","[""好我"",""坏我"",""坏她"",""好她""]","[""强我"",""弱我"",""弱她"",""强她""]","","","","","","","","no","","","","","","","","","SRET","EW_formal","","key","f","16.667910891089424","960","536","朋友","低俗","Negative","morality","","","","","","","","","","",""
"758","","j","psychophysics","100","283736","0.0-7.0-3.0-0.86","6","6","7","6","6","4","3","4","5","5","4","1","1","1","2","1","1","1","1","4","4","5","5","5","4","4","5","4","4","5","7","7","7","7","8","6","8","8","5","6","2","6","5","5","5","1","6","5","1","5","3","6","3","6","6","5","7","2","6","7","6","3","7","6","7","7","5","7","6","7","7","7","7","7","7","3","7","6","6","776085809274294274","张","313","Female","[""好我"",""坏我"",""坏她"",""好她""]","[""强我"",""弱我"",""弱她"",""强她""]","","","","","","","","yes","","","","","","","","","SRET","EW_formal","","key","j","16.667375000000064","960","536","自己","主见","Positive","ability","","","","","","","","","","",""
"823","","j","psychophysics","101","285563","0.0-7.0-3.0-0.87","6","6","7","6","6","4","3","4","5","5","4","1","1","1","2","1","1","1","1","4","4","5","5","5","4","4","5","4","4","5","7","7","7","7","8","6","8","8","5","6","2","6","5","5","5","1","6","5","1","5","3","6","3","6","6","5","7","2","6","7","6","3","7","6","7","7","5","7","6","7","7","7","7","7","7","3","7","6","6","776085809274294274","张","313","Female","[""好我"",""坏我"",""坏她"",""好她""]","[""强我"",""弱我"",""弱她"",""强她""]","","","","","","","","yes","","","","","","","","","SRET","EW_formal","","key","j","16.666944954128308","960","536","朋友","素养","Positive","morality","","","","","","","","","","",""
"9263","
    <p><div style='color:white;font-size:35px; line-height:20px;'>计算任务</div></p><br>
    <p><div style='color:red;font-size:25px; line-height:20px;'>接下来，您将看到一些四则运算题，<b>请从键盘选择 0-9 进行反应。</b></div></p>
    <p><div style='color:red;font-size:25px; line-height:20px;'>请尽可能快地进行计算，计算的速度和正确率将影响报酬的发放。</div></p>
    <p><div class='footer' style='color:white;font-size:25px; line-height:20px;'>如果对本实验还有不清楚之处，请立即向实验员咨询。</p><p style='color:white;font-size:25px; line-height:20px;'>如果您明白了规则：</p><p style='color:white;font-size:22px; line-height:20px;'>请按 继续 进入练习</p>
    </div>
    ","0","html-button-response","102","294828","0.0-7.0-4.0","6","6","7","6","6","4","3","4","5","5","4","1","1","1","2","1","1","1","1","4","4","5","5","5","4","4","5","4","4","5","7","7","7","7","8","6","8","8","5","6","2","6","5","5","5","1","6","5","1","5","3","6","3","6","6","5","7","2","6","7","6","3","7","6","7","7","5","7","6","7","7","7","7","7","7","3","7","6","6","776085809274294274","张","313","Female","[""好我"",""坏我"",""坏她"",""好她""]","[""强我"",""弱我"",""弱她"",""强她""]","","","","","","","","","","","","","","","","","SRET_math","math_instructions","Tue Jan 02 2024 21:53:33 GMT+0800 (中国标准时间)","","","","","","","","","","","","","","","","","","","",""
"2148","","0","psychophysics","103","296986","0.0-7.0-5.0-0.0","6","6","7","6","6","4","3","4","5","5","4","1","1","1","2","1","1","1","1","4","4","5","5","5","4","4","5","4","4","5","7","7","7","7","8","6","8","8","5","6","2","6","5","5","5","1","6","5","1","5","3","6","3","6","6","5","7","2","6","7","6","3","7","6","7","7","5","7","6","7","7","7","7","7","7","3","7","6","6","776085809274294274","张","313","Female","[""好我"",""坏我"",""坏她"",""好她""]","[""强我"",""弱我"",""弱她"",""强她""]","","","","","","","","0","","","","","","","","","SRET","SRET_math_calculate","","key","0","16.66720769230787","960","536","","","","","9-9= ?","0","1","","","","","","","",""
"2453","","8","psychophysics","104","299442","0.0-7.0-5.0-0.1","6","6","7","6","6","4","3","4","5","5","4","1","1","1","2","1","1","1","1","4","4","5","5","5","4","4","5","4","4","5","7","7","7","7","8","6","8","8","5","6","2","6","5","5","5","1","6","5","1","5","3","6","3","6","6","5","7","2","6","7","6","3","7","6","7","7","5","7","6","7","7","7","7","7","7","3","7","6","6","776085809274294274","张","313","Female","[""好我"",""坏我"",""坏她"",""好她""]","[""强我"",""弱我"",""弱她"",""强她""]","","","","","","","","8","","","","","","","","","SRET","SRET_math_calculate","","key","8","16.667445205479353","960","536","","","","","50-42= ?","8","1","","","","","","","",""
"2382","","6","psychophysics","105","301828","0.0-7.0-5.0-0.2","6","6","7","6","6","4","3","4","5","5","4","1","1","1","2","1","1","1","1","4","4","5","5","5","4","4","5","4","4","5","7","7","7","7","8","6","8","8","5","6","2","6","5","5","5","1","6","5","1","5","3","6","3","6","6","5","7","2","6","7","6","3","7","6","7","7","5","7","6","7","7","7","7","7","7","3","7","6","6","776085809274294274","张","313","Female","[""好我"",""坏我"",""坏她"",""好她""]","[""强我"",""弱我"",""弱她"",""强她""]","","","","","","","","6","","","","","","","","","SRET","SRET_math_calculate","","key","6","16.66633802816898","960","536","","","","","9-3= ?","6","1","","","","","","","",""
"2195","","9","psychophysics","106","304027","0.0-7.0-5.0-0.3","6","6","7","6","6","4","3","4","5","5","4","1","1","1","2","1","1","1","1","4","4","5","5","5","4","4","5","4","4","5","7","7","7","7","8","6","8","8","5","6","2","6","5","5","5","1","6","5","1","5","3","6","3","6","6","5","7","2","6","7","6","3","7","6","7","7","5","7","6","7","7","7","7","7","7","3","7","6","6","776085809274294274","张","313","Female","[""好我"",""坏我"",""坏她"",""好她""]","[""强我"",""弱我"",""弱她"",""强她""]","","","","","","","","9","","","","","","","","","SRET","SRET_math_calculate","","key","9","16.666809160305004","960","536","","","","","1+8= ?","9","1","","","","","","","",""
"1990","","2","psychophysics","107","306020","0.0-7.0-5.0-0.4","6","6","7","6","6","4","3","4","5","5","4","1","1","1","2","1","1","1","1","4","4","5","5","5","4","4","5","4","4","5","7","7","7","7","8","6","8","8","5","6","2","6","5","5","5","1","6","5","1","5","3","6","3","6","6","5","7","2","6","7","6","3","7","6","7","7","5","7","6","7","7","7","7","7","7","3","7","6","6","776085809274294274","张","313","Female","[""好我"",""坏我"",""坏她"",""好她""]","[""强我"",""弱我"",""弱她"",""强她""]","","","","","","","","2","","","","","","","","","SRET","SRET_math_calculate","","key","2","16.665907563024863","960","536","","","","","29-27= ?","2","1","","","","","","","",""
"2392","","6","psychophysics","108","308417","0.0-7.0-5.0-0.5","6","6","7","6","6","4","3","4","5","5","4","1","1","1","2","1","1","1","1","4","4","5","5","5","4","4","5","4","4","5","7","7","7","7","8","6","8","8","5","6","2","6","5","5","5","1","6","5","1","5","3","6","3","6","6","5","7","2","6","7","6","3","7","6","7","7","5","7","6","7","7","7","7","7","7","3","7","6","6","776085809274294274","张","313","Female","[""好我"",""坏我"",""坏她"",""好她""]","[""强我"",""弱我"",""弱她"",""强她""]","","","","","","","","6","","","","","","","","","SRET","SRET_math_calculate","","key","6","16.667802816901265","960","536","","","","","4+2= ?","6","1","","","","","","","",""
"2176","","2","psychophysics","109","310597","0.0-7.0-5.0-0.6","6","6","7","6","6","4","3","4","5","5","4","1","1","1","2","1","1","1","1","4","4","5","5","5","4","4","5","4","4","5","7","7","7","7","8","6","8","8","5","6","2","6","5","5","5","1","6","5","1","5","3","6","3","6","6","5","7","2","6","7","6","3","7","6","7","7","5","7","6","7","7","7","7","7","7","3","7","6","6","776085809274294274","张","313","Female","[""好我"",""坏我"",""坏她"",""好她""]","[""强我"",""弱我"",""弱她"",""强她""]","","","","","","","","2","","","","","","","","","SRET","SRET_math_calculate","","key","2","16.667746153845936","960","536","","","","","18/9= ?","2","1","","","","","","","",""
"2390","","8","psychophysics","110","312991","0.0-7.0-5.0-0.7","6","6","7","6","6","4","3","4","5","5","4","1","1","1","2","1","1","1","1","4","4","5","5","5","4","4","5","4","4","5","7","7","7","7","8","6","8","8","5","6","2","6","5","5","5","1","6","5","1","5","3","6","3","6","6","5","7","2","6","7","6","3","7","6","7","7","5","7","6","7","7","7","7","7","7","3","7","6","6","776085809274294274","张","313","Female","[""好我"",""坏我"",""坏她"",""好她""]","[""强我"",""弱我"",""弱她"",""强她""]","","","","","","","","8","","","","","","","","","SRET","SRET_math_calculate","","key","8","16.667188811188783","960","536","","","","","1*8= ?","8","1","","","","","","","",""
"4162","","8","psychophysics","111","317156","0.0-7.0-5.0-0.8","6","6","7","6","6","4","3","4","5","5","4","1","1","1","2","1","1","1","1","4","4","5","5","5","4","4","5","4","4","5","7","7","7","7","8","6","8","8","5","6","2","6","5","5","5","1","6","5","1","5","3","6","3","6","6","5","7","2","6","7","6","3","7","6","7","7","5","7","6","7","7","7","7","7","7","3","7","6","6","776085809274294274","张","313","Female","[""好我"",""坏我"",""坏她"",""好她""]","[""强我"",""弱我"",""弱她"",""强她""]","","","","","","","","8","","","","","","","","","SRET","SRET_math_calculate","","key","8","16.666236947791326","960","536","","","","","13-5= ?","8","1","","","","","","","",""
"2098","","8","psychophysics","112","319256","0.0-7.0-5.0-0.9","6","6","7","6","6","4","3","4","5","5","4","1","1","1","2","1","1","1","1","4","4","5","5","5","4","4","5","4","4","5","7","7","7","7","8","6","8","8","5","6","2","6","5","5","5","1","6","5","1","5","3","6","3","6","6","5","7","2","6","7","6","3","7","6","7","7","5","7","6","7","7","7","7","7","7","3","7","6","6","776085809274294274","张","313","Female","[""好我"",""坏我"",""坏她"",""好她""]","[""强我"",""弱我"",""弱她"",""强她""]","","","","","","","","8","","","","","","","","","SRET","SRET_math_calculate","","key","8","16.667319999999833","960","536","","","","","4*2= ?","8","1","","","","","","","",""
"2195","","5","psychophysics","113","321455","0.0-7.0-5.0-0.10","6","6","7","6","6","4","3","4","5","5","4","1","1","1","2","1","1","1","1","4","4","5","5","5","4","4","5","4","4","5","7","7","7","7","8","6","8","8","5","6","2","6","5","5","5","1","6","5","1","5","3","6","3","6","6","5","7","2","6","7","6","3","7","6","7","7","5","7","6","7","7","7","7","7","7","3","7","6","6","776085809274294274","张","313","Female","[""好我"",""坏我"",""坏她"",""好她""]","[""强我"",""弱我"",""弱她"",""强她""]","","","","","","","","5","","","","","","","","","SRET","SRET_math_calculate","","key","5","16.665259541984547","960","536","","","","","9-4= ?","5","1","","","","","","","",""
"2153","","9","psychophysics","114","323610","0.0-7.0-5.0-0.11","6","6","7","6","6","4","3","4","5","5","4","1","1","1","2","1","1","1","1","4","4","5","5","5","4","4","5","4","4","5","7","7","7","7","8","6","8","8","5","6","2","6","5","5","5","1","6","5","1","5","3","6","3","6","6","5","7","2","6","7","6","3","7","6","7","7","5","7","6","7","7","7","7","7","7","3","7","6","6","776085809274294274","张","313","Female","[""好我"",""坏我"",""坏她"",""好她""]","[""强我"",""弱我"",""弱她"",""强她""]","","","","","","","","9","","","","","","","","","SRET","SRET_math_calculate","","key","9","16.667437499999778","960","536","","","","","2+7= ?","9","1","","","","","","","",""
"4142","","9","psychophysics","115","327756","0.0-7.0-5.0-0.12","6","6","7","6","6","4","3","4","5","5","4","1","1","1","2","1","1","1","1","4","4","5","5","5","4","4","5","4","4","5","7","7","7","7","8","6","8","8","5","6","2","6","5","5","5","1","6","5","1","5","3","6","3","6","6","5","7","2","6","7","6","3","7","6","7","7","5","7","6","7","7","7","7","7","7","3","7","6","6","776085809274294274","张","313","Female","[""好我"",""坏我"",""坏她"",""好她""]","[""强我"",""弱我"",""弱她"",""强她""]","","","","","","","","9","","","","","","","","","SRET","SRET_math_calculate","","key","9","16.667004032258127","960","536","","","","","32-23= ?","9","1","","","","","","","",""
"2274","","7","psychophysics","116","330034","0.0-7.0-5.0-0.13","6","6","7","6","6","4","3","4","5","5","4","1","1","1","2","1","1","1","1","4","4","5","5","5","4","4","5","4","4","5","7","7","7","7","8","6","8","8","5","6","2","6","5","5","5","1","6","5","1","5","3","6","3","6","6","5","7","2","6","7","6","3","7","6","7","7","5","7","6","7","7","7","7","7","7","3","7","6","6","776085809274294274","张","313","Female","[""好我"",""坏我"",""坏她"",""好她""]","[""强我"",""弱我"",""弱她"",""强她""]","","","","","","","","7","","","","","","","","","SRET","SRET_math_calculate","","key","7","16.66582962962954","960","536","","","","","6+1= ?","7","1","","","","","","","",""
"1925","","8","psychophysics","117","331967","0.0-7.0-5.0-0.14","6","6","7","6","6","4","3","4","5","5","4","1","1","1","2","1","1","1","1","4","4","5","5","5","4","4","5","4","4","5","7","7","7","7","8","6","8","8","5","6","2","6","5","5","5","1","6","5","1","5","3","6","3","6","6","5","7","2","6","7","6","3","7","6","7","7","5","7","6","7","7","7","7","7","7","3","7","6","6","776085809274294274","张","313","Female","[""好我"",""坏我"",""坏她"",""好她""]","[""强我"",""弱我"",""弱她"",""强她""]","","","","","","","","8","","","","","","","","","SRET","SRET_math_calculate","","key","8","16.66806086956564","960","536","","","","","7+1= ?","8","1","","","","","","","",""
"3271","","4","psychophysics","118","335245","0.0-7.0-5.0-0.15","6","6","7","6","6","4","3","4","5","5","4","1","1","1","2","1","1","1","1","4","4","5","5","5","4","4","5","4","4","5","7","7","7","7","8","6","8","8","5","6","2","6","5","5","5","1","6","5","1","5","3","6","3","6","6","5","7","2","6","7","6","3","7","6","7","7","5","7","6","7","7","7","7","7","7","3","7","6","6","776085809274294274","张","313","Female","[""好我"",""坏我"",""坏她"",""好她""]","[""强我"",""弱我"",""弱她"",""强她""]","","","","","","","","4","","","","","","","","","SRET","SRET_math_calculate","","key","4","16.66674489795904","960","536","","","","","13-9= ?","4","1","","","","","","","",""
"2066","","9","psychophysics","119","337314","0.0-7.0-5.0-0.16","6","6","7","6","6","4","3","4","5","5","4","1","1","1","2","1","1","1","1","4","4","5","5","5","4","4","5","4","4","5","7","7","7","7","8","6","8","8","5","6","2","6","5","5","5","1","6","5","1","5","3","6","3","6","6","5","7","2","6","7","6","3","7","6","7","7","5","7","6","7","7","7","7","7","7","3","7","6","6","776085809274294274","张","313","Female","[""好我"",""坏我"",""坏她"",""好她""]","[""强我"",""弱我"",""弱她"",""强她""]","","","","","","","","9","","","","","","","","","SRET","SRET_math_calculate","","key","9","16.667894308942717","960","536","","","","","1*9= ?","9","1","","","","","","","",""
"2305","","6","psychophysics","120","339621","0.0-7.0-5.0-0.17","6","6","7","6","6","4","3","4","5","5","4","1","1","1","2","1","1","1","1","4","4","5","5","5","4","4","5","4","4","5","7","7","7","7","8","6","8","8","5","6","2","6","5","5","5","1","6","5","1","5","3","6","3","6","6","5","7","2","6","7","6","3","7","6","7","7","5","7","6","7","7","7","7","7","7","3","7","6","6","776085809274294274","张","313","Female","[""好我"",""坏我"",""坏她"",""好她""]","[""强我"",""弱我"",""弱她"",""强她""]","","","","","","","","6","","","","","","","","","SRET","SRET_math_calculate","","key","6","16.66692753623204","960","536","","","","","2*3= ?","6","1","","","","","","","",""
"2027","","2","psychophysics","121","341652","0.0-7.0-5.0-0.18","6","6","7","6","6","4","3","4","5","5","4","1","1","1","2","1","1","1","1","4","4","5","5","5","4","4","5","4","4","5","7","7","7","7","8","6","8","8","5","6","2","6","5","5","5","1","6","5","1","5","3","6","3","6","6","5","7","2","6","7","6","3","7","6","7","7","5","7","6","7","7","7","7","7","7","3","7","6","6","776085809274294274","张","313","Female","[""好我"",""坏我"",""坏她"",""好她""]","[""强我"",""弱我"",""弱她"",""强她""]","","","","","","","","2","","","","","","","","","SRET","SRET_math_calculate","","key","2","16.807075630252235","960","536","","","","","22/11= ?","2","1","","","","","","","",""
"4317","","9","psychophysics","122","345978","0.0-7.0-5.0-0.19","6","6","7","6","6","4","3","4","5","5","4","1","1","1","2","1","1","1","1","4","4","5","5","5","4","4","5","4","4","5","7","7","7","7","8","6","8","8","5","6","2","6","5","5","5","1","6","5","1","5","3","6","3","6","6","5","7","2","6","7","6","3","7","6","7","7","5","7","6","7","7","7","7","7","7","3","7","6","6","776085809274294274","张","313","Female","[""好我"",""坏我"",""坏她"",""好她""]","[""强我"",""弱我"",""弱她"",""强她""]","","","","","","","","9","","","","","","","","","SRET","SRET_math_calculate","","key","9","16.667231660231753","960","536","","","","","72/9= ?","8","0","","","","","","","",""
"2079","","2","psychophysics","123","348063","0.0-7.0-5.0-0.20","6","6","7","6","6","4","3","4","5","5","4","1","1","1","2","1","1","1","1","4","4","5","5","5","4","4","5","4","4","5","7","7","7","7","8","6","8","8","5","6","2","6","5","5","5","1","6","5","1","5","3","6","3","6","6","5","7","2","6","7","6","3","7","6","7","7","5","7","6","7","7","7","7","7","7","3","7","6","6","776085809274294274","张","313","Female","[""好我"",""坏我"",""坏她"",""好她""]","[""强我"",""弱我"",""弱她"",""强她""]","","","","","","","","2","","","","","","","","","SRET","SRET_math_calculate","","key","2","16.666790322580887","960","536","","","","","19-17= ?","2","1","","","","","","","",""
"2173","","5","psychophysics","124","350240","0.0-7.0-5.0-0.21","6","6","7","6","6","4","3","4","5","5","4","1","1","1","2","1","1","1","1","4","4","5","5","5","4","4","5","4","4","5","7","7","7","7","8","6","8","8","5","6","2","6","5","5","5","1","6","5","1","5","3","6","3","6","6","5","7","2","6","7","6","3","7","6","7","7","5","7","6","7","7","7","7","7","7","3","7","6","6","776085809274294274","张","313","Female","[""好我"",""坏我"",""坏她"",""好她""]","[""强我"",""弱我"",""弱她"",""强她""]","","","","","","","","5","","","","","","","","","SRET","SRET_math_calculate","","key","5","16.667384615384687","960","536","","","","","8-3= ? ","5","1","","","","","","","",""
"2024","","3","psychophysics","125","352267","0.0-7.0-5.0-0.22","6","6","7","6","6","4","3","4","5","5","4","1","1","1","2","1","1","1","1","4","4","5","5","5","4","4","5","4","4","5","7","7","7","7","8","6","8","8","5","6","2","6","5","5","5","1","6","5","1","5","3","6","3","6","6","5","7","2","6","7","6","3","7","6","7","7","5","7","6","7","7","7","7","7","7","3","7","6","6","776085809274294274","张","313","Female","[""好我"",""坏我"",""坏她"",""好她""]","[""强我"",""弱我"",""弱她"",""强她""]","","","","","","","","3","","","","","","","","","SRET","SRET_math_calculate","","key","3","16.666175000000415","960","536","","","","","8-5= ?","3","1","","","","","","","",""
"2215","","5","psychophysics","126","354487","0.0-7.0-5.0-0.23","6","6","7","6","6","4","3","4","5","5","4","1","1","1","2","1","1","1","1","4","4","5","5","5","4","4","5","4","4","5","7","7","7","7","8","6","8","8","5","6","2","6","5","5","5","1","6","5","1","5","3","6","3","6","6","5","7","2","6","7","6","3","7","6","7","7","5","7","6","7","7","7","7","7","7","3","7","6","6","776085809274294274","张","313","Female","[""好我"",""坏我"",""坏她"",""好她""]","[""强我"",""弱我"",""弱她"",""强她""]","","","","","","","","5","","","","","","","","","SRET","SRET_math_calculate","","key","5","16.66755639097725","960","536","","","","","3+2= ?","5","1","","","","","","","",""
"2400","","9","psychophysics","127","356891","0.0-7.0-5.0-0.24","6","6","7","6","6","4","3","4","5","5","4","1","1","1","2","1","1","1","1","4","4","5","5","5","4","4","5","4","4","5","7","7","7","7","8","6","8","8","5","6","2","6","5","5","5","1","6","5","1","5","3","6","3","6","6","5","7","2","6","7","6","3","7","6","7","7","5","7","6","7","7","7","7","7","7","3","7","6","6","776085809274294274","张","313","Female","[""好我"",""坏我"",""坏她"",""好她""]","[""强我"",""弱我"",""弱她"",""强她""]","","","","","","","","9","","","","","","","","","SRET","SRET_math_calculate","","key","9","16.667636363636426","960","536","","","","","81/9= ?","9","1","","","","","","","",""
"3680","","8","psychophysics","128","360575","0.0-7.0-5.0-0.25","6","6","7","6","6","4","3","4","5","5","4","1","1","1","2","1","1","1","1","4","4","5","5","5","4","4","5","4","4","5","7","7","7","7","8","6","8","8","5","6","2","6","5","5","5","1","6","5","1","5","3","6","3","6","6","5","7","2","6","7","6","3","7","6","7","7","5","7","6","7","7","7","7","7","7","3","7","6","6","776085809274294274","张","313","Female","[""好我"",""坏我"",""坏她"",""好她""]","[""强我"",""弱我"",""弱她"",""强她""]","","","","","","","","8","","","","","","","","","SRET","SRET_math_calculate","","key","8","16.666518181818272","960","536","","","","","11-3= ?","8","1","","","","","","","",""
"1956","","3","psychophysics","129","362535","0.0-7.0-5.0-0.26","6","6","7","6","6","4","3","4","5","5","4","1","1","1","2","1","1","1","1","4","4","5","5","5","4","4","5","4","4","5","7","7","7","7","8","6","8","8","5","6","2","6","5","5","5","1","6","5","1","5","3","6","3","6","6","5","7","2","6","7","6","3","7","6","7","7","5","7","6","7","7","7","7","7","7","3","7","6","6","776085809274294274","张","313","Female","[""好我"",""坏我"",""坏她"",""好她""]","[""强我"",""弱我"",""弱她"",""强她""]","","","","","","","","3","","","","","","","","","SRET","SRET_math_calculate","","key","3","16.66656896551712","960","536","","","","","12/4= ?","3","1","","","","","","","",""
"2185","","7","psychophysics","130","364724","0.0-7.0-5.0-0.27","6","6","7","6","6","4","3","4","5","5","4","1","1","1","2","1","1","1","1","4","4","5","5","5","4","4","5","4","4","5","7","7","7","7","8","6","8","8","5","6","2","6","5","5","5","1","6","5","1","5","3","6","3","6","6","5","7","2","6","7","6","3","7","6","7","7","5","7","6","7","7","7","7","7","7","3","7","6","6","776085809274294274","张","313","Female","[""好我"",""坏我"",""坏她"",""好她""]","[""强我"",""弱我"",""弱她"",""强她""]","","","","","","","","7","","","","","","","","","SRET","SRET_math_calculate","","key","7","16.66767938931309","960","536","","","","","3+4= ?","7","1","","","","","","","",""
"2232","","4","psychophysics","131","366959","0.0-7.0-5.0-0.28","6","6","7","6","6","4","3","4","5","5","4","1","1","1","2","1","1","1","1","4","4","5","5","5","4","4","5","4","4","5","7","7","7","7","8","6","8","8","5","6","2","6","5","5","5","1","6","5","1","5","3","6","3","6","6","5","7","2","6","7","6","3","7","6","7","7","5","7","6","7","7","7","7","7","7","3","7","6","6","776085809274294274","张","313","Female","[""好我"",""坏我"",""坏她"",""好她""]","[""强我"",""弱我"",""弱她"",""强她""]","","","","","","","","4","","","","","","","","","SRET","SRET_math_calculate","","key","4","16.7928712121211","960","536","","","","","2+2= ?","4","1","","","","","","","",""
"2041","","3","psychophysics","132","369005","0.0-7.0-5.0-0.29","6","6","7","6","6","4","3","4","5","5","4","1","1","1","2","1","1","1","1","4","4","5","5","5","4","4","5","4","4","5","7","7","7","7","8","6","8","8","5","6","2","6","5","5","5","1","6","5","1","5","3","6","3","6","6","5","7","2","6","7","6","3","7","6","7","7","5","7","6","7","7","7","7","7","7","3","7","6","6","776085809274294274","张","313","Female","[""好我"",""坏我"",""坏她"",""好她""]","[""强我"",""弱我"",""弱她"",""强她""]","","","","","","","","3","","","","","","","","","SRET","SRET_math_calculate","","key","3","16.66711475409865","960","536","","","","","6/2= ?","3","1","","","","","","","",""
"2886","","7","psychophysics","133","371894","0.0-7.0-5.0-0.30","6","6","7","6","6","4","3","4","5","5","4","1","1","1","2","1","1","1","1","4","4","5","5","5","4","4","5","4","4","5","7","7","7","7","8","6","8","8","5","6","2","6","5","5","5","1","6","5","1","5","3","6","3","6","6","5","7","2","6","7","6","3","7","6","7","7","5","7","6","7","7","7","7","7","7","3","7","6","6","776085809274294274","张","313","Female","[""好我"",""坏我"",""坏她"",""好她""]","[""强我"",""弱我"",""弱她"",""强她""]","","","","","","","","7","","","","","","","","","SRET","SRET_math_calculate","","key","7","16.667267441860236","960","536","","","","","13-6= ?","7","1","","","","","","","",""
"2413","","0","psychophysics","134","374310","0.0-7.0-5.0-0.31","6","6","7","6","6","4","3","4","5","5","4","1","1","1","2","1","1","1","1","4","4","5","5","5","4","4","5","4","4","5","7","7","7","7","8","6","8","8","5","6","2","6","5","5","5","1","6","5","1","5","3","6","3","6","6","5","7","2","6","7","6","3","7","6","7","7","5","7","6","7","7","7","7","7","7","3","7","6","6","776085809274294274","张","313","Female","[""好我"",""坏我"",""坏她"",""好她""]","[""强我"",""弱我"",""弱她"",""强她""]","","","","","","","","0","","","","","","","","","SRET","SRET_math_calculate","","key","0","16.66652777777765","960","536","","","","","1-1= ?","0","1","","","","","","","",""
"2129","","7","psychophysics","135","376443","0.0-7.0-5.0-0.32","6","6","7","6","6","4","3","4","5","5","4","1","1","1","2","1","1","1","1","4","4","5","5","5","4","4","5","4","4","5","7","7","7","7","8","6","8","8","5","6","2","6","5","5","5","1","6","5","1","5","3","6","3","6","6","5","7","2","6","7","6","3","7","6","7","7","5","7","6","7","7","7","7","7","7","3","7","6","6","776085809274294274","张","313","Female","[""好我"",""坏我"",""坏她"",""好她""]","[""强我"",""弱我"",""弱她"",""强她""]","","","","","","","","7","","","","","","","","","SRET","SRET_math_calculate","","key","7","16.66646456692916","960","536","","","","","7*1=  ?","7","1","","","","","","","",""
"2040","","0","psychophysics","136","378486","0.0-7.0-5.0-0.33","6","6","7","6","6","4","3","4","5","5","4","1","1","1","2","1","1","1","1","4","4","5","5","5","4","4","5","4","4","5","7","7","7","7","8","6","8","8","5","6","2","6","5","5","5","1","6","5","1","5","3","6","3","6","6","5","7","2","6","7","6","3","7","6","7","7","5","7","6","7","7","7","7","7","7","3","7","6","6","776085809274294274","张","313","Female","[""好我"",""坏我"",""坏她"",""好她""]","[""强我"",""弱我"",""弱她"",""强她""]","","","","","","","","0","","","","","","","","","SRET","SRET_math_calculate","","key","0","16.6675289256199","960","536","","","","","5*0= ?","0","1","","","","","","","",""
"2073","","7","psychophysics","137","380591","0.0-7.0-5.0-0.34","6","6","7","6","6","4","3","4","5","5","4","1","1","1","2","1","1","1","1","4","4","5","5","5","4","4","5","4","4","5","7","7","7","7","8","6","8","8","5","6","2","6","5","5","5","1","6","5","1","5","3","6","3","6","6","5","7","2","6","7","6","3","7","6","7","7","5","7","6","7","7","7","7","7","7","3","7","6","6","776085809274294274","张","313","Female","[""好我"",""坏我"",""坏她"",""好她""]","[""强我"",""弱我"",""弱她"",""强她""]","","","","","","","","7","","","","","","","","","SRET","SRET_math_calculate","","key","7","16.666396825396944","960","536","","","","","12-5= ?","7","1","","","","","","","",""
"2157","","4","psychophysics","138","382751","0.0-7.0-5.0-0.35","6","6","7","6","6","4","3","4","5","5","4","1","1","1","2","1","1","1","1","4","4","5","5","5","4","4","5","4","4","5","7","7","7","7","8","6","8","8","5","6","2","6","5","5","5","1","6","5","1","5","3","6","3","6","6","5","7","2","6","7","6","3","7","6","7","7","5","7","6","7","7","7","7","7","7","3","7","6","6","776085809274294274","张","313","Female","[""好我"",""坏我"",""坏她"",""好她""]","[""强我"",""弱我"",""弱她"",""强她""]","","","","","","","","4","","","","","","","","","SRET","SRET_math_calculate","","key","4","16.66632812500029","960","536","","","","","3+1= ?","4","1","","","","","","","",""
"2031","","2","psychophysics","139","384789","0.0-7.0-5.0-0.36","6","6","7","6","6","4","3","4","5","5","4","1","1","1","2","1","1","1","1","4","4","5","5","5","4","4","5","4","4","5","7","7","7","7","8","6","8","8","5","6","2","6","5","5","5","1","6","5","1","5","3","6","3","6","6","5","7","2","6","7","6","3","7","6","7","7","5","7","6","7","7","7","7","7","7","3","7","6","6","776085809274294274","张","313","Female","[""好我"",""坏我"",""坏她"",""好她""]","[""强我"",""弱我"",""弱她"",""强她""]","","","","","","","","2","","","","","","","","","SRET","SRET_math_calculate","","key","2","16.80406611570261","960","536","","","","","8-6= ?","2","1","","","","","","","",""
"2231","","7","psychophysics","140","387025","0.0-7.0-5.0-0.37","6","6","7","6","6","4","3","4","5","5","4","1","1","1","2","1","1","1","1","4","4","5","5","5","4","4","5","4","4","5","7","7","7","7","8","6","8","8","5","6","2","6","5","5","5","1","6","5","1","5","3","6","3","6","6","5","7","2","6","7","6","3","7","6","7","7","5","7","6","7","7","7","7","7","7","3","7","6","6","776085809274294274","张","313","Female","[""好我"",""坏我"",""坏她"",""好她""]","[""强我"",""弱我"",""弱她"",""强她""]","","","","","","","","7","","","","","","","","","SRET","SRET_math_calculate","","key","7","16.66730075187962","960","536","","","","","21/3= ? ","7","1","","","","","","","",""
"2304","","3","psychophysics","141","389335","0.0-7.0-5.0-0.38","6","6","7","6","6","4","3","4","5","5","4","1","1","1","2","1","1","1","1","4","4","5","5","5","4","4","5","4","4","5","7","7","7","7","8","6","8","8","5","6","2","6","5","5","5","1","6","5","1","5","3","6","3","6","6","5","7","2","6","7","6","3","7","6","7","7","5","7","6","7","7","7","7","7","7","3","7","6","6","776085809274294274","张","313","Female","[""好我"",""坏我"",""坏她"",""好她""]","[""强我"",""弱我"",""弱她"",""强她""]","","","","","","","","3","","","","","","","","","SRET","SRET_math_calculate","","key","3","16.667080291970905","960","536","","","","","9/3= ?","3","1","","","","","","","",""
"2248","","8","psychophysics","142","391588","0.0-7.0-5.0-0.39","6","6","7","6","6","4","3","4","5","5","4","1","1","1","2","1","1","1","1","4","4","5","5","5","4","4","5","4","4","5","7","7","7","7","8","6","8","8","5","6","2","6","5","5","5","1","6","5","1","5","3","6","3","6","6","5","7","2","6","7","6","3","7","6","7","7","5","7","6","7","7","7","7","7","7","3","7","6","6","776085809274294274","张","313","Female","[""好我"",""坏我"",""坏她"",""好她""]","[""强我"",""弱我"",""弱她"",""强她""]","","","","","","","","8","","","","","","","","","SRET","SRET_math_calculate","","key","8","16.666792592592536","960","536","","","","","6+2= ?","8","1","","","","","","","",""
