"rt","stimulus","response","trial_type","trial_index","time_elapsed","internal_node_id","swb_1","swb_2","swb_3","swb_4","swb_5","LOT_1","LOT_2","LOT_3","LOT_4","LOT_5","LOT_6","IPC_1","IPC_2","IPC_3","IPC_4","IPC_5","IPC_6","IPC_7","IPC_8","MorIden_1","MorIden_2","MorIden_3","MorIden_4","MorIden_5","MorIden_6","MorIden_7","MorIden_8","MorIden_9","MorIden_10","moralSeImag_1","moralSeImag_2","moralSeImag_3","moralSeImag_4","moralSeImag_5","moralSeImag_6","moralSeImag_7","moralSeImag_8","moralSeImag_9","sde_1","sde_2","sde_3","sde_4","sde_5","sde_6","sde_7","sde_8","sde_9","sde_10","trap2","sde_11","sde_12","sde_13","sde_14","sde_15","sde_16","sde_17","sde_18","sde_19","sde_20","IM_1","IM_2","IM_3","IM_4","IM_5","IM_6","IM_7","IM_8","IM_9","IM_10","IM_11","IM_12","IM_13","IM_14","IM_15","IM_16","IM_17","IM_18","IM_19","IM_20","subj_idx","friend_name","ParticipantID","Sex","Word","Word2","value","success","timeout","failed_images","failed_audio","failed_video","user_agent","responses","item_order","radio_event_ids","radio_event_times","key_event_times","mouse_event_times","straightlining","zigzagging","honeypot","task_id","screen_id","time_stamp","response_type","key_press","avg_frame_time","center_x","center_y","person","word","valence","domain","math","correct_response","correct","status","view_history","identity","duration","Image","condition","question_order","trap2_item"
"36913","
   <p><div style='color:white; font-size: 25px'>您好，欢迎参加本次实验。</div></p>
   <p><div style='color:white; font-size: 25px'>为充分保障您的权利，请确保您已经知晓并同意《参与实验同意书》以及《数据公开知情同意书》。</div></p>
   <p><div style='color:white; font-size: 25px'>如果您未见过上述内容，请咨询实验员。</div></p>
   <p style='color:white; font-size: 25px'>如果您选择继续实验，则表示您已经清楚两份知情同意书的内容并同意。</p>
   <p><div style = ""color: pink;font-size:30px;"">请确保您记得day0的实验编号，您将在本次实验输入该编号，若您忘记，请咨询实验员后作答。</div></p>
   <p><div style = ""color:lightblue;font-size:25px;"">请您尽可能认真地作答，我们将依据您在各问卷和按键任务中的作答质量发放报酬。</div></p>
   <p> <div style = ""color: green""><按空格键至下页></div> </p>
   "," ","html-keyboard-response","0","36914","0.0-0.0","7","7","7","7","7","5","5","5","5","5","5","2","2","1","2","2","2","2","2","5","5","5","5","5","5","5","4","4","5","6","6","7","7","6","5","7","7","6","7","7","7","7","7","6","7","1","7","7","1","7","6","7","7","7","6","7","7","7","7","7","7","7","7","7","7","7","7","7","7","7","7","7","7","7","7","7","7","6","7","738059457485082626","付","523","Male","[""坏他"",""好我"",""好他"",""坏我""]","[""弱他"",""强我"",""强他"",""弱我""]","","","","","","","","","","","","","","","","","","","","","","","","","","","","","","","","","","","","","","",""
"","","","call-function","1","36916","0.0-1.0-0.0","7","7","7","7","7","5","5","5","5","5","5","2","2","1","2","2","2","2","2","5","5","5","5","5","5","5","4","4","5","6","6","7","7","6","5","7","7","6","7","7","7","7","7","6","7","1","7","7","1","7","6","7","7","7","6","7","7","7","7","7","7","7","7","7","7","7","7","7","7","7","7","7","7","7","7","7","7","6","7","738059457485082626","付","523","Male","[""坏他"",""好我"",""好他"",""坏我""]","[""弱他"",""强我"",""强他"",""弱我""]","","","","","","","","","","","","","","","","","","","","","","","","","","","","","","","","","","","","","","",""
"60869","","[{""name"":""Sex"",""value"":""0""},{""name"":""friend_name"",""value"":""付""},{""name"":""ParticipantID"",""value"":""523""}]","survey-html-form","2","97786","0.0-1.0-1.0","7","7","7","7","7","5","5","5","5","5","5","2","2","1","2","2","2","2","2","5","5","5","5","5","5","5","4","4","5","6","6","7","7","6","5","7","7","6","7","7","7","7","7","6","7","1","7","7","1","7","6","7","7","7","6","7","7","7","7","7","7","7","7","7","7","7","7","7","7","7","7","7","7","7","7","7","7","6","7","738059457485082626","付","523","Male","[""坏他"",""好我"",""好他"",""坏我""]","[""弱他"",""强我"",""强他"",""弱我""]","","","","","","","","","","","","","","","","","","","","","","","","","","","","","","","","","","","","","","",""
"","","","preload","3","98188","0.0-2.0","7","7","7","7","7","5","5","5","5","5","5","2","2","1","2","2","2","2","2","5","5","5","5","5","5","5","4","4","5","6","6","7","7","6","5","7","7","6","7","7","7","7","7","6","7","1","7","7","1","7","6","7","7","7","6","7","7","7","7","7","7","7","7","7","7","7","7","7","7","7","7","7","7","7","7","7","7","6","7","738059457485082626","付","523","Male","[""坏他"",""好我"",""好他"",""坏我""]","[""弱他"",""强我"",""强他"",""弱我""]","","true","false","[]","[]","[]","","","","","","","","","","","","","","","","","","","","","","","","","","","","","","","","",""
"","","","fullscreen","4","99503","0.0-3.0","7","7","7","7","7","5","5","5","5","5","5","2","2","1","2","2","2","2","2","5","5","5","5","5","5","5","4","4","5","6","6","7","7","6","5","7","7","6","7","7","7","7","7","6","7","1","7","7","1","7","6","7","7","7","6","7","7","7","7","7","7","7","7","7","7","7","7","7","7","7","7","7","7","7","7","7","7","6","7","738059457485082626","付","523","Male","[""坏他"",""好我"",""好他"",""坏我""]","[""弱他"",""强我"",""强他"",""弱我""]","","true","","","","","{}","","","","","","","","","","","","","","","","","","","","","","","","","","","","","","","",""
"6442","","{""Q01"":""7"",""Q02"":""7"",""Q03"":""7"",""Q04"":""7"",""Q05"":""7""}","survey-template","5","105946","0.0-4.0","7","7","7","7","7","5","5","5","5","5","5","2","2","1","2","2","2","2","2","5","5","5","5","5","5","5","4","4","5","6","6","7","7","6","5","7","7","6","7","7","7","7","7","6","7","1","7","7","1","7","6","7","7","7","6","7","7","7","7","7","7","7","7","7","7","7","7","7","7","7","7","7","7","7","7","7","7","6","7","738059457485082626","付","523","Male","[""坏他"",""好我"",""好他"",""坏我""]","[""弱他"",""强我"",""强他"",""弱我""]","","","","","","","","{""Q01"":""7"",""Q02"":""7"",""Q03"":""7"",""Q04"":""7"",""Q05"":""7""}","[0,1,2,3,4]","[""Q01"",""Q02"",""Q03"",""Q04"",""Q05""]","[1241.4000000953674,1761,2265,2728.9000000953674,3441.2000000476837]","[]","[1241.4000000953674,1761,2265,2728.9000000953674,3209.300000190735,3441.2000000476837,6441]","1","0","0","","","","","","","","","","","","","","","","","","","","","","",""
"6828.700000047684","","{""Q01"":""5"",""Q02"":""5"",""Q03"":""5"",""Q04"":""5"",""Q05"":""5"",""Q06"":""5""}","survey-template","6","112778","0.0-5.0","7","7","7","7","7","5","5","5","5","5","5","2","2","1","2","2","2","2","2","5","5","5","5","5","5","5","4","4","5","6","6","7","7","6","5","7","7","6","7","7","7","7","7","6","7","1","7","7","1","7","6","7","7","7","6","7","7","7","7","7","7","7","7","7","7","7","7","7","7","7","7","7","7","7","7","7","7","6","7","738059457485082626","付","523","Male","[""坏他"",""好我"",""好他"",""坏我""]","[""弱他"",""强我"",""强他"",""弱我""]","","","","","","","","{""Q01"":""5"",""Q02"":""5"",""Q03"":""5"",""Q04"":""5"",""Q05"":""5"",""Q06"":""5""}","[0,1,2,3,4,5]","[""Q01"",""Q02"",""Q03"",""Q04"",""Q05"",""Q06""]","[1771.8999998569489,2803.7999999523163,3596,4267.799999952316,5075.899999856949,6163.700000047684]","[]","[1771.8999998569489,2803.7999999523163,3596,4267.799999952316,4531.799999952316,5075.899999856949,6163.700000047684,6828]","0.5","0.8","0","","","","","","","","","","","","","","","","","","","","","","",""
"15133.5","","{""Q01"":""2"",""Q02"":""2"",""Q03"":""1"",""Q04"":""2"",""Q05"":""2"",""Q06"":""2"",""Q07"":""2"",""Q08"":""2""}","survey-template","7","127915","0.0-6.0","7","7","7","7","7","5","5","5","5","5","5","2","2","1","2","2","2","2","2","5","5","5","5","5","5","5","4","4","5","6","6","7","7","6","5","7","7","6","7","7","7","7","7","6","7","1","7","7","1","7","6","7","7","7","6","7","7","7","7","7","7","7","7","7","7","7","7","7","7","7","7","7","7","7","7","7","7","6","7","738059457485082626","付","523","Male","[""坏他"",""好我"",""好他"",""坏我""]","[""弱他"",""强我"",""强他"",""弱我""]","","","","","","","","{""Q01"":""2"",""Q02"":""2"",""Q03"":""1"",""Q04"":""2"",""Q05"":""2"",""Q06"":""2"",""Q07"":""2"",""Q08"":""2""}","[0,1,2,3,4,5,6,7]","[""Q01"",""Q02"",""Q03"",""Q04"",""Q05"",""Q06"",""Q07"",""Q08"",""Q07"",""Q07"",""Q03""]","[1436.2000000476837,2748.5,3204.4000000953674,3996.4000000953674,4500.700000047684,4844.200000047684,5812.600000143051,6860.299999952316,8956.100000143051,12292.299999952316,14404.299999952316]","[]","[1436.2000000476837,1820.9000000953674,2212.4000000953674,2748.5,3204.4000000953674,3708.2000000476837,3996.4000000953674,4500.700000047684,4844.200000047684,5388,5812.600000143051,6860.299999952316,8420.400000095367,8956.100000143051,12292.299999952316,14404.299999952316,15132.400000095367]","0.875","0.2857142857142857","0","","","","","","","","","","","","","","","","","","","","","","",""
"46453","
    <p><div style='color:white;font-size:35px; line-height:20px;'>词汇评估任务</div></p><br>
    <p><div style='color:white;font-size:25px; line-height:20px;'>请再次回忆该亲密的朋友，你们至少2年前就认识了，并且最近2年经常见面。</div></p>
    <p><div style='color:white;font-size:25px; line-height:20px;'>在本实验中，您将会看到一些形容词。</div></p>
    <p><div style='color:yellow;font-size:25px; line-height:20px;'>您的任务是判断这些形容词是否符合对您自己或您的朋友的描述。</div></p><p style='font-size:35px'>符合按<span style=""color:lightgreen""> j 键</span>，不符合按<span style=""color:red""> f 键</span></p>","0","html-button-response","8","174369","0.0-7.0-0.0","7","7","7","7","7","5","5","5","5","5","5","2","2","1","2","2","2","2","2","5","5","5","5","5","5","5","4","4","5","6","6","7","7","6","5","7","7","6","7","7","7","7","7","6","7","1","7","7","1","7","6","7","7","7","6","7","7","7","7","7","7","7","7","7","7","7","7","7","7","7","7","7","7","7","7","7","7","6","7","738059457485082626","付","523","Male","[""坏他"",""好我"",""好他"",""坏我""]","[""弱他"",""强我"",""强他"",""弱我""]","","","","","","","","","","","","","","","","","SRET_EW","EW_instructions","Tue Jan 02 2024 17:24:08 GMT+0800 (中国标准时间)","","","","","","","","","","","","","","","","","","","",""
"1253","","f","psychophysics","9","176626","0.0-7.0-1.0-0.0","7","7","7","7","7","5","5","5","5","5","5","2","2","1","2","2","2","2","2","5","5","5","5","5","5","5","4","4","5","6","6","7","7","6","5","7","7","6","7","7","7","7","7","6","7","1","7","7","1","7","6","7","7","7","6","7","7","7","7","7","7","7","7","7","7","7","7","7","7","7","7","7","7","7","7","7","7","6","7","738059457485082626","付","523","Male","[""坏他"",""好我"",""好他"",""坏我""]","[""弱他"",""强我"",""强他"",""弱我""]","","","","","","","","no","","","","","","","","","SRET_EW","EW_practice","","key","f","16.66296296296296","768","428","朋友","徇私","Negative","morality","","","","","","","","","","",""
"604","","j","psychophysics","10","178233","0.0-7.0-1.0-0.1","7","7","7","7","7","5","5","5","5","5","5","2","2","1","2","2","2","2","2","5","5","5","5","5","5","5","4","4","5","6","6","7","7","6","5","7","7","6","7","7","7","7","7","6","7","1","7","7","1","7","6","7","7","7","6","7","7","7","7","7","7","7","7","7","7","7","7","7","7","7","7","7","7","7","7","7","7","6","7","738059457485082626","付","523","Male","[""坏他"",""好我"",""好他"",""坏我""]","[""弱他"",""强我"",""强他"",""弱我""]","","","","","","","","yes","","","","","","","","","SRET_EW","EW_practice","","key","j","16.66526315789486","768","428","朋友","忠实","Positive","morality","","","","","","","","","","",""
"686","","j","psychophysics","11","179921","0.0-7.0-1.0-0.2","7","7","7","7","7","5","5","5","5","5","5","2","2","1","2","2","2","2","2","5","5","5","5","5","5","5","4","4","5","6","6","7","7","6","5","7","7","6","7","7","7","7","7","6","7","1","7","7","1","7","6","7","7","7","6","7","7","7","7","7","7","7","7","7","7","7","7","7","7","7","7","7","7","7","7","7","7","6","7","738059457485082626","付","523","Male","[""坏他"",""好我"",""好他"",""坏我""]","[""弱他"",""强我"",""强他"",""弱我""]","","","","","","","","yes","","","","","","","","","SRET_EW","EW_practice","","key","j","16.666336633663253","768","428","自己","严谨","Positive","ability","","","","","","","","","","",""
"888","","f","psychophysics","12","181809","0.0-7.0-1.0-0.3","7","7","7","7","7","5","5","5","5","5","5","2","2","1","2","2","2","2","2","5","5","5","5","5","5","5","4","4","5","6","6","7","7","6","5","7","7","6","7","7","7","7","7","6","7","1","7","7","1","7","6","7","7","7","6","7","7","7","7","7","7","7","7","7","7","7","7","7","7","7","7","7","7","7","7","7","7","6","7","738059457485082626","付","523","Male","[""坏他"",""好我"",""好他"",""坏我""]","[""弱他"",""强我"",""强他"",""弱我""]","","","","","","","","no","","","","","","","","","SRET_EW","EW_practice","","key","f","16.665178571428573","768","428","自己","刻板","Negative","ability","","","","","","","","","","",""
"5151","
    <p><div style='color:white;font-size:35px; line-height:20px;'>请您再次阅读实验要求</div></p><br>
    <p><div style='color:white;font-size:25px; line-height:20px;'>请回忆某一个亲密的朋友，你们至少2年前就认识了，并且最近2年经常见面。</div></p>
    <p><div style='color:white;font-size:25px; line-height:20px;'>在本实验中，您将会看到一些形容词。</div></p>
    <p><div style='color:yellow;font-size:25px; line-height:20px;'>您的任务是判断这些形容词是否符合对您自己或您的朋友的描述。</div></p>
    <p><div class='footer' style='font-size:25px; line-height:20px;'>如果对本实验还有不清楚之处，请立即向实验员咨询。</p><p style='font-size:25px; line-height:20px;'>如果您明白了规则：</p><p style='font-size:22px; line-height:20px;'>请按 继续 进入正式实验</p>
    </div>
    <p style='font-size:35px'>符合按<span style=""color:lightgreen""> j 键</span>，不符合按<span style=""color:red""> f 键</span></p>","0","html-button-response","13","186961","0.0-7.0-2.0","7","7","7","7","7","5","5","5","5","5","5","2","2","1","2","2","2","2","2","5","5","5","5","5","5","5","4","4","5","6","6","7","7","6","5","7","7","6","7","7","7","7","7","6","7","1","7","7","1","7","6","7","7","7","6","7","7","7","7","7","7","7","7","7","7","7","7","7","7","7","7","7","7","7","7","7","7","6","7","738059457485082626","付","523","Male","[""坏他"",""好我"",""好他"",""坏我""]","[""弱他"",""强我"",""强他"",""弱我""]","","","","","","","","","","","","","","","","","SRET_EW","prac_instructions","Tue Jan 02 2024 17:24:08 GMT+0800 (中国标准时间)","","","","","","","","","","","","","","","","","","","",""
"710","","f","psychophysics","14","188673","0.0-7.0-3.0-0.0","7","7","7","7","7","5","5","5","5","5","5","2","2","1","2","2","2","2","2","5","5","5","5","5","5","5","4","4","5","6","6","7","7","6","5","7","7","6","7","7","7","7","7","6","7","1","7","7","1","7","6","7","7","7","6","7","7","7","7","7","7","7","7","7","7","7","7","7","7","7","7","7","7","7","7","7","7","6","7","738059457485082626","付","523","Male","[""坏他"",""好我"",""好他"",""坏我""]","[""弱他"",""强我"",""强他"",""弱我""]","","","","","","","","no","","","","","","","","","SRET","EW_formal","","key","f","16.664077669902856","768","428","朋友","迷糊","Negative","ability","","","","","","","","","","",""
"631","","j","psychophysics","15","190305","0.0-7.0-3.0-0.1","7","7","7","7","7","5","5","5","5","5","5","2","2","1","2","2","2","2","2","5","5","5","5","5","5","5","4","4","5","6","6","7","7","6","5","7","7","6","7","7","7","7","7","6","7","1","7","7","1","7","6","7","7","7","6","7","7","7","7","7","7","7","7","7","7","7","7","7","7","7","7","7","7","7","7","7","7","6","7","738059457485082626","付","523","Male","[""坏他"",""好我"",""好他"",""坏我""]","[""弱他"",""强我"",""强他"",""弱我""]","","","","","","","","yes","","","","","","","","","SRET","EW_formal","","key","j","16.663917525773137","768","428","自己","坚贞","Positive","morality","","","","","","","","","","",""
"774","","f","psychophysics","16","192081","0.0-7.0-3.0-0.2","7","7","7","7","7","5","5","5","5","5","5","2","2","1","2","2","2","2","2","5","5","5","5","5","5","5","4","4","5","6","6","7","7","6","5","7","7","6","7","7","7","7","7","6","7","1","7","7","1","7","6","7","7","7","6","7","7","7","7","7","7","7","7","7","7","7","7","7","7","7","7","7","7","7","7","7","7","6","7","738059457485082626","付","523","Male","[""坏他"",""好我"",""好他"",""坏我""]","[""弱他"",""强我"",""强他"",""弱我""]","","","","","","","","no","","","","","","","","","SRET","EW_formal","","key","f","16.66571428571423","768","428","自己","说谎","Negative","morality","","","","","","","","","","",""
"759","","j","psychophysics","17","193841","0.0-7.0-3.0-0.3","7","7","7","7","7","5","5","5","5","5","5","2","2","1","2","2","2","2","2","5","5","5","5","5","5","5","4","4","5","6","6","7","7","6","5","7","7","6","7","7","7","7","7","6","7","1","7","7","1","7","6","7","7","7","6","7","7","7","7","7","7","7","7","7","7","7","7","7","7","7","7","7","7","7","7","7","7","6","7","738059457485082626","付","523","Male","[""坏他"",""好我"",""好他"",""坏我""]","[""弱他"",""强我"",""强他"",""弱我""]","","","","","","","","yes","","","","","","","","","SRET","EW_formal","","key","j","16.66571428571423","768","428","朋友","务实","Positive","ability","","","","","","","","","","",""
"735","","j","psychophysics","18","195577","0.0-7.0-3.0-0.4","7","7","7","7","7","5","5","5","5","5","5","2","2","1","2","2","2","2","2","5","5","5","5","5","5","5","4","4","5","6","6","7","7","6","5","7","7","6","7","7","7","7","7","6","7","1","7","7","1","7","6","7","7","7","6","7","7","7","7","7","7","7","7","7","7","7","7","7","7","7","7","7","7","7","7","7","7","6","7","738059457485082626","付","523","Male","[""坏他"",""好我"",""好他"",""坏我""]","[""弱他"",""强我"",""强他"",""弱我""]","","","","","","","","yes","","","","","","","","","SRET","EW_formal","","key","j","16.66504854368932","768","428","自己","守信","Positive","morality","","","","","","","","","","",""
"605","","j","psychophysics","19","197185","0.0-7.0-3.0-0.5","7","7","7","7","7","5","5","5","5","5","5","2","2","1","2","2","2","2","2","5","5","5","5","5","5","5","4","4","5","6","6","7","7","6","5","7","7","6","7","7","7","7","7","6","7","1","7","7","1","7","6","7","7","7","6","7","7","7","7","7","7","7","7","7","7","7","7","7","7","7","7","7","7","7","7","7","7","6","7","738059457485082626","付","523","Male","[""坏他"",""好我"",""好他"",""坏我""]","[""弱他"",""强我"",""强他"",""弱我""]","","","","","","","","yes","","","","","","","","","SRET","EW_formal","","key","j","16.665625000000244","768","428","朋友","中用","Positive","ability","","","","","","","","","","",""
"1054","","f","psychophysics","20","199241","0.0-7.0-3.0-0.6","7","7","7","7","7","5","5","5","5","5","5","2","2","1","2","2","2","2","2","5","5","5","5","5","5","5","4","4","5","6","6","7","7","6","5","7","7","6","7","7","7","7","7","6","7","1","7","7","1","7","6","7","7","7","6","7","7","7","7","7","7","7","7","7","7","7","7","7","7","7","7","7","7","7","7","7","7","6","7","738059457485082626","付","523","Male","[""坏他"",""好我"",""好他"",""坏我""]","[""弱他"",""强我"",""强他"",""弱我""]","","","","","","","","no","","","","","","","","","SRET","EW_formal","","key","f","16.664754098360703","768","428","自己","无知","Negative","ability","","","","","","","","","","",""
"693","","j","psychophysics","21","200937","0.0-7.0-3.0-0.7","7","7","7","7","7","5","5","5","5","5","5","2","2","1","2","2","2","2","2","5","5","5","5","5","5","5","4","4","5","6","6","7","7","6","5","7","7","6","7","7","7","7","7","6","7","1","7","7","1","7","6","7","7","7","6","7","7","7","7","7","7","7","7","7","7","7","7","7","7","7","7","7","7","7","7","7","7","6","7","738059457485082626","付","523","Male","[""坏他"",""好我"",""好他"",""坏我""]","[""弱他"",""强我"",""强他"",""弱我""]","","","","","","","","yes","","","","","","","","","SRET","EW_formal","","key","j","16.66534653465358","768","428","朋友","君子","Positive","morality","","","","","","","","","","",""
"559","","j","psychophysics","22","202497","0.0-7.0-3.0-0.8","7","7","7","7","7","5","5","5","5","5","5","2","2","1","2","2","2","2","2","5","5","5","5","5","5","5","4","4","5","6","6","7","7","6","5","7","7","6","7","7","7","7","7","6","7","1","7","7","1","7","6","7","7","7","6","7","7","7","7","7","7","7","7","7","7","7","7","7","7","7","7","7","7","7","7","7","7","6","7","738059457485082626","付","523","Male","[""坏他"",""好我"",""好他"",""坏我""]","[""弱他"",""强我"",""强他"",""弱我""]","","","","","","","","yes","","","","","","","","","SRET","EW_formal","","key","j","16.66413043478267","768","428","自己","礼貌","Positive","morality","","","","","","","","","","",""
"1047","","j","psychophysics","23","204545","0.0-7.0-3.0-0.9","7","7","7","7","7","5","5","5","5","5","5","2","2","1","2","2","2","2","2","5","5","5","5","5","5","5","4","4","5","6","6","7","7","6","5","7","7","6","7","7","7","7","7","6","7","1","7","7","1","7","6","7","7","7","6","7","7","7","7","7","7","7","7","7","7","7","7","7","7","7","7","7","7","7","7","7","7","6","7","738059457485082626","付","523","Male","[""坏他"",""好我"",""好他"",""坏我""]","[""弱他"",""强我"",""强他"",""弱我""]","","","","","","","","yes","","","","","","","","","SRET","EW_formal","","key","j","16.664754098360703","768","428","朋友","远见","Positive","ability","","","","","","","","","","",""
"630","","f","psychophysics","24","206177","0.0-7.0-3.0-0.10","7","7","7","7","7","5","5","5","5","5","5","2","2","1","2","2","2","2","2","5","5","5","5","5","5","5","4","4","5","6","6","7","7","6","5","7","7","6","7","7","7","7","7","6","7","1","7","7","1","7","6","7","7","7","6","7","7","7","7","7","7","7","7","7","7","7","7","7","7","7","7","7","7","7","7","7","7","6","7","738059457485082626","付","523","Male","[""坏他"",""好我"",""好他"",""坏我""]","[""弱他"",""强我"",""强他"",""弱我""]","","","","","","","","no","","","","","","","","","SRET","EW_formal","","key","f","16.66597938144336","768","428","朋友","龌龊","Negative","morality","","","","","","","","","","",""
"629","","f","psychophysics","25","207809","0.0-7.0-3.0-0.11","7","7","7","7","7","5","5","5","5","5","5","2","2","1","2","2","2","2","2","5","5","5","5","5","5","5","4","4","5","6","6","7","7","6","5","7","7","6","7","7","7","7","7","6","7","1","7","7","1","7","6","7","7","7","6","7","7","7","7","7","7","7","7","7","7","7","7","7","7","7","7","7","7","7","7","7","7","6","7","738059457485082626","付","523","Male","[""坏他"",""好我"",""好他"",""坏我""]","[""弱他"",""强我"",""强他"",""弱我""]","","","","","","","","no","","","","","","","","","SRET","EW_formal","","key","f","16.662886597938023","768","428","自己","虚假","Negative","morality","","","","","","","","","","",""
"543","","j","psychophysics","26","209353","0.0-7.0-3.0-0.12","7","7","7","7","7","5","5","5","5","5","5","2","2","1","2","2","2","2","2","5","5","5","5","5","5","5","4","4","5","6","6","7","7","6","5","7","7","6","7","7","7","7","7","6","7","1","7","7","1","7","6","7","7","7","6","7","7","7","7","7","7","7","7","7","7","7","7","7","7","7","7","7","7","7","7","7","7","6","7","738059457485082626","付","523","Male","[""坏他"",""好我"",""好他"",""坏我""]","[""弱他"",""强我"",""强他"",""弱我""]","","","","","","","","yes","","","","","","","","","SRET","EW_formal","","key","j","16.66304347826087","768","428","朋友","忠良","Positive","morality","","","","","","","","","","",""
"551","","j","psychophysics","27","210905","0.0-7.0-3.0-0.13","7","7","7","7","7","5","5","5","5","5","5","2","2","1","2","2","2","2","2","5","5","5","5","5","5","5","4","4","5","6","6","7","7","6","5","7","7","6","7","7","7","7","7","6","7","1","7","7","1","7","6","7","7","7","6","7","7","7","7","7","7","7","7","7","7","7","7","7","7","7","7","7","7","7","7","7","7","6","7","738059457485082626","付","523","Male","[""坏他"",""好我"",""好他"",""坏我""]","[""弱他"",""强我"",""强他"",""弱我""]","","","","","","","","yes","","","","","","","","","SRET","EW_formal","","key","j","16.66413043478267","768","428","自己","学霸","Positive","ability","","","","","","","","","","",""
"616","","f","psychophysics","28","212522","0.0-7.0-3.0-0.14","7","7","7","7","7","5","5","5","5","5","5","2","2","1","2","2","2","2","2","5","5","5","5","5","5","5","4","4","5","6","6","7","7","6","5","7","7","6","7","7","7","7","7","6","7","1","7","7","1","7","6","7","7","7","6","7","7","7","7","7","7","7","7","7","7","7","7","7","7","7","7","7","7","7","7","7","7","6","7","738059457485082626","付","523","Male","[""坏他"",""好我"",""好他"",""坏我""]","[""弱他"",""强我"",""强他"",""弱我""]","","","","","","","","no","","","","","","","","","SRET","EW_formal","","key","f","16.664583333333514","768","428","自己","废物","Negative","ability","","","","","","","","","","",""
"1183","","f","psychophysics","29","214705","0.0-7.0-3.0-0.15","7","7","7","7","7","5","5","5","5","5","5","2","2","1","2","2","2","2","2","5","5","5","5","5","5","5","4","4","5","6","6","7","7","6","5","7","7","6","7","7","7","7","7","6","7","1","7","7","1","7","6","7","7","7","6","7","7","7","7","7","7","7","7","7","7","7","7","7","7","7","7","7","7","7","7","7","7","6","7","738059457485082626","付","523","Male","[""坏他"",""好我"",""好他"",""坏我""]","[""弱他"",""强我"",""强他"",""弱我""]","","","","","","","","no","","","","","","","","","SRET","EW_formal","","key","f","16.664615384615338","768","428","自己","聪明","Positive","ability","","","","","","","","","","",""
"1406","","j","psychophysics","30","217113","0.0-7.0-3.0-0.16","7","7","7","7","7","5","5","5","5","5","5","2","2","1","2","2","2","2","2","5","5","5","5","5","5","5","4","4","5","6","6","7","7","6","5","7","7","6","7","7","7","7","7","6","7","1","7","7","1","7","6","7","7","7","6","7","7","7","7","7","7","7","7","7","7","7","7","7","7","7","7","7","7","7","7","7","7","6","7","738059457485082626","付","523","Male","[""坏他"",""好我"",""好他"",""坏我""]","[""弱他"",""强我"",""强他"",""弱我""]","","","","","","","","yes","","","","","","","","","SRET","EW_formal","","key","j","16.665034965035005","768","428","自己","忠诚","Positive","morality","","","","","","","","","","",""
"783","","f","psychophysics","31","218897","0.0-7.0-3.0-0.17","7","7","7","7","7","5","5","5","5","5","5","2","2","1","2","2","2","2","2","5","5","5","5","5","5","5","4","4","5","6","6","7","7","6","5","7","7","6","7","7","7","7","7","6","7","1","7","7","1","7","6","7","7","7","6","7","7","7","7","7","7","7","7","7","7","7","7","7","7","7","7","7","7","7","7","7","7","6","7","738059457485082626","付","523","Male","[""坏他"",""好我"",""好他"",""坏我""]","[""弱他"",""强我"",""强他"",""弱我""]","","","","","","","","no","","","","","","","","","SRET","EW_formal","","key","f","16.66509433962264","768","428","朋友","弱智","Negative","ability","","","","","","","","","","",""
"791","","f","psychophysics","32","220689","0.0-7.0-3.0-0.18","7","7","7","7","7","5","5","5","5","5","5","2","2","1","2","2","2","2","2","5","5","5","5","5","5","5","4","4","5","6","6","7","7","6","5","7","7","6","7","7","7","7","7","6","7","1","7","7","1","7","6","7","7","7","6","7","7","7","7","7","7","7","7","7","7","7","7","7","7","7","7","7","7","7","7","7","7","6","7","738059457485082626","付","523","Male","[""坏他"",""好我"",""好他"",""坏我""]","[""弱他"",""强我"",""强他"",""弱我""]","","","","","","","","no","","","","","","","","","SRET","EW_formal","","key","f","16.664485981308466","768","428","自己","无能","Negative","ability","","","","","","","","","","",""
"710","","j","psychophysics","33","222401","0.0-7.0-3.0-0.19","7","7","7","7","7","5","5","5","5","5","5","2","2","1","2","2","2","2","2","5","5","5","5","5","5","5","4","4","5","6","6","7","7","6","5","7","7","6","7","7","7","7","7","6","7","1","7","7","1","7","6","7","7","7","6","7","7","7","7","7","7","7","7","7","7","7","7","7","7","7","7","7","7","7","7","7","7","6","7","738059457485082626","付","523","Male","[""坏他"",""好我"",""好他"",""坏我""]","[""弱他"",""强我"",""强他"",""弱我""]","","","","","","","","yes","","","","","","","","","SRET","EW_formal","","key","j","16.664705882352827","768","428","自己","果断","Positive","ability","","","","","","","","","","",""
"526","","j","psychophysics","34","223929","0.0-7.0-3.0-0.20","7","7","7","7","7","5","5","5","5","5","5","2","2","1","2","2","2","2","2","5","5","5","5","5","5","5","4","4","5","6","6","7","7","6","5","7","7","6","7","7","7","7","7","6","7","1","7","7","1","7","6","7","7","7","6","7","7","7","7","7","7","7","7","7","7","7","7","7","7","7","7","7","7","7","7","7","7","6","7","738059457485082626","付","523","Male","[""坏他"",""好我"",""好他"",""坏我""]","[""弱他"",""强我"",""强他"",""弱我""]","","","","","","","","yes","","","","","","","","","SRET","EW_formal","","key","j","16.664444444444314","768","428","自己","善良","Positive","morality","","","","","","","","","","",""
"967","","f","psychophysics","35","225897","0.0-7.0-3.0-0.21","7","7","7","7","7","5","5","5","5","5","5","2","2","1","2","2","2","2","2","5","5","5","5","5","5","5","4","4","5","6","6","7","7","6","5","7","7","6","7","7","7","7","7","6","7","1","7","7","1","7","6","7","7","7","6","7","7","7","7","7","7","7","7","7","7","7","7","7","7","7","7","7","7","7","7","7","7","6","7","738059457485082626","付","523","Male","[""坏他"",""好我"",""好他"",""坏我""]","[""弱他"",""强我"",""强他"",""弱我""]","","","","","","","","no","","","","","","","","","SRET","EW_formal","","key","f","16.664957264957167","768","428","朋友","恶劣","Negative","morality","","","","","","","","","","",""
"622","","j","psychophysics","36","227522","0.0-7.0-3.0-0.22","7","7","7","7","7","5","5","5","5","5","5","2","2","1","2","2","2","2","2","5","5","5","5","5","5","5","4","4","5","6","6","7","7","6","5","7","7","6","7","7","7","7","7","6","7","1","7","7","1","7","6","7","7","7","6","7","7","7","7","7","7","7","7","7","7","7","7","7","7","7","7","7","7","7","7","7","7","6","7","738059457485082626","付","523","Male","[""坏他"",""好我"",""好他"",""坏我""]","[""弱他"",""强我"",""强他"",""弱我""]","","","","","","","","yes","","","","","","","","","SRET","EW_formal","","key","j","16.663917525773137","768","428","自己","廉正","Positive","morality","","","","","","","","","","",""
"662","","f","psychophysics","37","229185","0.0-7.0-3.0-0.23","7","7","7","7","7","5","5","5","5","5","5","2","2","1","2","2","2","2","2","5","5","5","5","5","5","5","4","4","5","6","6","7","7","6","5","7","7","6","7","7","7","7","7","6","7","1","7","7","1","7","6","7","7","7","6","7","7","7","7","7","7","7","7","7","7","7","7","7","7","7","7","7","7","7","7","7","7","6","7","738059457485082626","付","523","Male","[""坏他"",""好我"",""好他"",""坏我""]","[""弱他"",""强我"",""强他"",""弱我""]","","","","","","","","no","","","","","","","","","SRET","EW_formal","","key","f","16.66565656565651","768","428","自己","黑心","Negative","morality","","","","","","","","","","",""
"1087","","f","psychophysics","38","231273","0.0-7.0-3.0-0.24","7","7","7","7","7","5","5","5","5","5","5","2","2","1","2","2","2","2","2","5","5","5","5","5","5","5","4","4","5","6","6","7","7","6","5","7","7","6","7","7","7","7","7","6","7","1","7","7","1","7","6","7","7","7","6","7","7","7","7","7","7","7","7","7","7","7","7","7","7","7","7","7","7","7","7","7","7","6","7","738059457485082626","付","523","Male","[""坏他"",""好我"",""好他"",""坏我""]","[""弱他"",""强我"",""强他"",""弱我""]","","","","","","","","no","","","","","","","","","SRET","EW_formal","","key","f","16.66370967741926","768","428","朋友","浅薄","Negative","ability","","","","","","","","","","",""
"999","","f","psychophysics","39","233273","0.0-7.0-3.0-0.25","7","7","7","7","7","5","5","5","5","5","5","2","2","1","2","2","2","2","2","5","5","5","5","5","5","5","4","4","5","6","6","7","7","6","5","7","7","6","7","7","7","7","7","6","7","1","7","7","1","7","6","7","7","7","6","7","7","7","7","7","7","7","7","7","7","7","7","7","7","7","7","7","7","7","7","7","7","6","7","738059457485082626","付","523","Male","[""坏他"",""好我"",""好他"",""坏我""]","[""弱他"",""强我"",""强他"",""弱我""]","","","","","","","","no","","","","","","","","","SRET","EW_formal","","key","f","16.66386554621849","768","428","自己","蛇蝎","Negative","morality","","","","","","","","","","",""
"702","","j","psychophysics","40","234978","0.0-7.0-3.0-0.26","7","7","7","7","7","5","5","5","5","5","5","2","2","1","2","2","2","2","2","5","5","5","5","5","5","5","4","4","5","6","6","7","7","6","5","7","7","6","7","7","7","7","7","6","7","1","7","7","1","7","6","7","7","7","6","7","7","7","7","7","7","7","7","7","7","7","7","7","7","7","7","7","7","7","7","7","7","6","7","738059457485082626","付","523","Male","[""坏他"",""好我"",""好他"",""坏我""]","[""弱他"",""强我"",""强他"",""弱我""]","","","","","","","","yes","","","","","","","","","SRET","EW_formal","","key","j","16.664356435643622","768","428","自己","仁厚","Positive","morality","","","","","","","","","","",""
"598","","j","psychophysics","41","236577","0.0-7.0-3.0-0.27","7","7","7","7","7","5","5","5","5","5","5","2","2","1","2","2","2","2","2","5","5","5","5","5","5","5","4","4","5","6","6","7","7","6","5","7","7","6","7","7","7","7","7","6","7","1","7","7","1","7","6","7","7","7","6","7","7","7","7","7","7","7","7","7","7","7","7","7","7","7","7","7","7","7","7","7","7","6","7","738059457485082626","付","523","Male","[""坏他"",""好我"",""好他"",""坏我""]","[""弱他"",""强我"",""强他"",""弱我""]","","","","","","","","yes","","","","","","","","","SRET","EW_formal","","key","j","16.66526315789486","768","428","朋友","果决","Positive","ability","","","","","","","","","","",""
"919","","f","psychophysics","42","238498","0.0-7.0-3.0-0.28","7","7","7","7","7","5","5","5","5","5","5","2","2","1","2","2","2","2","2","5","5","5","5","5","5","5","4","4","5","6","6","7","7","6","5","7","7","6","7","7","7","7","7","6","7","1","7","7","1","7","6","7","7","7","6","7","7","7","7","7","7","7","7","7","7","7","7","7","7","7","7","7","7","7","7","7","7","6","7","738059457485082626","付","523","Male","[""坏他"",""好我"",""好他"",""坏我""]","[""弱他"",""强我"",""强他"",""弱我""]","","","","","","","","no","","","","","","","","","SRET","EW_formal","","key","f","16.66521739130435","768","428","自己","下流","Negative","morality","","","","","","","","","","",""
"823","","f","psychophysics","43","240321","0.0-7.0-3.0-0.29","7","7","7","7","7","5","5","5","5","5","5","2","2","1","2","2","2","2","2","5","5","5","5","5","5","5","4","4","5","6","6","7","7","6","5","7","7","6","7","7","7","7","7","6","7","1","7","7","1","7","6","7","7","7","6","7","7","7","7","7","7","7","7","7","7","7","7","7","7","7","7","7","7","7","7","7","7","6","7","738059457485082626","付","523","Male","[""坏他"",""好我"",""好他"",""坏我""]","[""弱他"",""强我"",""强他"",""弱我""]","","","","","","","","no","","","","","","","","","SRET","EW_formal","","key","f","16.663888888888998","768","428","自己","拖延","Negative","ability","","","","","","","","","","",""
"760","","f","psychophysics","44","242082","0.0-7.0-3.0-0.30","7","7","7","7","7","5","5","5","5","5","5","2","2","1","2","2","2","2","2","5","5","5","5","5","5","5","4","4","5","6","6","7","7","6","5","7","7","6","7","7","7","7","7","6","7","1","7","7","1","7","6","7","7","7","6","7","7","7","7","7","7","7","7","7","7","7","7","7","7","7","7","7","7","7","7","7","7","6","7","738059457485082626","付","523","Male","[""坏他"",""好我"",""好他"",""坏我""]","[""弱他"",""强我"",""强他"",""弱我""]","","","","","","","","no","","","","","","","","","SRET","EW_formal","","key","f","16.664761904761793","768","428","朋友","拙笨","Negative","ability","","","","","","","","","","",""
"623","","j","psychophysics","45","243706","0.0-7.0-3.0-0.31","7","7","7","7","7","5","5","5","5","5","5","2","2","1","2","2","2","2","2","5","5","5","5","5","5","5","4","4","5","6","6","7","7","6","5","7","7","6","7","7","7","7","7","6","7","1","7","7","1","7","6","7","7","7","6","7","7","7","7","7","7","7","7","7","7","7","7","7","7","7","7","7","7","7","7","7","7","6","7","738059457485082626","付","523","Male","[""坏他"",""好我"",""好他"",""坏我""]","[""弱他"",""强我"",""强他"",""弱我""]","","","","","","","","yes","","","","","","","","","SRET","EW_formal","","key","j","16.664583333333212","768","428","朋友","精干","Positive","ability","","","","","","","","","","",""
"626","","j","psychophysics","46","245338","0.0-7.0-3.0-0.32","7","7","7","7","7","5","5","5","5","5","5","2","2","1","2","2","2","2","2","5","5","5","5","5","5","5","4","4","5","6","6","7","7","6","5","7","7","6","7","7","7","7","7","6","7","1","7","7","1","7","6","7","7","7","6","7","7","7","7","7","7","7","7","7","7","7","7","7","7","7","7","7","7","7","7","7","7","6","7","738059457485082626","付","523","Male","[""坏他"",""好我"",""好他"",""坏我""]","[""弱他"",""强我"",""强他"",""弱我""]","","","","","","","","yes","","","","","","","","","SRET","EW_formal","","key","j","16.664948453608247","768","428","自己","沉着","Positive","ability","","","","","","","","","","",""
"1118","","j","psychophysics","47","247457","0.0-7.0-3.0-0.33","7","7","7","7","7","5","5","5","5","5","5","2","2","1","2","2","2","2","2","5","5","5","5","5","5","5","4","4","5","6","6","7","7","6","5","7","7","6","7","7","7","7","7","6","7","1","7","7","1","7","6","7","7","7","6","7","7","7","7","7","7","7","7","7","7","7","7","7","7","7","7","7","7","7","7","7","7","6","7","738059457485082626","付","523","Male","[""坏他"",""好我"",""好他"",""坏我""]","[""弱他"",""强我"",""强他"",""弱我""]","","","","","","","","yes","","","","","","","","","SRET","EW_formal","","key","j","16.66349206349211","768","428","朋友","努力","Positive","ability","","","","","","","","","","",""
"799","","f","psychophysics","48","249258","0.0-7.0-3.0-0.34","7","7","7","7","7","5","5","5","5","5","5","2","2","1","2","2","2","2","2","5","5","5","5","5","5","5","4","4","5","6","6","7","7","6","5","7","7","6","7","7","7","7","7","6","7","1","7","7","1","7","6","7","7","7","6","7","7","7","7","7","7","7","7","7","7","7","7","7","7","7","7","7","7","7","7","7","7","6","7","738059457485082626","付","523","Male","[""坏他"",""好我"",""好他"",""坏我""]","[""弱他"",""强我"",""强他"",""弱我""]","","","","","","","","no","","","","","","","","","SRET","EW_formal","","key","f","16.6654205607475","768","428","自己","淫乱","Negative","morality","","","","","","","","","","",""
"821","","j","psychophysics","49","251081","0.0-7.0-3.0-0.35","7","7","7","7","7","5","5","5","5","5","5","2","2","1","2","2","2","2","2","5","5","5","5","5","5","5","4","4","5","6","6","7","7","6","5","7","7","6","7","7","7","7","7","6","7","1","7","7","1","7","6","7","7","7","6","7","7","7","7","7","7","7","7","7","7","7","7","7","7","7","7","7","7","7","7","7","7","6","7","738059457485082626","付","523","Male","[""坏他"",""好我"",""好他"",""坏我""]","[""弱他"",""强我"",""强他"",""弱我""]","","","","","","","","yes","","","","","","","","","SRET","EW_formal","","key","j","16.665137614678898","768","428","朋友","敬业","Positive","morality","","","","","","","","","","",""
"1175","","f","psychophysics","50","253258","0.0-7.0-3.0-0.36","7","7","7","7","7","5","5","5","5","5","5","2","2","1","2","2","2","2","2","5","5","5","5","5","5","5","4","4","5","6","6","7","7","6","5","7","7","6","7","7","7","7","7","6","7","1","7","7","1","7","6","7","7","7","6","7","7","7","7","7","7","7","7","7","7","7","7","7","7","7","7","7","7","7","7","7","7","6","7","738059457485082626","付","523","Male","[""坏他"",""好我"",""好他"",""坏我""]","[""弱他"",""强我"",""强他"",""弱我""]","","","","","","","","no","","","","","","","","","SRET","EW_formal","","key","f","16.664341085271182","768","428","朋友","无耻","Negative","morality","","","","","","","","","","",""
"1198","","f","psychophysics","51","255457","0.0-7.0-3.0-0.37","7","7","7","7","7","5","5","5","5","5","5","2","2","1","2","2","2","2","2","5","5","5","5","5","5","5","4","4","5","6","6","7","7","6","5","7","7","6","7","7","7","7","7","6","7","1","7","7","1","7","6","7","7","7","6","7","7","7","7","7","7","7","7","7","7","7","7","7","7","7","7","7","7","7","7","7","7","6","7","738059457485082626","付","523","Male","[""坏他"",""好我"",""好他"",""坏我""]","[""弱他"",""强我"",""强他"",""弱我""]","","","","","","","","no","","","","","","","","","SRET","EW_formal","","key","f","16.66412213740458","768","428","自己","背叛","Negative","morality","","","","","","","","","","",""
"815","","f","psychophysics","52","257274","0.0-7.0-3.0-0.38","7","7","7","7","7","5","5","5","5","5","5","2","2","1","2","2","2","2","2","5","5","5","5","5","5","5","4","4","5","6","6","7","7","6","5","7","7","6","7","7","7","7","7","6","7","1","7","7","1","7","6","7","7","7","6","7","7","7","7","7","7","7","7","7","7","7","7","7","7","7","7","7","7","7","7","7","7","6","7","738059457485082626","付","523","Male","[""坏他"",""好我"",""好他"",""坏我""]","[""弱他"",""强我"",""强他"",""弱我""]","","","","","","","","no","","","","","","","","","SRET","EW_formal","","key","f","16.663888888888998","768","428","朋友","诡诈","Negative","morality","","","","","","","","","","",""
"703","","j","psychophysics","53","258979","0.0-7.0-3.0-0.39","7","7","7","7","7","5","5","5","5","5","5","2","2","1","2","2","2","2","2","5","5","5","5","5","5","5","4","4","5","6","6","7","7","6","5","7","7","6","7","7","7","7","7","6","7","1","7","7","1","7","6","7","7","7","6","7","7","7","7","7","7","7","7","7","7","7","7","7","7","7","7","7","7","7","7","7","7","6","7","738059457485082626","付","523","Male","[""坏他"",""好我"",""好他"",""坏我""]","[""弱他"",""强我"",""强他"",""弱我""]","","","","","","","","yes","","","","","","","","","SRET","EW_formal","","key","j","16.66470588235311","768","428","朋友","依靠","Negative","ability","","","","","","","","","","",""
"556","","j","psychophysics","54","260537","0.0-7.0-3.0-0.40","7","7","7","7","7","5","5","5","5","5","5","2","2","1","2","2","2","2","2","5","5","5","5","5","5","5","4","4","5","6","6","7","7","6","5","7","7","6","7","7","7","7","7","6","7","1","7","7","1","7","6","7","7","7","6","7","7","7","7","7","7","7","7","7","7","7","7","7","7","7","7","7","7","7","7","7","7","6","7","738059457485082626","付","523","Male","[""坏他"",""好我"",""好他"",""坏我""]","[""弱他"",""强我"",""强他"",""弱我""]","","","","","","","","yes","","","","","","","","","SRET","EW_formal","","key","j","16.66413043478267","768","428","朋友","娴熟","Positive","ability","","","","","","","","","","",""
"1007","","f","psychophysics","55","262546","0.0-7.0-3.0-0.41","7","7","7","7","7","5","5","5","5","5","5","2","2","1","2","2","2","2","2","5","5","5","5","5","5","5","4","4","5","6","6","7","7","6","5","7","7","6","7","7","7","7","7","6","7","1","7","7","1","7","6","7","7","7","6","7","7","7","7","7","7","7","7","7","7","7","7","7","7","7","7","7","7","7","7","7","7","6","7","738059457485082626","付","523","Male","[""坏他"",""好我"",""好他"",""坏我""]","[""弱他"",""强我"",""强他"",""弱我""]","","","","","","","","no","","","","","","","","","SRET","EW_formal","","key","f","16.665000000000145","768","428","自己","自私","Negative","morality","","","","","","","","","","",""
"863","","f","psychophysics","56","264410","0.0-7.0-3.0-0.42","7","7","7","7","7","5","5","5","5","5","5","2","2","1","2","2","2","2","2","5","5","5","5","5","5","5","4","4","5","6","6","7","7","6","5","7","7","6","7","7","7","7","7","6","7","1","7","7","1","7","6","7","7","7","6","7","7","7","7","7","7","7","7","7","7","7","7","7","7","7","7","7","7","7","7","7","7","6","7","738059457485082626","付","523","Male","[""坏他"",""好我"",""好他"",""坏我""]","[""弱他"",""强我"",""强他"",""弱我""]","","","","","","","","no","","","","","","","","","SRET","EW_formal","","key","f","16.66396396396407","768","428","自己","草率","Negative","ability","","","","","","","","","","",""
"727","","j","psychophysics","57","266138","0.0-7.0-3.0-0.43","7","7","7","7","7","5","5","5","5","5","5","2","2","1","2","2","2","2","2","5","5","5","5","5","5","5","4","4","5","6","6","7","7","6","5","7","7","6","7","7","7","7","7","6","7","1","7","7","1","7","6","7","7","7","6","7","7","7","7","7","7","7","7","7","7","7","7","7","7","7","7","7","7","7","7","7","7","6","7","738059457485082626","付","523","Male","[""坏他"",""好我"",""好他"",""坏我""]","[""弱他"",""强我"",""强他"",""弱我""]","","","","","","","","yes","","","","","","","","","SRET","EW_formal","","key","j","16.663725490196192","768","428","自己","守时","Positive","morality","","","","","","","","","","",""
"557","","j","psychophysics","58","267697","0.0-7.0-3.0-0.44","7","7","7","7","7","5","5","5","5","5","5","2","2","1","2","2","2","2","2","5","5","5","5","5","5","5","4","4","5","6","6","7","7","6","5","7","7","6","7","7","7","7","7","6","7","1","7","7","1","7","6","7","7","7","6","7","7","7","7","7","7","7","7","7","7","7","7","7","7","7","7","7","7","7","7","7","7","6","7","738059457485082626","付","523","Male","[""坏他"",""好我"",""好他"",""坏我""]","[""弱他"",""强我"",""强他"",""弱我""]","","","","","","","","yes","","","","","","","","","SRET","EW_formal","","key","j","16.665591397849088","768","428","自己","干练","Positive","ability","","","","","","","","","","",""
"599","","f","psychophysics","59","269297","0.0-7.0-3.0-0.45","7","7","7","7","7","5","5","5","5","5","5","2","2","1","2","2","2","2","2","5","5","5","5","5","5","5","4","4","5","6","6","7","7","6","5","7","7","6","7","7","7","7","7","6","7","1","7","7","1","7","6","7","7","7","6","7","7","7","7","7","7","7","7","7","7","7","7","7","7","7","7","7","7","7","7","7","7","6","7","738059457485082626","付","523","Male","[""坏他"",""好我"",""好他"",""坏我""]","[""弱他"",""强我"",""强他"",""弱我""]","","","","","","","","no","","","","","","","","","SRET","EW_formal","","key","f","16.66315789473684","768","428","朋友","不孝","Negative","morality","","","","","","","","","","",""
"591","","f","psychophysics","60","270889","0.0-7.0-3.0-0.46","7","7","7","7","7","5","5","5","5","5","5","2","2","1","2","2","2","2","2","5","5","5","5","5","5","5","4","4","5","6","6","7","7","6","5","7","7","6","7","7","7","7","7","6","7","1","7","7","1","7","6","7","7","7","6","7","7","7","7","7","7","7","7","7","7","7","7","7","7","7","7","7","7","7","7","7","7","6","7","738059457485082626","付","523","Male","[""坏他"",""好我"",""好他"",""坏我""]","[""弱他"",""强我"",""强他"",""弱我""]","","","","","","","","no","","","","","","","","","SRET","EW_formal","","key","f","16.664893617021278","768","428","朋友","邪恶","Negative","morality","","","","","","","","","","",""
"663","","f","psychophysics","61","272554","0.0-7.0-3.0-0.47","7","7","7","7","7","5","5","5","5","5","5","2","2","1","2","2","2","2","2","5","5","5","5","5","5","5","4","4","5","6","6","7","7","6","5","7","7","6","7","7","7","7","7","6","7","1","7","7","1","7","6","7","7","7","6","7","7","7","7","7","7","7","7","7","7","7","7","7","7","7","7","7","7","7","7","7","7","6","7","738059457485082626","付","523","Male","[""坏他"",""好我"",""好他"",""坏我""]","[""弱他"",""强我"",""强他"",""弱我""]","","","","","","","","no","","","","","","","","","SRET","EW_formal","","key","f","16.66363636363589","768","428","朋友","贪腐","Negative","morality","","","","","","","","","","",""
"846","","f","psychophysics","62","274401","0.0-7.0-3.0-0.48","7","7","7","7","7","5","5","5","5","5","5","2","2","1","2","2","2","2","2","5","5","5","5","5","5","5","4","4","5","6","6","7","7","6","5","7","7","6","7","7","7","7","7","6","7","1","7","7","1","7","6","7","7","7","6","7","7","7","7","7","7","7","7","7","7","7","7","7","7","7","7","7","7","7","7","7","7","6","7","738059457485082626","付","523","Male","[""坏他"",""好我"",""好他"",""坏我""]","[""弱他"",""强我"",""强他"",""弱我""]","","","","","","","","no","","","","","","","","","SRET","EW_formal","","key","f","16.664545454545244","768","428","朋友","才尽","Negative","ability","","","","","","","","","","",""
"735","","j","psychophysics","63","276138","0.0-7.0-3.0-0.49","7","7","7","7","7","5","5","5","5","5","5","2","2","1","2","2","2","2","2","5","5","5","5","5","5","5","4","4","5","6","6","7","7","6","5","7","7","6","7","7","7","7","7","6","7","1","7","7","1","7","6","7","7","7","6","7","7","7","7","7","7","7","7","7","7","7","7","7","7","7","7","7","7","7","7","7","7","6","7","738059457485082626","付","523","Male","[""坏他"",""好我"",""好他"",""坏我""]","[""弱他"",""强我"",""强他"",""弱我""]","","","","","","","","yes","","","","","","","","","SRET","EW_formal","","key","j","16.66504854368932","768","428","自己","博学","Positive","ability","","","","","","","","","","",""
"1668","","j","psychophysics","64","278809","0.0-7.0-3.0-0.50","7","7","7","7","7","5","5","5","5","5","5","2","2","1","2","2","2","2","2","5","5","5","5","5","5","5","4","4","5","6","6","7","7","6","5","7","7","6","7","7","7","7","7","6","7","1","7","7","1","7","6","7","7","7","6","7","7","7","7","7","7","7","7","7","7","7","7","7","7","7","7","7","7","7","7","7","7","6","7","738059457485082626","付","523","Male","[""坏他"",""好我"",""好他"",""坏我""]","[""弱他"",""强我"",""强他"",""弱我""]","","","","","","","","yes","","","","","","","","","SRET","EW_formal","","key","j","16.665000000000145","768","428","自己","廉明","Positive","morality","","","","","","","","","","",""
"975","","f","psychophysics","65","280785","0.0-7.0-3.0-0.51","7","7","7","7","7","5","5","5","5","5","5","2","2","1","2","2","2","2","2","5","5","5","5","5","5","5","4","4","5","6","6","7","7","6","5","7","7","6","7","7","7","7","7","6","7","1","7","7","1","7","6","7","7","7","6","7","7","7","7","7","7","7","7","7","7","7","7","7","7","7","7","7","7","7","7","7","7","6","7","738059457485082626","付","523","Male","[""坏他"",""好我"",""好他"",""坏我""]","[""弱他"",""强我"",""强他"",""弱我""]","","","","","","","","no","","","","","","","","","SRET","EW_formal","","key","f","16.664102564102166","768","428","朋友","狡诈","Negative","morality","","","","","","","","","","",""
"910","","f","psychophysics","66","282697","0.0-7.0-3.0-0.52","7","7","7","7","7","5","5","5","5","5","5","2","2","1","2","2","2","2","2","5","5","5","5","5","5","5","4","4","5","6","6","7","7","6","5","7","7","6","7","7","7","7","7","6","7","1","7","7","1","7","6","7","7","7","6","7","7","7","7","7","7","7","7","7","7","7","7","7","7","7","7","7","7","7","7","7","7","6","7","738059457485082626","付","523","Male","[""坏他"",""好我"",""好他"",""坏我""]","[""弱他"",""强我"",""强他"",""弱我""]","","","","","","","","no","","","","","","","","","SRET","EW_formal","","key","f","16.6640350877194","768","428","朋友","逞强","Negative","ability","","","","","","","","","","",""
"574","","f","psychophysics","67","284273","0.0-7.0-3.0-0.53","7","7","7","7","7","5","5","5","5","5","5","2","2","1","2","2","2","2","2","5","5","5","5","5","5","5","4","4","5","6","6","7","7","6","5","7","7","6","7","7","7","7","7","6","7","1","7","7","1","7","6","7","7","7","6","7","7","7","7","7","7","7","7","7","7","7","7","7","7","7","7","7","7","7","7","7","7","6","7","738059457485082626","付","523","Male","[""坏他"",""好我"",""好他"",""坏我""]","[""弱他"",""强我"",""强他"",""弱我""]","","","","","","","","no","","","","","","","","","SRET","EW_formal","","key","f","16.665591397849088","768","428","朋友","不良","Negative","morality","","","","","","","","","","",""
"662","","j","psychophysics","68","285937","0.0-7.0-3.0-0.54","7","7","7","7","7","5","5","5","5","5","5","2","2","1","2","2","2","2","2","5","5","5","5","5","5","5","4","4","5","6","6","7","7","6","5","7","7","6","7","7","7","7","7","6","7","1","7","7","1","7","6","7","7","7","6","7","7","7","7","7","7","7","7","7","7","7","7","7","7","7","7","7","7","7","7","7","7","6","7","738059457485082626","付","523","Male","[""坏他"",""好我"",""好他"",""坏我""]","[""弱他"",""强我"",""强他"",""弱我""]","","","","","","","","yes","","","","","","","","","SRET","EW_formal","","key","j","16.664646464646346","768","428","自己","思辨","Positive","ability","","","","","","","","","","",""
"623","","f","psychophysics","69","287561","0.0-7.0-3.0-0.55","7","7","7","7","7","5","5","5","5","5","5","2","2","1","2","2","2","2","2","5","5","5","5","5","5","5","4","4","5","6","6","7","7","6","5","7","7","6","7","7","7","7","7","6","7","1","7","7","1","7","6","7","7","7","6","7","7","7","7","7","7","7","7","7","7","7","7","7","7","7","7","7","7","7","7","7","7","6","7","738059457485082626","付","523","Male","[""坏他"",""好我"",""好他"",""坏我""]","[""弱他"",""强我"",""强他"",""弱我""]","","","","","","","","no","","","","","","","","","SRET","EW_formal","","key","f","16.664948453608247","768","428","朋友","驽钝","Negative","ability","","","","","","","","","","",""
"1119","","j","psychophysics","70","289681","0.0-7.0-3.0-0.56","7","7","7","7","7","5","5","5","5","5","5","2","2","1","2","2","2","2","2","5","5","5","5","5","5","5","4","4","5","6","6","7","7","6","5","7","7","6","7","7","7","7","7","6","7","1","7","7","1","7","6","7","7","7","6","7","7","7","7","7","7","7","7","7","7","7","7","7","7","7","7","7","7","7","7","7","7","6","7","738059457485082626","付","523","Male","[""坏他"",""好我"",""好他"",""坏我""]","[""弱他"",""强我"",""强他"",""弱我""]","","","","","","","","yes","","","","","","","","","SRET","EW_formal","","key","j","16.665079365079272","768","428","朋友","忠勇","Positive","morality","","","","","","","","","","",""
"583","","f","psychophysics","71","291265","0.0-7.0-3.0-0.57","7","7","7","7","7","5","5","5","5","5","5","2","2","1","2","2","2","2","2","5","5","5","5","5","5","5","4","4","5","6","6","7","7","6","5","7","7","6","7","7","7","7","7","6","7","1","7","7","1","7","6","7","7","7","6","7","7","7","7","7","7","7","7","7","7","7","7","7","7","7","7","7","7","7","7","7","7","6","7","738059457485082626","付","523","Male","[""坏他"",""好我"",""好他"",""坏我""]","[""弱他"",""强我"",""强他"",""弱我""]","","","","","","","","no","","","","","","","","","SRET","EW_formal","","key","f","16.66382978723429","768","428","自己","虚伪","Negative","morality","","","","","","","","","","",""
"567","","f","psychophysics","72","292833","0.0-7.0-3.0-0.58","7","7","7","7","7","5","5","5","5","5","5","2","2","1","2","2","2","2","2","5","5","5","5","5","5","5","4","4","5","6","6","7","7","6","5","7","7","6","7","7","7","7","7","6","7","1","7","7","1","7","6","7","7","7","6","7","7","7","7","7","7","7","7","7","7","7","7","7","7","7","7","7","7","7","7","7","7","6","7","738059457485082626","付","523","Male","[""坏他"",""好我"",""好他"",""坏我""]","[""弱他"",""强我"",""强他"",""弱我""]","","","","","","","","no","","","","","","","","","SRET","EW_formal","","key","f","16.664516129032133","768","428","自己","奸诈","Negative","morality","","","","","","","","","","",""
"534","","j","psychophysics","73","294369","0.0-7.0-3.0-0.59","7","7","7","7","7","5","5","5","5","5","5","2","2","1","2","2","2","2","2","5","5","5","5","5","5","5","4","4","5","6","6","7","7","6","5","7","7","6","7","7","7","7","7","6","7","1","7","7","1","7","6","7","7","7","6","7","7","7","7","7","7","7","7","7","7","7","7","7","7","7","7","7","7","7","7","7","7","6","7","738059457485082626","付","523","Male","[""坏他"",""好我"",""好他"",""坏我""]","[""弱他"",""强我"",""强他"",""弱我""]","","","","","","","","yes","","","","","","","","","SRET","EW_formal","","key","j","16.664835164835164","768","428","朋友","敏捷","Positive","ability","","","","","","","","","","",""
"894","","f","psychophysics","74","296265","0.0-7.0-3.0-0.60","7","7","7","7","7","5","5","5","5","5","5","2","2","1","2","2","2","2","2","5","5","5","5","5","5","5","4","4","5","6","6","7","7","6","5","7","7","6","7","7","7","7","7","6","7","1","7","7","1","7","6","7","7","7","6","7","7","7","7","7","7","7","7","7","7","7","7","7","7","7","7","7","7","7","7","7","7","6","7","738059457485082626","付","523","Male","[""坏他"",""好我"",""好他"",""坏我""]","[""弱他"",""强我"",""强他"",""弱我""]","","","","","","","","no","","","","","","","","","SRET","EW_formal","","key","f","16.664601769911812","768","428","自己","怠惰","Negative","ability","","","","","","","","","","",""
"727","","j","psychophysics","75","297993","0.0-7.0-3.0-0.61","7","7","7","7","7","5","5","5","5","5","5","2","2","1","2","2","2","2","2","5","5","5","5","5","5","5","4","4","5","6","6","7","7","6","5","7","7","6","7","7","7","7","7","6","7","1","7","7","1","7","6","7","7","7","6","7","7","7","7","7","7","7","7","7","7","7","7","7","7","7","7","7","7","7","7","7","7","6","7","738059457485082626","付","523","Male","[""坏他"",""好我"",""好他"",""坏我""]","[""弱他"",""强我"",""强他"",""弱我""]","","","","","","","","yes","","","","","","","","","SRET","EW_formal","","key","j","16.664077669902575","768","428","朋友","谦逊","Positive","morality","","","","","","","","","","",""
"518","","j","psychophysics","76","299513","0.0-7.0-3.0-0.62","7","7","7","7","7","5","5","5","5","5","5","2","2","1","2","2","2","2","2","5","5","5","5","5","5","5","4","4","5","6","6","7","7","6","5","7","7","6","7","7","7","7","7","6","7","1","7","7","1","7","6","7","7","7","6","7","7","7","7","7","7","7","7","7","7","7","7","7","7","7","7","7","7","7","7","7","7","6","7","738059457485082626","付","523","Male","[""坏他"",""好我"",""好他"",""坏我""]","[""弱他"",""强我"",""强他"",""弱我""]","","","","","","","","yes","","","","","","","","","SRET","EW_formal","","key","j","16.664444444444314","768","428","自己","勤奋","Positive","ability","","","","","","","","","","",""
"582","","j","psychophysics","77","301097","0.0-7.0-3.0-0.63","7","7","7","7","7","5","5","5","5","5","5","2","2","1","2","2","2","2","2","5","5","5","5","5","5","5","4","4","5","6","6","7","7","6","5","7","7","6","7","7","7","7","7","6","7","1","7","7","1","7","6","7","7","7","6","7","7","7","7","7","7","7","7","7","7","7","7","7","7","7","7","7","7","7","7","7","7","6","7","738059457485082626","付","523","Male","[""坏他"",""好我"",""好他"",""坏我""]","[""弱他"",""强我"",""强他"",""弱我""]","","","","","","","","yes","","","","","","","","","SRET","EW_formal","","key","j","16.66382978723429","768","428","朋友","周到","Positive","ability","","","","","","","","","","",""
"567","","f","psychophysics","78","302665","0.0-7.0-3.0-0.64","7","7","7","7","7","5","5","5","5","5","5","2","2","1","2","2","2","2","2","5","5","5","5","5","5","5","4","4","5","6","6","7","7","6","5","7","7","6","7","7","7","7","7","6","7","1","7","7","1","7","6","7","7","7","6","7","7","7","7","7","7","7","7","7","7","7","7","7","7","7","7","7","7","7","7","7","7","6","7","738059457485082626","付","523","Male","[""坏他"",""好我"",""好他"",""坏我""]","[""弱他"",""强我"",""强他"",""弱我""]","","","","","","","","no","","","","","","","","","SRET","EW_formal","","key","f","16.665591397849713","768","428","朋友","笨蛋","Negative","ability","","","","","","","","","","",""
"638","","j","psychophysics","79","304306","0.0-7.0-3.0-0.65","7","7","7","7","7","5","5","5","5","5","5","2","2","1","2","2","2","2","2","5","5","5","5","5","5","5","4","4","5","6","6","7","7","6","5","7","7","6","7","7","7","7","7","6","7","1","7","7","1","7","6","7","7","7","6","7","7","7","7","7","7","7","7","7","7","7","7","7","7","7","7","7","7","7","7","7","7","6","7","738059457485082626","付","523","Male","[""坏他"",""好我"",""好他"",""坏我""]","[""弱他"",""强我"",""强他"",""弱我""]","","","","","","","","yes","","","","","","","","","SRET","EW_formal","","key","j","16.664285714285477","768","428","朋友","刚正","Positive","morality","","","","","","","","","","",""
"526","","j","psychophysics","80","305833","0.0-7.0-3.0-0.66","7","7","7","7","7","5","5","5","5","5","5","2","2","1","2","2","2","2","2","5","5","5","5","5","5","5","4","4","5","6","6","7","7","6","5","7","7","6","7","7","7","7","7","6","7","1","7","7","1","7","6","7","7","7","6","7","7","7","7","7","7","7","7","7","7","7","7","7","7","7","7","7","7","7","7","7","7","6","7","738059457485082626","付","523","Male","[""坏他"",""好我"",""好他"",""坏我""]","[""弱他"",""强我"",""强他"",""弱我""]","","","","","","","","yes","","","","","","","","","SRET","EW_formal","","key","j","16.664444444444314","768","428","自己","热心","Positive","morality","","","","","","","","","","",""
"623","","j","psychophysics","81","307457","0.0-7.0-3.0-0.67","7","7","7","7","7","5","5","5","5","5","5","2","2","1","2","2","2","2","2","5","5","5","5","5","5","5","4","4","5","6","6","7","7","6","5","7","7","6","7","7","7","7","7","6","7","1","7","7","1","7","6","7","7","7","6","7","7","7","7","7","7","7","7","7","7","7","7","7","7","7","7","7","7","7","7","7","7","6","7","738059457485082626","付","523","Male","[""坏他"",""好我"",""好他"",""坏我""]","[""弱他"",""强我"",""强他"",""弱我""]","","","","","","","","yes","","","","","","","","","SRET","EW_formal","","key","j","16.664948453608247","768","428","朋友","慷慨","Positive","morality","","","","","","","","","","",""
"635","","f","psychophysics","82","309097","0.0-7.0-3.0-0.68","7","7","7","7","7","5","5","5","5","5","5","2","2","1","2","2","2","2","2","5","5","5","5","5","5","5","4","4","5","6","6","7","7","6","5","7","7","6","7","7","7","7","7","6","7","1","7","7","1","7","6","7","7","7","6","7","7","7","7","7","7","7","7","7","7","7","7","7","7","7","7","7","7","7","7","7","7","6","7","738059457485082626","付","523","Male","[""坏他"",""好我"",""好他"",""坏我""]","[""弱他"",""强我"",""强他"",""弱我""]","","","","","","","","no","","","","","","","","","SRET","EW_formal","","key","f","16.664948453608247","768","428","朋友","畏难","Negative","ability","","","","","","","","","","",""
"583","","f","psychophysics","83","310682","0.0-7.0-3.0-0.69","7","7","7","7","7","5","5","5","5","5","5","2","2","1","2","2","2","2","2","5","5","5","5","5","5","5","4","4","5","6","6","7","7","6","5","7","7","6","7","7","7","7","7","6","7","1","7","7","1","7","6","7","7","7","6","7","7","7","7","7","7","7","7","7","7","7","7","7","7","7","7","7","7","7","7","7","7","6","7","738059457485082626","付","523","Male","[""坏他"",""好我"",""好他"",""坏我""]","[""弱他"",""强我"",""强他"",""弱我""]","","","","","","","","no","","","","","","","","","SRET","EW_formal","","key","f","16.66382978723429","768","428","朋友","坦荡","Positive","morality","","","","","","","","","","",""
"743","","f","psychophysics","84","312425","0.0-7.0-3.0-0.70","7","7","7","7","7","5","5","5","5","5","5","2","2","1","2","2","2","2","2","5","5","5","5","5","5","5","4","4","5","6","6","7","7","6","5","7","7","6","7","7","7","7","7","6","7","1","7","7","1","7","6","7","7","7","6","7","7","7","7","7","7","7","7","7","7","7","7","7","7","7","7","7","7","7","7","7","7","6","7","738059457485082626","付","523","Male","[""坏他"",""好我"",""好他"",""坏我""]","[""弱他"",""强我"",""强他"",""弱我""]","","","","","","","","no","","","","","","","","","SRET","EW_formal","","key","f","16.66442307692285","768","428","朋友","愚痴","Negative","ability","","","","","","","","","","",""
"567","","j","psychophysics","85","313993","0.0-7.0-3.0-0.71","7","7","7","7","7","5","5","5","5","5","5","2","2","1","2","2","2","2","2","5","5","5","5","5","5","5","4","4","5","6","6","7","7","6","5","7","7","6","7","7","7","7","7","6","7","1","7","7","1","7","6","7","7","7","6","7","7","7","7","7","7","7","7","7","7","7","7","7","7","7","7","7","7","7","7","7","7","6","7","738059457485082626","付","523","Male","[""坏他"",""好我"",""好他"",""坏我""]","[""弱他"",""强我"",""强他"",""弱我""]","","","","","","","","yes","","","","","","","","","SRET","EW_formal","","key","j","16.665591397849713","768","428","朋友","义气","Positive","morality","","","","","","","","","","",""
"623","","j","psychophysics","86","315618","0.0-7.0-3.0-0.72","7","7","7","7","7","5","5","5","5","5","5","2","2","1","2","2","2","2","2","5","5","5","5","5","5","5","4","4","5","6","6","7","7","6","5","7","7","6","7","7","7","7","7","6","7","1","7","7","1","7","6","7","7","7","6","7","7","7","7","7","7","7","7","7","7","7","7","7","7","7","7","7","7","7","7","7","7","6","7","738059457485082626","付","523","Male","[""坏他"",""好我"",""好他"",""坏我""]","[""弱他"",""强我"",""强他"",""弱我""]","","","","","","","","yes","","","","","","","","","SRET","EW_formal","","key","j","16.664583333333212","768","428","自己","好心","Positive","morality","","","","","","","","","","",""
"990","","f","psychophysics","87","317609","0.0-7.0-3.0-0.73","7","7","7","7","7","5","5","5","5","5","5","2","2","1","2","2","2","2","2","5","5","5","5","5","5","5","4","4","5","6","6","7","7","6","5","7","7","6","7","7","7","7","7","6","7","1","7","7","1","7","6","7","7","7","6","7","7","7","7","7","7","7","7","7","7","7","7","7","7","7","7","7","7","7","7","7","7","6","7","738059457485082626","付","523","Male","[""坏他"",""好我"",""好他"",""坏我""]","[""弱他"",""强我"",""强他"",""弱我""]","","","","","","","","no","","","","","","","","","SRET","EW_formal","","key","f","16.665546218487492","768","428","自己","庸碌","Negative","ability","","","","","","","","","","",""
"630","","j","psychophysics","88","319241","0.0-7.0-3.0-0.74","7","7","7","7","7","5","5","5","5","5","5","2","2","1","2","2","2","2","2","5","5","5","5","5","5","5","4","4","5","6","6","7","7","6","5","7","7","6","7","7","7","7","7","6","7","1","7","7","1","7","6","7","7","7","6","7","7","7","7","7","7","7","7","7","7","7","7","7","7","7","7","7","7","7","7","7","7","6","7","738059457485082626","付","523","Male","[""坏他"",""好我"",""好他"",""坏我""]","[""弱他"",""强我"",""强他"",""弱我""]","","","","","","","","yes","","","","","","","","","SRET","EW_formal","","key","j","16.663917525772835","768","428","自己","高效","Positive","ability","","","","","","","","","","",""
"783","","f","psychophysics","89","321025","0.0-7.0-3.0-0.75","7","7","7","7","7","5","5","5","5","5","5","2","2","1","2","2","2","2","2","5","5","5","5","5","5","5","4","4","5","6","6","7","7","6","5","7","7","6","7","7","7","7","7","6","7","1","7","7","1","7","6","7","7","7","6","7","7","7","7","7","7","7","7","7","7","7","7","7","7","7","7","7","7","7","7","7","7","6","7","738059457485082626","付","523","Male","[""坏他"",""好我"",""好他"",""坏我""]","[""弱他"",""强我"",""强他"",""弱我""]","","","","","","","","no","","","","","","","","","SRET","EW_formal","","key","f","16.66509433962264","768","428","自己","毛糙","Negative","ability","","","","","","","","","","",""
"631","","j","psychophysics","90","322657","0.0-7.0-3.0-0.76","7","7","7","7","7","5","5","5","5","5","5","2","2","1","2","2","2","2","2","5","5","5","5","5","5","5","4","4","5","6","6","7","7","6","5","7","7","6","7","7","7","7","7","6","7","1","7","7","1","7","6","7","7","7","6","7","7","7","7","7","7","7","7","7","7","7","7","7","7","7","7","7","7","7","7","7","7","6","7","738059457485082626","付","523","Male","[""坏他"",""好我"",""好他"",""坏我""]","[""弱他"",""强我"",""强他"",""弱我""]","","","","","","","","yes","","","","","","","","","SRET","EW_formal","","key","j","16.664948453608247","768","428","自己","稳健","Positive","ability","","","","","","","","","","",""
"727","","f","psychophysics","91","324385","0.0-7.0-3.0-0.77","7","7","7","7","7","5","5","5","5","5","5","2","2","1","2","2","2","2","2","5","5","5","5","5","5","5","4","4","5","6","6","7","7","6","5","7","7","6","7","7","7","7","7","6","7","1","7","7","1","7","6","7","7","7","6","7","7","7","7","7","7","7","7","7","7","7","7","7","7","7","7","7","7","7","7","7","7","6","7","738059457485082626","付","523","Male","[""坏他"",""好我"",""好他"",""坏我""]","[""弱他"",""强我"",""强他"",""弱我""]","","","","","","","","no","","","","","","","","","SRET","EW_formal","","key","f","16.66372549019562","768","428","自己","新手","Negative","ability","","","","","","","","","","",""
"599","","f","psychophysics","92","325985","0.0-7.0-3.0-0.78","7","7","7","7","7","5","5","5","5","5","5","2","2","1","2","2","2","2","2","5","5","5","5","5","5","5","4","4","5","6","6","7","7","6","5","7","7","6","7","7","7","7","7","6","7","1","7","7","1","7","6","7","7","7","6","7","7","7","7","7","7","7","7","7","7","7","7","7","7","7","7","7","7","7","7","7","7","6","7","738059457485082626","付","523","Male","[""坏他"",""好我"",""好他"",""坏我""]","[""弱他"",""强我"",""强他"",""弱我""]","","","","","","","","no","","","","","","","","","SRET","EW_formal","","key","f","16.66315789473684","768","428","自己","歹毒","Negative","morality","","","","","","","","","","",""
"576","","j","psychophysics","93","327561","0.0-7.0-3.0-0.79","7","7","7","7","7","5","5","5","5","5","5","2","2","1","2","2","2","2","2","5","5","5","5","5","5","5","4","4","5","6","6","7","7","6","5","7","7","6","7","7","7","7","7","6","7","1","7","7","1","7","6","7","7","7","6","7","7","7","7","7","7","7","7","7","7","7","7","7","7","7","7","7","7","7","7","7","7","6","7","738059457485082626","付","523","Male","[""坏他"",""好我"",""好他"",""坏我""]","[""弱他"",""强我"",""强他"",""弱我""]","","","","","","","","yes","","","","","","","","","SRET","EW_formal","","key","j","16.664893617021278","768","428","朋友","毅力","Positive","ability","","","","","","","","","","",""
"567","","j","psychophysics","94","329129","0.0-7.0-3.0-0.80","7","7","7","7","7","5","5","5","5","5","5","2","2","1","2","2","2","2","2","5","5","5","5","5","5","5","4","4","5","6","6","7","7","6","5","7","7","6","7","7","7","7","7","6","7","1","7","7","1","7","6","7","7","7","6","7","7","7","7","7","7","7","7","7","7","7","7","7","7","7","7","7","7","7","7","7","7","6","7","738059457485082626","付","523","Male","[""坏他"",""好我"",""好他"",""坏我""]","[""弱他"",""强我"",""强他"",""弱我""]","","","","","","","","yes","","","","","","","","","SRET","EW_formal","","key","j","16.664516129032133","768","428","朋友","变通","Positive","ability","","","","","","","","","","",""
"622","","f","psychophysics","95","330753","0.0-7.0-3.0-0.81","7","7","7","7","7","5","5","5","5","5","5","2","2","1","2","2","2","2","2","5","5","5","5","5","5","5","4","4","5","6","6","7","7","6","5","7","7","6","7","7","7","7","7","6","7","1","7","7","1","7","6","7","7","7","6","7","7","7","7","7","7","7","7","7","7","7","7","7","7","7","7","7","7","7","7","7","7","6","7","738059457485082626","付","523","Male","[""坏他"",""好我"",""好他"",""坏我""]","[""弱他"",""强我"",""强他"",""弱我""]","","","","","","","","no","","","","","","","","","SRET","EW_formal","","key","f","16.663917525773435","768","428","自己","昏庸","Negative","ability","","","","","","","","","","",""
"758","","f","psychophysics","96","332513","0.0-7.0-3.0-0.82","7","7","7","7","7","5","5","5","5","5","5","2","2","1","2","2","2","2","2","5","5","5","5","5","5","5","4","4","5","6","6","7","7","6","5","7","7","6","7","7","7","7","7","6","7","1","7","7","1","7","6","7","7","7","6","7","7","7","7","7","7","7","7","7","7","7","7","7","7","7","7","7","7","7","7","7","7","6","7","738059457485082626","付","523","Male","[""坏他"",""好我"",""好他"",""坏我""]","[""弱他"",""强我"",""强他"",""弱我""]","","","","","","","","no","","","","","","","","","SRET","EW_formal","","key","f","16.665384615384166","768","428","朋友","伪善","Negative","morality","","","","","","","","","","",""
"1006","","j","psychophysics","97","334521","0.0-7.0-3.0-0.83","7","7","7","7","7","5","5","5","5","5","5","2","2","1","2","2","2","2","2","5","5","5","5","5","5","5","4","4","5","6","6","7","7","6","5","7","7","6","7","7","7","7","7","6","7","1","7","7","1","7","6","7","7","7","6","7","7","7","7","7","7","7","7","7","7","7","7","7","7","7","7","7","7","7","7","7","7","6","7","738059457485082626","付","523","Male","[""坏他"",""好我"",""好他"",""坏我""]","[""弱他"",""强我"",""强他"",""弱我""]","","","","","","","","yes","","","","","","","","","SRET","EW_formal","","key","j","16.664166666666762","768","428","朋友","清廉","Positive","morality","","","","","","","","","","",""
"655","","f","psychophysics","98","336177","0.0-7.0-3.0-0.84","7","7","7","7","7","5","5","5","5","5","5","2","2","1","2","2","2","2","2","5","5","5","5","5","5","5","4","4","5","6","6","7","7","6","5","7","7","6","7","7","7","7","7","6","7","1","7","7","1","7","6","7","7","7","6","7","7","7","7","7","7","7","7","7","7","7","7","7","7","7","7","7","7","7","7","7","7","6","7","738059457485082626","付","523","Male","[""坏他"",""好我"",""好他"",""坏我""]","[""弱他"",""强我"",""强他"",""弱我""]","","","","","","","","no","","","","","","","","","SRET","EW_formal","","key","f","16.664285714285477","768","428","自己","缓慢","Negative","ability","","","","","","","","","","",""
"719","","j","psychophysics","99","337897","0.0-7.0-3.0-0.85","7","7","7","7","7","5","5","5","5","5","5","2","2","1","2","2","2","2","2","5","5","5","5","5","5","5","4","4","5","6","6","7","7","6","5","7","7","6","7","7","7","7","7","6","7","1","7","7","1","7","6","7","7","7","6","7","7","7","7","7","7","7","7","7","7","7","7","7","7","7","7","7","7","7","7","7","7","6","7","738059457485082626","付","523","Male","[""坏他"",""好我"",""好他"",""坏我""]","[""弱他"",""强我"",""强他"",""弱我""]","","","","","","","","yes","","","","","","","","","SRET","EW_formal","","key","j","16.664705882352827","768","428","自己","主见","Positive","ability","","","","","","","","","","",""
"679","","j","psychophysics","100","339577","0.0-7.0-3.0-0.86","7","7","7","7","7","5","5","5","5","5","5","2","2","1","2","2","2","2","2","5","5","5","5","5","5","5","4","4","5","6","6","7","7","6","5","7","7","6","7","7","7","7","7","6","7","1","7","7","1","7","6","7","7","7","6","7","7","7","7","7","7","7","7","7","7","7","7","7","7","7","7","7","7","7","7","7","7","6","7","738059457485082626","付","523","Male","[""坏他"",""好我"",""好他"",""坏我""]","[""弱他"",""强我"",""强他"",""弱我""]","","","","","","","","yes","","","","","","","","","SRET","EW_formal","","key","j","16.664000000000232","768","428","朋友","素养","Positive","morality","","","","","","","","","","",""
"558","","f","psychophysics","101","341137","0.0-7.0-3.0-0.87","7","7","7","7","7","5","5","5","5","5","5","2","2","1","2","2","2","2","2","5","5","5","5","5","5","5","4","4","5","6","6","7","7","6","5","7","7","6","7","7","7","7","7","6","7","1","7","7","1","7","6","7","7","7","6","7","7","7","7","7","7","7","7","7","7","7","7","7","7","7","7","7","7","7","7","7","7","6","7","738059457485082626","付","523","Male","[""坏他"",""好我"",""好他"",""坏我""]","[""弱他"",""强我"",""强他"",""弱我""]","","","","","","","","no","","","","","","","","","SRET","EW_formal","","key","f","16.664516129032133","768","428","朋友","低俗","Negative","morality","","","","","","","","","","",""
"2896","
    <p><div style='color:white;font-size:35px; line-height:20px;'>计算任务</div></p><br>
    <p><div style='color:red;font-size:25px; line-height:20px;'>接下来，您将看到一些四则运算题，<b>请从键盘选择 0-9 进行反应。</b></div></p>
    <p><div style='color:red;font-size:25px; line-height:20px;'>请尽可能快地进行计算，计算的速度和正确率将影响报酬的发放。</div></p>
    <p><div class='footer' style='color:white;font-size:25px; line-height:20px;'>如果对本实验还有不清楚之处，请立即向实验员咨询。</p><p style='color:white;font-size:25px; line-height:20px;'>如果您明白了规则：</p><p style='color:white;font-size:22px; line-height:20px;'>请按 继续 进入练习</p>
    </div>
    ","0","html-button-response","102","344034","0.0-7.0-4.0","7","7","7","7","7","5","5","5","5","5","5","2","2","1","2","2","2","2","2","5","5","5","5","5","5","5","4","4","5","6","6","7","7","6","5","7","7","6","7","7","7","7","7","6","7","1","7","7","1","7","6","7","7","7","6","7","7","7","7","7","7","7","7","7","7","7","7","7","7","7","7","7","7","7","7","7","7","6","7","738059457485082626","付","523","Male","[""坏他"",""好我"",""好他"",""坏我""]","[""弱他"",""强我"",""强他"",""弱我""]","","","","","","","","","","","","","","","","","SRET_math","math_instructions","Tue Jan 02 2024 17:24:08 GMT+0800 (中国标准时间)","","","","","","","","","","","","","","","","","","","",""
"1839","","4","psychophysics","103","345873","0.0-7.0-5.0-0.0","7","7","7","7","7","5","5","5","5","5","5","2","2","1","2","2","2","2","2","5","5","5","5","5","5","5","4","4","5","6","6","7","7","6","5","7","7","6","7","7","7","7","7","6","7","1","7","7","1","7","6","7","7","7","6","7","7","7","7","7","7","7","7","7","7","7","7","7","7","7","7","7","7","7","7","7","7","6","7","738059457485082626","付","523","Male","[""坏他"",""好我"",""好他"",""坏我""]","[""弱他"",""强我"",""强他"",""弱我""]","","","","","","","","4","","","","","","","","","SRET","SRET_math_calculate","","key","4","16.65688073394474","768","428","","","","","4*1= ?","4","1","","","","","","","",""
"1840","","6","psychophysics","104","347714","0.0-7.0-5.0-0.1","7","7","7","7","7","5","5","5","5","5","5","2","2","1","2","2","2","2","2","5","5","5","5","5","5","5","4","4","5","6","6","7","7","6","5","7","7","6","7","7","7","7","7","6","7","1","7","7","1","7","6","7","7","7","6","7","7","7","7","7","7","7","7","7","7","7","7","7","7","7","7","7","7","7","7","7","7","6","7","738059457485082626","付","523","Male","[""坏他"",""好我"",""好他"",""坏我""]","[""弱他"",""强我"",""强他"",""弱我""]","","","","","","","","6","","","","","","","","","SRET","SRET_math_calculate","","key","6","16.665137614678898","768","428","","","","","2*3= ?","6","1","","","","","","","",""
"1879","","8","psychophysics","105","349593","0.0-7.0-5.0-0.2","7","7","7","7","7","5","5","5","5","5","5","2","2","1","2","2","2","2","2","5","5","5","5","5","5","5","4","4","5","6","6","7","7","6","5","7","7","6","7","7","7","7","7","6","7","1","7","7","1","7","6","7","7","7","6","7","7","7","7","7","7","7","7","7","7","7","7","7","7","7","7","7","7","7","7","7","7","6","7","738059457485082626","付","523","Male","[""坏他"",""好我"",""好他"",""坏我""]","[""弱他"",""强我"",""强他"",""弱我""]","","","","","","","","8","","","","","","","","","SRET","SRET_math_calculate","","key","8","16.664285714285402","768","428","","","","","50-42= ?","8","1","","","","","","","",""
"1855","","2","psychophysics","106","351449","0.0-7.0-5.0-0.3","7","7","7","7","7","5","5","5","5","5","5","2","2","1","2","2","2","2","2","5","5","5","5","5","5","5","4","4","5","6","6","7","7","6","5","7","7","6","7","7","7","7","7","6","7","1","7","7","1","7","6","7","7","7","6","7","7","7","7","7","7","7","7","7","7","7","7","7","7","7","7","7","7","7","7","7","7","6","7","738059457485082626","付","523","Male","[""坏他"",""好我"",""好他"",""坏我""]","[""弱他"",""强我"",""强他"",""弱我""]","","","","","","","","2","","","","","","","","","SRET","SRET_math_calculate","","key","2","16.66545454545465","768","428","","","","","9-7= ?","2","1","","","","","","","",""
"1815","","5","psychophysics","107","353266","0.0-7.0-5.0-0.4","7","7","7","7","7","5","5","5","5","5","5","2","2","1","2","2","2","2","2","5","5","5","5","5","5","5","4","4","5","6","6","7","7","6","5","7","7","6","7","7","7","7","7","6","7","1","7","7","1","7","6","7","7","7","6","7","7","7","7","7","7","7","7","7","7","7","7","7","7","7","7","7","7","7","7","7","7","6","7","738059457485082626","付","523","Male","[""坏他"",""好我"",""好他"",""坏我""]","[""弱他"",""强我"",""强他"",""弱我""]","","","","","","","","5","","","","","","","","","SRET","SRET_math_calculate","","key","5","16.664814814814708","768","428","","","","","14-9= ?","5","1","","","","","","","",""
"1734","","2","psychophysics","108","355001","0.0-7.0-5.0-0.5","7","7","7","7","7","5","5","5","5","5","5","2","2","1","2","2","2","2","2","5","5","5","5","5","5","5","4","4","5","6","6","7","7","6","5","7","7","6","7","7","7","7","7","6","7","1","7","7","1","7","6","7","7","7","6","7","7","7","7","7","7","7","7","7","7","7","7","7","7","7","7","7","7","7","7","7","7","6","7","738059457485082626","付","523","Male","[""坏他"",""好我"",""好他"",""坏我""]","[""弱他"",""强我"",""强他"",""弱我""]","","","","","","","","2","","","","","","","","","SRET","SRET_math_calculate","","key","2","16.66442307692285","768","428","","","","","1+1= ?","2","1","","","","","","","",""
"1751","","2","psychophysics","109","356753","0.0-7.0-5.0-0.6","7","7","7","7","7","5","5","5","5","5","5","2","2","1","2","2","2","2","2","5","5","5","5","5","5","5","4","4","5","6","6","7","7","6","5","7","7","6","7","7","7","7","7","6","7","1","7","7","1","7","6","7","7","7","6","7","7","7","7","7","7","7","7","7","7","7","7","7","7","7","7","7","7","7","7","7","7","6","7","738059457485082626","付","523","Male","[""坏他"",""好我"",""好他"",""坏我""]","[""弱他"",""强我"",""强他"",""弱我""]","","","","","","","","2","","","","","","","","","SRET","SRET_math_calculate","","key","2","16.66442307692285","768","428","","","","","8-6= ?","2","1","","","","","","","",""
"1759","","3","psychophysics","110","358513","0.0-7.0-5.0-0.7","7","7","7","7","7","5","5","5","5","5","5","2","2","1","2","2","2","2","2","5","5","5","5","5","5","5","4","4","5","6","6","7","7","6","5","7","7","6","7","7","7","7","7","6","7","1","7","7","1","7","6","7","7","7","6","7","7","7","7","7","7","7","7","7","7","7","7","7","7","7","7","7","7","7","7","7","7","6","7","738059457485082626","付","523","Male","[""坏他"",""好我"",""好他"",""坏我""]","[""弱他"",""强我"",""强他"",""弱我""]","","","","","","","","3","","","","","","","","","SRET","SRET_math_calculate","","key","3","16.665384615384166","768","428","","","","","6/2= ?","3","1","","","","","","","",""
"1615","","5","psychophysics","111","360129","0.0-7.0-5.0-0.8","7","7","7","7","7","5","5","5","5","5","5","2","2","1","2","2","2","2","2","5","5","5","5","5","5","5","4","4","5","6","6","7","7","6","5","7","7","6","7","7","7","7","7","6","7","1","7","7","1","7","6","7","7","7","6","7","7","7","7","7","7","7","7","7","7","7","7","7","7","7","7","7","7","7","7","7","7","6","7","738059457485082626","付","523","Male","[""坏他"",""好我"",""好他"",""坏我""]","[""弱他"",""强我"",""强他"",""弱我""]","","","","","","","","5","","","","","","","","","SRET","SRET_math_calculate","","key","5","16.664583333333212","768","428","","","","","5/1= ?","5","1","","","","","","","",""
"1672","","3","psychophysics","112","361802","0.0-7.0-5.0-0.9","7","7","7","7","7","5","5","5","5","5","5","2","2","1","2","2","2","2","2","5","5","5","5","5","5","5","4","4","5","6","6","7","7","6","5","7","7","6","7","7","7","7","7","6","7","1","7","7","1","7","6","7","7","7","6","7","7","7","7","7","7","7","7","7","7","7","7","7","7","7","7","7","7","7","7","7","7","6","7","738059457485082626","付","523","Male","[""坏他"",""好我"",""好他"",""坏我""]","[""弱他"",""强我"",""强他"",""弱我""]","","","","","","","","3","","","","","","","","","SRET","SRET_math_calculate","","key","3","16.664000000000232","768","428","","","","","1+2= ?","3","1","","","","","","","",""
"1920","","9","psychophysics","113","363723","0.0-7.0-5.0-0.10","7","7","7","7","7","5","5","5","5","5","5","2","2","1","2","2","2","2","2","5","5","5","5","5","5","5","4","4","5","6","6","7","7","6","5","7","7","6","7","7","7","7","7","6","7","1","7","7","1","7","6","7","7","7","6","7","7","7","7","7","7","7","7","7","7","7","7","7","7","7","7","7","7","7","7","7","7","6","7","738059457485082626","付","523","Male","[""坏他"",""好我"",""好他"",""坏我""]","[""弱他"",""强我"",""强他"",""弱我""]","","","","","","","","9","","","","","","","","","SRET","SRET_math_calculate","","key","9","16.664912280701653","768","428","","","","","8+1= ?","9","1","","","","","","","",""
"2013","","7","psychophysics","114","365737","0.0-7.0-5.0-0.11","7","7","7","7","7","5","5","5","5","5","5","2","2","1","2","2","2","2","2","5","5","5","5","5","5","5","4","4","5","6","6","7","7","6","5","7","7","6","7","7","7","7","7","6","7","1","7","7","1","7","6","7","7","7","6","7","7","7","7","7","7","7","7","7","7","7","7","7","7","7","7","7","7","7","7","7","7","6","7","738059457485082626","付","523","Male","[""坏他"",""好我"",""好他"",""坏我""]","[""弱他"",""强我"",""强他"",""弱我""]","","","","","","","","7","","","","","","","","","SRET","SRET_math_calculate","","key","7","16.66416666666628","768","428","","","","","21/3= ? ","7","1","","","","","","","",""
"1863","","1","psychophysics","115","367601","0.0-7.0-5.0-0.12","7","7","7","7","7","5","5","5","5","5","5","2","2","1","2","2","2","2","2","5","5","5","5","5","5","5","4","4","5","6","6","7","7","6","5","7","7","6","7","7","7","7","7","6","7","1","7","7","1","7","6","7","7","7","6","7","7","7","7","7","7","7","7","7","7","7","7","7","7","7","7","7","7","7","7","7","7","6","7","738059457485082626","付","523","Male","[""坏他"",""好我"",""好他"",""坏我""]","[""弱他"",""强我"",""强他"",""弱我""]","","","","","","","","1","","","","","","","","","SRET","SRET_math_calculate","","key","1","16.66486486486476","768","428","","","","","30-29= ?","1","1","","","","","","","",""
"1775","","6","psychophysics","116","369377","0.0-7.0-5.0-0.13","7","7","7","7","7","5","5","5","5","5","5","2","2","1","2","2","2","2","2","5","5","5","5","5","5","5","4","4","5","6","6","7","7","6","5","7","7","6","7","7","7","7","7","6","7","1","7","7","1","7","6","7","7","7","6","7","7","7","7","7","7","7","7","7","7","7","7","7","7","7","7","7","7","7","7","7","7","6","7","738059457485082626","付","523","Male","[""坏他"",""好我"",""好他"",""坏我""]","[""弱他"",""强我"",""强他"",""弱我""]","","","","","","","","6","","","","","","","","","SRET","SRET_math_calculate","","key","6","16.665714285713953","768","428","","","","","8-2= ?","6","1","","","","","","","",""
"1720","","8","psychophysics","117","371098","0.0-7.0-5.0-0.14","7","7","7","7","7","5","5","5","5","5","5","2","2","1","2","2","2","2","2","5","5","5","5","5","5","5","4","4","5","6","6","7","7","6","5","7","7","6","7","7","7","7","7","6","7","1","7","7","1","7","6","7","7","7","6","7","7","7","7","7","7","7","7","7","7","7","7","7","7","7","7","7","7","7","7","7","7","6","7","738059457485082626","付","523","Male","[""坏他"",""好我"",""好他"",""坏我""]","[""弱他"",""强我"",""强他"",""弱我""]","","","","","","","","8","","","","","","","","","SRET","SRET_math_calculate","","key","8","16.66407766990314","768","428","","","","","1*8= ?","8","1","","","","","","","",""
"1679","","8","psychophysics","118","372777","0.0-7.0-5.0-0.15","7","7","7","7","7","5","5","5","5","5","5","2","2","1","2","2","2","2","2","5","5","5","5","5","5","5","4","4","5","6","6","7","7","6","5","7","7","6","7","7","7","7","7","6","7","1","7","7","1","7","6","7","7","7","6","7","7","7","7","7","7","7","7","7","7","7","7","7","7","7","7","7","7","7","7","7","7","6","7","738059457485082626","付","523","Male","[""坏他"",""好我"",""好他"",""坏我""]","[""弱他"",""强我"",""强他"",""弱我""]","","","","","","","","8","","","","","","","","","SRET","SRET_math_calculate","","key","8","16.664646464646346","768","428","","","","","6+2= ?","8","1","","","","","","","",""
"1744","","8","psychophysics","119","374522","0.0-7.0-5.0-0.16","7","7","7","7","7","5","5","5","5","5","5","2","2","1","2","2","2","2","2","5","5","5","5","5","5","5","4","4","5","6","6","7","7","6","5","7","7","6","7","7","7","7","7","6","7","1","7","7","1","7","6","7","7","7","6","7","7","7","7","7","7","7","7","7","7","7","7","7","7","7","7","7","7","7","7","7","7","6","7","738059457485082626","付","523","Male","[""坏他"",""好我"",""好他"",""坏我""]","[""弱他"",""强我"",""强他"",""弱我""]","","","","","","","","8","","","","","","","","","SRET","SRET_math_calculate","","key","8","16.665384615384728","768","428","","","","","13-5= ?","8","1","","","","","","","",""
"1694","","5","psychophysics","120","376217","0.0-7.0-5.0-0.17","7","7","7","7","7","5","5","5","5","5","5","2","2","1","2","2","2","2","2","5","5","5","5","5","5","5","4","4","5","6","6","7","7","6","5","7","7","6","7","7","7","7","7","6","7","1","7","7","1","7","6","7","7","7","6","7","7","7","7","7","7","7","7","7","7","7","7","7","7","7","7","7","7","7","7","7","7","6","7","738059457485082626","付","523","Male","[""坏他"",""好我"",""好他"",""坏我""]","[""弱他"",""强我"",""强他"",""弱我""]","","","","","","","","5","","","","","","","","","SRET","SRET_math_calculate","","key","5","16.663366336633665","768","428","","","","","10-5= ?","5","1","","","","","","","",""
"1863","","7","psychophysics","121","378081","0.0-7.0-5.0-0.18","7","7","7","7","7","5","5","5","5","5","5","2","2","1","2","2","2","2","2","5","5","5","5","5","5","5","4","4","5","6","6","7","7","6","5","7","7","6","7","7","7","7","7","6","7","1","7","7","1","7","6","7","7","7","6","7","7","7","7","7","7","7","7","7","7","7","7","7","7","7","7","7","7","7","7","7","7","6","7","738059457485082626","付","523","Male","[""坏他"",""好我"",""好他"",""坏我""]","[""弱他"",""强我"",""强他"",""弱我""]","","","","","","","","7","","","","","","","","","SRET","SRET_math_calculate","","key","7","16.66486486486476","768","428","","","","","6+1= ?","7","1","","","","","","","",""
"2319","","2","psychophysics","122","380401","0.0-7.0-5.0-0.19","7","7","7","7","7","5","5","5","5","5","5","2","2","1","2","2","2","2","2","5","5","5","5","5","5","5","4","4","5","6","6","7","7","6","5","7","7","6","7","7","7","7","7","6","7","1","7","7","1","7","6","7","7","7","6","7","7","7","7","7","7","7","7","7","7","7","7","7","7","7","7","7","7","7","7","7","7","6","7","738059457485082626","付","523","Male","[""坏他"",""好我"",""好他"",""坏我""]","[""弱他"",""强我"",""强他"",""弱我""]","","","","","","","","2","","","","","","","","","SRET","SRET_math_calculate","","key","2","16.664492753622852","768","428","","","","","18/9= ?","2","1","","","","","","","",""
"1753","","4","psychophysics","123","382155","0.0-7.0-5.0-0.20","7","7","7","7","7","5","5","5","5","5","5","2","2","1","2","2","2","2","2","5","5","5","5","5","5","5","4","4","5","6","6","7","7","6","5","7","7","6","7","7","7","7","7","6","7","1","7","7","1","7","6","7","7","7","6","7","7","7","7","7","7","7","7","7","7","7","7","7","7","7","7","7","7","7","7","7","7","6","7","738059457485082626","付","523","Male","[""坏他"",""好我"",""好他"",""坏我""]","[""弱他"",""强我"",""强他"",""弱我""]","","","","","","","","4","","","","","","","","","SRET","SRET_math_calculate","","key","4","16.66346153846154","768","428","","","","","2+2= ?","4","1","","","","","","","",""
"1822","","0","psychophysics","124","383977","0.0-7.0-5.0-0.21","7","7","7","7","7","5","5","5","5","5","5","2","2","1","2","2","2","2","2","5","5","5","5","5","5","5","4","4","5","6","6","7","7","6","5","7","7","6","7","7","7","7","7","6","7","1","7","7","1","7","6","7","7","7","6","7","7","7","7","7","7","7","7","7","7","7","7","7","7","7","7","7","7","7","7","7","7","6","7","738059457485082626","付","523","Male","[""坏他"",""好我"",""好他"",""坏我""]","[""弱他"",""强我"",""强他"",""弱我""]","","","","","","","","0","","","","","","","","","SRET","SRET_math_calculate","","key","0","16.664814814815244","768","428","","","","","12-12= ?","0","1","","","","","","","",""
"1792","","0","psychophysics","125","385770","0.0-7.0-5.0-0.22","7","7","7","7","7","5","5","5","5","5","5","2","2","1","2","2","2","2","2","5","5","5","5","5","5","5","4","4","5","6","6","7","7","6","5","7","7","6","7","7","7","7","7","6","7","1","7","7","1","7","6","7","7","7","6","7","7","7","7","7","7","7","7","7","7","7","7","7","7","7","7","7","7","7","7","7","7","6","7","738059457485082626","付","523","Male","[""坏他"",""好我"",""好他"",""坏我""]","[""弱他"",""强我"",""强他"",""弱我""]","","","","","","","","0","","","","","","","","","SRET","SRET_math_calculate","","key","0","16.66355140186916","768","428","","","","","22-22= ?","0","1","","","","","","","",""
"1895","","9","psychophysics","126","387665","0.0-7.0-5.0-0.23","7","7","7","7","7","5","5","5","5","5","5","2","2","1","2","2","2","2","2","5","5","5","5","5","5","5","4","4","5","6","6","7","7","6","5","7","7","6","7","7","7","7","7","6","7","1","7","7","1","7","6","7","7","7","6","7","7","7","7","7","7","7","7","7","7","7","7","7","7","7","7","7","7","7","7","7","7","6","7","738059457485082626","付","523","Male","[""坏他"",""好我"",""好他"",""坏我""]","[""弱他"",""强我"",""强他"",""弱我""]","","","","","","","","9","","","","","","","","","SRET","SRET_math_calculate","","key","9","16.664601769911297","768","428","","","","","1+8= ?","9","1","","","","","","","",""
"1871","","4","psychophysics","127","389537","0.0-7.0-5.0-0.24","7","7","7","7","7","5","5","5","5","5","5","2","2","1","2","2","2","2","2","5","5","5","5","5","5","5","4","4","5","6","6","7","7","6","5","7","7","6","7","7","7","7","7","6","7","1","7","7","1","7","6","7","7","7","6","7","7","7","7","7","7","7","7","7","7","7","7","7","7","7","7","7","7","7","7","7","7","6","7","738059457485082626","付","523","Male","[""坏他"",""好我"",""好他"",""坏我""]","[""弱他"",""强我"",""强他"",""弱我""]","","","","","","","","4","","","","","","","","","SRET","SRET_math_calculate","","key","4","16.664864864865283","768","428","","","","","9-5= ?","4","1","","","","","","","",""
"1895","","9","psychophysics","128","391433","0.0-7.0-5.0-0.25","7","7","7","7","7","5","5","5","5","5","5","2","2","1","2","2","2","2","2","5","5","5","5","5","5","5","4","4","5","6","6","7","7","6","5","7","7","6","7","7","7","7","7","6","7","1","7","7","1","7","6","7","7","7","6","7","7","7","7","7","7","7","7","7","7","7","7","7","7","7","7","7","7","7","7","7","7","6","7","738059457485082626","付","523","Male","[""坏他"",""好我"",""好他"",""坏我""]","[""弱他"",""强我"",""强他"",""弱我""]","","","","","","","","9","","","","","","","","","SRET","SRET_math_calculate","","key","9","16.664601769911812","768","428","","","","","6+3= ?","9","1","","","","","","","",""
"1967","","2","psychophysics","129","393401","0.0-7.0-5.0-0.26","7","7","7","7","7","5","5","5","5","5","5","2","2","1","2","2","2","2","2","5","5","5","5","5","5","5","4","4","5","6","6","7","7","6","5","7","7","6","7","7","7","7","7","6","7","1","7","7","1","7","6","7","7","7","6","7","7","7","7","7","7","7","7","7","7","7","7","7","7","7","7","7","7","7","7","7","7","6","7","738059457485082626","付","523","Male","[""坏他"",""好我"",""好他"",""坏我""]","[""弱他"",""强我"",""强他"",""弱我""]","","","","","","","","2","","","","","","","","","SRET","SRET_math_calculate","","key","2","16.664957264957167","768","428","","","","","8/4= ?","2","1","","","","","","","",""
"1776","","1","psychophysics","130","395179","0.0-7.0-5.0-0.27","7","7","7","7","7","5","5","5","5","5","5","2","2","1","2","2","2","2","2","5","5","5","5","5","5","5","4","4","5","6","6","7","7","6","5","7","7","6","7","7","7","7","7","6","7","1","7","7","1","7","6","7","7","7","6","7","7","7","7","7","7","7","7","7","7","7","7","7","7","7","7","7","7","7","7","7","7","6","7","738059457485082626","付","523","Male","[""坏他"",""好我"",""好他"",""坏我""]","[""弱他"",""强我"",""强他"",""弱我""]","","","","","","","","1","","","","","","","","","SRET","SRET_math_calculate","","key","1","16.66509433962264","768","428","","","","","9-8= ?","1","1","","","","","","","",""
"1822","","0","psychophysics","131","397001","0.0-7.0-5.0-0.28","7","7","7","7","7","5","5","5","5","5","5","2","2","1","2","2","2","2","2","5","5","5","5","5","5","5","4","4","5","6","6","7","7","6","5","7","7","6","7","7","7","7","7","6","7","1","7","7","1","7","6","7","7","7","6","7","7","7","7","7","7","7","7","7","7","7","7","7","7","7","7","7","7","7","7","7","7","6","7","738059457485082626","付","523","Male","[""坏他"",""好我"",""好他"",""坏我""]","[""弱他"",""强我"",""强他"",""弱我""]","","","","","","","","0","","","","","","","","","SRET","SRET_math_calculate","","key","0","16.664814814814708","768","428","","","","","1-1= ?","0","1","","","","","","","",""
"1807","","2","psychophysics","132","398809","0.0-7.0-5.0-0.29","7","7","7","7","7","5","5","5","5","5","5","2","2","1","2","2","2","2","2","5","5","5","5","5","5","5","4","4","5","6","6","7","7","6","5","7","7","6","7","7","7","7","7","6","7","1","7","7","1","7","6","7","7","7","6","7","7","7","7","7","7","7","7","7","7","7","7","7","7","7","7","7","7","7","7","7","7","6","7","738059457485082626","付","523","Male","[""坏他"",""好我"",""好他"",""坏我""]","[""弱他"",""强我"",""强他"",""弱我""]","","","","","","","","2","","","","","","","","","SRET","SRET_math_calculate","","key","2","16.664485981308193","768","428","","","","","5-3= ?","2","1","","","","","","","",""
"1703","","3","psychophysics","133","400513","0.0-7.0-5.0-0.30","7","7","7","7","7","5","5","5","5","5","5","2","2","1","2","2","2","2","2","5","5","5","5","5","5","5","4","4","5","6","6","7","7","6","5","7","7","6","7","7","7","7","7","6","7","1","7","7","1","7","6","7","7","7","6","7","7","7","7","7","7","7","7","7","7","7","7","7","7","7","7","7","7","7","7","7","7","6","7","738059457485082626","付","523","Male","[""坏他"",""好我"",""好他"",""坏我""]","[""弱他"",""强我"",""强他"",""弱我""]","","","","","","","","3","","","","","","","","","SRET","SRET_math_calculate","","key","3","16.664705882352827","768","428","","","","","8-5= ?","3","1","","","","","","","",""
"2015","","7","psychophysics","134","402530","0.0-7.0-5.0-0.31","7","7","7","7","7","5","5","5","5","5","5","2","2","1","2","2","2","2","2","5","5","5","5","5","5","5","4","4","5","6","6","7","7","6","5","7","7","6","7","7","7","7","7","6","7","1","7","7","1","7","6","7","7","7","6","7","7","7","7","7","7","7","7","7","7","7","7","7","7","7","7","7","7","7","7","7","7","6","7","738059457485082626","付","523","Male","[""坏他"",""好我"",""好他"",""坏我""]","[""弱他"",""强我"",""强他"",""弱我""]","","","","","","","","7","","","","","","","","","SRET","SRET_math_calculate","","key","7","16.665000000000386","768","428","","","","","7*1=  ?","7","1","","","","","","","",""
"2251","","9","psychophysics","135","404781","0.0-7.0-5.0-0.32","7","7","7","7","7","5","5","5","5","5","5","2","2","1","2","2","2","2","2","5","5","5","5","5","5","5","4","4","5","6","6","7","7","6","5","7","7","6","7","7","7","7","7","6","7","1","7","7","1","7","6","7","7","7","6","7","7","7","7","7","7","7","7","7","7","7","7","7","7","7","7","7","7","7","7","7","7","6","7","738059457485082626","付","523","Male","[""坏他"",""好我"",""好他"",""坏我""]","[""弱他"",""强我"",""强他"",""弱我""]","","","","","","","","9","","","","","","","","","SRET","SRET_math_calculate","","key","9","16.66492537313459","768","428","","","","","18/2= ?","9","1","","","","","","","",""
"2276","","5","psychophysics","136","407058","0.0-7.0-5.0-0.33","7","7","7","7","7","5","5","5","5","5","5","2","2","1","2","2","2","2","2","5","5","5","5","5","5","5","4","4","5","6","6","7","7","6","5","7","7","6","7","7","7","7","7","6","7","1","7","7","1","7","6","7","7","7","6","7","7","7","7","7","7","7","7","7","7","7","7","7","7","7","7","7","7","7","7","7","7","6","7","738059457485082626","付","523","Male","[""坏他"",""好我"",""好他"",""坏我""]","[""弱他"",""强我"",""强他"",""弱我""]","","","","","","","","5","","","","","","","","","SRET","SRET_math_calculate","","key","5","16.6651851851851","768","428","","","","","3+2= ?","5","1","","","","","","","",""
"1895","","7","psychophysics","137","408953","0.0-7.0-5.0-0.34","7","7","7","7","7","5","5","5","5","5","5","2","2","1","2","2","2","2","2","5","5","5","5","5","5","5","4","4","5","6","6","7","7","6","5","7","7","6","7","7","7","7","7","6","7","1","7","7","1","7","6","7","7","7","6","7","7","7","7","7","7","7","7","7","7","7","7","7","7","7","7","7","7","7","7","7","7","6","7","738059457485082626","付","523","Male","[""坏他"",""好我"",""好他"",""坏我""]","[""弱他"",""强我"",""强他"",""弱我""]","","","","","","","","7","","","","","","","","","SRET","SRET_math_calculate","","key","7","16.664601769911812","768","428","","","","","5+2= ?","7","1","","","","","","","",""
"1855","","7","psychophysics","138","410810","0.0-7.0-5.0-0.35","7","7","7","7","7","5","5","5","5","5","5","2","2","1","2","2","2","2","2","5","5","5","5","5","5","5","4","4","5","6","6","7","7","6","5","7","7","6","7","7","7","7","7","6","7","1","7","7","1","7","6","7","7","7","6","7","7","7","7","7","7","7","7","7","7","7","7","7","7","7","7","7","7","7","7","7","7","6","7","738059457485082626","付","523","Male","[""坏他"",""好我"",""好他"",""坏我""]","[""弱他"",""强我"",""强他"",""弱我""]","","","","","","","","7","","","","","","","","","SRET","SRET_math_calculate","","key","7","16.664545454545244","768","428","","","","","12-5= ?","7","1","","","","","","","",""
"1782","","1","psychophysics","139","412594","0.0-7.0-5.0-0.36","7","7","7","7","7","5","5","5","5","5","5","2","2","1","2","2","2","2","2","5","5","5","5","5","5","5","4","4","5","6","6","7","7","6","5","7","7","6","7","7","7","7","7","6","7","1","7","7","1","7","6","7","7","7","6","7","7","7","7","7","7","7","7","7","7","7","7","7","7","7","7","7","7","7","7","7","7","6","7","738059457485082626","付","523","Male","[""坏他"",""好我"",""好他"",""坏我""]","[""弱他"",""强我"",""强他"",""弱我""]","","","","","","","","1","","","","","","","","","SRET","SRET_math_calculate","","key","1","16.664485981308193","768","428","","","","","10-9= ?","1","1","","","","","","","",""
"2095","","8","psychophysics","140","414690","0.0-7.0-5.0-0.37","7","7","7","7","7","5","5","5","5","5","5","2","2","1","2","2","2","2","2","5","5","5","5","5","5","5","4","4","5","6","6","7","7","6","5","7","7","6","7","7","7","7","7","6","7","1","7","7","1","7","6","7","7","7","6","7","7","7","7","7","7","7","7","7","7","7","7","7","7","7","7","7","7","7","7","7","7","6","7","738059457485082626","付","523","Male","[""坏他"",""好我"",""好他"",""坏我""]","[""弱他"",""强我"",""强他"",""弱我""]","","","","","","","","8","","","","","","","","","SRET","SRET_math_calculate","","key","8","16.66370967741973","768","428","","","","","9-1= ?","8","1","","","","","","","",""
"1815","","9","psychophysics","141","416506","0.0-7.0-5.0-0.38","7","7","7","7","7","5","5","5","5","5","5","2","2","1","2","2","2","2","2","5","5","5","5","5","5","5","4","4","5","6","6","7","7","6","5","7","7","6","7","7","7","7","7","6","7","1","7","7","1","7","6","7","7","7","6","7","7","7","7","7","7","7","7","7","7","7","7","7","7","7","7","7","7","7","7","7","7","6","7","738059457485082626","付","523","Male","[""坏他"",""好我"",""好他"",""坏我""]","[""弱他"",""强我"",""强他"",""弱我""]","","","","","","","","9","","","","","","","","","SRET","SRET_math_calculate","","key","9","16.665740740740418","768","428","","","","","1*9= ?","9","1","","","","","","","",""
"1759","","0","psychophysics","142","418265","0.0-7.0-5.0-0.39","7","7","7","7","7","5","5","5","5","5","5","2","2","1","2","2","2","2","2","5","5","5","5","5","5","5","4","4","5","6","6","7","7","6","5","7","7","6","7","7","7","7","7","6","7","1","7","7","1","7","6","7","7","7","6","7","7","7","7","7","7","7","7","7","7","7","7","7","7","7","7","7","7","7","7","7","7","6","7","738059457485082626","付","523","Male","[""坏他"",""好我"",""好他"",""坏我""]","[""弱他"",""强我"",""强他"",""弱我""]","","","","","","","","0","","","","","","","","","SRET","SRET_math_calculate","","key","0","16.663809523809636","768","428","","","","","32-32= ?","0","1","","","","","","","",""
