"rt","stimulus","response","trial_type","trial_index","time_elapsed","internal_node_id","swb_1","swb_2","swb_3","swb_4","swb_5","LOT_1","LOT_2","LOT_3","LOT_4","LOT_5","LOT_6","IPC_1","IPC_2","IPC_3","IPC_4","IPC_5","IPC_6","IPC_7","IPC_8","MorIden_1","MorIden_2","MorIden_3","MorIden_4","MorIden_5","MorIden_6","MorIden_7","MorIden_8","MorIden_9","MorIden_10","moralSeImag_1","moralSeImag_2","moralSeImag_3","moralSeImag_4","moralSeImag_5","moralSeImag_6","moralSeImag_7","moralSeImag_8","moralSeImag_9","sde_1","sde_2","sde_3","sde_4","sde_5","sde_6","sde_7","sde_8","sde_9","sde_10","trap2","sde_11","sde_12","sde_13","sde_14","sde_15","sde_16","sde_17","sde_18","sde_19","sde_20","IM_1","IM_2","IM_3","IM_4","IM_5","IM_6","IM_7","IM_8","IM_9","IM_10","IM_11","IM_12","IM_13","IM_14","IM_15","IM_16","IM_17","IM_18","IM_19","IM_20","subj_idx","friend_name","ParticipantID","Sex","Word","Word2","value","success","timeout","failed_images","failed_audio","failed_video","user_agent","responses","item_order","radio_event_ids","radio_event_times","key_event_times","mouse_event_times","straightlining","zigzagging","honeypot","view_history","response_type","key_press","avg_frame_time","center_x","center_y","correct_response","correct","identity","Image","word","condition","task_id","screen_id","time_stamp","person","valence","domain","math","status","duration","question_order","trap2_item"
"14981","
   <p><div style='color:white; font-size: 25px'>您好，欢迎参加本次实验。</div></p>
   <p><div style='color:white; font-size: 25px'>为充分保障您的权利，请确保您已经知晓并同意《参与实验同意书》以及《数据公开知情同意书》。</div></p>
   <p><div style='color:white; font-size: 25px'>如果您未见过上述内容，请咨询实验员。</div></p>
   <p style='color:white; font-size: 25px'>如果您选择继续实验，则表示您已经清楚两份知情同意书的内容并同意。</p>
   <p><div style = ""color: pink;font-size:30px;"">请确保您记得day0的实验编号，您将在本次实验输入该编号，若您忘记，请咨询实验员后作答。</div></p>
   <p><div style = ""color:lightblue;font-size:25px;"">请您尽可能认真地作答，我们将依据您在各问卷和按键任务中的作答质量发放报酬。</div></p>
   <p> <div style = ""color: green""><按空格键至下页></div> </p>
   "," ","html-keyboard-response","0","14982","0.0-0.0","3","3","3","3","2","4","3","2","4","4","4","0","1","-1","1","-1","0","1","0","4","5","5","5","4","4","4","4","5","3","6","7","5","6","5","6","7","6","7","4","2","2","4","5","3","4","3","3","3","1","4","3","5","2","4","3","3","3","2","4","4","4","5","7","3","7","3","5","4","6","5","5","5","7","5","5","3","5","3","4","732625560492314625","yang","169","Female","[""好我"",""坏我"",""坏她"",""好她""]","[""强我"",""弱我"",""弱她"",""强她""]","","","","","","","","","","","","","","","","","","","","","","","","","","","","","","","","","","","","","","",""
"","","","call-function","1","14984","0.0-1.0-0.0","3","3","3","3","2","4","3","2","4","4","4","0","1","-1","1","-1","0","1","0","4","5","5","5","4","4","4","4","5","3","6","7","5","6","5","6","7","6","7","4","2","2","4","5","3","4","3","3","3","1","4","3","5","2","4","3","3","3","2","4","4","4","5","7","3","7","3","5","4","6","5","5","5","7","5","5","3","5","3","4","732625560492314625","yang","169","Female","[""好我"",""坏我"",""坏她"",""好她""]","[""强我"",""弱我"",""弱她"",""强她""]","","","","","","","","","","","","","","","","","","","","","","","","","","","","","","","","","","","","","","",""
"55726","","[{""name"":""Sex"",""value"":""1""},{""name"":""friend_name"",""value"":""yang""},{""name"":""ParticipantID"",""value"":""169""}]","survey-html-form","2","70711","0.0-1.0-1.0","3","3","3","3","2","4","3","2","4","4","4","0","1","-1","1","-1","0","1","0","4","5","5","5","4","4","4","4","5","3","6","7","5","6","5","6","7","6","7","4","2","2","4","5","3","4","3","3","3","1","4","3","5","2","4","3","3","3","2","4","4","4","5","7","3","7","3","5","4","6","5","5","5","7","5","5","3","5","3","4","732625560492314625","yang","169","Female","[""好我"",""坏我"",""坏她"",""好她""]","[""强我"",""弱我"",""弱她"",""强她""]","","","","","","","","","","","","","","","","","","","","","","","","","","","","","","","","","","","","","","",""
"","","","preload","3","70926","0.0-2.0","3","3","3","3","2","4","3","2","4","4","4","0","1","-1","1","-1","0","1","0","4","5","5","5","4","4","4","4","5","3","6","7","5","6","5","6","7","6","7","4","2","2","4","5","3","4","3","3","3","1","4","3","5","2","4","3","3","3","2","4","4","4","5","7","3","7","3","5","4","6","5","5","5","7","5","5","3","5","3","4","732625560492314625","yang","169","Female","[""好我"",""坏我"",""坏她"",""好她""]","[""强我"",""弱我"",""弱她"",""强她""]","","true","false","[]","[]","[]","","","","","","","","","","","","","","","","","","","","","","","","","","","","","","","","",""
"","","","fullscreen","4","76661","0.0-3.0","3","3","3","3","2","4","3","2","4","4","4","0","1","-1","1","-1","0","1","0","4","5","5","5","4","4","4","4","5","3","6","7","5","6","5","6","7","6","7","4","2","2","4","5","3","4","3","3","3","1","4","3","5","2","4","3","3","3","2","4","4","4","5","7","3","7","3","5","4","6","5","5","5","7","5","5","3","5","3","4","732625560492314625","yang","169","Female","[""好我"",""坏我"",""坏她"",""好她""]","[""强我"",""弱我"",""弱她"",""强她""]","","true","","","","","","","","","","","","","","","","","","","","","","","","","","","","","","","","","","","","",""
"10576.535000000149","","{""Q01"":""3"",""Q02"":""3"",""Q03"":""3"",""Q04"":""3"",""Q05"":""2""}","survey-template","5","87240","0.0-4.0","3","3","3","3","2","4","3","2","4","4","4","0","1","-1","1","-1","0","1","0","4","5","5","5","4","4","4","4","5","3","6","7","5","6","5","6","7","6","7","4","2","2","4","5","3","4","3","3","3","1","4","3","5","2","4","3","3","3","2","4","4","4","5","7","3","7","3","5","4","6","5","5","5","7","5","5","3","5","3","4","732625560492314625","yang","169","Female","[""好我"",""坏我"",""坏她"",""好她""]","[""强我"",""弱我"",""弱她"",""强她""]","","","","","","","","{""Q01"":""3"",""Q02"":""3"",""Q03"":""3"",""Q04"":""3"",""Q05"":""2""}","[0,1,2,3,4]","[""Q01"",""Q02"",""Q03"",""Q04"",""Q05""]","[2511.515000001964,3383.3900000026915,4271.390000001702,7535.360000001674,8415.31500000201]","[]","[2511.515000001964,3383.3900000026915,4271.390000001702,5759.550000002491,7535.360000001674,8415.31500000201,10575.415000002977]","0.8","0.25","0","","","","","","","","","","","","","","","","","","","","","","",""
"66643.05500000046","","{""Q01"":""4"",""Q02"":""3"",""Q03"":""2"",""Q04"":""4"",""Q05"":""4"",""Q06"":""4""}","survey-template","6","153888","0.0-5.0","3","3","3","3","2","4","3","2","4","4","4","0","1","-1","1","-1","0","1","0","4","5","5","5","4","4","4","4","5","3","6","7","5","6","5","6","7","6","7","4","2","2","4","5","3","4","3","3","3","1","4","3","5","2","4","3","3","3","2","4","4","4","5","7","3","7","3","5","4","6","5","5","5","7","5","5","3","5","3","4","732625560492314625","yang","169","Female","[""好我"",""坏我"",""坏她"",""好她""]","[""强我"",""弱我"",""弱她"",""强她""]","","","","","","","","{""Q01"":""4"",""Q02"":""3"",""Q03"":""2"",""Q04"":""4"",""Q05"":""4"",""Q06"":""4""}","[0,1,2,3,4,5]","[""Q01"",""Q02"",""Q03"",""Q04"",""Q05"",""Q06""]","[2051.0299999987183,56946.39499999903,58362.434999999095,60362.55999999776,61610.280000000785,64034.57999999955]","[]","[2051.0299999987183,56946.39499999903,58362.434999999095,60362.55999999776,61610.280000000785,64034.57999999955,66642.2449999991]","0.5","0.4","0","","","","","","","","","","","","","","","","","","","","","","",""
"68076.80999999866","","{""Q01"":""0"",""Q02"":""1"",""Q03"":""-1"",""Q04"":""1"",""Q05"":""-1"",""Q06"":""0"",""Q07"":""1"",""Q08"":""0""}","survey-template","7","221969","0.0-6.0","3","3","3","3","2","4","3","2","4","4","4","0","1","-1","1","-1","0","1","0","4","5","5","5","4","4","4","4","5","3","6","7","5","6","5","6","7","6","7","4","2","2","4","5","3","4","3","3","3","1","4","3","5","2","4","3","3","3","2","4","4","4","5","7","3","7","3","5","4","6","5","5","5","7","5","5","3","5","3","4","732625560492314625","yang","169","Female","[""好我"",""坏我"",""坏她"",""好她""]","[""强我"",""弱我"",""弱她"",""强她""]","","","","","","","","{""Q01"":""0"",""Q02"":""1"",""Q03"":""-1"",""Q04"":""1"",""Q05"":""-1"",""Q06"":""0"",""Q07"":""1"",""Q08"":""0""}","[0,1,2,3,4,5,6,7]","[""Q01"",""Q02"",""Q03"",""Q04"",""Q05"",""Q06"",""Q07"",""Q01"",""Q08""]","[2523.590000000695,3867.904999999155,7219.460000000254,43019.49500000046,44475.48000000097,45963.74500000093,49467.570000000705,56179.495000000315,59307.42499999906]","[]","[2523.590000000695,3867.904999999155,7219.460000000254,43019.49500000046,44475.48000000097,45963.74500000093,49467.570000000705,56179.495000000315,59307.42499999906,68075.54000000164]","0.375","0.5714285714285714","0","","","","","","","","","","","","","","","","","","","","","","",""
"48380","","","instructions","8","270350","0.0-7.0","3","3","3","3","2","4","3","2","4","4","4","0","1","-1","1","-1","0","1","0","4","5","5","5","4","4","4","4","5","3","6","7","5","6","5","6","7","6","7","4","2","2","4","5","3","4","3","3","3","1","4","3","5","2","4","3","3","3","2","4","4","4","5","7","3","7","3","5","4","6","5","5","5","7","5","5","3","5","3","4","732625560492314625","yang","169","Female","[""好我"",""坏我"",""坏她"",""好她""]","[""强我"",""弱我"",""弱她"",""强她""]","","","","","","","","","","","","","","","","","[{""page_index"":0,""viewing_time"":48380}]","","","","","","","","","","","","","","","","","","","","","",""
"117510","","","instructions","9","387863","0.0-8.0-0.0-0.0","3","3","3","3","2","4","3","2","4","4","4","0","1","-1","1","-1","0","1","0","4","5","5","5","4","4","4","4","5","3","6","7","5","6","5","6","7","6","7","4","2","2","4","5","3","4","3","3","3","1","4","3","5","2","4","3","3","3","2","4","4","4","5","7","3","7","3","5","4","6","5","5","5","7","5","5","3","5","3","4","732625560492314625","yang","169","Female","[""好我"",""坏我"",""坏她"",""好她""]","[""强我"",""弱我"",""弱她"",""强她""]","","","","","","","","","","","","","","","","","[{""page_index"":0,""viewing_time"":12870},{""page_index"":1,""viewing_time"":68280},{""page_index"":2,""viewing_time"":5680},{""page_index"":1,""viewing_time"":28040},{""page_index"":2,""viewing_time"":1472},{""page_index"":3,""viewing_time"":1168}]","","","","","","","","","","","","","","","","","","","","","",""
"null","","null","psychophysics","10","390067","0.0-8.0-0.0-1.0-0.0-0.0","3","3","3","3","2","4","3","2","4","4","4","0","1","-1","1","-1","0","1","0","4","5","5","5","4","4","4","4","5","3","6","7","5","6","5","6","7","6","7","4","2","2","4","5","3","4","3","3","3","1","4","3","5","2","4","3","3","3","2","4","4","4","5","7","3","7","3","5","4","6","5","5","5","7","5","5","3","5","3","4","732625560492314625","yang","169","Female","[""好我"",""坏我"",""坏她"",""好她""]","[""强我"",""弱我"",""弱她"",""强她""]","","","","","","","","null","","","","","","","","","","key","null","16.68313076923055","960","536","f","false","nonmatch","img/pentagon.png","好我","坏我","prac_ALT2_moral","practice_moral","","","","","","","","",""
"null","<span class='add_' style='color:yellow; font-size: 70px;'> 太慢! </span>","null","html-keyboard-response","11","390569","0.0-8.0-0.0-1.0-0.0-1.0","3","3","3","3","2","4","3","2","4","4","4","0","1","-1","1","-1","0","1","0","4","5","5","5","4","4","4","4","5","3","6","7","5","6","5","6","7","6","7","4","2","2","4","5","3","4","3","3","3","1","4","3","5","2","4","3","3","3","2","4","4","4","5","7","3","7","3","5","4","6","5","5","5","7","5","5","3","5","3","4","732625560492314625","yang","169","Female","[""好我"",""坏我"",""坏她"",""好她""]","[""强我"",""弱我"",""弱她"",""强她""]","","","","","","","","","","","","","","","","","","","","","","","","","","","","","","feedback_test","","","","","","","","",""
"885","","j","psychophysics","12","392456","0.0-8.0-0.0-1.0-0.0-0.1","3","3","3","3","2","4","3","2","4","4","4","0","1","-1","1","-1","0","1","0","4","5","5","5","4","4","4","4","5","3","6","7","5","6","5","6","7","6","7","4","2","2","4","5","3","4","3","3","3","1","4","3","5","2","4","3","3","3","2","4","4","4","5","7","3","7","3","5","4","6","5","5","5","7","5","5","3","5","3","4","732625560492314625","yang","169","Female","[""好我"",""坏我"",""坏她"",""好她""]","[""强我"",""弱我"",""弱她"",""强她""]","","","","","","","","match","","","","","","","","","","key","j","16.68308108108095","960","536","j","true","match","img/pentagon.png","坏我","坏我","prac_ALT2_moral","practice_moral","","","","","","","","",""
"null","<span style='color:GreenYellow; font-size: 70px;'>正确! </span>","null","html-keyboard-response","13","392957","0.0-8.0-0.0-1.0-0.0-1.1","3","3","3","3","2","4","3","2","4","4","4","0","1","-1","1","-1","0","1","0","4","5","5","5","4","4","4","4","5","3","6","7","5","6","5","6","7","6","7","4","2","2","4","5","3","4","3","3","3","1","4","3","5","2","4","3","3","3","2","4","4","4","5","7","3","7","3","5","4","6","5","5","5","7","5","5","3","5","3","4","732625560492314625","yang","169","Female","[""好我"",""坏我"",""坏她"",""好她""]","[""强我"",""弱我"",""弱她"",""强她""]","","","","","","","","","","","","","","","","","","","","","","","","","","","","","","feedback_test","","","","","","","","",""
"800","","f","psychophysics","14","394759","0.0-8.0-0.0-1.0-0.0-0.2","3","3","3","3","2","4","3","2","4","4","4","0","1","-1","1","-1","0","1","0","4","5","5","5","4","4","4","4","5","3","6","7","5","6","5","6","7","6","7","4","2","2","4","5","3","4","3","3","3","1","4","3","5","2","4","3","3","3","2","4","4","4","5","7","3","7","3","5","4","6","5","5","5","7","5","5","3","5","3","4","732625560492314625","yang","169","Female","[""好我"",""坏我"",""坏她"",""好她""]","[""强我"",""弱我"",""弱她"",""强她""]","","","","","","","","nonmatch","","","","","","","","","","key","f","16.682887850466912","960","536","j","false","match","img/ellipse.png","好我","好我","prac_ALT2_moral","practice_moral","","","","","","","","",""
"null","<span style='color:red; font-size: 70px;'>错误! </span>","null","html-keyboard-response","15","395261","0.0-8.0-0.0-1.0-0.0-1.2","3","3","3","3","2","4","3","2","4","4","4","0","1","-1","1","-1","0","1","0","4","5","5","5","4","4","4","4","5","3","6","7","5","6","5","6","7","6","7","4","2","2","4","5","3","4","3","3","3","1","4","3","5","2","4","3","3","3","2","4","4","4","5","7","3","7","3","5","4","6","5","5","5","7","5","5","3","5","3","4","732625560492314625","yang","169","Female","[""好我"",""坏我"",""坏她"",""好她""]","[""强我"",""弱我"",""弱她"",""强她""]","","","","","","","","","","","","","","","","","","","","","","","","","","","","","","feedback_test","","","","","","","","",""
"745","","j","psychophysics","16","397007","0.0-8.0-0.0-1.0-0.0-0.3","3","3","3","3","2","4","3","2","4","4","4","0","1","-1","1","-1","0","1","0","4","5","5","5","4","4","4","4","5","3","6","7","5","6","5","6","7","6","7","4","2","2","4","5","3","4","3","3","3","1","4","3","5","2","4","3","3","3","2","4","4","4","5","7","3","7","3","5","4","6","5","5","5","7","5","5","3","5","3","4","732625560492314625","yang","169","Female","[""好我"",""坏我"",""坏她"",""好她""]","[""强我"",""弱我"",""弱她"",""强她""]","","","","","","","","match","","","","","","","","","","key","j","16.682970873786033","960","536","j","true","match","img/triangle.png","坏她","坏她","prac_ALT2_moral","practice_moral","","","","","","","","",""
"null","<span style='color:GreenYellow; font-size: 70px;'>正确! </span>","null","html-keyboard-response","17","397508","0.0-8.0-0.0-1.0-0.0-1.3","3","3","3","3","2","4","3","2","4","4","4","0","1","-1","1","-1","0","1","0","4","5","5","5","4","4","4","4","5","3","6","7","5","6","5","6","7","6","7","4","2","2","4","5","3","4","3","3","3","1","4","3","5","2","4","3","3","3","2","4","4","4","5","7","3","7","3","5","4","6","5","5","5","7","5","5","3","5","3","4","732625560492314625","yang","169","Female","[""好我"",""坏我"",""坏她"",""好她""]","[""强我"",""弱我"",""弱她"",""强她""]","","","","","","","","","","","","","","","","","","","","","","","","","","","","","","feedback_test","","","","","","","","",""
"754","","j","psychophysics","18","399263","0.0-8.0-0.0-1.0-0.0-0.4","3","3","3","3","2","4","3","2","4","4","4","0","1","-1","1","-1","0","1","0","4","5","5","5","4","4","4","4","5","3","6","7","5","6","5","6","7","6","7","4","2","2","4","5","3","4","3","3","3","1","4","3","5","2","4","3","3","3","2","4","4","4","5","7","3","7","3","5","4","6","5","5","5","7","5","5","3","5","3","4","732625560492314625","yang","169","Female","[""好我"",""坏我"",""坏她"",""好她""]","[""强我"",""弱我"",""弱她"",""强她""]","","","","","","","","match","","","","","","","","","","key","j","16.683500000000304","960","536","j","true","match","img/triangle.png","坏她","坏她","prac_ALT2_moral","practice_moral","","","","","","","","",""
"null","<span style='color:GreenYellow; font-size: 70px;'>正确! </span>","null","html-keyboard-response","19","399765","0.0-8.0-0.0-1.0-0.0-1.4","3","3","3","3","2","4","3","2","4","4","4","0","1","-1","1","-1","0","1","0","4","5","5","5","4","4","4","4","5","3","6","7","5","6","5","6","7","6","7","4","2","2","4","5","3","4","3","3","3","1","4","3","5","2","4","3","3","3","2","4","4","4","5","7","3","7","3","5","4","6","5","5","5","7","5","5","3","5","3","4","732625560492314625","yang","169","Female","[""好我"",""坏我"",""坏她"",""好她""]","[""强我"",""弱我"",""弱她"",""强她""]","","","","","","","","","","","","","","","","","","","","","","","","","","","","","","feedback_test","","","","","","","","",""
"1002","","j","psychophysics","20","401768","0.0-8.0-0.0-1.0-0.0-0.5","3","3","3","3","2","4","3","2","4","4","4","0","1","-1","1","-1","0","1","0","4","5","5","5","4","4","4","4","5","3","6","7","5","6","5","6","7","6","7","4","2","2","4","5","3","4","3","3","3","1","4","3","5","2","4","3","3","3","2","4","4","4","5","7","3","7","3","5","4","6","5","5","5","7","5","5","3","5","3","4","732625560492314625","yang","169","Female","[""好我"",""坏我"",""坏她"",""好她""]","[""强我"",""弱我"",""弱她"",""强她""]","","","","","","","","match","","","","","","","","","","key","j","16.68338983050859","960","536","f","false","nonmatch","img/ellipse.png","好她","好我","prac_ALT2_moral","practice_moral","","","","","","","","",""
"null","<span style='color:red; font-size: 70px;'>错误! </span>","null","html-keyboard-response","21","402269","0.0-8.0-0.0-1.0-0.0-1.5","3","3","3","3","2","4","3","2","4","4","4","0","1","-1","1","-1","0","1","0","4","5","5","5","4","4","4","4","5","3","6","7","5","6","5","6","7","6","7","4","2","2","4","5","3","4","3","3","3","1","4","3","5","2","4","3","3","3","2","4","4","4","5","7","3","7","3","5","4","6","5","5","5","7","5","5","3","5","3","4","732625560492314625","yang","169","Female","[""好我"",""坏我"",""坏她"",""好她""]","[""强我"",""弱我"",""弱她"",""强她""]","","","","","","","","","","","","","","","","","","","","","","","","","","","","","","feedback_test","","","","","","","","",""
"656","","j","psychophysics","22","403927","0.0-8.0-0.0-1.0-0.0-0.6","3","3","3","3","2","4","3","2","4","4","4","0","1","-1","1","-1","0","1","0","4","5","5","5","4","4","4","4","5","3","6","7","5","6","5","6","7","6","7","4","2","2","4","5","3","4","3","3","3","1","4","3","5","2","4","3","3","3","2","4","4","4","5","7","3","7","3","5","4","6","5","5","5","7","5","5","3","5","3","4","732625560492314625","yang","169","Female","[""好我"",""坏我"",""坏她"",""好她""]","[""强我"",""弱我"",""弱她"",""强她""]","","","","","","","","match","","","","","","","","","","key","j","16.683397959183655","960","536","j","true","match","img/trapezoid.png","好她","好她","prac_ALT2_moral","practice_moral","","","","","","","","",""
"null","<span style='color:GreenYellow; font-size: 70px;'>正确! </span>","null","html-keyboard-response","23","404428","0.0-8.0-0.0-1.0-0.0-1.6","3","3","3","3","2","4","3","2","4","4","4","0","1","-1","1","-1","0","1","0","4","5","5","5","4","4","4","4","5","3","6","7","5","6","5","6","7","6","7","4","2","2","4","5","3","4","3","3","3","1","4","3","5","2","4","3","3","3","2","4","4","4","5","7","3","7","3","5","4","6","5","5","5","7","5","5","3","5","3","4","732625560492314625","yang","169","Female","[""好我"",""坏我"",""坏她"",""好她""]","[""强我"",""弱我"",""弱她"",""强她""]","","","","","","","","","","","","","","","","","","","","","","","","","","","","","","feedback_test","","","","","","","","",""
"914","","j","psychophysics","24","406343","0.0-8.0-0.0-1.0-0.0-0.7","3","3","3","3","2","4","3","2","4","4","4","0","1","-1","1","-1","0","1","0","4","5","5","5","4","4","4","4","5","3","6","7","5","6","5","6","7","6","7","4","2","2","4","5","3","4","3","3","3","1","4","3","5","2","4","3","3","3","2","4","4","4","5","7","3","7","3","5","4","6","5","5","5","7","5","5","3","5","3","4","732625560492314625","yang","169","Female","[""好我"",""坏我"",""坏她"",""好她""]","[""强我"",""弱我"",""弱她"",""强她""]","","","","","","","","match","","","","","","","","","","key","j","16.68274561403495","960","536","j","true","match","img/trapezoid.png","好她","好她","prac_ALT2_moral","practice_moral","","","","","","","","",""
"null","<span style='color:GreenYellow; font-size: 70px;'>正确! </span>","null","html-keyboard-response","25","406844","0.0-8.0-0.0-1.0-0.0-1.7","3","3","3","3","2","4","3","2","4","4","4","0","1","-1","1","-1","0","1","0","4","5","5","5","4","4","4","4","5","3","6","7","5","6","5","6","7","6","7","4","2","2","4","5","3","4","3","3","3","1","4","3","5","2","4","3","3","3","2","4","4","4","5","7","3","7","3","5","4","6","5","5","5","7","5","5","3","5","3","4","732625560492314625","yang","169","Female","[""好我"",""坏我"",""坏她"",""好她""]","[""强我"",""弱我"",""弱她"",""强她""]","","","","","","","","","","","","","","","","","","","","","","","","","","","","","","feedback_test","","","","","","","","",""
"801","","f","psychophysics","26","408647","0.0-8.0-0.0-1.0-0.0-0.8","3","3","3","3","2","4","3","2","4","4","4","0","1","-1","1","-1","0","1","0","4","5","5","5","4","4","4","4","5","3","6","7","5","6","5","6","7","6","7","4","2","2","4","5","3","4","3","3","3","1","4","3","5","2","4","3","3","3","2","4","4","4","5","7","3","7","3","5","4","6","5","5","5","7","5","5","3","5","3","4","732625560492314625","yang","169","Female","[""好我"",""坏我"",""坏她"",""好她""]","[""强我"",""弱我"",""弱她"",""强她""]","","","","","","","","nonmatch","","","","","","","","","","key","f","16.68289719626175","960","536","f","true","nonmatch","img/trapezoid.png","好我","好她","prac_ALT2_moral","practice_moral","","","","","","","","",""
"null","<span style='color:GreenYellow; font-size: 70px;'>正确! </span>","null","html-keyboard-response","27","409148","0.0-8.0-0.0-1.0-0.0-1.8","3","3","3","3","2","4","3","2","4","4","4","0","1","-1","1","-1","0","1","0","4","5","5","5","4","4","4","4","5","3","6","7","5","6","5","6","7","6","7","4","2","2","4","5","3","4","3","3","3","1","4","3","5","2","4","3","3","3","2","4","4","4","5","7","3","7","3","5","4","6","5","5","5","7","5","5","3","5","3","4","732625560492314625","yang","169","Female","[""好我"",""坏我"",""坏她"",""好她""]","[""强我"",""弱我"",""弱她"",""强她""]","","","","","","","","","","","","","","","","","","","","","","","","","","","","","","feedback_test","","","","","","","","",""
"914","","j","psychophysics","28","411063","0.0-8.0-0.0-1.0-0.0-0.9","3","3","3","3","2","4","3","2","4","4","4","0","1","-1","1","-1","0","1","0","4","5","5","5","4","4","4","4","5","3","6","7","5","6","5","6","7","6","7","4","2","2","4","5","3","4","3","3","3","1","4","3","5","2","4","3","3","3","2","4","4","4","5","7","3","7","3","5","4","6","5","5","5","7","5","5","3","5","3","4","732625560492314625","yang","169","Female","[""好我"",""坏我"",""坏她"",""好她""]","[""强我"",""弱我"",""弱她"",""强她""]","","","","","","","","match","","","","","","","","","","key","j","16.683070175438555","960","536","f","false","nonmatch","img/ellipse.png","坏我","好我","prac_ALT2_moral","practice_moral","","","","","","","","",""
"null","<span style='color:red; font-size: 70px;'>错误! </span>","null","html-keyboard-response","29","411564","0.0-8.0-0.0-1.0-0.0-1.9","3","3","3","3","2","4","3","2","4","4","4","0","1","-1","1","-1","0","1","0","4","5","5","5","4","4","4","4","5","3","6","7","5","6","5","6","7","6","7","4","2","2","4","5","3","4","3","3","3","1","4","3","5","2","4","3","3","3","2","4","4","4","5","7","3","7","3","5","4","6","5","5","5","7","5","5","3","5","3","4","732625560492314625","yang","169","Female","[""好我"",""坏我"",""坏她"",""好她""]","[""强我"",""弱我"",""弱她"",""强她""]","","","","","","","","","","","","","","","","","","","","","","","","","","","","","","feedback_test","","","","","","","","",""
"1073","","j","psychophysics","30","413638","0.0-8.0-0.0-1.0-0.0-0.10","3","3","3","3","2","4","3","2","4","4","4","0","1","-1","1","-1","0","1","0","4","5","5","5","4","4","4","4","5","3","6","7","5","6","5","6","7","6","7","4","2","2","4","5","3","4","3","3","3","1","4","3","5","2","4","3","3","3","2","4","4","4","5","7","3","7","3","5","4","6","5","5","5","7","5","5","3","5","3","4","732625560492314625","yang","169","Female","[""好我"",""坏我"",""坏她"",""好她""]","[""强我"",""弱我"",""弱她"",""强她""]","","","","","","","","match","","","","","","","","","","key","j","16.682243902438767","960","536","j","true","match","img/pentagon.png","坏我","坏我","prac_ALT2_moral","practice_moral","","","","","","","","",""
"null","<span style='color:GreenYellow; font-size: 70px;'>正确! </span>","null","html-keyboard-response","31","414141","0.0-8.0-0.0-1.0-0.0-1.10","3","3","3","3","2","4","3","2","4","4","4","0","1","-1","1","-1","0","1","0","4","5","5","5","4","4","4","4","5","3","6","7","5","6","5","6","7","6","7","4","2","2","4","5","3","4","3","3","3","1","4","3","5","2","4","3","3","3","2","4","4","4","5","7","3","7","3","5","4","6","5","5","5","7","5","5","3","5","3","4","732625560492314625","yang","169","Female","[""好我"",""坏我"",""坏她"",""好她""]","[""强我"",""弱我"",""弱她"",""强她""]","","","","","","","","","","","","","","","","","","","","","","","","","","","","","","feedback_test","","","","","","","","",""
"831","","j","psychophysics","32","415974","0.0-8.0-0.0-1.0-0.0-0.11","3","3","3","3","2","4","3","2","4","4","4","0","1","-1","1","-1","0","1","0","4","5","5","5","4","4","4","4","5","3","6","7","5","6","5","6","7","6","7","4","2","2","4","5","3","4","3","3","3","1","4","3","5","2","4","3","3","3","2","4","4","4","5","7","3","7","3","5","4","6","5","5","5","7","5","5","3","5","3","4","732625560492314625","yang","169","Female","[""好我"",""坏我"",""坏她"",""好她""]","[""强我"",""弱我"",""弱她"",""强她""]","","","","","","","","match","","","","","","","","","","key","j","16.683333333333227","960","536","f","false","nonmatch","img/pentagon.png","好她","坏我","prac_ALT2_moral","practice_moral","","","","","","","","",""
"null","<span style='color:red; font-size: 70px;'>错误! </span>","null","html-keyboard-response","33","416476","0.0-8.0-0.0-1.0-0.0-1.11","3","3","3","3","2","4","3","2","4","4","4","0","1","-1","1","-1","0","1","0","4","5","5","5","4","4","4","4","5","3","6","7","5","6","5","6","7","6","7","4","2","2","4","5","3","4","3","3","3","1","4","3","5","2","4","3","3","3","2","4","4","4","5","7","3","7","3","5","4","6","5","5","5","7","5","5","3","5","3","4","732625560492314625","yang","169","Female","[""好我"",""坏我"",""坏她"",""好她""]","[""强我"",""弱我"",""弱她"",""强她""]","","","","","","","","","","","","","","","","","","","","","","","","","","","","","","feedback_test","","","","","","","","",""
"865","","f","psychophysics","34","418342","0.0-8.0-0.0-1.0-0.0-0.12","3","3","3","3","2","4","3","2","4","4","4","0","1","-1","1","-1","0","1","0","4","5","5","5","4","4","4","4","5","3","6","7","5","6","5","6","7","6","7","4","2","2","4","5","3","4","3","3","3","1","4","3","5","2","4","3","3","3","2","4","4","4","5","7","3","7","3","5","4","6","5","5","5","7","5","5","3","5","3","4","732625560492314625","yang","169","Female","[""好我"",""坏我"",""坏她"",""好她""]","[""强我"",""弱我"",""弱她"",""强她""]","","","","","","","","nonmatch","","","","","","","","","","key","f","16.683590909090974","960","536","j","false","match","img/ellipse.png","好我","好我","prac_ALT2_moral","practice_moral","","","","","","","","",""
"null","<span style='color:red; font-size: 70px;'>错误! </span>","null","html-keyboard-response","35","418844","0.0-8.0-0.0-1.0-0.0-1.12","3","3","3","3","2","4","3","2","4","4","4","0","1","-1","1","-1","0","1","0","4","5","5","5","4","4","4","4","5","3","6","7","5","6","5","6","7","6","7","4","2","2","4","5","3","4","3","3","3","1","4","3","5","2","4","3","3","3","2","4","4","4","5","7","3","7","3","5","4","6","5","5","5","7","5","5","3","5","3","4","732625560492314625","yang","169","Female","[""好我"",""坏我"",""坏她"",""好她""]","[""强我"",""弱我"",""弱她"",""强她""]","","","","","","","","","","","","","","","","","","","","","","","","","","","","","","feedback_test","","","","","","","","",""
"801","","f","psychophysics","36","420646","0.0-8.0-0.0-1.0-0.0-0.13","3","3","3","3","2","4","3","2","4","4","4","0","1","-1","1","-1","0","1","0","4","5","5","5","4","4","4","4","5","3","6","7","5","6","5","6","7","6","7","4","2","2","4","5","3","4","3","3","3","1","4","3","5","2","4","3","3","3","2","4","4","4","5","7","3","7","3","5","4","6","5","5","5","7","5","5","3","5","3","4","732625560492314625","yang","169","Female","[""好我"",""坏我"",""坏她"",""好她""]","[""强我"",""弱我"",""弱她"",""强她""]","","","","","","","","nonmatch","","","","","","","","","","key","f","16.684168224299118","960","536","f","true","nonmatch","img/triangle.png","好我","坏她","prac_ALT2_moral","practice_moral","","","","","","","","",""
"null","<span style='color:GreenYellow; font-size: 70px;'>正确! </span>","null","html-keyboard-response","37","421147","0.0-8.0-0.0-1.0-0.0-1.13","3","3","3","3","2","4","3","2","4","4","4","0","1","-1","1","-1","0","1","0","4","5","5","5","4","4","4","4","5","3","6","7","5","6","5","6","7","6","7","4","2","2","4","5","3","4","3","3","3","1","4","3","5","2","4","3","3","3","2","4","4","4","5","7","3","7","3","5","4","6","5","5","5","7","5","5","3","5","3","4","732625560492314625","yang","169","Female","[""好我"",""坏我"",""坏她"",""好她""]","[""强我"",""弱我"",""弱她"",""强她""]","","","","","","","","","","","","","","","","","","","","","","","","","","","","","","feedback_test","","","","","","","","",""
"940","","j","psychophysics","38","423088","0.0-8.0-0.0-1.0-0.0-0.14","3","3","3","3","2","4","3","2","4","4","4","0","1","-1","1","-1","0","1","0","4","5","5","5","4","4","4","4","5","3","6","7","5","6","5","6","7","6","7","4","2","2","4","5","3","4","3","3","3","1","4","3","5","2","4","3","3","3","2","4","4","4","5","7","3","7","3","5","4","6","5","5","5","7","5","5","3","5","3","4","732625560492314625","yang","169","Female","[""好我"",""坏我"",""坏她"",""好她""]","[""强我"",""弱我"",""弱她"",""强她""]","","","","","","","","match","","","","","","","","","","key","j","16.684104347826263","960","536","f","false","nonmatch","img/pentagon.png","坏她","坏我","prac_ALT2_moral","practice_moral","","","","","","","","",""
"null","<span style='color:red; font-size: 70px;'>错误! </span>","null","html-keyboard-response","39","423590","0.0-8.0-0.0-1.0-0.0-1.14","3","3","3","3","2","4","3","2","4","4","4","0","1","-1","1","-1","0","1","0","4","5","5","5","4","4","4","4","5","3","6","7","5","6","5","6","7","6","7","4","2","2","4","5","3","4","3","3","3","1","4","3","5","2","4","3","3","3","2","4","4","4","5","7","3","7","3","5","4","6","5","5","5","7","5","5","3","5","3","4","732625560492314625","yang","169","Female","[""好我"",""坏我"",""坏她"",""好她""]","[""强我"",""弱我"",""弱她"",""强她""]","","","","","","","","","","","","","","","","","","","","","","","","","","","","","","feedback_test","","","","","","","","",""
"648","","j","psychophysics","40","425239","0.0-8.0-0.0-1.0-0.0-0.15","3","3","3","3","2","4","3","2","4","4","4","0","1","-1","1","-1","0","1","0","4","5","5","5","4","4","4","4","5","3","6","7","5","6","5","6","7","6","7","4","2","2","4","5","3","4","3","3","3","1","4","3","5","2","4","3","3","3","2","4","4","4","5","7","3","7","3","5","4","6","5","5","5","7","5","5","3","5","3","4","732625560492314625","yang","169","Female","[""好我"",""坏我"",""坏她"",""好她""]","[""强我"",""弱我"",""弱她"",""强她""]","","","","","","","","match","","","","","","","","","","key","j","16.683846938775435","960","536","j","true","match","img/triangle.png","坏她","坏她","prac_ALT2_moral","practice_moral","","","","","","","","",""
"null","<span style='color:GreenYellow; font-size: 70px;'>正确! </span>","null","html-keyboard-response","41","425741","0.0-8.0-0.0-1.0-0.0-1.15","3","3","3","3","2","4","3","2","4","4","4","0","1","-1","1","-1","0","1","0","4","5","5","5","4","4","4","4","5","3","6","7","5","6","5","6","7","6","7","4","2","2","4","5","3","4","3","3","3","1","4","3","5","2","4","3","3","3","2","4","4","4","5","7","3","7","3","5","4","6","5","5","5","7","5","5","3","5","3","4","732625560492314625","yang","169","Female","[""好我"",""坏我"",""坏她"",""好她""]","[""强我"",""弱我"",""弱她"",""强她""]","","","","","","","","","","","","","","","","","","","","","","","","","","","","","","feedback_test","","","","","","","","",""
"761","","j","psychophysics","42","427502","0.0-8.0-0.0-1.0-0.0-0.16","3","3","3","3","2","4","3","2","4","4","4","0","1","-1","1","-1","0","1","0","4","5","5","5","4","4","4","4","5","3","6","7","5","6","5","6","7","6","7","4","2","2","4","5","3","4","3","3","3","1","4","3","5","2","4","3","3","3","2","4","4","4","5","7","3","7","3","5","4","6","5","5","5","7","5","5","3","5","3","4","732625560492314625","yang","169","Female","[""好我"",""坏我"",""坏她"",""好她""]","[""强我"",""弱我"",""弱她"",""强她""]","","","","","","","","match","","","","","","","","","","key","j","16.68348076923072","960","536","f","false","nonmatch","img/trapezoid.png","坏她","好她","prac_ALT2_moral","practice_moral","","","","","","","","",""
"null","<span style='color:red; font-size: 70px;'>错误! </span>","null","html-keyboard-response","43","428003","0.0-8.0-0.0-1.0-0.0-1.16","3","3","3","3","2","4","3","2","4","4","4","0","1","-1","1","-1","0","1","0","4","5","5","5","4","4","4","4","5","3","6","7","5","6","5","6","7","6","7","4","2","2","4","5","3","4","3","3","3","1","4","3","5","2","4","3","3","3","2","4","4","4","5","7","3","7","3","5","4","6","5","5","5","7","5","5","3","5","3","4","732625560492314625","yang","169","Female","[""好我"",""坏我"",""坏她"",""好她""]","[""强我"",""弱我"",""弱她"",""强她""]","","","","","","","","","","","","","","","","","","","","","","","","","","","","","","feedback_test","","","","","","","","",""
"959","","f","psychophysics","44","429963","0.0-8.0-0.0-1.0-0.0-0.17","3","3","3","3","2","4","3","2","4","4","4","0","1","-1","1","-1","0","1","0","4","5","5","5","4","4","4","4","5","3","6","7","5","6","5","6","7","6","7","4","2","2","4","5","3","4","3","3","3","1","4","3","5","2","4","3","3","3","2","4","4","4","5","7","3","7","3","5","4","6","5","5","5","7","5","5","3","5","3","4","732625560492314625","yang","169","Female","[""好我"",""坏我"",""坏她"",""好她""]","[""强我"",""弱我"",""弱她"",""强她""]","","","","","","","","nonmatch","","","","","","","","","","key","f","16.683538461538852","960","536","f","true","nonmatch","img/triangle.png","坏我","坏她","prac_ALT2_moral","practice_moral","","","","","","","","",""
"null","<span style='color:GreenYellow; font-size: 70px;'>正确! </span>","null","html-keyboard-response","45","430465","0.0-8.0-0.0-1.0-0.0-1.17","3","3","3","3","2","4","3","2","4","4","4","0","1","-1","1","-1","0","1","0","4","5","5","5","4","4","4","4","5","3","6","7","5","6","5","6","7","6","7","4","2","2","4","5","3","4","3","3","3","1","4","3","5","2","4","3","3","3","2","4","4","4","5","7","3","7","3","5","4","6","5","5","5","7","5","5","3","5","3","4","732625560492314625","yang","169","Female","[""好我"",""坏我"",""坏她"",""好她""]","[""强我"",""弱我"",""弱她"",""强她""]","","","","","","","","","","","","","","","","","","","","","","","","","","","","","","feedback_test","","","","","","","","",""
"851","","f","psychophysics","46","432318","0.0-8.0-0.0-1.0-0.0-0.18","3","3","3","3","2","4","3","2","4","4","4","0","1","-1","1","-1","0","1","0","4","5","5","5","4","4","4","4","5","3","6","7","5","6","5","6","7","6","7","4","2","2","4","5","3","4","3","3","3","1","4","3","5","2","4","3","3","3","2","4","4","4","5","7","3","7","3","5","4","6","5","5","5","7","5","5","3","5","3","4","732625560492314625","yang","169","Female","[""好我"",""坏我"",""坏她"",""好她""]","[""强我"",""弱我"",""弱她"",""强她""]","","","","","","","","nonmatch","","","","","","","","","","key","f","16.68411818181789","960","536","f","true","nonmatch","img/trapezoid.png","坏我","好她","prac_ALT2_moral","practice_moral","","","","","","","","",""
"null","<span style='color:GreenYellow; font-size: 70px;'>正确! </span>","null","html-keyboard-response","47","432820","0.0-8.0-0.0-1.0-0.0-1.18","3","3","3","3","2","4","3","2","4","4","4","0","1","-1","1","-1","0","1","0","4","5","5","5","4","4","4","4","5","3","6","7","5","6","5","6","7","6","7","4","2","2","4","5","3","4","3","3","3","1","4","3","5","2","4","3","3","3","2","4","4","4","5","7","3","7","3","5","4","6","5","5","5","7","5","5","3","5","3","4","732625560492314625","yang","169","Female","[""好我"",""坏我"",""坏她"",""好她""]","[""强我"",""弱我"",""弱她"",""强她""]","","","","","","","","","","","","","","","","","","","","","","","","","","","","","","feedback_test","","","","","","","","",""
"819","","j","psychophysics","48","434639","0.0-8.0-0.0-1.0-0.0-0.19","3","3","3","3","2","4","3","2","4","4","4","0","1","-1","1","-1","0","1","0","4","5","5","5","4","4","4","4","5","3","6","7","5","6","5","6","7","6","7","4","2","2","4","5","3","4","3","3","3","1","4","3","5","2","4","3","3","3","2","4","4","4","5","7","3","7","3","5","4","6","5","5","5","7","5","5","3","5","3","4","732625560492314625","yang","169","Female","[""好我"",""坏我"",""坏她"",""好她""]","[""强我"",""弱我"",""弱她"",""强她""]","","","","","","","","match","","","","","","","","","","key","j","16.68398148148144","960","536","j","true","match","img/ellipse.png","好我","好我","prac_ALT2_moral","practice_moral","","","","","","","","",""
"null","<span style='color:GreenYellow; font-size: 70px;'>正确! </span>","null","html-keyboard-response","49","435141","0.0-8.0-0.0-1.0-0.0-1.19","3","3","3","3","2","4","3","2","4","4","4","0","1","-1","1","-1","0","1","0","4","5","5","5","4","4","4","4","5","3","6","7","5","6","5","6","7","6","7","4","2","2","4","5","3","4","3","3","3","1","4","3","5","2","4","3","3","3","2","4","4","4","5","7","3","7","3","5","4","6","5","5","5","7","5","5","3","5","3","4","732625560492314625","yang","169","Female","[""好我"",""坏我"",""坏她"",""好她""]","[""强我"",""弱我"",""弱她"",""强她""]","","","","","","","","","","","","","","","","","","","","","","","","","","","","","","feedback_test","","","","","","","","",""
"826","","f","psychophysics","50","436969","0.0-8.0-0.0-1.0-0.0-0.20","3","3","3","3","2","4","3","2","4","4","4","0","1","-1","1","-1","0","1","0","4","5","5","5","4","4","4","4","5","3","6","7","5","6","5","6","7","6","7","4","2","2","4","5","3","4","3","3","3","1","4","3","5","2","4","3","3","3","2","4","4","4","5","7","3","7","3","5","4","6","5","5","5","7","5","5","3","5","3","4","732625560492314625","yang","169","Female","[""好我"",""坏我"",""坏她"",""好她""]","[""强我"",""弱我"",""弱她"",""强她""]","","","","","","","","nonmatch","","","","","","","","","","key","f","16.683458715596093","960","536","f","true","nonmatch","img/ellipse.png","坏她","好我","prac_ALT2_moral","practice_moral","","","","","","","","",""
"null","<span style='color:GreenYellow; font-size: 70px;'>正确! </span>","null","html-keyboard-response","51","437471","0.0-8.0-0.0-1.0-0.0-1.20","3","3","3","3","2","4","3","2","4","4","4","0","1","-1","1","-1","0","1","0","4","5","5","5","4","4","4","4","5","3","6","7","5","6","5","6","7","6","7","4","2","2","4","5","3","4","3","3","3","1","4","3","5","2","4","3","3","3","2","4","4","4","5","7","3","7","3","5","4","6","5","5","5","7","5","5","3","5","3","4","732625560492314625","yang","169","Female","[""好我"",""坏我"",""坏她"",""好她""]","[""强我"",""弱我"",""弱她"",""强她""]","","","","","","","","","","","","","","","","","","","","","","","","","","","","","","feedback_test","","","","","","","","",""
"647","","f","psychophysics","52","439119","0.0-8.0-0.0-1.0-0.0-0.21","3","3","3","3","2","4","3","2","4","4","4","0","1","-1","1","-1","0","1","0","4","5","5","5","4","4","4","4","5","3","6","7","5","6","5","6","7","6","7","4","2","2","4","5","3","4","3","3","3","1","4","3","5","2","4","3","3","3","2","4","4","4","5","7","3","7","3","5","4","6","5","5","5","7","5","5","3","5","3","4","732625560492314625","yang","169","Female","[""好我"",""坏我"",""坏她"",""好她""]","[""强我"",""弱我"",""弱她"",""强她""]","","","","","","","","nonmatch","","","","","","","","","","key","f","16.682724489795984","960","536","j","false","match","img/trapezoid.png","好她","好她","prac_ALT2_moral","practice_moral","","","","","","","","",""
"null","<span style='color:red; font-size: 70px;'>错误! </span>","null","html-keyboard-response","53","439621","0.0-8.0-0.0-1.0-0.0-1.21","3","3","3","3","2","4","3","2","4","4","4","0","1","-1","1","-1","0","1","0","4","5","5","5","4","4","4","4","5","3","6","7","5","6","5","6","7","6","7","4","2","2","4","5","3","4","3","3","3","1","4","3","5","2","4","3","3","3","2","4","4","4","5","7","3","7","3","5","4","6","5","5","5","7","5","5","3","5","3","4","732625560492314625","yang","169","Female","[""好我"",""坏我"",""坏她"",""好她""]","[""强我"",""弱我"",""弱她"",""强她""]","","","","","","","","","","","","","","","","","","","","","","","","","","","","","","feedback_test","","","","","","","","",""
"922","","f","psychophysics","54","441544","0.0-8.0-0.0-1.0-0.0-0.22","3","3","3","3","2","4","3","2","4","4","4","0","1","-1","1","-1","0","1","0","4","5","5","5","4","4","4","4","5","3","6","7","5","6","5","6","7","6","7","4","2","2","4","5","3","4","3","3","3","1","4","3","5","2","4","3","3","3","2","4","4","4","5","7","3","7","3","5","4","6","5","5","5","7","5","5","3","5","3","4","732625560492314625","yang","169","Female","[""好我"",""坏我"",""坏她"",""好她""]","[""强我"",""弱我"",""弱她"",""强她""]","","","","","","","","nonmatch","","","","","","","","","","key","f","16.68295614035104","960","536","j","false","match","img/pentagon.png","坏我","坏我","prac_ALT2_moral","practice_moral","","","","","","","","",""
"null","<span style='color:red; font-size: 70px;'>错误! </span>","null","html-keyboard-response","55","442045","0.0-8.0-0.0-1.0-0.0-1.22","3","3","3","3","2","4","3","2","4","4","4","0","1","-1","1","-1","0","1","0","4","5","5","5","4","4","4","4","5","3","6","7","5","6","5","6","7","6","7","4","2","2","4","5","3","4","3","3","3","1","4","3","5","2","4","3","3","3","2","4","4","4","5","7","3","7","3","5","4","6","5","5","5","7","5","5","3","5","3","4","732625560492314625","yang","169","Female","[""好我"",""坏我"",""坏她"",""好她""]","[""强我"",""弱我"",""弱她"",""强她""]","","","","","","","","","","","","","","","","","","","","","","","","","","","","","","feedback_test","","","","","","","","",""
"665","","j","psychophysics","56","443712","0.0-8.0-0.0-1.0-0.0-0.23","3","3","3","3","2","4","3","2","4","4","4","0","1","-1","1","-1","0","1","0","4","5","5","5","4","4","4","4","5","3","6","7","5","6","5","6","7","6","7","4","2","2","4","5","3","4","3","3","3","1","4","3","5","2","4","3","3","3","2","4","4","4","5","7","3","7","3","5","4","6","5","5","5","7","5","5","3","5","3","4","732625560492314625","yang","169","Female","[""好我"",""坏我"",""坏她"",""好她""]","[""强我"",""弱我"",""弱她"",""强她""]","","","","","","","","match","","","","","","","","","","key","j","16.68461616161618","960","536","f","false","nonmatch","img/triangle.png","好她","坏她","prac_ALT2_moral","practice_moral","","","","","","","","",""
"null","<span style='color:red; font-size: 70px;'>错误! </span>","null","html-keyboard-response","57","444214","0.0-8.0-0.0-1.0-0.0-1.23","3","3","3","3","2","4","3","2","4","4","4","0","1","-1","1","-1","0","1","0","4","5","5","5","4","4","4","4","5","3","6","7","5","6","5","6","7","6","7","4","2","2","4","5","3","4","3","3","3","1","4","3","5","2","4","3","3","3","2","4","4","4","5","7","3","7","3","5","4","6","5","5","5","7","5","5","3","5","3","4","732625560492314625","yang","169","Female","[""好我"",""坏我"",""坏她"",""好她""]","[""强我"",""弱我"",""弱她"",""强她""]","","","","","","","","","","","","","","","","","","","","","","","","","","","","","","feedback_test","","","","","","","","",""
"913","","j","psychophysics","58","446129","0.0-8.0-0.0-1.0-0.0-0.24","3","3","3","3","2","4","3","2","4","4","4","0","1","-1","1","-1","0","1","0","4","5","5","5","4","4","4","4","5","3","6","7","5","6","5","6","7","6","7","4","2","2","4","5","3","4","3","3","3","1","4","3","5","2","4","3","3","3","2","4","4","4","5","7","3","7","3","5","4","6","5","5","5","7","5","5","3","5","3","4","732625560492314625","yang","169","Female","[""好我"",""坏我"",""坏她"",""好她""]","[""强我"",""弱我"",""弱她"",""强她""]","","","","","","","","match","","","","","","","","","","key","j","16.68352631578914","960","536","j","true","match","img/ellipse.png","好我","好我","prac_ALT2_moral","practice_moral","","","","","","","","",""
"null","<span style='color:GreenYellow; font-size: 70px;'>正确! </span>","null","html-keyboard-response","59","446631","0.0-8.0-0.0-1.0-0.0-1.24","3","3","3","3","2","4","3","2","4","4","4","0","1","-1","1","-1","0","1","0","4","5","5","5","4","4","4","4","5","3","6","7","5","6","5","6","7","6","7","4","2","2","4","5","3","4","3","3","3","1","4","3","5","2","4","3","3","3","2","4","4","4","5","7","3","7","3","5","4","6","5","5","5","7","5","5","3","5","3","4","732625560492314625","yang","169","Female","[""好我"",""坏我"",""坏她"",""好她""]","[""强我"",""弱我"",""弱她"",""强她""]","","","","","","","","","","","","","","","","","","","","","","","","","","","","","","feedback_test","","","","","","","","",""
"1005","","f","psychophysics","60","448638","0.0-8.0-0.0-1.0-0.0-0.25","3","3","3","3","2","4","3","2","4","4","4","0","1","-1","1","-1","0","1","0","4","5","5","5","4","4","4","4","5","3","6","7","5","6","5","6","7","6","7","4","2","2","4","5","3","4","3","3","3","1","4","3","5","2","4","3","3","3","2","4","4","4","5","7","3","7","3","5","4","6","5","5","5","7","5","5","3","5","3","4","732625560492314625","yang","169","Female","[""好我"",""坏我"",""坏她"",""好她""]","[""强我"",""弱我"",""弱她"",""强她""]","","","","","","","","nonmatch","","","","","","","","","","key","f","16.683840336134274","960","536","f","true","nonmatch","img/pentagon.png","坏她","坏我","prac_ALT2_moral","practice_moral","","","","","","","","",""
"null","<span style='color:GreenYellow; font-size: 70px;'>正确! </span>","null","html-keyboard-response","61","449139","0.0-8.0-0.0-1.0-0.0-1.25","3","3","3","3","2","4","3","2","4","4","4","0","1","-1","1","-1","0","1","0","4","5","5","5","4","4","4","4","5","3","6","7","5","6","5","6","7","6","7","4","2","2","4","5","3","4","3","3","3","1","4","3","5","2","4","3","3","3","2","4","4","4","5","7","3","7","3","5","4","6","5","5","5","7","5","5","3","5","3","4","732625560492314625","yang","169","Female","[""好我"",""坏我"",""坏她"",""好她""]","[""强我"",""弱我"",""弱她"",""强她""]","","","","","","","","","","","","","","","","","","","","","","","","","","","","","","feedback_test","","","","","","","","",""
"893","","f","psychophysics","62","451034","0.0-8.0-0.0-1.0-0.0-0.26","3","3","3","3","2","4","3","2","4","4","4","0","1","-1","1","-1","0","1","0","4","5","5","5","4","4","4","4","5","3","6","7","5","6","5","6","7","6","7","4","2","2","4","5","3","4","3","3","3","1","4","3","5","2","4","3","3","3","2","4","4","4","5","7","3","7","3","5","4","6","5","5","5","7","5","5","3","5","3","4","732625560492314625","yang","169","Female","[""好我"",""坏我"",""坏她"",""好她""]","[""强我"",""弱我"",""弱她"",""强她""]","","","","","","","","nonmatch","","","","","","","","","","key","f","16.684389380531066","960","536","f","true","nonmatch","img/triangle.png","坏我","坏她","prac_ALT2_moral","practice_moral","","","","","","","","",""
"null","<span style='color:GreenYellow; font-size: 70px;'>正确! </span>","null","html-keyboard-response","63","451537","0.0-8.0-0.0-1.0-0.0-1.26","3","3","3","3","2","4","3","2","4","4","4","0","1","-1","1","-1","0","1","0","4","5","5","5","4","4","4","4","5","3","6","7","5","6","5","6","7","6","7","4","2","2","4","5","3","4","3","3","3","1","4","3","5","2","4","3","3","3","2","4","4","4","5","7","3","7","3","5","4","6","5","5","5","7","5","5","3","5","3","4","732625560492314625","yang","169","Female","[""好我"",""坏我"",""坏她"",""好她""]","[""强我"",""弱我"",""弱她"",""强她""]","","","","","","","","","","","","","","","","","","","","","","","","","","","","","","feedback_test","","","","","","","","",""
"829","","f","psychophysics","64","453367","0.0-8.0-0.0-1.0-0.0-0.27","3","3","3","3","2","4","3","2","4","4","4","0","1","-1","1","-1","0","1","0","4","5","5","5","4","4","4","4","5","3","6","7","5","6","5","6","7","6","7","4","2","2","4","5","3","4","3","3","3","1","4","3","5","2","4","3","3","3","2","4","4","4","5","7","3","7","3","5","4","6","5","5","5","7","5","5","3","5","3","4","732625560492314625","yang","169","Female","[""好我"",""坏我"",""坏她"",""好她""]","[""强我"",""弱我"",""弱她"",""强她""]","","","","","","","","nonmatch","","","","","","","","","","key","f","16.68409174311919","960","536","j","false","match","img/pentagon.png","坏我","坏我","prac_ALT2_moral","practice_moral","","","","","","","","",""
"null","<span style='color:red; font-size: 70px;'>错误! </span>","null","html-keyboard-response","65","453868","0.0-8.0-0.0-1.0-0.0-1.27","3","3","3","3","2","4","3","2","4","4","4","0","1","-1","1","-1","0","1","0","4","5","5","5","4","4","4","4","5","3","6","7","5","6","5","6","7","6","7","4","2","2","4","5","3","4","3","3","3","1","4","3","5","2","4","3","3","3","2","4","4","4","5","7","3","7","3","5","4","6","5","5","5","7","5","5","3","5","3","4","732625560492314625","yang","169","Female","[""好我"",""坏我"",""坏她"",""好她""]","[""强我"",""弱我"",""弱她"",""强她""]","","","","","","","","","","","","","","","","","","","","","","","","","","","","","","feedback_test","","","","","","","","",""
"1145","","f","psychophysics","66","456014","0.0-8.0-0.0-1.0-0.0-0.28","3","3","3","3","2","4","3","2","4","4","4","0","1","-1","1","-1","0","1","0","4","5","5","5","4","4","4","4","5","3","6","7","5","6","5","6","7","6","7","4","2","2","4","5","3","4","3","3","3","1","4","3","5","2","4","3","3","3","2","4","4","4","5","7","3","7","3","5","4","6","5","5","5","7","5","5","3","5","3","4","732625560492314625","yang","169","Female","[""好我"",""坏我"",""坏她"",""好她""]","[""强我"",""弱我"",""弱她"",""强她""]","","","","","","","","nonmatch","","","","","","","","","","key","f","16.683629921259815","960","536","f","true","nonmatch","img/ellipse.png","坏她","好我","prac_ALT2_moral","practice_moral","","","","","","","","",""
"null","<span style='color:GreenYellow; font-size: 70px;'>正确! </span>","null","html-keyboard-response","67","456516","0.0-8.0-0.0-1.0-0.0-1.28","3","3","3","3","2","4","3","2","4","4","4","0","1","-1","1","-1","0","1","0","4","5","5","5","4","4","4","4","5","3","6","7","5","6","5","6","7","6","7","4","2","2","4","5","3","4","3","3","3","1","4","3","5","2","4","3","3","3","2","4","4","4","5","7","3","7","3","5","4","6","5","5","5","7","5","5","3","5","3","4","732625560492314625","yang","169","Female","[""好我"",""坏我"",""坏她"",""好她""]","[""强我"",""弱我"",""弱她"",""强她""]","","","","","","","","","","","","","","","","","","","","","","","","","","","","","","feedback_test","","","","","","","","",""
"850","","j","psychophysics","68","458366","0.0-8.0-0.0-1.0-0.0-0.29","3","3","3","3","2","4","3","2","4","4","4","0","1","-1","1","-1","0","1","0","4","5","5","5","4","4","4","4","5","3","6","7","5","6","5","6","7","6","7","4","2","2","4","5","3","4","3","3","3","1","4","3","5","2","4","3","3","3","2","4","4","4","5","7","3","7","3","5","4","6","5","5","5","7","5","5","3","5","3","4","732625560492314625","yang","169","Female","[""好我"",""坏我"",""坏她"",""好她""]","[""强我"",""弱我"",""弱她"",""强她""]","","","","","","","","match","","","","","","","","","","key","j","16.684256880733702","960","536","f","false","nonmatch","img/trapezoid.png","坏我","好她","prac_ALT2_moral","practice_moral","","","","","","","","",""
"null","<span style='color:red; font-size: 70px;'>错误! </span>","null","html-keyboard-response","69","458868","0.0-8.0-0.0-1.0-0.0-1.29","3","3","3","3","2","4","3","2","4","4","4","0","1","-1","1","-1","0","1","0","4","5","5","5","4","4","4","4","5","3","6","7","5","6","5","6","7","6","7","4","2","2","4","5","3","4","3","3","3","1","4","3","5","2","4","3","3","3","2","4","4","4","5","7","3","7","3","5","4","6","5","5","5","7","5","5","3","5","3","4","732625560492314625","yang","169","Female","[""好我"",""坏我"",""坏她"",""好她""]","[""强我"",""弱我"",""弱她"",""强她""]","","","","","","","","","","","","","","","","","","","","","","","","","","","","","","feedback_test","","","","","","","","",""
"978","","j","psychophysics","70","460846","0.0-8.0-0.0-1.0-0.0-0.30","3","3","3","3","2","4","3","2","4","4","4","0","1","-1","1","-1","0","1","0","4","5","5","5","4","4","4","4","5","3","6","7","5","6","5","6","7","6","7","4","2","2","4","5","3","4","3","3","3","1","4","3","5","2","4","3","3","3","2","4","4","4","5","7","3","7","3","5","4","6","5","5","5","7","5","5","3","5","3","4","732625560492314625","yang","169","Female","[""好我"",""坏我"",""坏她"",""好她""]","[""强我"",""弱我"",""弱她"",""强她""]","","","","","","","","match","","","","","","","","","","key","j","16.68387288135581","960","536","j","true","match","img/ellipse.png","好我","好我","prac_ALT2_moral","practice_moral","","","","","","","","",""
"null","<span style='color:GreenYellow; font-size: 70px;'>正确! </span>","null","html-keyboard-response","71","461348","0.0-8.0-0.0-1.0-0.0-1.30","3","3","3","3","2","4","3","2","4","4","4","0","1","-1","1","-1","0","1","0","4","5","5","5","4","4","4","4","5","3","6","7","5","6","5","6","7","6","7","4","2","2","4","5","3","4","3","3","3","1","4","3","5","2","4","3","3","3","2","4","4","4","5","7","3","7","3","5","4","6","5","5","5","7","5","5","3","5","3","4","732625560492314625","yang","169","Female","[""好我"",""坏我"",""坏她"",""好她""]","[""强我"",""弱我"",""弱她"",""强她""]","","","","","","","","","","","","","","","","","","","","","","","","","","","","","","feedback_test","","","","","","","","",""
"834","","j","psychophysics","72","463183","0.0-8.0-0.0-1.0-0.0-0.31","3","3","3","3","2","4","3","2","4","4","4","0","1","-1","1","-1","0","1","0","4","5","5","5","4","4","4","4","5","3","6","7","5","6","5","6","7","6","7","4","2","2","4","5","3","4","3","3","3","1","4","3","5","2","4","3","3","3","2","4","4","4","5","7","3","7","3","5","4","6","5","5","5","7","5","5","3","5","3","4","732625560492314625","yang","169","Female","[""好我"",""坏我"",""坏她"",""好她""]","[""强我"",""弱我"",""弱她"",""强她""]","","","","","","","","match","","","","","","","","","","key","j","16.683522935779422","960","536","j","true","match","img/triangle.png","坏她","坏她","prac_ALT2_moral","practice_moral","","","","","","","","",""
"null","<span style='color:GreenYellow; font-size: 70px;'>正确! </span>","null","html-keyboard-response","73","463684","0.0-8.0-0.0-1.0-0.0-1.31","3","3","3","3","2","4","3","2","4","4","4","0","1","-1","1","-1","0","1","0","4","5","5","5","4","4","4","4","5","3","6","7","5","6","5","6","7","6","7","4","2","2","4","5","3","4","3","3","3","1","4","3","5","2","4","3","3","3","2","4","4","4","5","7","3","7","3","5","4","6","5","5","5","7","5","5","3","5","3","4","732625560492314625","yang","169","Female","[""好我"",""坏我"",""坏她"",""好她""]","[""强我"",""弱我"",""弱她"",""强她""]","","","","","","","","","","","","","","","","","","","","","","","","","","","","","","feedback_test","","","","","","","","",""
"1080","","f","psychophysics","74","465767","0.0-8.0-0.0-1.0-0.0-0.32","3","3","3","3","2","4","3","2","4","4","4","0","1","-1","1","-1","0","1","0","4","5","5","5","4","4","4","4","5","3","6","7","5","6","5","6","7","6","7","4","2","2","4","5","3","4","3","3","3","1","4","3","5","2","4","3","3","3","2","4","4","4","5","7","3","7","3","5","4","6","5","5","5","7","5","5","3","5","3","4","732625560492314625","yang","169","Female","[""好我"",""坏我"",""坏她"",""好她""]","[""强我"",""弱我"",""弱她"",""强她""]","","","","","","","","nonmatch","","","","","","","","","","key","f","16.68354032258034","960","536","f","true","nonmatch","img/trapezoid.png","好我","好她","prac_ALT2_moral","practice_moral","","","","","","","","",""
"null","<span style='color:GreenYellow; font-size: 70px;'>正确! </span>","null","html-keyboard-response","75","466269","0.0-8.0-0.0-1.0-0.0-1.32","3","3","3","3","2","4","3","2","4","4","4","0","1","-1","1","-1","0","1","0","4","5","5","5","4","4","4","4","5","3","6","7","5","6","5","6","7","6","7","4","2","2","4","5","3","4","3","3","3","1","4","3","5","2","4","3","3","3","2","4","4","4","5","7","3","7","3","5","4","6","5","5","5","7","5","5","3","5","3","4","732625560492314625","yang","169","Female","[""好我"",""坏我"",""坏她"",""好她""]","[""强我"",""弱我"",""弱她"",""强她""]","","","","","","","","","","","","","","","","","","","","","","","","","","","","","","feedback_test","","","","","","","","",""
"873","","j","psychophysics","76","468142","0.0-8.0-0.0-1.0-0.0-0.33","3","3","3","3","2","4","3","2","4","4","4","0","1","-1","1","-1","0","1","0","4","5","5","5","4","4","4","4","5","3","6","7","5","6","5","6","7","6","7","4","2","2","4","5","3","4","3","3","3","1","4","3","5","2","4","3","3","3","2","4","4","4","5","7","3","7","3","5","4","6","5","5","5","7","5","5","3","5","3","4","732625560492314625","yang","169","Female","[""好我"",""坏我"",""坏她"",""好她""]","[""强我"",""弱我"",""弱她"",""强她""]","","","","","","","","match","","","","","","","","","","key","j","16.683108108108215","960","536","j","true","match","img/ellipse.png","好我","好我","prac_ALT2_moral","practice_moral","","","","","","","","",""
"null","<span style='color:GreenYellow; font-size: 70px;'>正确! </span>","null","html-keyboard-response","77","468644","0.0-8.0-0.0-1.0-0.0-1.33","3","3","3","3","2","4","3","2","4","4","4","0","1","-1","1","-1","0","1","0","4","5","5","5","4","4","4","4","5","3","6","7","5","6","5","6","7","6","7","4","2","2","4","5","3","4","3","3","3","1","4","3","5","2","4","3","3","3","2","4","4","4","5","7","3","7","3","5","4","6","5","5","5","7","5","5","3","5","3","4","732625560492314625","yang","169","Female","[""好我"",""坏我"",""坏她"",""好她""]","[""强我"",""弱我"",""弱她"",""强她""]","","","","","","","","","","","","","","","","","","","","","","","","","","","","","","feedback_test","","","","","","","","",""
"840","","f","psychophysics","78","470487","0.0-8.0-0.0-1.0-0.0-0.34","3","3","3","3","2","4","3","2","4","4","4","0","1","-1","1","-1","0","1","0","4","5","5","5","4","4","4","4","5","3","6","7","5","6","5","6","7","6","7","4","2","2","4","5","3","4","3","3","3","1","4","3","5","2","4","3","3","3","2","4","4","4","5","7","3","7","3","5","4","6","5","5","5","7","5","5","3","5","3","4","732625560492314625","yang","169","Female","[""好我"",""坏我"",""坏她"",""好她""]","[""强我"",""弱我"",""弱她"",""强她""]","","","","","","","","nonmatch","","","","","","","","","","key","f","16.683909090908923","960","536","j","false","match","img/trapezoid.png","好她","好她","prac_ALT2_moral","practice_moral","","","","","","","","",""
"null","<span style='color:red; font-size: 70px;'>错误! </span>","null","html-keyboard-response","79","470988","0.0-8.0-0.0-1.0-0.0-1.34","3","3","3","3","2","4","3","2","4","4","4","0","1","-1","1","-1","0","1","0","4","5","5","5","4","4","4","4","5","3","6","7","5","6","5","6","7","6","7","4","2","2","4","5","3","4","3","3","3","1","4","3","5","2","4","3","3","3","2","4","4","4","5","7","3","7","3","5","4","6","5","5","5","7","5","5","3","5","3","4","732625560492314625","yang","169","Female","[""好我"",""坏我"",""坏她"",""好她""]","[""强我"",""弱我"",""弱她"",""强她""]","","","","","","","","","","","","","","","","","","","","","","","","","","","","","","feedback_test","","","","","","","","",""
"833","","j","psychophysics","80","472824","0.0-8.0-0.0-1.0-0.0-0.35","3","3","3","3","2","4","3","2","4","4","4","0","1","-1","1","-1","0","1","0","4","5","5","5","4","4","4","4","5","3","6","7","5","6","5","6","7","6","7","4","2","2","4","5","3","4","3","3","3","1","4","3","5","2","4","3","3","3","2","4","4","4","5","7","3","7","3","5","4","6","5","5","5","7","5","5","3","5","3","4","732625560492314625","yang","169","Female","[""好我"",""坏我"",""坏她"",""好她""]","[""强我"",""弱我"",""弱她"",""强她""]","","","","","","","","match","","","","","","","","","","key","j","16.6833211009176","960","536","j","true","match","img/triangle.png","坏她","坏她","prac_ALT2_moral","practice_moral","","","","","","","","",""
"null","<span style='color:GreenYellow; font-size: 70px;'>正确! </span>","null","html-keyboard-response","81","473326","0.0-8.0-0.0-1.0-0.0-1.35","3","3","3","3","2","4","3","2","4","4","4","0","1","-1","1","-1","0","1","0","4","5","5","5","4","4","4","4","5","3","6","7","5","6","5","6","7","6","7","4","2","2","4","5","3","4","3","3","3","1","4","3","5","2","4","3","3","3","2","4","4","4","5","7","3","7","3","5","4","6","5","5","5","7","5","5","3","5","3","4","732625560492314625","yang","169","Female","[""好我"",""坏我"",""坏她"",""好她""]","[""强我"",""弱我"",""弱她"",""强她""]","","","","","","","","","","","","","","","","","","","","","","","","","","","","","","feedback_test","","","","","","","","",""
"992","","j","psychophysics","82","475319","0.0-8.0-0.0-1.0-0.0-0.36","3","3","3","3","2","4","3","2","4","4","4","0","1","-1","1","-1","0","1","0","4","5","5","5","4","4","4","4","5","3","6","7","5","6","5","6","7","6","7","4","2","2","4","5","3","4","3","3","3","1","4","3","5","2","4","3","3","3","2","4","4","4","5","7","3","7","3","5","4","6","5","5","5","7","5","5","3","5","3","4","732625560492314625","yang","169","Female","[""好我"",""坏我"",""坏她"",""好她""]","[""强我"",""弱我"",""弱她"",""强她""]","","","","","","","","match","","","","","","","","","","key","j","16.68288135593234","960","536","f","false","nonmatch","img/ellipse.png","坏我","好我","prac_ALT2_moral","practice_moral","","","","","","","","",""
"null","<span style='color:red; font-size: 70px;'>错误! </span>","null","html-keyboard-response","83","475819","0.0-8.0-0.0-1.0-0.0-1.36","3","3","3","3","2","4","3","2","4","4","4","0","1","-1","1","-1","0","1","0","4","5","5","5","4","4","4","4","5","3","6","7","5","6","5","6","7","6","7","4","2","2","4","5","3","4","3","3","3","1","4","3","5","2","4","3","3","3","2","4","4","4","5","7","3","7","3","5","4","6","5","5","5","7","5","5","3","5","3","4","732625560492314625","yang","169","Female","[""好我"",""坏我"",""坏她"",""好她""]","[""强我"",""弱我"",""弱她"",""强她""]","","","","","","","","","","","","","","","","","","","","","","","","","","","","","","feedback_test","","","","","","","","",""
"842","","f","psychophysics","84","477663","0.0-8.0-0.0-1.0-0.0-0.37","3","3","3","3","2","4","3","2","4","4","4","0","1","-1","1","-1","0","1","0","4","5","5","5","4","4","4","4","5","3","6","7","5","6","5","6","7","6","7","4","2","2","4","5","3","4","3","3","3","1","4","3","5","2","4","3","3","3","2","4","4","4","5","7","3","7","3","5","4","6","5","5","5","7","5","5","3","5","3","4","732625560492314625","yang","169","Female","[""好我"",""坏我"",""坏她"",""好她""]","[""强我"",""弱我"",""弱她"",""强她""]","","","","","","","","nonmatch","","","","","","","","","","key","f","16.684192660550902","960","536","j","false","match","img/trapezoid.png","好她","好她","prac_ALT2_moral","practice_moral","","","","","","","","",""
"null","<span style='color:red; font-size: 70px;'>错误! </span>","null","html-keyboard-response","85","478164","0.0-8.0-0.0-1.0-0.0-1.37","3","3","3","3","2","4","3","2","4","4","4","0","1","-1","1","-1","0","1","0","4","5","5","5","4","4","4","4","5","3","6","7","5","6","5","6","7","6","7","4","2","2","4","5","3","4","3","3","3","1","4","3","5","2","4","3","3","3","2","4","4","4","5","7","3","7","3","5","4","6","5","5","5","7","5","5","3","5","3","4","732625560492314625","yang","169","Female","[""好我"",""坏我"",""坏她"",""好她""]","[""强我"",""弱我"",""弱她"",""强她""]","","","","","","","","","","","","","","","","","","","","","","","","","","","","","","feedback_test","","","","","","","","",""
"779","","j","psychophysics","86","479945","0.0-8.0-0.0-1.0-0.0-0.38","3","3","3","3","2","4","3","2","4","4","4","0","1","-1","1","-1","0","1","0","4","5","5","5","4","4","4","4","5","3","6","7","5","6","5","6","7","6","7","4","2","2","4","5","3","4","3","3","3","1","4","3","5","2","4","3","3","3","2","4","4","4","5","7","3","7","3","5","4","6","5","5","5","7","5","5","3","5","3","4","732625560492314625","yang","169","Female","[""好我"",""坏我"",""坏她"",""好她""]","[""强我"",""弱我"",""弱她"",""强她""]","","","","","","","","match","","","","","","","","","","key","j","16.68251886792461","960","536","j","true","match","img/triangle.png","坏她","坏她","prac_ALT2_moral","practice_moral","","","","","","","","",""
"null","<span style='color:GreenYellow; font-size: 70px;'>正确! </span>","null","html-keyboard-response","87","480448","0.0-8.0-0.0-1.0-0.0-1.38","3","3","3","3","2","4","3","2","4","4","4","0","1","-1","1","-1","0","1","0","4","5","5","5","4","4","4","4","5","3","6","7","5","6","5","6","7","6","7","4","2","2","4","5","3","4","3","3","3","1","4","3","5","2","4","3","3","3","2","4","4","4","5","7","3","7","3","5","4","6","5","5","5","7","5","5","3","5","3","4","732625560492314625","yang","169","Female","[""好我"",""坏我"",""坏她"",""好她""]","[""强我"",""弱我"",""弱她"",""强她""]","","","","","","","","","","","","","","","","","","","","","","","","","","","","","","feedback_test","","","","","","","","",""
"951","","j","psychophysics","88","482401","0.0-8.0-0.0-1.0-0.0-0.39","3","3","3","3","2","4","3","2","4","4","4","0","1","-1","1","-1","0","1","0","4","5","5","5","4","4","4","4","5","3","6","7","5","6","5","6","7","6","7","4","2","2","4","5","3","4","3","3","3","1","4","3","5","2","4","3","3","3","2","4","4","4","5","7","3","7","3","5","4","6","5","5","5","7","5","5","3","5","3","4","732625560492314625","yang","169","Female","[""好我"",""坏我"",""坏她"",""好她""]","[""强我"",""弱我"",""弱她"",""强她""]","","","","","","","","match","","","","","","","","","","key","j","16.683543103448503","960","536","f","false","nonmatch","img/pentagon.png","好她","坏我","prac_ALT2_moral","practice_moral","","","","","","","","",""
"null","<span style='color:red; font-size: 70px;'>错误! </span>","null","html-keyboard-response","89","482902","0.0-8.0-0.0-1.0-0.0-1.39","3","3","3","3","2","4","3","2","4","4","4","0","1","-1","1","-1","0","1","0","4","5","5","5","4","4","4","4","5","3","6","7","5","6","5","6","7","6","7","4","2","2","4","5","3","4","3","3","3","1","4","3","5","2","4","3","3","3","2","4","4","4","5","7","3","7","3","5","4","6","5","5","5","7","5","5","3","5","3","4","732625560492314625","yang","169","Female","[""好我"",""坏我"",""坏她"",""好她""]","[""强我"",""弱我"",""弱她"",""强她""]","","","","","","","","","","","","","","","","","","","","","","","","","","","","","","feedback_test","","","","","","","","",""
"887","","f","psychophysics","90","484791","0.0-8.0-0.0-1.0-0.0-0.40","3","3","3","3","2","4","3","2","4","4","4","0","1","-1","1","-1","0","1","0","4","5","5","5","4","4","4","4","5","3","6","7","5","6","5","6","7","6","7","4","2","2","4","5","3","4","3","3","3","1","4","3","5","2","4","3","3","3","2","4","4","4","5","7","3","7","3","5","4","6","5","5","5","7","5","5","3","5","3","4","732625560492314625","yang","169","Female","[""好我"",""坏我"",""坏她"",""好她""]","[""强我"",""弱我"",""弱她"",""强她""]","","","","","","","","nonmatch","","","","","","","","","","key","f","16.68333928571415","960","536","f","true","nonmatch","img/triangle.png","好我","坏她","prac_ALT2_moral","practice_moral","","","","","","","","",""
"null","<span style='color:GreenYellow; font-size: 70px;'>正确! </span>","null","html-keyboard-response","91","485292","0.0-8.0-0.0-1.0-0.0-1.40","3","3","3","3","2","4","3","2","4","4","4","0","1","-1","1","-1","0","1","0","4","5","5","5","4","4","4","4","5","3","6","7","5","6","5","6","7","6","7","4","2","2","4","5","3","4","3","3","3","1","4","3","5","2","4","3","3","3","2","4","4","4","5","7","3","7","3","5","4","6","5","5","5","7","5","5","3","5","3","4","732625560492314625","yang","169","Female","[""好我"",""坏我"",""坏她"",""好她""]","[""强我"",""弱我"",""弱她"",""强她""]","","","","","","","","","","","","","","","","","","","","","","","","","","","","","","feedback_test","","","","","","","","",""
"729","","f","psychophysics","92","487023","0.0-8.0-0.0-1.0-0.0-0.41","3","3","3","3","2","4","3","2","4","4","4","0","1","-1","1","-1","0","1","0","4","5","5","5","4","4","4","4","5","3","6","7","5","6","5","6","7","6","7","4","2","2","4","5","3","4","3","3","3","1","4","3","5","2","4","3","3","3","2","4","4","4","5","7","3","7","3","5","4","6","5","5","5","7","5","5","3","5","3","4","732625560492314625","yang","169","Female","[""好我"",""坏我"",""坏她"",""好她""]","[""强我"",""弱我"",""弱她"",""强她""]","","","","","","","","nonmatch","","","","","","","","","","key","f","16.6828252427185","960","536","j","false","match","img/pentagon.png","坏我","坏我","prac_ALT2_moral","practice_moral","","","","","","","","",""
"null","<span style='color:red; font-size: 70px;'>错误! </span>","null","html-keyboard-response","93","487524","0.0-8.0-0.0-1.0-0.0-1.41","3","3","3","3","2","4","3","2","4","4","4","0","1","-1","1","-1","0","1","0","4","5","5","5","4","4","4","4","5","3","6","7","5","6","5","6","7","6","7","4","2","2","4","5","3","4","3","3","3","1","4","3","5","2","4","3","3","3","2","4","4","4","5","7","3","7","3","5","4","6","5","5","5","7","5","5","3","5","3","4","732625560492314625","yang","169","Female","[""好我"",""坏我"",""坏她"",""好她""]","[""强我"",""弱我"",""弱她"",""强她""]","","","","","","","","","","","","","","","","","","","","","","","","","","","","","","feedback_test","","","","","","","","",""
"1009","","f","psychophysics","94","489535","0.0-8.0-0.0-1.0-0.0-0.42","3","3","3","3","2","4","3","2","4","4","4","0","1","-1","1","-1","0","1","0","4","5","5","5","4","4","4","4","5","3","6","7","5","6","5","6","7","6","7","4","2","2","4","5","3","4","3","3","3","1","4","3","5","2","4","3","3","3","2","4","4","4","5","7","3","7","3","5","4","6","5","5","5","7","5","5","3","5","3","4","732625560492314625","yang","169","Female","[""好我"",""坏我"",""坏她"",""好她""]","[""强我"",""弱我"",""弱她"",""强她""]","","","","","","","","nonmatch","","","","","","","","","","key","f","16.684033613445575","960","536","f","true","nonmatch","img/triangle.png","好她","坏她","prac_ALT2_moral","practice_moral","","","","","","","","",""
"null","<span style='color:GreenYellow; font-size: 70px;'>正确! </span>","null","html-keyboard-response","95","490036","0.0-8.0-0.0-1.0-0.0-1.42","3","3","3","3","2","4","3","2","4","4","4","0","1","-1","1","-1","0","1","0","4","5","5","5","4","4","4","4","5","3","6","7","5","6","5","6","7","6","7","4","2","2","4","5","3","4","3","3","3","1","4","3","5","2","4","3","3","3","2","4","4","4","5","7","3","7","3","5","4","6","5","5","5","7","5","5","3","5","3","4","732625560492314625","yang","169","Female","[""好我"",""坏我"",""坏她"",""好她""]","[""强我"",""弱我"",""弱她"",""强她""]","","","","","","","","","","","","","","","","","","","","","","","","","","","","","","feedback_test","","","","","","","","",""
"770","","f","psychophysics","96","491808","0.0-8.0-0.0-1.0-0.0-0.43","3","3","3","3","2","4","3","2","4","4","4","0","1","-1","1","-1","0","1","0","4","5","5","5","4","4","4","4","5","3","6","7","5","6","5","6","7","6","7","4","2","2","4","5","3","4","3","3","3","1","4","3","5","2","4","3","3","3","2","4","4","4","5","7","3","7","3","5","4","6","5","5","5","7","5","5","3","5","3","4","732625560492314625","yang","169","Female","[""好我"",""坏我"",""坏她"",""好她""]","[""强我"",""弱我"",""弱她"",""强她""]","","","","","","","","nonmatch","","","","","","","","","","key","f","16.843884615384294","960","536","j","false","match","img/pentagon.png","坏我","坏我","prac_ALT2_moral","practice_moral","","","","","","","","",""
"null","<span style='color:red; font-size: 70px;'>错误! </span>","null","html-keyboard-response","97","492311","0.0-8.0-0.0-1.0-0.0-1.43","3","3","3","3","2","4","3","2","4","4","4","0","1","-1","1","-1","0","1","0","4","5","5","5","4","4","4","4","5","3","6","7","5","6","5","6","7","6","7","4","2","2","4","5","3","4","3","3","3","1","4","3","5","2","4","3","3","3","2","4","4","4","5","7","3","7","3","5","4","6","5","5","5","7","5","5","3","5","3","4","732625560492314625","yang","169","Female","[""好我"",""坏我"",""坏她"",""好她""]","[""强我"",""弱我"",""弱她"",""强她""]","","","","","","","","","","","","","","","","","","","","","","","","","","","","","","feedback_test","","","","","","","","",""
"832","","f","psychophysics","98","494144","0.0-8.0-0.0-1.0-0.0-0.44","3","3","3","3","2","4","3","2","4","4","4","0","1","-1","1","-1","0","1","0","4","5","5","5","4","4","4","4","5","3","6","7","5","6","5","6","7","6","7","4","2","2","4","5","3","4","3","3","3","1","4","3","5","2","4","3","3","3","2","4","4","4","5","7","3","7","3","5","4","6","5","5","5","7","5","5","3","5","3","4","732625560492314625","yang","169","Female","[""好我"",""坏我"",""坏她"",""好她""]","[""强我"",""弱我"",""弱她"",""强她""]","","","","","","","","nonmatch","","","","","","","","","","key","f","16.68378899082565","960","536","f","true","nonmatch","img/pentagon.png","好我","坏我","prac_ALT2_moral","practice_moral","","","","","","","","",""
"null","<span style='color:GreenYellow; font-size: 70px;'>正确! </span>","null","html-keyboard-response","99","494645","0.0-8.0-0.0-1.0-0.0-1.44","3","3","3","3","2","4","3","2","4","4","4","0","1","-1","1","-1","0","1","0","4","5","5","5","4","4","4","4","5","3","6","7","5","6","5","6","7","6","7","4","2","2","4","5","3","4","3","3","3","1","4","3","5","2","4","3","3","3","2","4","4","4","5","7","3","7","3","5","4","6","5","5","5","7","5","5","3","5","3","4","732625560492314625","yang","169","Female","[""好我"",""坏我"",""坏她"",""好她""]","[""强我"",""弱我"",""弱她"",""强她""]","","","","","","","","","","","","","","","","","","","","","","","","","","","","","","feedback_test","","","","","","","","",""
"1000","","f","psychophysics","100","496647","0.0-8.0-0.0-1.0-0.0-0.45","3","3","3","3","2","4","3","2","4","4","4","0","1","-1","1","-1","0","1","0","4","5","5","5","4","4","4","4","5","3","6","7","5","6","5","6","7","6","7","4","2","2","4","5","3","4","3","3","3","1","4","3","5","2","4","3","3","3","2","4","4","4","5","7","3","7","3","5","4","6","5","5","5","7","5","5","3","5","3","4","732625560492314625","yang","169","Female","[""好我"",""坏我"",""坏她"",""好她""]","[""强我"",""弱我"",""弱她"",""强她""]","","","","","","","","nonmatch","","","","","","","","","","key","f","16.682756302521188","960","536","f","true","nonmatch","img/trapezoid.png","坏她","好她","prac_ALT2_moral","practice_moral","","","","","","","","",""
"null","<span style='color:GreenYellow; font-size: 70px;'>正确! </span>","null","html-keyboard-response","101","497148","0.0-8.0-0.0-1.0-0.0-1.45","3","3","3","3","2","4","3","2","4","4","4","0","1","-1","1","-1","0","1","0","4","5","5","5","4","4","4","4","5","3","6","7","5","6","5","6","7","6","7","4","2","2","4","5","3","4","3","3","3","1","4","3","5","2","4","3","3","3","2","4","4","4","5","7","3","7","3","5","4","6","5","5","5","7","5","5","3","5","3","4","732625560492314625","yang","169","Female","[""好我"",""坏我"",""坏她"",""好她""]","[""强我"",""弱我"",""弱她"",""强她""]","","","","","","","","","","","","","","","","","","","","","","","","","","","","","","feedback_test","","","","","","","","",""
"881","","f","psychophysics","102","499031","0.0-8.0-0.0-1.0-0.0-0.46","3","3","3","3","2","4","3","2","4","4","4","0","1","-1","1","-1","0","1","0","4","5","5","5","4","4","4","4","5","3","6","7","5","6","5","6","7","6","7","4","2","2","4","5","3","4","3","3","3","1","4","3","5","2","4","3","3","3","2","4","4","4","5","7","3","7","3","5","4","6","5","5","5","7","5","5","3","5","3","4","732625560492314625","yang","169","Female","[""好我"",""坏我"",""坏她"",""好她""]","[""强我"",""弱我"",""弱她"",""强她""]","","","","","","","","nonmatch","","","","","","","","","","key","f","16.683223214285785","960","536","j","false","match","img/trapezoid.png","好她","好她","prac_ALT2_moral","practice_moral","","","","","","","","",""
"null","<span style='color:red; font-size: 70px;'>错误! </span>","null","html-keyboard-response","103","499540","0.0-8.0-0.0-1.0-0.0-1.46","3","3","3","3","2","4","3","2","4","4","4","0","1","-1","1","-1","0","1","0","4","5","5","5","4","4","4","4","5","3","6","7","5","6","5","6","7","6","7","4","2","2","4","5","3","4","3","3","3","1","4","3","5","2","4","3","3","3","2","4","4","4","5","7","3","7","3","5","4","6","5","5","5","7","5","5","3","5","3","4","732625560492314625","yang","169","Female","[""好我"",""坏我"",""坏她"",""好她""]","[""强我"",""弱我"",""弱她"",""强她""]","","","","","","","","","","","","","","","","","","","","","","","","","","","","","","feedback_test","","","","","","","","",""
"938","","f","psychophysics","104","501479","0.0-8.0-0.0-1.0-0.0-0.47","3","3","3","3","2","4","3","2","4","4","4","0","1","-1","1","-1","0","1","0","4","5","5","5","4","4","4","4","5","3","6","7","5","6","5","6","7","6","7","4","2","2","4","5","3","4","3","3","3","1","4","3","5","2","4","3","3","3","2","4","4","4","5","7","3","7","3","5","4","6","5","5","5","7","5","5","3","5","3","4","732625560492314625","yang","169","Female","[""好我"",""坏我"",""坏她"",""好她""]","[""强我"",""弱我"",""弱她"",""强她""]","","","","","","","","nonmatch","","","","","","","","","","key","f","16.683913043478462","960","536","f","true","nonmatch","img/ellipse.png","好她","好我","prac_ALT2_moral","practice_moral","","","","","","","","",""
"null","<span style='color:GreenYellow; font-size: 70px;'>正确! </span>","null","html-keyboard-response","105","501980","0.0-8.0-0.0-1.0-0.0-1.47","3","3","3","3","2","4","3","2","4","4","4","0","1","-1","1","-1","0","1","0","4","5","5","5","4","4","4","4","5","3","6","7","5","6","5","6","7","6","7","4","2","2","4","5","3","4","3","3","3","1","4","3","5","2","4","3","3","3","2","4","4","4","5","7","3","7","3","5","4","6","5","5","5","7","5","5","3","5","3","4","732625560492314625","yang","169","Female","[""好我"",""坏我"",""坏她"",""好她""]","[""强我"",""弱我"",""弱她"",""强她""]","","","","","","","","","","","","","","","","","","","","","","","","","","","","","","feedback_test","","","","","","","","",""
"1257","<style>.context{color:white; font-size: 35px; line-height:40px}</style>                            <div><p class='context'>您正确回答了58% 的试次。</p><p class='context'>您的平均反应时为883毫秒。</p><p class='context'>按空格键继续。</p></div>"," ","html-keyboard-response","106","503239","0.0-8.0-0.0-1.0-1.0-0.0","3","3","3","3","2","4","3","2","4","4","4","0","1","-1","1","-1","0","1","0","4","5","5","5","4","4","4","4","5","3","6","7","5","6","5","6","7","6","7","4","2","2","4","5","3","4","3","3","3","1","4","3","5","2","4","3","3","3","2","4","4","4","5","7","3","7","3","5","4","6","5","5","5","7","5","5","3","5","3","4","732625560492314625","yang","169","Female","[""好我"",""坏我"",""坏她"",""好她""]","[""强我"",""弱我"",""弱她"",""强她""]","","","","","","","","","","","","","","","","","","","","","","","","","","","","","","","","","","","","","","",""
"41286","","","instructions","107","544526","0.0-8.0-0.0-1.0-1.0-1.0","3","3","3","3","2","4","3","2","4","4","4","0","1","-1","1","-1","0","1","0","4","5","5","5","4","4","4","4","5","3","6","7","5","6","5","6","7","6","7","4","2","2","4","5","3","4","3","3","3","1","4","3","5","2","4","3","3","3","2","4","4","4","5","7","3","7","3","5","4","6","5","5","5","7","5","5","3","5","3","4","732625560492314625","yang","169","Female","[""好我"",""坏我"",""坏她"",""好她""]","[""强我"",""弱我"",""弱她"",""强她""]","","","","","","","","","","","","","","","","","[{""page_index"":0,""viewing_time"":2015},{""page_index"":1,""viewing_time"":38095},{""page_index"":2,""viewing_time"":1176}]","","","","","","","","","","","","","","","","","","","","","",""
"934","","f","psychophysics","108","546463","0.0-8.0-0.0-1.1-0.1-0.48","3","3","3","3","2","4","3","2","4","4","4","0","1","-1","1","-1","0","1","0","4","5","5","5","4","4","4","4","5","3","6","7","5","6","5","6","7","6","7","4","2","2","4","5","3","4","3","3","3","1","4","3","5","2","4","3","3","3","2","4","4","4","5","7","3","7","3","5","4","6","5","5","5","7","5","5","3","5","3","4","732625560492314625","yang","169","Female","[""好我"",""坏我"",""坏她"",""好她""]","[""强我"",""弱我"",""弱她"",""强她""]","","","","","","","","nonmatch","","","","","","","","","","key","f","16.683643478260414","960","536","j","false","match","img/ellipse.png","好我","好我","prac_ALT2_moral","practice_moral","","","","","","","","",""
"null","<span style='color:red; font-size: 70px;'>错误! </span>","null","html-keyboard-response","109","546964","0.0-8.0-0.0-1.1-0.1-1.48","3","3","3","3","2","4","3","2","4","4","4","0","1","-1","1","-1","0","1","0","4","5","5","5","4","4","4","4","5","3","6","7","5","6","5","6","7","6","7","4","2","2","4","5","3","4","3","3","3","1","4","3","5","2","4","3","3","3","2","4","4","4","5","7","3","7","3","5","4","6","5","5","5","7","5","5","3","5","3","4","732625560492314625","yang","169","Female","[""好我"",""坏我"",""坏她"",""好她""]","[""强我"",""弱我"",""弱她"",""强她""]","","","","","","","","","","","","","","","","","","","","","","","","","","","","","","feedback_test","","","","","","","","",""
"985","","f","psychophysics","110","548951","0.0-8.0-0.0-1.1-0.1-0.49","3","3","3","3","2","4","3","2","4","4","4","0","1","-1","1","-1","0","1","0","4","5","5","5","4","4","4","4","5","3","6","7","5","6","5","6","7","6","7","4","2","2","4","5","3","4","3","3","3","1","4","3","5","2","4","3","3","3","2","4","4","4","5","7","3","7","3","5","4","6","5","5","5","7","5","5","3","5","3","4","732625560492314625","yang","169","Female","[""好我"",""坏我"",""坏她"",""好她""]","[""强我"",""弱我"",""弱她"",""强她""]","","","","","","","","nonmatch","","","","","","","","","","key","f","16.683440677965674","960","536","j","false","match","img/trapezoid.png","好她","好她","prac_ALT2_moral","practice_moral","","","","","","","","",""
"null","<span style='color:red; font-size: 70px;'>错误! </span>","null","html-keyboard-response","111","549452","0.0-8.0-0.0-1.1-0.1-1.49","3","3","3","3","2","4","3","2","4","4","4","0","1","-1","1","-1","0","1","0","4","5","5","5","4","4","4","4","5","3","6","7","5","6","5","6","7","6","7","4","2","2","4","5","3","4","3","3","3","1","4","3","5","2","4","3","3","3","2","4","4","4","5","7","3","7","3","5","4","6","5","5","5","7","5","5","3","5","3","4","732625560492314625","yang","169","Female","[""好我"",""坏我"",""坏她"",""好她""]","[""强我"",""弱我"",""弱她"",""强她""]","","","","","","","","","","","","","","","","","","","","","","","","","","","","","","feedback_test","","","","","","","","",""
"963","","j","psychophysics","112","551417","0.0-8.0-0.0-1.1-0.1-0.50","3","3","3","3","2","4","3","2","4","4","4","0","1","-1","1","-1","0","1","0","4","5","5","5","4","4","4","4","5","3","6","7","5","6","5","6","7","6","7","4","2","2","4","5","3","4","3","3","3","1","4","3","5","2","4","3","3","3","2","4","4","4","5","7","3","7","3","5","4","6","5","5","5","7","5","5","3","5","3","4","732625560492314625","yang","169","Female","[""好我"",""坏我"",""坏她"",""好她""]","[""强我"",""弱我"",""弱她"",""强她""]","","","","","","","","match","","","","","","","","","","key","j","16.683299145299113","960","536","j","true","match","img/pentagon.png","坏我","坏我","prac_ALT2_moral","practice_moral","","","","","","","","",""
"null","<span style='color:GreenYellow; font-size: 70px;'>正确! </span>","null","html-keyboard-response","113","551918","0.0-8.0-0.0-1.1-0.1-1.50","3","3","3","3","2","4","3","2","4","4","4","0","1","-1","1","-1","0","1","0","4","5","5","5","4","4","4","4","5","3","6","7","5","6","5","6","7","6","7","4","2","2","4","5","3","4","3","3","3","1","4","3","5","2","4","3","3","3","2","4","4","4","5","7","3","7","3","5","4","6","5","5","5","7","5","5","3","5","3","4","732625560492314625","yang","169","Female","[""好我"",""坏我"",""坏她"",""好她""]","[""强我"",""弱我"",""弱她"",""强她""]","","","","","","","","","","","","","","","","","","","","","","","","","","","","","","feedback_test","","","","","","","","",""
"807","","j","psychophysics","114","553727","0.0-8.0-0.0-1.1-0.1-0.51","3","3","3","3","2","4","3","2","4","4","4","0","1","-1","1","-1","0","1","0","4","5","5","5","4","4","4","4","5","3","6","7","5","6","5","6","7","6","7","4","2","2","4","5","3","4","3","3","3","1","4","3","5","2","4","3","3","3","2","4","4","4","5","7","3","7","3","5","4","6","5","5","5","7","5","5","3","5","3","4","732625560492314625","yang","169","Female","[""好我"",""坏我"",""坏她"",""好她""]","[""强我"",""弱我"",""弱她"",""强她""]","","","","","","","","match","","","","","","","","","","key","j","16.682794392523444","960","536","f","false","nonmatch","img/pentagon.png","好我","坏我","prac_ALT2_moral","practice_moral","","","","","","","","",""
"null","<span style='color:red; font-size: 70px;'>错误! </span>","null","html-keyboard-response","115","554228","0.0-8.0-0.0-1.1-0.1-1.51","3","3","3","3","2","4","3","2","4","4","4","0","1","-1","1","-1","0","1","0","4","5","5","5","4","4","4","4","5","3","6","7","5","6","5","6","7","6","7","4","2","2","4","5","3","4","3","3","3","1","4","3","5","2","4","3","3","3","2","4","4","4","5","7","3","7","3","5","4","6","5","5","5","7","5","5","3","5","3","4","732625560492314625","yang","169","Female","[""好我"",""坏我"",""坏她"",""好她""]","[""强我"",""弱我"",""弱她"",""强她""]","","","","","","","","","","","","","","","","","","","","","","","","","","","","","","feedback_test","","","","","","","","",""
"753","","j","psychophysics","116","555983","0.0-8.0-0.0-1.1-0.1-0.52","3","3","3","3","2","4","3","2","4","4","4","0","1","-1","1","-1","0","1","0","4","5","5","5","4","4","4","4","5","3","6","7","5","6","5","6","7","6","7","4","2","2","4","5","3","4","3","3","3","1","4","3","5","2","4","3","3","3","2","4","4","4","5","7","3","7","3","5","4","6","5","5","5","7","5","5","3","5","3","4","732625560492314625","yang","169","Female","[""好我"",""坏我"",""坏她"",""好她""]","[""强我"",""弱我"",""弱她"",""强她""]","","","","","","","","match","","","","","","","","","","key","j","16.683701923076743","960","536","j","true","match","img/triangle.png","坏她","坏她","prac_ALT2_moral","practice_moral","","","","","","","","",""
"null","<span style='color:GreenYellow; font-size: 70px;'>正确! </span>","null","html-keyboard-response","117","556484","0.0-8.0-0.0-1.1-0.1-1.52","3","3","3","3","2","4","3","2","4","4","4","0","1","-1","1","-1","0","1","0","4","5","5","5","4","4","4","4","5","3","6","7","5","6","5","6","7","6","7","4","2","2","4","5","3","4","3","3","3","1","4","3","5","2","4","3","3","3","2","4","4","4","5","7","3","7","3","5","4","6","5","5","5","7","5","5","3","5","3","4","732625560492314625","yang","169","Female","[""好我"",""坏我"",""坏她"",""好她""]","[""强我"",""弱我"",""弱她"",""强她""]","","","","","","","","","","","","","","","","","","","","","","","","","","","","","","feedback_test","","","","","","","","",""
"1106","","f","psychophysics","118","558592","0.0-8.0-0.0-1.1-0.1-0.53","3","3","3","3","2","4","3","2","4","4","4","0","1","-1","1","-1","0","1","0","4","5","5","5","4","4","4","4","5","3","6","7","5","6","5","6","7","6","7","4","2","2","4","5","3","4","3","3","3","1","4","3","5","2","4","3","3","3","2","4","4","4","5","7","3","7","3","5","4","6","5","5","5","7","5","5","3","5","3","4","732625560492314625","yang","169","Female","[""好我"",""坏我"",""坏她"",""好她""]","[""强我"",""弱我"",""弱她"",""强她""]","","","","","","","","nonmatch","","","","","","","","","","key","f","16.683512000000103","960","536","f","true","nonmatch","img/triangle.png","好我","坏她","prac_ALT2_moral","practice_moral","","","","","","","","",""
"null","<span style='color:GreenYellow; font-size: 70px;'>正确! </span>","null","html-keyboard-response","119","559094","0.0-8.0-0.0-1.1-0.1-1.53","3","3","3","3","2","4","3","2","4","4","4","0","1","-1","1","-1","0","1","0","4","5","5","5","4","4","4","4","5","3","6","7","5","6","5","6","7","6","7","4","2","2","4","5","3","4","3","3","3","1","4","3","5","2","4","3","3","3","2","4","4","4","5","7","3","7","3","5","4","6","5","5","5","7","5","5","3","5","3","4","732625560492314625","yang","169","Female","[""好我"",""坏我"",""坏她"",""好她""]","[""强我"",""弱我"",""弱她"",""强她""]","","","","","","","","","","","","","","","","","","","","","","","","","","","","","","feedback_test","","","","","","","","",""
"815","","f","psychophysics","120","560910","0.0-8.0-0.0-1.1-0.1-0.54","3","3","3","3","2","4","3","2","4","4","4","0","1","-1","1","-1","0","1","0","4","5","5","5","4","4","4","4","5","3","6","7","5","6","5","6","7","6","7","4","2","2","4","5","3","4","3","3","3","1","4","3","5","2","4","3","3","3","2","4","4","4","5","7","3","7","3","5","4","6","5","5","5","7","5","5","3","5","3","4","732625560492314625","yang","169","Female","[""好我"",""坏我"",""坏她"",""好她""]","[""强我"",""弱我"",""弱她"",""强她""]","","","","","","","","nonmatch","","","","","","","","","","key","f","16.6837129629631","960","536","f","true","nonmatch","img/ellipse.png","坏我","好我","prac_ALT2_moral","practice_moral","","","","","","","","",""
"null","<span style='color:GreenYellow; font-size: 70px;'>正确! </span>","null","html-keyboard-response","121","561411","0.0-8.0-0.0-1.1-0.1-1.54","3","3","3","3","2","4","3","2","4","4","4","0","1","-1","1","-1","0","1","0","4","5","5","5","4","4","4","4","5","3","6","7","5","6","5","6","7","6","7","4","2","2","4","5","3","4","3","3","3","1","4","3","5","2","4","3","3","3","2","4","4","4","5","7","3","7","3","5","4","6","5","5","5","7","5","5","3","5","3","4","732625560492314625","yang","169","Female","[""好我"",""坏我"",""坏她"",""好她""]","[""强我"",""弱我"",""弱她"",""强她""]","","","","","","","","","","","","","","","","","","","","","","","","","","","","","","feedback_test","","","","","","","","",""
"1169","","j","psychophysics","122","563582","0.0-8.0-0.0-1.1-0.1-0.55","3","3","3","3","2","4","3","2","4","4","4","0","1","-1","1","-1","0","1","0","4","5","5","5","4","4","4","4","5","3","6","7","5","6","5","6","7","6","7","4","2","2","4","5","3","4","3","3","3","1","4","3","5","2","4","3","3","3","2","4","4","4","5","7","3","7","3","5","4","6","5","5","5","7","5","5","3","5","3","4","732625560492314625","yang","169","Female","[""好我"",""坏我"",""坏她"",""好她""]","[""强我"",""弱我"",""弱她"",""强她""]","","","","","","","","match","","","","","","","","","","key","j","16.682806201549898","960","536","j","true","match","img/ellipse.png","好我","好我","prac_ALT2_moral","practice_moral","","","","","","","","",""
"null","<span style='color:GreenYellow; font-size: 70px;'>正确! </span>","null","html-keyboard-response","123","564083","0.0-8.0-0.0-1.1-0.1-1.55","3","3","3","3","2","4","3","2","4","4","4","0","1","-1","1","-1","0","1","0","4","5","5","5","4","4","4","4","5","3","6","7","5","6","5","6","7","6","7","4","2","2","4","5","3","4","3","3","3","1","4","3","5","2","4","3","3","3","2","4","4","4","5","7","3","7","3","5","4","6","5","5","5","7","5","5","3","5","3","4","732625560492314625","yang","169","Female","[""好我"",""坏我"",""坏她"",""好她""]","[""强我"",""弱我"",""弱她"",""强她""]","","","","","","","","","","","","","","","","","","","","","","","","","","","","","","feedback_test","","","","","","","","",""
"915","","j","psychophysics","124","566000","0.0-8.0-0.0-1.1-0.1-0.56","3","3","3","3","2","4","3","2","4","4","4","0","1","-1","1","-1","0","1","0","4","5","5","5","4","4","4","4","5","3","6","7","5","6","5","6","7","6","7","4","2","2","4","5","3","4","3","3","3","1","4","3","5","2","4","3","3","3","2","4","4","4","5","7","3","7","3","5","4","6","5","5","5","7","5","5","3","5","3","4","732625560492314625","yang","169","Female","[""好我"",""坏我"",""坏她"",""好她""]","[""强我"",""弱我"",""弱她"",""强她""]","","","","","","","","match","","","","","","","","","","key","j","16.68407894736932","960","536","j","true","match","img/pentagon.png","坏我","坏我","prac_ALT2_moral","practice_moral","","","","","","","","",""
"null","<span style='color:GreenYellow; font-size: 70px;'>正确! </span>","null","html-keyboard-response","125","566501","0.0-8.0-0.0-1.1-0.1-1.56","3","3","3","3","2","4","3","2","4","4","4","0","1","-1","1","-1","0","1","0","4","5","5","5","4","4","4","4","5","3","6","7","5","6","5","6","7","6","7","4","2","2","4","5","3","4","3","3","3","1","4","3","5","2","4","3","3","3","2","4","4","4","5","7","3","7","3","5","4","6","5","5","5","7","5","5","3","5","3","4","732625560492314625","yang","169","Female","[""好我"",""坏我"",""坏她"",""好她""]","[""强我"",""弱我"",""弱她"",""强她""]","","","","","","","","","","","","","","","","","","","","","","","","","","","","","","feedback_test","","","","","","","","",""
"833","","f","psychophysics","126","568335","0.0-8.0-0.0-1.1-0.1-0.57","3","3","3","3","2","4","3","2","4","4","4","0","1","-1","1","-1","0","1","0","4","5","5","5","4","4","4","4","5","3","6","7","5","6","5","6","7","6","7","4","2","2","4","5","3","4","3","3","3","1","4","3","5","2","4","3","3","3","2","4","4","4","5","7","3","7","3","5","4","6","5","5","5","7","5","5","3","5","3","4","732625560492314625","yang","169","Female","[""好我"",""坏我"",""坏她"",""好她""]","[""强我"",""弱我"",""弱她"",""强她""]","","","","","","","","nonmatch","","","","","","","","","","key","f","16.68305504587137","960","536","f","true","nonmatch","img/trapezoid.png","坏她","好她","prac_ALT2_moral","practice_moral","","","","","","","","",""
"null","<span style='color:GreenYellow; font-size: 70px;'>正确! </span>","null","html-keyboard-response","127","568838","0.0-8.0-0.0-1.1-0.1-1.57","3","3","3","3","2","4","3","2","4","4","4","0","1","-1","1","-1","0","1","0","4","5","5","5","4","4","4","4","5","3","6","7","5","6","5","6","7","6","7","4","2","2","4","5","3","4","3","3","3","1","4","3","5","2","4","3","3","3","2","4","4","4","5","7","3","7","3","5","4","6","5","5","5","7","5","5","3","5","3","4","732625560492314625","yang","169","Female","[""好我"",""坏我"",""坏她"",""好她""]","[""强我"",""弱我"",""弱她"",""强她""]","","","","","","","","","","","","","","","","","","","","","","","","","","","","","","feedback_test","","","","","","","","",""
"871","","f","psychophysics","128","570711","0.0-8.0-0.0-1.1-0.1-0.58","3","3","3","3","2","4","3","2","4","4","4","0","1","-1","1","-1","0","1","0","4","5","5","5","4","4","4","4","5","3","6","7","5","6","5","6","7","6","7","4","2","2","4","5","3","4","3","3","3","1","4","3","5","2","4","3","3","3","2","4","4","4","5","7","3","7","3","5","4","6","5","5","5","7","5","5","3","5","3","4","732625560492314625","yang","169","Female","[""好我"",""坏我"",""坏她"",""好她""]","[""强我"",""弱我"",""弱她"",""强她""]","","","","","","","","nonmatch","","","","","","","","","","key","f","16.683846846846905","960","536","f","true","nonmatch","img/pentagon.png","坏她","坏我","prac_ALT2_moral","practice_moral","","","","","","","","",""
"null","<span style='color:GreenYellow; font-size: 70px;'>正确! </span>","null","html-keyboard-response","129","571212","0.0-8.0-0.0-1.1-0.1-1.58","3","3","3","3","2","4","3","2","4","4","4","0","1","-1","1","-1","0","1","0","4","5","5","5","4","4","4","4","5","3","6","7","5","6","5","6","7","6","7","4","2","2","4","5","3","4","3","3","3","1","4","3","5","2","4","3","3","3","2","4","4","4","5","7","3","7","3","5","4","6","5","5","5","7","5","5","3","5","3","4","732625560492314625","yang","169","Female","[""好我"",""坏我"",""坏她"",""好她""]","[""强我"",""弱我"",""弱她"",""强她""]","","","","","","","","","","","","","","","","","","","","","","","","","","","","","","feedback_test","","","","","","","","",""
"826","","f","psychophysics","130","573039","0.0-8.0-0.0-1.1-0.1-0.59","3","3","3","3","2","4","3","2","4","4","4","0","1","-1","1","-1","0","1","0","4","5","5","5","4","4","4","4","5","3","6","7","5","6","5","6","7","6","7","4","2","2","4","5","3","4","3","3","3","1","4","3","5","2","4","3","3","3","2","4","4","4","5","7","3","7","3","5","4","6","5","5","5","7","5","5","3","5","3","4","732625560492314625","yang","169","Female","[""好我"",""坏我"",""坏她"",""好她""]","[""强我"",""弱我"",""弱她"",""强她""]","","","","","","","","nonmatch","","","","","","","","","","key","f","16.683183486238036","960","536","f","true","nonmatch","img/ellipse.png","坏她","好我","prac_ALT2_moral","practice_moral","","","","","","","","",""
"null","<span style='color:GreenYellow; font-size: 70px;'>正确! </span>","null","html-keyboard-response","131","573540","0.0-8.0-0.0-1.1-0.1-1.59","3","3","3","3","2","4","3","2","4","4","4","0","1","-1","1","-1","0","1","0","4","5","5","5","4","4","4","4","5","3","6","7","5","6","5","6","7","6","7","4","2","2","4","5","3","4","3","3","3","1","4","3","5","2","4","3","3","3","2","4","4","4","5","7","3","7","3","5","4","6","5","5","5","7","5","5","3","5","3","4","732625560492314625","yang","169","Female","[""好我"",""坏我"",""坏她"",""好她""]","[""强我"",""弱我"",""弱她"",""强她""]","","","","","","","","","","","","","","","","","","","","","","","","","","","","","","feedback_test","","","","","","","","",""
"1128","","f","psychophysics","132","575670","0.0-8.0-0.0-1.1-0.1-0.60","3","3","3","3","2","4","3","2","4","4","4","0","1","-1","1","-1","0","1","0","4","5","5","5","4","4","4","4","5","3","6","7","5","6","5","6","7","6","7","4","2","2","4","5","3","4","3","3","3","1","4","3","5","2","4","3","3","3","2","4","4","4","5","7","3","7","3","5","4","6","5","5","5","7","5","5","3","5","3","4","732625560492314625","yang","169","Female","[""好我"",""坏我"",""坏她"",""好她""]","[""强我"",""弱我"",""弱她"",""强她""]","","","","","","","","nonmatch","","","","","","","","","","key","f","16.683579365078856","960","536","j","false","match","img/trapezoid.png","好她","好她","prac_ALT2_moral","practice_moral","","","","","","","","",""
"null","<span style='color:red; font-size: 70px;'>错误! </span>","null","html-keyboard-response","133","576172","0.0-8.0-0.0-1.1-0.1-1.60","3","3","3","3","2","4","3","2","4","4","4","0","1","-1","1","-1","0","1","0","4","5","5","5","4","4","4","4","5","3","6","7","5","6","5","6","7","6","7","4","2","2","4","5","3","4","3","3","3","1","4","3","5","2","4","3","3","3","2","4","4","4","5","7","3","7","3","5","4","6","5","5","5","7","5","5","3","5","3","4","732625560492314625","yang","169","Female","[""好我"",""坏我"",""坏她"",""好她""]","[""强我"",""弱我"",""弱她"",""强她""]","","","","","","","","","","","","","","","","","","","","","","","","","","","","","","feedback_test","","","","","","","","",""
"849","","f","psychophysics","134","578022","0.0-8.0-0.0-1.1-0.1-0.61","3","3","3","3","2","4","3","2","4","4","4","0","1","-1","1","-1","0","1","0","4","5","5","5","4","4","4","4","5","3","6","7","5","6","5","6","7","6","7","4","2","2","4","5","3","4","3","3","3","1","4","3","5","2","4","3","3","3","2","4","4","4","5","7","3","7","3","5","4","6","5","5","5","7","5","5","3","5","3","4","732625560492314625","yang","169","Female","[""好我"",""坏我"",""坏她"",""好她""]","[""强我"",""弱我"",""弱她"",""强她""]","","","","","","","","nonmatch","","","","","","","","","","key","f","16.682954128440727","960","536","f","true","nonmatch","img/trapezoid.png","坏我","好她","prac_ALT2_moral","practice_moral","","","","","","","","",""
"null","<span style='color:GreenYellow; font-size: 70px;'>正确! </span>","null","html-keyboard-response","135","578524","0.0-8.0-0.0-1.1-0.1-1.61","3","3","3","3","2","4","3","2","4","4","4","0","1","-1","1","-1","0","1","0","4","5","5","5","4","4","4","4","5","3","6","7","5","6","5","6","7","6","7","4","2","2","4","5","3","4","3","3","3","1","4","3","5","2","4","3","3","3","2","4","4","4","5","7","3","7","3","5","4","6","5","5","5","7","5","5","3","5","3","4","732625560492314625","yang","169","Female","[""好我"",""坏我"",""坏她"",""好她""]","[""强我"",""弱我"",""弱她"",""强她""]","","","","","","","","","","","","","","","","","","","","","","","","","","","","","","feedback_test","","","","","","","","",""
"1136","","f","psychophysics","136","580662","0.0-8.0-0.0-1.1-0.1-0.62","3","3","3","3","2","4","3","2","4","4","4","0","1","-1","1","-1","0","1","0","4","5","5","5","4","4","4","4","5","3","6","7","5","6","5","6","7","6","7","4","2","2","4","5","3","4","3","3","3","1","4","3","5","2","4","3","3","3","2","4","4","4","5","7","3","7","3","5","4","6","5","5","5","7","5","5","3","5","3","4","732625560492314625","yang","169","Female","[""好我"",""坏我"",""坏她"",""好她""]","[""强我"",""弱我"",""弱她"",""强她""]","","","","","","","","nonmatch","","","","","","","","","","key","f","16.683598425197157","960","536","f","true","nonmatch","img/triangle.png","好她","坏她","prac_ALT2_moral","practice_moral","","","","","","","","",""
