"rt","stimulus","response","trial_type","trial_index","time_elapsed","internal_node_id","swb_1","swb_2","swb_3","swb_4","swb_5","LOT_1","LOT_2","LOT_3","LOT_4","LOT_5","LOT_6","IPC_1","IPC_2","IPC_3","IPC_4","IPC_5","IPC_6","IPC_7","IPC_8","MorIden_1","MorIden_2","MorIden_3","MorIden_4","MorIden_5","MorIden_6","MorIden_7","MorIden_8","MorIden_9","MorIden_10","moralSeImag_1","moralSeImag_2","moralSeImag_3","moralSeImag_4","moralSeImag_5","moralSeImag_6","moralSeImag_7","moralSeImag_8","moralSeImag_9","sde_1","sde_2","sde_3","sde_4","sde_5","sde_6","sde_7","sde_8","sde_9","sde_10","trap2","sde_11","sde_12","sde_13","sde_14","sde_15","sde_16","sde_17","sde_18","sde_19","sde_20","IM_1","IM_2","IM_3","IM_4","IM_5","IM_6","IM_7","IM_8","IM_9","IM_10","IM_11","IM_12","IM_13","IM_14","IM_15","IM_16","IM_17","IM_18","IM_19","IM_20","subj_idx","friend_name","ParticipantID","Sex","Word","Word2","value","success","timeout","failed_images","failed_audio","failed_video","user_agent","responses","item_order","radio_event_ids","radio_event_times","key_event_times","mouse_event_times","straightlining","zigzagging","honeypot","view_history","response_type","key_press","avg_frame_time","center_x","center_y","correct_response","correct","identity","Image","word","condition","task_id","screen_id","time_stamp","person","valence","domain","math","status","duration","question_order","trap2_item"
"6813","
   <p><div style='color:white; font-size: 25px'>您好，欢迎参加本次实验。</div></p>
   <p><div style='color:white; font-size: 25px'>为充分保障您的权利，请确保您已经知晓并同意《参与实验同意书》以及《数据公开知情同意书》。</div></p>
   <p><div style='color:white; font-size: 25px'>如果您未见过上述内容，请咨询实验员。</div></p>
   <p style='color:white; font-size: 25px'>如果您选择继续实验，则表示您已经清楚两份知情同意书的内容并同意。</p>
   <p><div style = ""color: pink;font-size:30px;"">请确保您记得day0的实验编号，您将在本次实验输入该编号，若您忘记，请咨询实验员后作答。</div></p>
   <p><div style = ""color:lightblue;font-size:25px;"">请您尽可能认真地作答，我们将依据您在各问卷和按键任务中的作答质量发放报酬。</div></p>
   <p> <div style = ""color: green""><按空格键至下页></div> </p>
   "," ","html-keyboard-response","0","6814","0.0-0.0","7","7","7","7","7","5","5","5","5","5","5","2","1","2","2","2","2","2","2","5","5","5","5","5","4","4","4","5","5","7","7","6","8","8","6","7","8","7","7","7","7","7","7","7","7","1","7","7","1","7","6","7","7","6","6","7","7","7","7","7","7","7","7","6","7","7","7","7","7","7","6","7","7","7","7","7","7","6","7","602287984867278848","肖","498","Male","[""坏他"",""好我"",""坏我"",""好他""]","[""弱他"",""强我"",""弱我"",""强他""]","","","","","","","","","","","","","","","","","","","","","","","","","","","","","","","","","","","","","","",""
"","","","call-function","1","6815","0.0-1.0-0.0","7","7","7","7","7","5","5","5","5","5","5","2","1","2","2","2","2","2","2","5","5","5","5","5","4","4","4","5","5","7","7","6","8","8","6","7","8","7","7","7","7","7","7","7","7","1","7","7","1","7","6","7","7","6","6","7","7","7","7","7","7","7","7","6","7","7","7","7","7","7","6","7","7","7","7","7","7","6","7","602287984867278848","肖","498","Male","[""坏他"",""好我"",""坏我"",""好他""]","[""弱他"",""强我"",""弱我"",""强他""]","","","","","","","","","","","","","","","","","","","","","","","","","","","","","","","","","","","","","","",""
"7134","","[{""name"":""Sex"",""value"":""0""},{""name"":""friend_name"",""value"":""肖""},{""name"":""ParticipantID"",""value"":""498""}]","survey-html-form","2","13950","0.0-1.0-1.0","7","7","7","7","7","5","5","5","5","5","5","2","1","2","2","2","2","2","2","5","5","5","5","5","4","4","4","5","5","7","7","6","8","8","6","7","8","7","7","7","7","7","7","7","7","1","7","7","1","7","6","7","7","6","6","7","7","7","7","7","7","7","7","6","7","7","7","7","7","7","6","7","7","7","7","7","7","6","7","602287984867278848","肖","498","Male","[""坏他"",""好我"",""坏我"",""好他""]","[""弱他"",""强我"",""弱我"",""强他""]","","","","","","","","","","","","","","","","","","","","","","","","","","","","","","","","","","","","","","",""
"","","","preload","3","14173","0.0-2.0","7","7","7","7","7","5","5","5","5","5","5","2","1","2","2","2","2","2","2","5","5","5","5","5","4","4","4","5","5","7","7","6","8","8","6","7","8","7","7","7","7","7","7","7","7","1","7","7","1","7","6","7","7","6","6","7","7","7","7","7","7","7","7","6","7","7","7","7","7","7","6","7","7","7","7","7","7","6","7","602287984867278848","肖","498","Male","[""坏他"",""好我"",""坏我"",""好他""]","[""弱他"",""强我"",""弱我"",""强他""]","","true","false","[]","[]","[]","","","","","","","","","","","","","","","","","","","","","","","","","","","","","","","","",""
"","","","fullscreen","4","29947","0.0-3.0","7","7","7","7","7","5","5","5","5","5","5","2","1","2","2","2","2","2","2","5","5","5","5","5","4","4","4","5","5","7","7","6","8","8","6","7","8","7","7","7","7","7","7","7","7","1","7","7","1","7","6","7","7","6","6","7","7","7","7","7","7","7","7","6","7","7","7","7","7","7","6","7","7","7","7","7","7","6","7","602287984867278848","肖","498","Male","[""坏他"",""好我"",""坏我"",""好他""]","[""弱他"",""强我"",""弱我"",""强他""]","","true","","","","","{}","","","","","","","","","","","","","","","","","","","","","","","","","","","","","","","",""
"5617.299999952316","","{""Q01"":""7"",""Q02"":""7"",""Q03"":""7"",""Q04"":""7"",""Q05"":""7""}","survey-template","5","35567","0.0-4.0","7","7","7","7","7","5","5","5","5","5","5","2","1","2","2","2","2","2","2","5","5","5","5","5","4","4","4","5","5","7","7","6","8","8","6","7","8","7","7","7","7","7","7","7","7","1","7","7","1","7","6","7","7","6","6","7","7","7","7","7","7","7","7","6","7","7","7","7","7","7","6","7","7","7","7","7","7","6","7","602287984867278848","肖","498","Male","[""坏他"",""好我"",""坏我"",""好他""]","[""弱他"",""强我"",""弱我"",""强他""]","","","","","","","","{""Q01"":""7"",""Q02"":""7"",""Q03"":""7"",""Q04"":""7"",""Q05"":""7""}","[0,1,2,3,4]","[""Q01"",""Q02"",""Q03"",""Q04"",""Q05""]","[1992.5,2552.2999999523163,3592.2999999523163,4160.200000047684,4848.299999952316]","[]","[1992.5,2552.2999999523163,3272.2000000476837,3592.2999999523163,4160.200000047684,4848.299999952316,5616.299999952316]","1","0","0","","","","","","","","","","","","","","","","","","","","","","",""
"22404.200000047684","","{""Q01"":""5"",""Q02"":""5"",""Q03"":""5"",""Q04"":""5"",""Q05"":""5"",""Q06"":""5""}","survey-template","6","57975","0.0-5.0","7","7","7","7","7","5","5","5","5","5","5","2","1","2","2","2","2","2","2","5","5","5","5","5","4","4","4","5","5","7","7","6","8","8","6","7","8","7","7","7","7","7","7","7","7","1","7","7","1","7","6","7","7","6","6","7","7","7","7","7","7","7","7","6","7","7","7","7","7","7","6","7","7","7","7","7","7","6","7","602287984867278848","肖","498","Male","[""坏他"",""好我"",""坏我"",""好他""]","[""弱他"",""强我"",""弱我"",""强他""]","","","","","","","","{""Q01"":""5"",""Q02"":""5"",""Q03"":""5"",""Q04"":""5"",""Q05"":""5"",""Q06"":""5""}","[0,1,2,3,4,5]","[""Q01"",""Q02"",""Q03"",""Q04"",""Q05"",""Q06""]","[6371.099999904633,7739.099999904633,9027.099999904633,10051.099999904633,11307.099999904633,12355.099999904633]","[]","[6371.099999904633,7739.099999904633,9027.099999904633,10051.099999904633,11307.099999904633,12355.099999904633,22403.200000047684]","0.5","0.8","0","","","","","","","","","","","","","","","","","","","","","","",""
"7052.099999904633","","{""Q01"":""2"",""Q02"":""1"",""Q03"":""2"",""Q04"":""2"",""Q05"":""2"",""Q06"":""2"",""Q07"":""2"",""Q08"":""2""}","survey-template","7","65032","0.0-6.0","7","7","7","7","7","5","5","5","5","5","5","2","1","2","2","2","2","2","2","5","5","5","5","5","4","4","4","5","5","7","7","6","8","8","6","7","8","7","7","7","7","7","7","7","7","1","7","7","1","7","6","7","7","6","6","7","7","7","7","7","7","7","7","6","7","7","7","7","7","7","6","7","7","7","7","7","7","6","7","602287984867278848","肖","498","Male","[""坏他"",""好我"",""坏我"",""好他""]","[""弱他"",""强我"",""弱我"",""强他""]","","","","","","","","{""Q01"":""2"",""Q02"":""1"",""Q03"":""2"",""Q04"":""2"",""Q05"":""2"",""Q06"":""2"",""Q07"":""2"",""Q08"":""2""}","[0,1,2,3,4,5,6,7]","[""Q01"",""Q02"",""Q03"",""Q04"",""Q05"",""Q06"",""Q07"",""Q08""]","[1571.0999999046326,2250.899999856949,2970.7999999523163,3355,3754.899999856949,4587.699999809265,5210.899999856949,5827.299999952316]","[]","[1571.0999999046326,2250.899999856949,2970.7999999523163,3355,3754.899999856949,4290.899999856949,4587.699999809265,5210.899999856949,5827.299999952316,6642.799999952316,7050.899999856949]","0.875","0.2857142857142857","0","","","","","","","","","","","","","","","","","","","","","","",""
"2596","","","instructions","8","67630","0.0-7.0","7","7","7","7","7","5","5","5","5","5","5","2","1","2","2","2","2","2","2","5","5","5","5","5","4","4","4","5","5","7","7","6","8","8","6","7","8","7","7","7","7","7","7","7","7","1","7","7","1","7","6","7","7","6","6","7","7","7","7","7","7","7","7","6","7","7","7","7","7","7","6","7","7","7","7","7","7","6","7","602287984867278848","肖","498","Male","[""坏他"",""好我"",""坏我"",""好他""]","[""弱他"",""强我"",""弱我"",""强他""]","","","","","","","","","","","","","","","","","[{""page_index"":0,""viewing_time"":2595}]","","","","","","","","","","","","","","","","","","","","","",""
"72687","","","instructions","9","140318","0.0-8.0-1.0-0.0","7","7","7","7","7","5","5","5","5","5","5","2","1","2","2","2","2","2","2","5","5","5","5","5","4","4","4","5","5","7","7","6","8","8","6","7","8","7","7","7","7","7","7","7","7","1","7","7","1","7","6","7","7","6","6","7","7","7","7","7","7","7","7","6","7","7","7","7","7","7","6","7","7","7","7","7","7","6","7","602287984867278848","肖","498","Male","[""坏他"",""好我"",""坏我"",""好他""]","[""弱他"",""强我"",""弱我"",""强他""]","","","","","","","","","","","","","","","","","[{""page_index"":0,""viewing_time"":1830},{""page_index"":1,""viewing_time"":68488},{""page_index"":2,""viewing_time"":1664},{""page_index"":3,""viewing_time"":704}]","","","","","","","","","","","","","","","","","","","","","",""
"797","","j","psychophysics","10","142119","0.0-8.0-1.0-1.0-0.0-0.0","7","7","7","7","7","5","5","5","5","5","5","2","1","2","2","2","2","2","2","5","5","5","5","5","4","4","4","5","5","7","7","6","8","8","6","7","8","7","7","7","7","7","7","7","7","1","7","7","1","7","6","7","7","6","6","7","7","7","7","7","7","7","7","6","7","7","7","7","7","7","6","7","7","7","7","7","7","6","7","602287984867278848","肖","498","Male","[""坏他"",""好我"",""坏我"",""好他""]","[""弱他"",""强我"",""弱我"",""强他""]","","","","","","","","nonmatch","","","","","","","","","","key","j","16.664485981308466","768","428","j","true","nonmatch","img/diamond.png","弱他","弱我","prac_ALT2_ability","practice_ability","","","","","","","","",""
"null","<span style='color:GreenYellow; font-size: 70px;'>正确! </span>","null","html-keyboard-response","11","142621","0.0-8.0-1.0-1.0-0.0-1.0","7","7","7","7","7","5","5","5","5","5","5","2","1","2","2","2","2","2","2","5","5","5","5","5","4","4","4","5","5","7","7","6","8","8","6","7","8","7","7","7","7","7","7","7","7","1","7","7","1","7","6","7","7","6","6","7","7","7","7","7","7","7","7","6","7","7","7","7","7","7","6","7","7","7","7","7","7","6","7","602287984867278848","肖","498","Male","[""坏他"",""好我"",""坏我"",""好他""]","[""弱他"",""强我"",""弱我"",""强他""]","","","","","","","","","","","","","","","","","","","","","","","","","","","","","","feedback_test","","","","","","","","",""
"631","","j","psychophysics","12","144254","0.0-8.0-1.0-1.0-0.0-0.1","7","7","7","7","7","5","5","5","5","5","5","2","1","2","2","2","2","2","2","5","5","5","5","5","4","4","4","5","5","7","7","6","8","8","6","7","8","7","7","7","7","7","7","7","7","1","7","7","1","7","6","7","7","6","6","7","7","7","7","7","7","7","7","6","7","7","7","7","7","7","6","7","7","7","7","7","7","6","7","602287984867278848","肖","498","Male","[""坏他"",""好我"",""坏我"",""好他""]","[""弱他"",""强我"",""弱我"",""强他""]","","","","","","","","nonmatch","","","","","","","","","","key","j","16.66701030927817","768","428","f","false","match","img/ellipse.png","弱他","弱他","prac_ALT2_ability","practice_ability","","","","","","","","",""
"null","<span style='color:red; font-size: 70px;'>错误! </span>","null","html-keyboard-response","13","144756","0.0-8.0-1.0-1.0-0.0-1.1","7","7","7","7","7","5","5","5","5","5","5","2","1","2","2","2","2","2","2","5","5","5","5","5","4","4","4","5","5","7","7","6","8","8","6","7","8","7","7","7","7","7","7","7","7","1","7","7","1","7","6","7","7","6","6","7","7","7","7","7","7","7","7","6","7","7","7","7","7","7","6","7","7","7","7","7","7","6","7","602287984867278848","肖","498","Male","[""坏他"",""好我"",""坏我"",""好他""]","[""弱他"",""强我"",""弱我"",""强他""]","","","","","","","","","","","","","","","","","","","","","","","","","","","","","","feedback_test","","","","","","","","",""
"721","","f","psychophysics","14","146478","0.0-8.0-1.0-1.0-0.0-0.2","7","7","7","7","7","5","5","5","5","5","5","2","1","2","2","2","2","2","2","5","5","5","5","5","4","4","4","5","5","7","7","6","8","8","6","7","8","7","7","7","7","7","7","7","7","1","7","7","1","7","6","7","7","6","6","7","7","7","7","7","7","7","7","6","7","7","7","7","7","7","6","7","7","7","7","7","7","6","7","602287984867278848","肖","498","Male","[""坏他"",""好我"",""坏我"",""好他""]","[""弱他"",""强我"",""弱我"",""强他""]","","","","","","","","match","","","","","","","","","","key","f","16.666019417475784","768","428","f","true","match","img/pentagon.png","强他","强他","prac_ALT2_ability","practice_ability","","","","","","","","",""
"null","<span style='color:GreenYellow; font-size: 70px;'>正确! </span>","null","html-keyboard-response","15","146979","0.0-8.0-1.0-1.0-0.0-1.2","7","7","7","7","7","5","5","5","5","5","5","2","1","2","2","2","2","2","2","5","5","5","5","5","4","4","4","5","5","7","7","6","8","8","6","7","8","7","7","7","7","7","7","7","7","1","7","7","1","7","6","7","7","6","6","7","7","7","7","7","7","7","7","6","7","7","7","7","7","7","6","7","7","7","7","7","7","6","7","602287984867278848","肖","498","Male","[""坏他"",""好我"",""坏我"",""好他""]","[""弱他"",""强我"",""弱我"",""强他""]","","","","","","","","","","","","","","","","","","","","","","","","","","","","","","feedback_test","","","","","","","","",""
"834","","f","psychophysics","16","148814","0.0-8.0-1.0-1.0-0.0-0.3","7","7","7","7","7","5","5","5","5","5","5","2","1","2","2","2","2","2","2","5","5","5","5","5","4","4","4","5","5","7","7","6","8","8","6","7","8","7","7","7","7","7","7","7","7","1","7","7","1","7","6","7","7","6","6","7","7","7","7","7","7","7","7","6","7","7","7","7","7","7","6","7","7","7","7","7","7","6","7","602287984867278848","肖","498","Male","[""坏他"",""好我"",""坏我"",""好他""]","[""弱他"",""强我"",""弱我"",""强他""]","","","","","","","","match","","","","","","","","","","key","f","16.664220183486186","768","428","f","true","match","img/diamond.png","弱我","弱我","prac_ALT2_ability","practice_ability","","","","","","","","",""
"null","<span style='color:GreenYellow; font-size: 70px;'>正确! </span>","null","html-keyboard-response","17","149316","0.0-8.0-1.0-1.0-0.0-1.3","7","7","7","7","7","5","5","5","5","5","5","2","1","2","2","2","2","2","2","5","5","5","5","5","4","4","4","5","5","7","7","6","8","8","6","7","8","7","7","7","7","7","7","7","7","1","7","7","1","7","6","7","7","6","6","7","7","7","7","7","7","7","7","6","7","7","7","7","7","7","6","7","7","7","7","7","7","6","7","602287984867278848","肖","498","Male","[""坏他"",""好我"",""坏我"",""好他""]","[""弱他"",""强我"",""弱我"",""强他""]","","","","","","","","","","","","","","","","","","","","","","","","","","","","","","feedback_test","","","","","","","","",""
"864","","f","psychophysics","18","151182","0.0-8.0-1.0-1.0-0.0-0.4","7","7","7","7","7","5","5","5","5","5","5","2","1","2","2","2","2","2","2","5","5","5","5","5","4","4","4","5","5","7","7","6","8","8","6","7","8","7","7","7","7","7","7","7","7","1","7","7","1","7","6","7","7","6","6","7","7","7","7","7","7","7","7","6","7","7","7","7","7","7","6","7","7","7","7","7","7","6","7","602287984867278848","肖","498","Male","[""坏他"",""好我"",""坏我"",""好他""]","[""弱他"",""强我"",""弱我"",""强他""]","","","","","","","","match","","","","","","","","","","key","f","16.664864864865024","768","428","j","false","nonmatch","img/pentagon.png","弱我","强他","prac_ALT2_ability","practice_ability","","","","","","","","",""
"null","<span style='color:red; font-size: 70px;'>错误! </span>","null","html-keyboard-response","19","151684","0.0-8.0-1.0-1.0-0.0-1.4","7","7","7","7","7","5","5","5","5","5","5","2","1","2","2","2","2","2","2","5","5","5","5","5","4","4","4","5","5","7","7","6","8","8","6","7","8","7","7","7","7","7","7","7","7","1","7","7","1","7","6","7","7","6","6","7","7","7","7","7","7","7","7","6","7","7","7","7","7","7","6","7","7","7","7","7","7","6","7","602287984867278848","肖","498","Male","[""坏他"",""好我"",""坏我"",""好他""]","[""弱他"",""强我"",""弱我"",""强他""]","","","","","","","","","","","","","","","","","","","","","","","","","","","","","","feedback_test","","","","","","","","",""
"736","","f","psychophysics","20","153422","0.0-8.0-1.0-1.0-0.0-0.5","7","7","7","7","7","5","5","5","5","5","5","2","1","2","2","2","2","2","2","5","5","5","5","5","4","4","4","5","5","7","7","6","8","8","6","7","8","7","7","7","7","7","7","7","7","1","7","7","1","7","6","7","7","6","6","7","7","7","7","7","7","7","7","6","7","7","7","7","7","7","6","7","7","7","7","7","7","6","7","602287984867278848","肖","498","Male","[""坏他"",""好我"",""坏我"",""好他""]","[""弱他"",""强我"",""弱我"",""强他""]","","","","","","","","match","","","","","","","","","","key","f","16.66407766990314","768","428","f","true","match","img/triangle.png","强我","强我","prac_ALT2_ability","practice_ability","","","","","","","","",""
"null","<span style='color:GreenYellow; font-size: 70px;'>正确! </span>","null","html-keyboard-response","21","153924","0.0-8.0-1.0-1.0-0.0-1.5","7","7","7","7","7","5","5","5","5","5","5","2","1","2","2","2","2","2","2","5","5","5","5","5","4","4","4","5","5","7","7","6","8","8","6","7","8","7","7","7","7","7","7","7","7","1","7","7","1","7","6","7","7","6","6","7","7","7","7","7","7","7","7","6","7","7","7","7","7","7","6","7","7","7","7","7","7","6","7","602287984867278848","肖","498","Male","[""坏他"",""好我"",""坏我"",""好他""]","[""弱他"",""强我"",""弱我"",""强他""]","","","","","","","","","","","","","","","","","","","","","","","","","","","","","","feedback_test","","","","","","","","",""
"769","","j","psychophysics","22","155694","0.0-8.0-1.0-1.0-0.0-0.6","7","7","7","7","7","5","5","5","5","5","5","2","1","2","2","2","2","2","2","5","5","5","5","5","4","4","4","5","5","7","7","6","8","8","6","7","8","7","7","7","7","7","7","7","7","1","7","7","1","7","6","7","7","6","6","7","7","7","7","7","7","7","7","6","7","7","7","7","7","7","6","7","7","7","7","7","7","6","7","602287984867278848","肖","498","Male","[""坏他"",""好我"",""坏我"",""好他""]","[""弱他"",""强我"",""弱我"",""强他""]","","","","","","","","nonmatch","","","","","","","","","","key","j","16.664761904761793","768","428","j","true","nonmatch","img/diamond.png","强我","弱我","prac_ALT2_ability","practice_ability","","","","","","","","",""
"null","<span style='color:GreenYellow; font-size: 70px;'>正确! </span>","null","html-keyboard-response","23","156196","0.0-8.0-1.0-1.0-0.0-1.6","7","7","7","7","7","5","5","5","5","5","5","2","1","2","2","2","2","2","2","5","5","5","5","5","4","4","4","5","5","7","7","6","8","8","6","7","8","7","7","7","7","7","7","7","7","1","7","7","1","7","6","7","7","6","6","7","7","7","7","7","7","7","7","6","7","7","7","7","7","7","6","7","7","7","7","7","7","6","7","602287984867278848","肖","498","Male","[""坏他"",""好我"",""坏我"",""好他""]","[""弱他"",""强我"",""弱我"",""强他""]","","","","","","","","","","","","","","","","","","","","","","","","","","","","","","feedback_test","","","","","","","","",""
"793","","f","psychophysics","24","157990","0.0-8.0-1.0-1.0-0.0-0.7","7","7","7","7","7","5","5","5","5","5","5","2","1","2","2","2","2","2","2","5","5","5","5","5","4","4","4","5","5","7","7","6","8","8","6","7","8","7","7","7","7","7","7","7","7","1","7","7","1","7","6","7","7","6","6","7","7","7","7","7","7","7","7","6","7","7","7","7","7","7","6","7","7","7","7","7","7","6","7","602287984867278848","肖","498","Male","[""坏他"",""好我"",""坏我"",""好他""]","[""弱他"",""强我"",""弱我"",""强他""]","","","","","","","","match","","","","","","","","","","key","f","16.66509433962264","768","428","f","true","match","img/ellipse.png","弱他","弱他","prac_ALT2_ability","practice_ability","","","","","","","","",""
"null","<span style='color:GreenYellow; font-size: 70px;'>正确! </span>","null","html-keyboard-response","25","158491","0.0-8.0-1.0-1.0-0.0-1.7","7","7","7","7","7","5","5","5","5","5","5","2","1","2","2","2","2","2","2","5","5","5","5","5","4","4","4","5","5","7","7","6","8","8","6","7","8","7","7","7","7","7","7","7","7","1","7","7","1","7","6","7","7","6","6","7","7","7","7","7","7","7","7","6","7","7","7","7","7","7","6","7","7","7","7","7","7","6","7","602287984867278848","肖","498","Male","[""坏他"",""好我"",""坏我"",""好他""]","[""弱他"",""强我"",""弱我"",""强他""]","","","","","","","","","","","","","","","","","","","","","","","","","","","","","","feedback_test","","","","","","","","",""
"913","","j","psychophysics","26","160406","0.0-8.0-1.0-1.0-0.0-0.8","7","7","7","7","7","5","5","5","5","5","5","2","1","2","2","2","2","2","2","5","5","5","5","5","4","4","4","5","5","7","7","6","8","8","6","7","8","7","7","7","7","7","7","7","7","1","7","7","1","7","6","7","7","6","6","7","7","7","7","7","7","7","7","6","7","7","7","7","7","7","6","7","7","7","7","7","7","6","7","602287984867278848","肖","498","Male","[""坏他"",""好我"",""坏我"",""好他""]","[""弱他"",""强我"",""弱我"",""强他""]","","","","","","","","nonmatch","","","","","","","","","","key","j","16.664601769911297","768","428","j","true","nonmatch","img/triangle.png","弱我","强我","prac_ALT2_ability","practice_ability","","","","","","","","",""
"null","<span style='color:GreenYellow; font-size: 70px;'>正确! </span>","null","html-keyboard-response","27","160907","0.0-8.0-1.0-1.0-0.0-1.8","7","7","7","7","7","5","5","5","5","5","5","2","1","2","2","2","2","2","2","5","5","5","5","5","4","4","4","5","5","7","7","6","8","8","6","7","8","7","7","7","7","7","7","7","7","1","7","7","1","7","6","7","7","6","6","7","7","7","7","7","7","7","7","6","7","7","7","7","7","7","6","7","7","7","7","7","7","6","7","602287984867278848","肖","498","Male","[""坏他"",""好我"",""坏我"",""好他""]","[""弱他"",""强我"",""弱我"",""强他""]","","","","","","","","","","","","","","","","","","","","","","","","","","","","","","feedback_test","","","","","","","","",""
"834","","f","psychophysics","28","162742","0.0-8.0-1.0-1.0-0.0-0.9","7","7","7","7","7","5","5","5","5","5","5","2","1","2","2","2","2","2","2","5","5","5","5","5","4","4","4","5","5","7","7","6","8","8","6","7","8","7","7","7","7","7","7","7","7","1","7","7","1","7","6","7","7","6","6","7","7","7","7","7","7","7","7","6","7","7","7","7","7","7","6","7","7","7","7","7","7","6","7","602287984867278848","肖","498","Male","[""坏他"",""好我"",""坏我"",""好他""]","[""弱他"",""强我"",""弱我"",""强他""]","","","","","","","","match","","","","","","","","","","key","f","16.664220183486186","768","428","j","false","nonmatch","img/diamond.png","强他","弱我","prac_ALT2_ability","practice_ability","","","","","","","","",""
"null","<span style='color:red; font-size: 70px;'>错误! </span>","null","html-keyboard-response","29","163244","0.0-8.0-1.0-1.0-0.0-1.9","7","7","7","7","7","5","5","5","5","5","5","2","1","2","2","2","2","2","2","5","5","5","5","5","4","4","4","5","5","7","7","6","8","8","6","7","8","7","7","7","7","7","7","7","7","1","7","7","1","7","6","7","7","6","6","7","7","7","7","7","7","7","7","6","7","7","7","7","7","7","6","7","7","7","7","7","7","6","7","602287984867278848","肖","498","Male","[""坏他"",""好我"",""坏我"",""好他""]","[""弱他"",""强我"",""弱我"",""强他""]","","","","","","","","","","","","","","","","","","","","","","","","","","","","","","feedback_test","","","","","","","","",""
"753","","f","psychophysics","30","164998","0.0-8.0-1.0-1.0-0.0-0.10","7","7","7","7","7","5","5","5","5","5","5","2","1","2","2","2","2","2","2","5","5","5","5","5","4","4","4","5","5","7","7","6","8","8","6","7","8","7","7","7","7","7","7","7","7","1","7","7","1","7","6","7","7","6","6","7","7","7","7","7","7","7","7","6","7","7","7","7","7","7","6","7","7","7","7","7","7","6","7","602287984867278848","肖","498","Male","[""坏他"",""好我"",""坏我"",""好他""]","[""弱他"",""强我"",""弱我"",""强他""]","","","","","","","","match","","","","","","","","","","key","f","16.665384615384447","768","428","j","false","nonmatch","img/ellipse.png","强我","弱他","prac_ALT2_ability","practice_ability","","","","","","","","",""
"null","<span style='color:red; font-size: 70px;'>错误! </span>","null","html-keyboard-response","31","165508","0.0-8.0-1.0-1.0-0.0-1.10","7","7","7","7","7","5","5","5","5","5","5","2","1","2","2","2","2","2","2","5","5","5","5","5","4","4","4","5","5","7","7","6","8","8","6","7","8","7","7","7","7","7","7","7","7","1","7","7","1","7","6","7","7","6","6","7","7","7","7","7","7","7","7","6","7","7","7","7","7","7","6","7","7","7","7","7","7","6","7","602287984867278848","肖","498","Male","[""坏他"",""好我"",""坏我"",""好他""]","[""弱他"",""强我"",""弱我"",""强他""]","","","","","","","","","","","","","","","","","","","","","","","","","","","","","","feedback_test","","","","","","","","",""
"1009","","f","psychophysics","32","167518","0.0-8.0-1.0-1.0-0.0-0.11","7","7","7","7","7","5","5","5","5","5","5","2","1","2","2","2","2","2","2","5","5","5","5","5","4","4","4","5","5","7","7","6","8","8","6","7","8","7","7","7","7","7","7","7","7","1","7","7","1","7","6","7","7","6","6","7","7","7","7","7","7","7","7","6","7","7","7","7","7","7","6","7","7","7","7","7","7","6","7","602287984867278848","肖","498","Male","[""坏他"",""好我"",""坏我"",""好他""]","[""弱他"",""强我"",""弱我"",""强他""]","","","","","","","","match","","","","","","","","","","key","f","16.66470588235299","768","428","j","false","nonmatch","img/pentagon.png","强我","强他","prac_ALT2_ability","practice_ability","","","","","","","","",""
"null","<span style='color:red; font-size: 70px;'>错误! </span>","null","html-keyboard-response","33","168019","0.0-8.0-1.0-1.0-0.0-1.11","7","7","7","7","7","5","5","5","5","5","5","2","1","2","2","2","2","2","2","5","5","5","5","5","4","4","4","5","5","7","7","6","8","8","6","7","8","7","7","7","7","7","7","7","7","1","7","7","1","7","6","7","7","6","6","7","7","7","7","7","7","7","7","6","7","7","7","7","7","7","6","7","7","7","7","7","7","6","7","602287984867278848","肖","498","Male","[""坏他"",""好我"",""坏我"",""好他""]","[""弱他"",""强我"",""弱我"",""强他""]","","","","","","","","","","","","","","","","","","","","","","","","","","","","","","feedback_test","","","","","","","","",""
"890","","f","psychophysics","34","169910","0.0-8.0-1.0-1.0-0.0-0.12","7","7","7","7","7","5","5","5","5","5","5","2","1","2","2","2","2","2","2","5","5","5","5","5","4","4","4","5","5","7","7","6","8","8","6","7","8","7","7","7","7","7","7","7","7","1","7","7","1","7","6","7","7","6","6","7","7","7","7","7","7","7","7","6","7","7","7","7","7","7","6","7","7","7","7","7","7","6","7","602287984867278848","肖","498","Male","[""坏他"",""好我"",""坏我"",""好他""]","[""弱他"",""强我"",""弱我"",""强他""]","","","","","","","","match","","","","","","","","","","key","f","16.664601769911556","768","428","f","true","match","img/pentagon.png","强他","强他","prac_ALT2_ability","practice_ability","","","","","","","","",""
"null","<span style='color:GreenYellow; font-size: 70px;'>正确! </span>","null","html-keyboard-response","35","170412","0.0-8.0-1.0-1.0-0.0-1.12","7","7","7","7","7","5","5","5","5","5","5","2","1","2","2","2","2","2","2","5","5","5","5","5","4","4","4","5","5","7","7","6","8","8","6","7","8","7","7","7","7","7","7","7","7","1","7","7","1","7","6","7","7","6","6","7","7","7","7","7","7","7","7","6","7","7","7","7","7","7","6","7","7","7","7","7","7","6","7","602287984867278848","肖","498","Male","[""坏他"",""好我"",""坏我"",""好他""]","[""弱他"",""强我"",""弱我"",""强他""]","","","","","","","","","","","","","","","","","","","","","","","","","","","","","","feedback_test","","","","","","","","",""
"777","","j","psychophysics","36","172190","0.0-8.0-1.0-1.0-0.0-0.13","7","7","7","7","7","5","5","5","5","5","5","2","1","2","2","2","2","2","2","5","5","5","5","5","4","4","4","5","5","7","7","6","8","8","6","7","8","7","7","7","7","7","7","7","7","1","7","7","1","7","6","7","7","6","6","7","7","7","7","7","7","7","7","6","7","7","7","7","7","7","6","7","7","7","7","7","7","6","7","602287984867278848","肖","498","Male","[""坏他"",""好我"",""坏我"",""好他""]","[""弱他"",""强我"",""弱我"",""强他""]","","","","","","","","nonmatch","","","","","","","","","","key","j","16.664150943396173","768","428","j","true","nonmatch","img/ellipse.png","强他","弱他","prac_ALT2_ability","practice_ability","","","","","","","","",""
"null","<span style='color:GreenYellow; font-size: 70px;'>正确! </span>","null","html-keyboard-response","37","172692","0.0-8.0-1.0-1.0-0.0-1.13","7","7","7","7","7","5","5","5","5","5","5","2","1","2","2","2","2","2","2","5","5","5","5","5","4","4","4","5","5","7","7","6","8","8","6","7","8","7","7","7","7","7","7","7","7","1","7","7","1","7","6","7","7","6","6","7","7","7","7","7","7","7","7","6","7","7","7","7","7","7","6","7","7","7","7","7","7","6","7","602287984867278848","肖","498","Male","[""坏他"",""好我"",""坏我"",""好他""]","[""弱他"",""强我"",""弱我"",""强他""]","","","","","","","","","","","","","","","","","","","","","","","","","","","","","","feedback_test","","","","","","","","",""
"1089","","j","psychophysics","38","174782","0.0-8.0-1.0-1.0-0.0-0.14","7","7","7","7","7","5","5","5","5","5","5","2","1","2","2","2","2","2","2","5","5","5","5","5","4","4","4","5","5","7","7","6","8","8","6","7","8","7","7","7","7","7","7","7","7","1","7","7","1","7","6","7","7","6","6","7","7","7","7","7","7","7","7","6","7","7","7","7","7","7","6","7","7","7","7","7","7","6","7","602287984867278848","肖","498","Male","[""坏他"",""好我"",""坏我"",""好他""]","[""弱他"",""强我"",""弱我"",""强他""]","","","","","","","","nonmatch","","","","","","","","","","key","j","16.66532258064516","768","428","j","true","nonmatch","img/triangle.png","弱他","强我","prac_ALT2_ability","practice_ability","","","","","","","","",""
"null","<span style='color:GreenYellow; font-size: 70px;'>正确! </span>","null","html-keyboard-response","39","175284","0.0-8.0-1.0-1.0-0.0-1.14","7","7","7","7","7","5","5","5","5","5","5","2","1","2","2","2","2","2","2","5","5","5","5","5","4","4","4","5","5","7","7","6","8","8","6","7","8","7","7","7","7","7","7","7","7","1","7","7","1","7","6","7","7","6","6","7","7","7","7","7","7","7","7","6","7","7","7","7","7","7","6","7","7","7","7","7","7","6","7","602287984867278848","肖","498","Male","[""坏他"",""好我"",""坏我"",""好他""]","[""弱他"",""强我"",""弱我"",""强他""]","","","","","","","","","","","","","","","","","","","","","","","","","","","","","","feedback_test","","","","","","","","",""
"993","","f","psychophysics","40","177278","0.0-8.0-1.0-1.0-0.0-0.15","7","7","7","7","7","5","5","5","5","5","5","2","1","2","2","2","2","2","2","5","5","5","5","5","4","4","4","5","5","7","7","6","8","8","6","7","8","7","7","7","7","7","7","7","7","1","7","7","1","7","6","7","7","6","6","7","7","7","7","7","7","7","7","6","7","7","7","7","7","7","6","7","7","7","7","7","7","6","7","602287984867278848","肖","498","Male","[""坏他"",""好我"",""坏我"",""好他""]","[""弱他"",""强我"",""弱我"",""强他""]","","","","","","","","match","","","","","","","","","","key","f","16.66470588235299","768","428","j","false","nonmatch","img/ellipse.png","弱我","弱他","prac_ALT2_ability","practice_ability","","","","","","","","",""
"null","<span style='color:red; font-size: 70px;'>错误! </span>","null","html-keyboard-response","41","177779","0.0-8.0-1.0-1.0-0.0-1.15","7","7","7","7","7","5","5","5","5","5","5","2","1","2","2","2","2","2","2","5","5","5","5","5","4","4","4","5","5","7","7","6","8","8","6","7","8","7","7","7","7","7","7","7","7","1","7","7","1","7","6","7","7","6","6","7","7","7","7","7","7","7","7","6","7","7","7","7","7","7","6","7","7","7","7","7","7","6","7","602287984867278848","肖","498","Male","[""坏他"",""好我"",""坏我"",""好他""]","[""弱他"",""强我"",""弱我"",""强他""]","","","","","","","","","","","","","","","","","","","","","","","","","","","","","","feedback_test","","","","","","","","",""
"890","","f","psychophysics","42","179670","0.0-8.0-1.0-1.0-0.0-0.16","7","7","7","7","7","5","5","5","5","5","5","2","1","2","2","2","2","2","2","5","5","5","5","5","4","4","4","5","5","7","7","6","8","8","6","7","8","7","7","7","7","7","7","7","7","1","7","7","1","7","6","7","7","6","6","7","7","7","7","7","7","7","7","6","7","7","7","7","7","7","6","7","7","7","7","7","7","6","7","602287984867278848","肖","498","Male","[""坏他"",""好我"",""坏我"",""好他""]","[""弱他"",""强我"",""弱我"",""强他""]","","","","","","","","match","","","","","","","","","","key","f","16.66696428571413","768","428","f","true","match","img/triangle.png","强我","强我","prac_ALT2_ability","practice_ability","","","","","","","","",""
"null","<span style='color:GreenYellow; font-size: 70px;'>正确! </span>","null","html-keyboard-response","43","180172","0.0-8.0-1.0-1.0-0.0-1.16","7","7","7","7","7","5","5","5","5","5","5","2","1","2","2","2","2","2","2","5","5","5","5","5","4","4","4","5","5","7","7","6","8","8","6","7","8","7","7","7","7","7","7","7","7","1","7","7","1","7","6","7","7","6","6","7","7","7","7","7","7","7","7","6","7","7","7","7","7","7","6","7","7","7","7","7","7","6","7","602287984867278848","肖","498","Male","[""坏他"",""好我"",""坏我"",""好他""]","[""弱他"",""强我"",""弱我"",""强他""]","","","","","","","","","","","","","","","","","","","","","","","","","","","","","","feedback_test","","","","","","","","",""
"723","","f","psychophysics","44","181910","0.0-8.0-1.0-1.0-0.0-0.17","7","7","7","7","7","5","5","5","5","5","5","2","1","2","2","2","2","2","2","5","5","5","5","5","4","4","4","5","5","7","7","6","8","8","6","7","8","7","7","7","7","7","7","7","7","1","7","7","1","7","6","7","7","6","6","7","7","7","7","7","7","7","7","6","7","7","7","7","7","7","6","7","7","7","7","7","7","6","7","602287984867278848","肖","498","Male","[""坏他"",""好我"",""坏我"",""好他""]","[""弱他"",""强我"",""弱我"",""强他""]","","","","","","","","match","","","","","","","","","","key","f","16.666019417475784","768","428","f","true","match","img/triangle.png","强我","强我","prac_ALT2_ability","practice_ability","","","","","","","","",""
"null","<span style='color:GreenYellow; font-size: 70px;'>正确! </span>","null","html-keyboard-response","45","182411","0.0-8.0-1.0-1.0-0.0-1.17","7","7","7","7","7","5","5","5","5","5","5","2","1","2","2","2","2","2","2","5","5","5","5","5","4","4","4","5","5","7","7","6","8","8","6","7","8","7","7","7","7","7","7","7","7","1","7","7","1","7","6","7","7","6","6","7","7","7","7","7","7","7","7","6","7","7","7","7","7","7","6","7","7","7","7","7","7","6","7","602287984867278848","肖","498","Male","[""坏他"",""好我"",""坏我"",""好他""]","[""弱他"",""强我"",""弱我"",""强他""]","","","","","","","","","","","","","","","","","","","","","","","","","","","","","","feedback_test","","","","","","","","",""
"650","","j","psychophysics","46","184062","0.0-8.0-1.0-1.0-0.0-0.18","7","7","7","7","7","5","5","5","5","5","5","2","1","2","2","2","2","2","2","5","5","5","5","5","4","4","4","5","5","7","7","6","8","8","6","7","8","7","7","7","7","7","7","7","7","1","7","7","1","7","6","7","7","6","6","7","7","7","7","7","7","7","7","6","7","7","7","7","7","7","6","7","7","7","7","7","7","6","7","602287984867278848","肖","498","Male","[""坏他"",""好我"",""坏我"",""好他""]","[""弱他"",""强我"",""弱我"",""强他""]","","","","","","","","nonmatch","","","","","","","","","","key","j","16.666326530612125","768","428","j","true","nonmatch","img/triangle.png","强他","强我","prac_ALT2_ability","practice_ability","","","","","","","","",""
"null","<span style='color:GreenYellow; font-size: 70px;'>正确! </span>","null","html-keyboard-response","47","184563","0.0-8.0-1.0-1.0-0.0-1.18","7","7","7","7","7","5","5","5","5","5","5","2","1","2","2","2","2","2","2","5","5","5","5","5","4","4","4","5","5","7","7","6","8","8","6","7","8","7","7","7","7","7","7","7","7","1","7","7","1","7","6","7","7","6","6","7","7","7","7","7","7","7","7","6","7","7","7","7","7","7","6","7","7","7","7","7","7","6","7","602287984867278848","肖","498","Male","[""坏他"",""好我"",""坏我"",""好他""]","[""弱他"",""强我"",""弱我"",""强他""]","","","","","","","","","","","","","","","","","","","","","","","","","","","","","","feedback_test","","","","","","","","",""
"978","","f","psychophysics","48","186542","0.0-8.0-1.0-1.0-0.0-0.19","7","7","7","7","7","5","5","5","5","5","5","2","1","2","2","2","2","2","2","5","5","5","5","5","4","4","4","5","5","7","7","6","8","8","6","7","8","7","7","7","7","7","7","7","7","1","7","7","1","7","6","7","7","6","6","7","7","7","7","7","7","7","7","6","7","7","7","7","7","7","6","7","7","7","7","7","7","6","7","602287984867278848","肖","498","Male","[""坏他"",""好我"",""坏我"",""好他""]","[""弱他"",""强我"",""弱我"",""强他""]","","","","","","","","match","","","","","","","","","","key","f","16.665254237288135","768","428","f","true","match","img/diamond.png","弱我","弱我","prac_ALT2_ability","practice_ability","","","","","","","","",""
"null","<span style='color:GreenYellow; font-size: 70px;'>正确! </span>","null","html-keyboard-response","49","187043","0.0-8.0-1.0-1.0-0.0-1.19","7","7","7","7","7","5","5","5","5","5","5","2","1","2","2","2","2","2","2","5","5","5","5","5","4","4","4","5","5","7","7","6","8","8","6","7","8","7","7","7","7","7","7","7","7","1","7","7","1","7","6","7","7","6","6","7","7","7","7","7","7","7","7","6","7","7","7","7","7","7","6","7","7","7","7","7","7","6","7","602287984867278848","肖","498","Male","[""坏他"",""好我"",""坏我"",""好他""]","[""弱他"",""强我"",""弱我"",""强他""]","","","","","","","","","","","","","","","","","","","","","","","","","","","","","","feedback_test","","","","","","","","",""
"1081","","j","psychophysics","50","189126","0.0-8.0-1.0-1.0-0.0-0.20","7","7","7","7","7","5","5","5","5","5","5","2","1","2","2","2","2","2","2","5","5","5","5","5","4","4","4","5","5","7","7","6","8","8","6","7","8","7","7","7","7","7","7","7","7","1","7","7","1","7","6","7","7","6","6","7","7","7","7","7","7","7","7","6","7","7","7","7","7","7","6","7","7","7","7","7","7","6","7","602287984867278848","肖","498","Male","[""坏他"",""好我"",""坏我"",""好他""]","[""弱他"",""强我"",""弱我"",""强他""]","","","","","","","","nonmatch","","","","","","","","","","key","j","16.66532258064516","768","428","f","false","match","img/pentagon.png","强他","强他","prac_ALT2_ability","practice_ability","","","","","","","","",""
"null","<span style='color:red; font-size: 70px;'>错误! </span>","null","html-keyboard-response","51","189628","0.0-8.0-1.0-1.0-0.0-1.20","7","7","7","7","7","5","5","5","5","5","5","2","1","2","2","2","2","2","2","5","5","5","5","5","4","4","4","5","5","7","7","6","8","8","6","7","8","7","7","7","7","7","7","7","7","1","7","7","1","7","6","7","7","6","6","7","7","7","7","7","7","7","7","6","7","7","7","7","7","7","6","7","7","7","7","7","7","6","7","602287984867278848","肖","498","Male","[""坏他"",""好我"",""坏我"",""好他""]","[""弱他"",""强我"",""弱我"",""强他""]","","","","","","","","","","","","","","","","","","","","","","","","","","","","","","feedback_test","","","","","","","","",""
"696","","j","psychophysics","52","191326","0.0-8.0-1.0-1.0-0.0-0.21","7","7","7","7","7","5","5","5","5","5","5","2","1","2","2","2","2","2","2","5","5","5","5","5","4","4","4","5","5","7","7","6","8","8","6","7","8","7","7","7","7","7","7","7","7","1","7","7","1","7","6","7","7","6","6","7","7","7","7","7","7","7","7","6","7","7","7","7","7","7","6","7","7","7","7","7","7","6","7","602287984867278848","肖","498","Male","[""坏他"",""好我"",""坏我"",""好他""]","[""弱他"",""强我"",""弱我"",""强他""]","","","","","","","","nonmatch","","","","","","","","","","key","j","16.66633663366354","768","428","j","true","nonmatch","img/pentagon.png","弱他","强他","prac_ALT2_ability","practice_ability","","","","","","","","",""
"null","<span style='color:GreenYellow; font-size: 70px;'>正确! </span>","null","html-keyboard-response","53","191828","0.0-8.0-1.0-1.0-0.0-1.21","7","7","7","7","7","5","5","5","5","5","5","2","1","2","2","2","2","2","2","5","5","5","5","5","4","4","4","5","5","7","7","6","8","8","6","7","8","7","7","7","7","7","7","7","7","1","7","7","1","7","6","7","7","6","6","7","7","7","7","7","7","7","7","6","7","7","7","7","7","7","6","7","7","7","7","7","7","6","7","602287984867278848","肖","498","Male","[""坏他"",""好我"",""坏我"",""好他""]","[""弱他"",""强我"",""弱我"",""强他""]","","","","","","","","","","","","","","","","","","","","","","","","","","","","","","feedback_test","","","","","","","","",""
"1001","","f","psychophysics","54","193830","0.0-8.0-1.0-1.0-0.0-0.22","7","7","7","7","7","5","5","5","5","5","5","2","1","2","2","2","2","2","2","5","5","5","5","5","4","4","4","5","5","7","7","6","8","8","6","7","8","7","7","7","7","7","7","7","7","1","7","7","1","7","6","7","7","6","6","7","7","7","7","7","7","7","7","6","7","7","7","7","7","7","6","7","7","7","7","7","7","6","7","602287984867278848","肖","498","Male","[""坏他"",""好我"",""坏我"",""好他""]","[""弱他"",""强我"",""弱我"",""强他""]","","","","","","","","match","","","","","","","","","","key","f","16.665546218487492","768","428","f","true","match","img/ellipse.png","弱他","弱他","prac_ALT2_ability","practice_ability","","","","","","","","",""
"null","<span style='color:GreenYellow; font-size: 70px;'>正确! </span>","null","html-keyboard-response","55","194331","0.0-8.0-1.0-1.0-0.0-1.22","7","7","7","7","7","5","5","5","5","5","5","2","1","2","2","2","2","2","2","5","5","5","5","5","4","4","4","5","5","7","7","6","8","8","6","7","8","7","7","7","7","7","7","7","7","1","7","7","1","7","6","7","7","6","6","7","7","7","7","7","7","7","7","6","7","7","7","7","7","7","6","7","7","7","7","7","7","6","7","602287984867278848","肖","498","Male","[""坏他"",""好我"",""坏我"",""好他""]","[""弱他"",""强我"",""弱我"",""强他""]","","","","","","","","","","","","","","","","","","","","","","","","","","","","","","feedback_test","","","","","","","","",""
"945","","f","psychophysics","56","196279","0.0-8.0-1.0-1.0-0.0-0.23","7","7","7","7","7","5","5","5","5","5","5","2","1","2","2","2","2","2","2","5","5","5","5","5","4","4","4","5","5","7","7","6","8","8","6","7","8","7","7","7","7","7","7","7","7","1","7","7","1","7","6","7","7","6","6","7","7","7","7","7","7","7","7","6","7","7","7","7","7","7","6","7","7","7","7","7","7","6","7","602287984867278848","肖","498","Male","[""坏他"",""好我"",""坏我"",""好他""]","[""弱他"",""强我"",""弱我"",""强他""]","","","","","","","","match","","","","","","","","","","key","f","16.665517241379412","768","428","f","true","match","img/diamond.png","弱我","弱我","prac_ALT2_ability","practice_ability","","","","","","","","",""
"null","<span style='color:GreenYellow; font-size: 70px;'>正确! </span>","null","html-keyboard-response","57","196779","0.0-8.0-1.0-1.0-0.0-1.23","7","7","7","7","7","5","5","5","5","5","5","2","1","2","2","2","2","2","2","5","5","5","5","5","4","4","4","5","5","7","7","6","8","8","6","7","8","7","7","7","7","7","7","7","7","1","7","7","1","7","6","7","7","6","6","7","7","7","7","7","7","7","7","6","7","7","7","7","7","7","6","7","7","7","7","7","7","6","7","602287984867278848","肖","498","Male","[""坏他"",""好我"",""坏我"",""好他""]","[""弱他"",""强我"",""弱我"",""强他""]","","","","","","","","","","","","","","","","","","","","","","","","","","","","","","feedback_test","","","","","","","","",""
"745","","j","psychophysics","58","198526","0.0-8.0-1.0-1.0-0.0-0.24","7","7","7","7","7","5","5","5","5","5","5","2","1","2","2","2","2","2","2","5","5","5","5","5","4","4","4","5","5","7","7","6","8","8","6","7","8","7","7","7","7","7","7","7","7","1","7","7","1","7","6","7","7","6","6","7","7","7","7","7","7","7","7","6","7","7","7","7","7","7","6","7","7","7","7","7","7","6","7","602287984867278848","肖","498","Male","[""坏他"",""好我"",""坏我"",""好他""]","[""弱他"",""强我"",""弱我"",""强他""]","","","","","","","","nonmatch","","","","","","","","","","key","j","16.666346153846042","768","428","j","true","nonmatch","img/ellipse.png","强他","弱他","prac_ALT2_ability","practice_ability","","","","","","","","",""
"null","<span style='color:GreenYellow; font-size: 70px;'>正确! </span>","null","html-keyboard-response","59","199027","0.0-8.0-1.0-1.0-0.0-1.24","7","7","7","7","7","5","5","5","5","5","5","2","1","2","2","2","2","2","2","5","5","5","5","5","4","4","4","5","5","7","7","6","8","8","6","7","8","7","7","7","7","7","7","7","7","1","7","7","1","7","6","7","7","6","6","7","7","7","7","7","7","7","7","6","7","7","7","7","7","7","6","7","7","7","7","7","7","6","7","602287984867278848","肖","498","Male","[""坏他"",""好我"",""坏我"",""好他""]","[""弱他"",""强我"",""弱我"",""强他""]","","","","","","","","","","","","","","","","","","","","","","","","","","","","","","feedback_test","","","","","","","","",""
"561","","f","psychophysics","60","200590","0.0-8.0-1.0-1.0-0.0-0.25","7","7","7","7","7","5","5","5","5","5","5","2","1","2","2","2","2","2","2","5","5","5","5","5","4","4","4","5","5","7","7","6","8","8","6","7","8","7","7","7","7","7","7","7","7","1","7","7","1","7","6","7","7","6","6","7","7","7","7","7","7","7","7","6","7","7","7","7","7","7","6","7","7","7","7","7","7","6","7","602287984867278848","肖","498","Male","[""坏他"",""好我"",""坏我"",""好他""]","[""弱他"",""强我"",""弱我"",""强他""]","","","","","","","","match","","","","","","","","","","key","f","16.667741935483935","768","428","f","true","match","img/pentagon.png","强他","强他","prac_ALT2_ability","practice_ability","","","","","","","","",""
"null","<span style='color:GreenYellow; font-size: 70px;'>正确! </span>","null","html-keyboard-response","61","201091","0.0-8.0-1.0-1.0-0.0-1.25","7","7","7","7","7","5","5","5","5","5","5","2","1","2","2","2","2","2","2","5","5","5","5","5","4","4","4","5","5","7","7","6","8","8","6","7","8","7","7","7","7","7","7","7","7","1","7","7","1","7","6","7","7","6","6","7","7","7","7","7","7","7","7","6","7","7","7","7","7","7","6","7","7","7","7","7","7","6","7","602287984867278848","肖","498","Male","[""坏他"",""好我"",""坏我"",""好他""]","[""弱他"",""强我"",""弱我"",""强他""]","","","","","","","","","","","","","","","","","","","","","","","","","","","","","","feedback_test","","","","","","","","",""
"777","","j","psychophysics","62","202870","0.0-8.0-1.0-1.0-0.0-0.26","7","7","7","7","7","5","5","5","5","5","5","2","1","2","2","2","2","2","2","5","5","5","5","5","4","4","4","5","5","7","7","6","8","8","6","7","8","7","7","7","7","7","7","7","7","1","7","7","1","7","6","7","7","6","6","7","7","7","7","7","7","7","7","6","7","7","7","7","7","7","6","7","7","7","7","7","7","6","7","602287984867278848","肖","498","Male","[""坏他"",""好我"",""坏我"",""好他""]","[""弱他"",""强我"",""弱我"",""强他""]","","","","","","","","nonmatch","","","","","","","","","","key","j","16.66698113207558","768","428","f","false","match","img/triangle.png","强我","强我","prac_ALT2_ability","practice_ability","","","","","","","","",""
"null","<span style='color:red; font-size: 70px;'>错误! </span>","null","html-keyboard-response","63","203372","0.0-8.0-1.0-1.0-0.0-1.26","7","7","7","7","7","5","5","5","5","5","5","2","1","2","2","2","2","2","2","5","5","5","5","5","4","4","4","5","5","7","7","6","8","8","6","7","8","7","7","7","7","7","7","7","7","1","7","7","1","7","6","7","7","6","6","7","7","7","7","7","7","7","7","6","7","7","7","7","7","7","6","7","7","7","7","7","7","6","7","602287984867278848","肖","498","Male","[""坏他"",""好我"",""坏我"",""好他""]","[""弱他"",""强我"",""弱我"",""强他""]","","","","","","","","","","","","","","","","","","","","","","","","","","","","","","feedback_test","","","","","","","","",""
"680","","f","psychophysics","64","205054","0.0-8.0-1.0-1.0-0.0-0.27","7","7","7","7","7","5","5","5","5","5","5","2","1","2","2","2","2","2","2","5","5","5","5","5","4","4","4","5","5","7","7","6","8","8","6","7","8","7","7","7","7","7","7","7","7","1","7","7","1","7","6","7","7","6","6","7","7","7","7","7","7","7","7","6","7","7","7","7","7","7","6","7","7","7","7","7","7","6","7","602287984867278848","肖","498","Male","[""坏他"",""好我"",""坏我"",""好他""]","[""弱他"",""强我"",""弱我"",""强他""]","","","","","","","","match","","","","","","","","","","key","f","16.666000000000057","768","428","f","true","match","img/pentagon.png","强他","强他","prac_ALT2_ability","practice_ability","","","","","","","","",""
"null","<span style='color:GreenYellow; font-size: 70px;'>正确! </span>","null","html-keyboard-response","65","205556","0.0-8.0-1.0-1.0-0.0-1.27","7","7","7","7","7","5","5","5","5","5","5","2","1","2","2","2","2","2","2","5","5","5","5","5","4","4","4","5","5","7","7","6","8","8","6","7","8","7","7","7","7","7","7","7","7","1","7","7","1","7","6","7","7","6","6","7","7","7","7","7","7","7","7","6","7","7","7","7","7","7","6","7","7","7","7","7","7","6","7","602287984867278848","肖","498","Male","[""坏他"",""好我"",""坏我"",""好他""]","[""弱他"",""强我"",""弱我"",""强他""]","","","","","","","","","","","","","","","","","","","","","","","","","","","","","","feedback_test","","","","","","","","",""
"944","","f","psychophysics","66","207502","0.0-8.0-1.0-1.0-0.0-0.28","7","7","7","7","7","5","5","5","5","5","5","2","1","2","2","2","2","2","2","5","5","5","5","5","4","4","4","5","5","7","7","6","8","8","6","7","8","7","7","7","7","7","7","7","7","1","7","7","1","7","6","7","7","6","6","7","7","7","7","7","7","7","7","6","7","7","7","7","7","7","6","7","7","7","7","7","7","6","7","602287984867278848","肖","498","Male","[""坏他"",""好我"",""坏我"",""好他""]","[""弱他"",""强我"",""弱我"",""强他""]","","","","","","","","match","","","","","","","","","","key","f","16.665517241379412","768","428","j","false","nonmatch","img/ellipse.png","弱我","弱他","prac_ALT2_ability","practice_ability","","","","","","","","",""
"null","<span style='color:red; font-size: 70px;'>错误! </span>","null","html-keyboard-response","67","208004","0.0-8.0-1.0-1.0-0.0-1.28","7","7","7","7","7","5","5","5","5","5","5","2","1","2","2","2","2","2","2","5","5","5","5","5","4","4","4","5","5","7","7","6","8","8","6","7","8","7","7","7","7","7","7","7","7","1","7","7","1","7","6","7","7","6","6","7","7","7","7","7","7","7","7","6","7","7","7","7","7","7","6","7","7","7","7","7","7","6","7","602287984867278848","肖","498","Male","[""坏他"",""好我"",""坏我"",""好他""]","[""弱他"",""强我"",""弱我"",""强他""]","","","","","","","","","","","","","","","","","","","","","","","","","","","","","","feedback_test","","","","","","","","",""
"896","","f","psychophysics","68","209902","0.0-8.0-1.0-1.0-0.0-0.29","7","7","7","7","7","5","5","5","5","5","5","2","1","2","2","2","2","2","2","5","5","5","5","5","4","4","4","5","5","7","7","6","8","8","6","7","8","7","7","7","7","7","7","7","7","1","7","7","1","7","6","7","7","6","6","7","7","7","7","7","7","7","7","6","7","7","7","7","7","7","6","7","7","7","7","7","7","6","7","602287984867278848","肖","498","Male","[""坏他"",""好我"",""坏我"",""好他""]","[""弱他"",""强我"",""弱我"",""强他""]","","","","","","","","match","","","","","","","","","","key","f","16.664601769911556","768","428","f","true","match","img/pentagon.png","强他","强他","prac_ALT2_ability","practice_ability","","","","","","","","",""
"null","<span style='color:GreenYellow; font-size: 70px;'>正确! </span>","null","html-keyboard-response","69","210404","0.0-8.0-1.0-1.0-0.0-1.29","7","7","7","7","7","5","5","5","5","5","5","2","1","2","2","2","2","2","2","5","5","5","5","5","4","4","4","5","5","7","7","6","8","8","6","7","8","7","7","7","7","7","7","7","7","1","7","7","1","7","6","7","7","6","6","7","7","7","7","7","7","7","7","6","7","7","7","7","7","7","6","7","7","7","7","7","7","6","7","602287984867278848","肖","498","Male","[""坏他"",""好我"",""坏我"",""好他""]","[""弱他"",""强我"",""弱我"",""强他""]","","","","","","","","","","","","","","","","","","","","","","","","","","","","","","feedback_test","","","","","","","","",""
"832","","j","psychophysics","70","212238","0.0-8.0-1.0-1.0-0.0-0.30","7","7","7","7","7","5","5","5","5","5","5","2","1","2","2","2","2","2","2","5","5","5","5","5","4","4","4","5","5","7","7","6","8","8","6","7","8","7","7","7","7","7","7","7","7","1","7","7","1","7","6","7","7","6","6","7","7","7","7","7","7","7","7","6","7","7","7","7","7","7","6","7","7","7","7","7","7","6","7","602287984867278848","肖","498","Male","[""坏他"",""好我"",""坏我"",""好他""]","[""弱他"",""强我"",""弱我"",""强他""]","","","","","","","","nonmatch","","","","","","","","","","key","j","16.666055045871612","768","428","j","true","nonmatch","img/pentagon.png","弱我","强他","prac_ALT2_ability","practice_ability","","","","","","","","",""
"null","<span style='color:GreenYellow; font-size: 70px;'>正确! </span>","null","html-keyboard-response","71","212739","0.0-8.0-1.0-1.0-0.0-1.30","7","7","7","7","7","5","5","5","5","5","5","2","1","2","2","2","2","2","2","5","5","5","5","5","4","4","4","5","5","7","7","6","8","8","6","7","8","7","7","7","7","7","7","7","7","1","7","7","1","7","6","7","7","6","6","7","7","7","7","7","7","7","7","6","7","7","7","7","7","7","6","7","7","7","7","7","7","6","7","602287984867278848","肖","498","Male","[""坏他"",""好我"",""坏我"",""好他""]","[""弱他"",""强我"",""弱我"",""强他""]","","","","","","","","","","","","","","","","","","","","","","","","","","","","","","feedback_test","","","","","","","","",""
"906","","j","psychophysics","72","214646","0.0-8.0-1.0-1.0-0.0-0.31","7","7","7","7","7","5","5","5","5","5","5","2","1","2","2","2","2","2","2","5","5","5","5","5","4","4","4","5","5","7","7","6","8","8","6","7","8","7","7","7","7","7","7","7","7","1","7","7","1","7","6","7","7","6","6","7","7","7","7","7","7","7","7","6","7","7","7","7","7","7","6","7","7","7","7","7","7","6","7","602287984867278848","肖","498","Male","[""坏他"",""好我"",""坏我"",""好他""]","[""弱他"",""强我"",""弱我"",""强他""]","","","","","","","","nonmatch","","","","","","","","","","key","j","16.666371681415825","768","428","j","true","nonmatch","img/diamond.png","强他","弱我","prac_ALT2_ability","practice_ability","","","","","","","","",""
"null","<span style='color:GreenYellow; font-size: 70px;'>正确! </span>","null","html-keyboard-response","73","215148","0.0-8.0-1.0-1.0-0.0-1.31","7","7","7","7","7","5","5","5","5","5","5","2","1","2","2","2","2","2","2","5","5","5","5","5","4","4","4","5","5","7","7","6","8","8","6","7","8","7","7","7","7","7","7","7","7","1","7","7","1","7","6","7","7","6","6","7","7","7","7","7","7","7","7","6","7","7","7","7","7","7","6","7","7","7","7","7","7","6","7","602287984867278848","肖","498","Male","[""坏他"",""好我"",""坏我"",""好他""]","[""弱他"",""强我"",""弱我"",""强他""]","","","","","","","","","","","","","","","","","","","","","","","","","","","","","","feedback_test","","","","","","","","",""
"1056","","f","psychophysics","74","217206","0.0-8.0-1.0-1.0-0.0-0.32","7","7","7","7","7","5","5","5","5","5","5","2","1","2","2","2","2","2","2","5","5","5","5","5","4","4","4","5","5","7","7","6","8","8","6","7","8","7","7","7","7","7","7","7","7","1","7","7","1","7","6","7","7","6","6","7","7","7","7","7","7","7","7","6","7","7","7","7","7","7","6","7","7","7","7","7","7","6","7","602287984867278848","肖","498","Male","[""坏他"",""好我"",""坏我"",""好他""]","[""弱他"",""强我"",""弱我"",""强他""]","","","","","","","","match","","","","","","","","","","key","f","16.66422764227652","768","428","f","true","match","img/ellipse.png","弱他","弱他","prac_ALT2_ability","practice_ability","","","","","","","","",""
"null","<span style='color:GreenYellow; font-size: 70px;'>正确! </span>","null","html-keyboard-response","75","217708","0.0-8.0-1.0-1.0-0.0-1.32","7","7","7","7","7","5","5","5","5","5","5","2","1","2","2","2","2","2","2","5","5","5","5","5","4","4","4","5","5","7","7","6","8","8","6","7","8","7","7","7","7","7","7","7","7","1","7","7","1","7","6","7","7","6","6","7","7","7","7","7","7","7","7","6","7","7","7","7","7","7","6","7","7","7","7","7","7","6","7","602287984867278848","肖","498","Male","[""坏他"",""好我"",""坏我"",""好他""]","[""弱他"",""强我"",""弱我"",""强他""]","","","","","","","","","","","","","","","","","","","","","","","","","","","","","","feedback_test","","","","","","","","",""
"760","","j","psychophysics","76","219470","0.0-8.0-1.0-1.0-0.0-0.33","7","7","7","7","7","5","5","5","5","5","5","2","1","2","2","2","2","2","2","5","5","5","5","5","4","4","4","5","5","7","7","6","8","8","6","7","8","7","7","7","7","7","7","7","7","1","7","7","1","7","6","7","7","6","6","7","7","7","7","7","7","7","7","6","7","7","7","7","7","7","6","7","7","7","7","7","7","6","7","602287984867278848","肖","498","Male","[""坏他"",""好我"",""坏我"",""好他""]","[""弱他"",""强我"",""弱我"",""强他""]","","","","","","","","nonmatch","","","","","","","","","","key","j","16.66571428571423","768","428","j","true","nonmatch","img/triangle.png","弱我","强我","prac_ALT2_ability","practice_ability","","","","","","","","",""
"null","<span style='color:GreenYellow; font-size: 70px;'>正确! </span>","null","html-keyboard-response","77","219972","0.0-8.0-1.0-1.0-0.0-1.33","7","7","7","7","7","5","5","5","5","5","5","2","1","2","2","2","2","2","2","5","5","5","5","5","4","4","4","5","5","7","7","6","8","8","6","7","8","7","7","7","7","7","7","7","7","1","7","7","1","7","6","7","7","6","6","7","7","7","7","7","7","7","7","6","7","7","7","7","7","7","6","7","7","7","7","7","7","6","7","602287984867278848","肖","498","Male","[""坏他"",""好我"",""坏我"",""好他""]","[""弱他"",""强我"",""弱我"",""强他""]","","","","","","","","","","","","","","","","","","","","","","","","","","","","","","feedback_test","","","","","","","","",""
"1042","","j","psychophysics","78","222014","0.0-8.0-1.0-1.0-0.0-0.34","7","7","7","7","7","5","5","5","5","5","5","2","1","2","2","2","2","2","2","5","5","5","5","5","4","4","4","5","5","7","7","6","8","8","6","7","8","7","7","7","7","7","7","7","7","1","7","7","1","7","6","7","7","6","6","7","7","7","7","7","7","7","7","6","7","7","7","7","7","7","6","7","7","7","7","7","7","6","7","602287984867278848","肖","498","Male","[""坏他"",""好我"",""坏我"",""好他""]","[""弱他"",""强我"",""弱我"",""强他""]","","","","","","","","nonmatch","","","","","","","","","","key","j","16.664462809917307","768","428","j","true","nonmatch","img/diamond.png","强我","弱我","prac_ALT2_ability","practice_ability","","","","","","","","",""
"null","<span style='color:GreenYellow; font-size: 70px;'>正确! </span>","null","html-keyboard-response","79","222515","0.0-8.0-1.0-1.0-0.0-1.34","7","7","7","7","7","5","5","5","5","5","5","2","1","2","2","2","2","2","2","5","5","5","5","5","4","4","4","5","5","7","7","6","8","8","6","7","8","7","7","7","7","7","7","7","7","1","7","7","1","7","6","7","7","6","6","7","7","7","7","7","7","7","7","6","7","7","7","7","7","7","6","7","7","7","7","7","7","6","7","602287984867278848","肖","498","Male","[""坏他"",""好我"",""坏我"",""好他""]","[""弱他"",""强我"",""弱我"",""强他""]","","","","","","","","","","","","","","","","","","","","","","","","","","","","","","feedback_test","","","","","","","","",""
"722","","f","psychophysics","80","224238","0.0-8.0-1.0-1.0-0.0-0.35","7","7","7","7","7","5","5","5","5","5","5","2","1","2","2","2","2","2","2","5","5","5","5","5","4","4","4","5","5","7","7","6","8","8","6","7","8","7","7","7","7","7","7","7","7","1","7","7","1","7","6","7","7","6","6","7","7","7","7","7","7","7","7","6","7","7","7","7","7","7","6","7","7","7","7","7","7","6","7","602287984867278848","肖","498","Male","[""坏他"",""好我"",""坏我"",""好他""]","[""弱他"",""强我"",""弱我"",""强他""]","","","","","","","","match","","","","","","","","","","key","f","16.652941176470645","768","428","j","false","nonmatch","img/diamond.png","弱他","弱我","prac_ALT2_ability","practice_ability","","","","","","","","",""
"null","<span style='color:red; font-size: 70px;'>错误! </span>","null","html-keyboard-response","81","224740","0.0-8.0-1.0-1.0-0.0-1.35","7","7","7","7","7","5","5","5","5","5","5","2","1","2","2","2","2","2","2","5","5","5","5","5","4","4","4","5","5","7","7","6","8","8","6","7","8","7","7","7","7","7","7","7","7","1","7","7","1","7","6","7","7","6","6","7","7","7","7","7","7","7","7","6","7","7","7","7","7","7","6","7","7","7","7","7","7","6","7","602287984867278848","肖","498","Male","[""坏他"",""好我"",""坏我"",""好他""]","[""弱他"",""强我"",""弱我"",""强他""]","","","","","","","","","","","","","","","","","","","","","","","","","","","","","","feedback_test","","","","","","","","",""
"697","","f","psychophysics","82","226438","0.0-8.0-1.0-1.0-0.0-0.36","7","7","7","7","7","5","5","5","5","5","5","2","1","2","2","2","2","2","2","5","5","5","5","5","4","4","4","5","5","7","7","6","8","8","6","7","8","7","7","7","7","7","7","7","7","1","7","7","1","7","6","7","7","6","6","7","7","7","7","7","7","7","7","6","7","7","7","7","7","7","6","7","7","7","7","7","7","6","7","602287984867278848","肖","498","Male","[""坏他"",""好我"",""坏我"",""好他""]","[""弱他"",""强我"",""弱我"",""强他""]","","","","","","","","match","","","","","","","","","","key","f","16.659405940593828","768","428","f","true","match","img/triangle.png","强我","强我","prac_ALT2_ability","practice_ability","","","","","","","","",""
"null","<span style='color:GreenYellow; font-size: 70px;'>正确! </span>","null","html-keyboard-response","83","226939","0.0-8.0-1.0-1.0-0.0-1.36","7","7","7","7","7","5","5","5","5","5","5","2","1","2","2","2","2","2","2","5","5","5","5","5","4","4","4","5","5","7","7","6","8","8","6","7","8","7","7","7","7","7","7","7","7","1","7","7","1","7","6","7","7","6","6","7","7","7","7","7","7","7","7","6","7","7","7","7","7","7","6","7","7","7","7","7","7","6","7","602287984867278848","肖","498","Male","[""坏他"",""好我"",""坏我"",""好他""]","[""弱他"",""强我"",""弱我"",""强他""]","","","","","","","","","","","","","","","","","","","","","","","","","","","","","","feedback_test","","","","","","","","",""
"745","","f","psychophysics","84","228686","0.0-8.0-1.0-1.0-0.0-0.37","7","7","7","7","7","5","5","5","5","5","5","2","1","2","2","2","2","2","2","5","5","5","5","5","4","4","4","5","5","7","7","6","8","8","6","7","8","7","7","7","7","7","7","7","7","1","7","7","1","7","6","7","7","6","6","7","7","7","7","7","7","7","7","6","7","7","7","7","7","7","6","7","7","7","7","7","7","6","7","602287984867278848","肖","498","Male","[""坏他"",""好我"",""坏我"",""好他""]","[""弱他"",""强我"",""弱我"",""强他""]","","","","","","","","match","","","","","","","","","","key","f","16.664423076923132","768","428","j","false","nonmatch","img/ellipse.png","强我","弱他","prac_ALT2_ability","practice_ability","","","","","","","","",""
"null","<span style='color:red; font-size: 70px;'>错误! </span>","null","html-keyboard-response","85","229188","0.0-8.0-1.0-1.0-0.0-1.37","7","7","7","7","7","5","5","5","5","5","5","2","1","2","2","2","2","2","2","5","5","5","5","5","4","4","4","5","5","7","7","6","8","8","6","7","8","7","7","7","7","7","7","7","7","1","7","7","1","7","6","7","7","6","6","7","7","7","7","7","7","7","7","6","7","7","7","7","7","7","6","7","7","7","7","7","7","6","7","602287984867278848","肖","498","Male","[""坏他"",""好我"",""坏我"",""好他""]","[""弱他"",""强我"",""弱我"",""强他""]","","","","","","","","","","","","","","","","","","","","","","","","","","","","","","feedback_test","","","","","","","","",""
"808","","f","psychophysics","86","230998","0.0-8.0-1.0-1.0-0.0-0.38","7","7","7","7","7","5","5","5","5","5","5","2","1","2","2","2","2","2","2","5","5","5","5","5","4","4","4","5","5","7","7","6","8","8","6","7","8","7","7","7","7","7","7","7","7","1","7","7","1","7","6","7","7","6","6","7","7","7","7","7","7","7","7","6","7","7","7","7","7","7","6","7","7","7","7","7","7","6","7","602287984867278848","肖","498","Male","[""坏他"",""好我"",""坏我"",""好他""]","[""弱他"",""强我"",""弱我"",""强他""]","","","","","","","","match","","","","","","","","","","key","f","16.6654205607475","768","428","f","true","match","img/diamond.png","弱我","弱我","prac_ALT2_ability","practice_ability","","","","","","","","",""
"null","<span style='color:GreenYellow; font-size: 70px;'>正确! </span>","null","html-keyboard-response","87","231499","0.0-8.0-1.0-1.0-0.0-1.38","7","7","7","7","7","5","5","5","5","5","5","2","1","2","2","2","2","2","2","5","5","5","5","5","4","4","4","5","5","7","7","6","8","8","6","7","8","7","7","7","7","7","7","7","7","1","7","7","1","7","6","7","7","6","6","7","7","7","7","7","7","7","7","6","7","7","7","7","7","7","6","7","7","7","7","7","7","6","7","602287984867278848","肖","498","Male","[""坏他"",""好我"",""坏我"",""好他""]","[""弱他"",""强我"",""弱我"",""强他""]","","","","","","","","","","","","","","","","","","","","","","","","","","","","","","feedback_test","","","","","","","","",""
"898","","f","psychophysics","88","233398","0.0-8.0-1.0-1.0-0.0-0.39","7","7","7","7","7","5","5","5","5","5","5","2","1","2","2","2","2","2","2","5","5","5","5","5","4","4","4","5","5","7","7","6","8","8","6","7","8","7","7","7","7","7","7","7","7","1","7","7","1","7","6","7","7","6","6","7","7","7","7","7","7","7","7","6","7","7","7","7","7","7","6","7","7","7","7","7","7","6","7","602287984867278848","肖","498","Male","[""坏他"",""好我"",""坏我"",""好他""]","[""弱他"",""强我"",""弱我"",""强他""]","","","","","","","","match","","","","","","","","","","key","f","16.66607142857148","768","428","f","true","match","img/triangle.png","强我","强我","prac_ALT2_ability","practice_ability","","","","","","","","",""
"null","<span style='color:GreenYellow; font-size: 70px;'>正确! </span>","null","html-keyboard-response","89","233899","0.0-8.0-1.0-1.0-0.0-1.39","7","7","7","7","7","5","5","5","5","5","5","2","1","2","2","2","2","2","2","5","5","5","5","5","4","4","4","5","5","7","7","6","8","8","6","7","8","7","7","7","7","7","7","7","7","1","7","7","1","7","6","7","7","6","6","7","7","7","7","7","7","7","7","6","7","7","7","7","7","7","6","7","7","7","7","7","7","6","7","602287984867278848","肖","498","Male","[""坏他"",""好我"",""坏我"",""好他""]","[""弱他"",""强我"",""弱我"",""强他""]","","","","","","","","","","","","","","","","","","","","","","","","","","","","","","feedback_test","","","","","","","","",""
"776","","j","psychophysics","90","235678","0.0-8.0-1.0-1.0-0.0-0.40","7","7","7","7","7","5","5","5","5","5","5","2","1","2","2","2","2","2","2","5","5","5","5","5","4","4","4","5","5","7","7","6","8","8","6","7","8","7","7","7","7","7","7","7","7","1","7","7","1","7","6","7","7","6","6","7","7","7","7","7","7","7","7","6","7","7","7","7","7","7","6","7","7","7","7","7","7","6","7","602287984867278848","肖","498","Male","[""坏他"",""好我"",""坏我"",""好他""]","[""弱他"",""强我"",""弱我"",""强他""]","","","","","","","","nonmatch","","","","","","","","","","key","j","16.663809523809636","768","428","f","false","match","img/ellipse.png","弱他","弱他","prac_ALT2_ability","practice_ability","","","","","","","","",""
"null","<span style='color:red; font-size: 70px;'>错误! </span>","null","html-keyboard-response","91","236178","0.0-8.0-1.0-1.0-0.0-1.40","7","7","7","7","7","5","5","5","5","5","5","2","1","2","2","2","2","2","2","5","5","5","5","5","4","4","4","5","5","7","7","6","8","8","6","7","8","7","7","7","7","7","7","7","7","1","7","7","1","7","6","7","7","6","6","7","7","7","7","7","7","7","7","6","7","7","7","7","7","7","6","7","7","7","7","7","7","6","7","602287984867278848","肖","498","Male","[""坏他"",""好我"",""坏我"",""好他""]","[""弱他"",""强我"",""弱我"",""强他""]","","","","","","","","","","","","","","","","","","","","","","","","","","","","","","feedback_test","","","","","","","","",""
"649","","f","psychophysics","92","237830","0.0-8.0-1.0-1.0-0.0-0.41","7","7","7","7","7","5","5","5","5","5","5","2","1","2","2","2","2","2","2","5","5","5","5","5","4","4","4","5","5","7","7","6","8","8","6","7","8","7","7","7","7","7","7","7","7","1","7","7","1","7","6","7","7","6","6","7","7","7","7","7","7","7","7","6","7","7","7","7","7","7","6","7","7","7","7","7","7","6","7","602287984867278848","肖","498","Male","[""坏他"",""好我"",""坏我"",""好他""]","[""弱他"",""强我"",""弱我"",""强他""]","","","","","","","","match","","","","","","","","","","key","f","16.664285714285477","768","428","j","false","nonmatch","img/triangle.png","强他","强我","prac_ALT2_ability","practice_ability","","","","","","","","",""
"null","<span style='color:red; font-size: 70px;'>错误! </span>","null","html-keyboard-response","93","238330","0.0-8.0-1.0-1.0-0.0-1.41","7","7","7","7","7","5","5","5","5","5","5","2","1","2","2","2","2","2","2","5","5","5","5","5","4","4","4","5","5","7","7","6","8","8","6","7","8","7","7","7","7","7","7","7","7","1","7","7","1","7","6","7","7","6","6","7","7","7","7","7","7","7","7","6","7","7","7","7","7","7","6","7","7","7","7","7","7","6","7","602287984867278848","肖","498","Male","[""坏他"",""好我"",""坏我"",""好他""]","[""弱他"",""强我"",""弱我"",""强他""]","","","","","","","","","","","","","","","","","","","","","","","","","","","","","","feedback_test","","","","","","","","",""
"1139","","j","psychophysics","94","240470","0.0-8.0-1.0-1.0-0.0-0.42","7","7","7","7","7","5","5","5","5","5","5","2","1","2","2","2","2","2","2","5","5","5","5","5","4","4","4","5","5","7","7","6","8","8","6","7","8","7","7","7","7","7","7","7","7","1","7","7","1","7","6","7","7","6","6","7","7","7","7","7","7","7","7","6","7","7","7","7","7","7","6","7","7","7","7","7","7","6","7","602287984867278848","肖","498","Male","[""坏他"",""好我"",""坏我"",""好他""]","[""弱他"",""强我"",""弱我"",""强他""]","","","","","","","","nonmatch","","","","","","","","","","key","j","16.664566929133812","768","428","f","false","match","img/diamond.png","弱我","弱我","prac_ALT2_ability","practice_ability","","","","","","","","",""
"null","<span style='color:red; font-size: 70px;'>错误! </span>","null","html-keyboard-response","95","240971","0.0-8.0-1.0-1.0-0.0-1.42","7","7","7","7","7","5","5","5","5","5","5","2","1","2","2","2","2","2","2","5","5","5","5","5","4","4","4","5","5","7","7","6","8","8","6","7","8","7","7","7","7","7","7","7","7","1","7","7","1","7","6","7","7","6","6","7","7","7","7","7","7","7","7","6","7","7","7","7","7","7","6","7","7","7","7","7","7","6","7","602287984867278848","肖","498","Male","[""坏他"",""好我"",""坏我"",""好他""]","[""弱他"",""强我"",""弱我"",""强他""]","","","","","","","","","","","","","","","","","","","","","","","","","","","","","","feedback_test","","","","","","","","",""
"1137","","f","psychophysics","96","243110","0.0-8.0-1.0-1.0-0.0-0.43","7","7","7","7","7","5","5","5","5","5","5","2","1","2","2","2","2","2","2","5","5","5","5","5","4","4","4","5","5","7","7","6","8","8","6","7","8","7","7","7","7","7","7","7","7","1","7","7","1","7","6","7","7","6","6","7","7","7","7","7","7","7","7","6","7","7","7","7","7","7","6","7","7","7","7","7","7","6","7","602287984867278848","肖","498","Male","[""坏他"",""好我"",""坏我"",""好他""]","[""弱他"",""强我"",""弱我"",""强他""]","","","","","","","","match","","","","","","","","","","key","f","16.665354330708663","768","428","j","false","nonmatch","img/triangle.png","弱他","强我","prac_ALT2_ability","practice_ability","","","","","","","","",""
"null","<span style='color:red; font-size: 70px;'>错误! </span>","null","html-keyboard-response","97","243611","0.0-8.0-1.0-1.0-0.0-1.43","7","7","7","7","7","5","5","5","5","5","5","2","1","2","2","2","2","2","2","5","5","5","5","5","4","4","4","5","5","7","7","6","8","8","6","7","8","7","7","7","7","7","7","7","7","1","7","7","1","7","6","7","7","6","6","7","7","7","7","7","7","7","7","6","7","7","7","7","7","7","6","7","7","7","7","7","7","6","7","602287984867278848","肖","498","Male","[""坏他"",""好我"",""坏我"",""好他""]","[""弱他"",""强我"",""弱我"",""强他""]","","","","","","","","","","","","","","","","","","","","","","","","","","","","","","feedback_test","","","","","","","","",""
"null","","null","psychophysics","98","245813","0.0-8.0-1.0-1.0-0.0-0.44","7","7","7","7","7","5","5","5","5","5","5","2","1","2","2","2","2","2","2","5","5","5","5","5","4","4","4","5","5","7","7","6","8","8","6","7","8","7","7","7","7","7","7","7","7","1","7","7","1","7","6","7","7","6","6","7","7","7","7","7","7","7","7","6","7","7","7","7","7","7","6","7","7","7","7","7","7","6","7","602287984867278848","肖","498","Male","[""坏他"",""好我"",""坏我"",""好他""]","[""弱他"",""强我"",""弱我"",""强他""]","","","","","","","","null","","","","","","","","","","key","null","16.6656488549617","768","428","f","false","match","img/diamond.png","弱我","弱我","prac_ALT2_ability","practice_ability","","","","","","","","",""
"null","<span class='add_' style='color:yellow; font-size: 70px;'> 太慢! </span>","null","html-keyboard-response","99","246314","0.0-8.0-1.0-1.0-0.0-1.44","7","7","7","7","7","5","5","5","5","5","5","2","1","2","2","2","2","2","2","5","5","5","5","5","4","4","4","5","5","7","7","6","8","8","6","7","8","7","7","7","7","7","7","7","7","1","7","7","1","7","6","7","7","6","6","7","7","7","7","7","7","7","7","6","7","7","7","7","7","7","6","7","7","7","7","7","7","6","7","602287984867278848","肖","498","Male","[""坏他"",""好我"",""坏我"",""好他""]","[""弱他"",""强我"",""弱我"",""强他""]","","","","","","","","","","","","","","","","","","","","","","","","","","","","","","feedback_test","","","","","","","","",""
"986","","f","psychophysics","100","248302","0.0-8.0-1.0-1.0-0.0-0.45","7","7","7","7","7","5","5","5","5","5","5","2","1","2","2","2","2","2","2","5","5","5","5","5","4","4","4","5","5","7","7","6","8","8","6","7","8","7","7","7","7","7","7","7","7","1","7","7","1","7","6","7","7","6","6","7","7","7","7","7","7","7","7","6","7","7","7","7","7","7","6","7","7","7","7","7","7","6","7","602287984867278848","肖","498","Male","[""坏他"",""好我"",""坏我"",""好他""]","[""弱他"",""强我"",""弱我"",""强他""]","","","","","","","","match","","","","","","","","","","key","f","16.665254237288135","768","428","f","true","match","img/ellipse.png","弱他","弱他","prac_ALT2_ability","practice_ability","","","","","","","","",""
"null","<span style='color:GreenYellow; font-size: 70px;'>正确! </span>","null","html-keyboard-response","101","248802","0.0-8.0-1.0-1.0-0.0-1.45","7","7","7","7","7","5","5","5","5","5","5","2","1","2","2","2","2","2","2","5","5","5","5","5","4","4","4","5","5","7","7","6","8","8","6","7","8","7","7","7","7","7","7","7","7","1","7","7","1","7","6","7","7","6","6","7","7","7","7","7","7","7","7","6","7","7","7","7","7","7","6","7","7","7","7","7","7","6","7","602287984867278848","肖","498","Male","[""坏他"",""好我"",""坏我"",""好他""]","[""弱他"",""强我"",""弱我"",""强他""]","","","","","","","","","","","","","","","","","","","","","","","","","","","","","","feedback_test","","","","","","","","",""
"779","","j","psychophysics","102","250582","0.0-8.0-1.0-1.0-0.0-0.46","7","7","7","7","7","5","5","5","5","5","5","2","1","2","2","2","2","2","2","5","5","5","5","5","4","4","4","5","5","7","7","6","8","8","6","7","8","7","7","7","7","7","7","7","7","1","7","7","1","7","6","7","7","6","6","7","7","7","7","7","7","7","7","6","7","7","7","7","7","7","6","7","7","7","7","7","7","6","7","602287984867278848","肖","498","Male","[""坏他"",""好我"",""坏我"",""好他""]","[""弱他"",""强我"",""弱我"",""强他""]","","","","","","","","nonmatch","","","","","","","","","","key","j","16.664150943396173","768","428","j","true","nonmatch","img/pentagon.png","弱他","强他","prac_ALT2_ability","practice_ability","","","","","","","","",""
"null","<span style='color:GreenYellow; font-size: 70px;'>正确! </span>","null","html-keyboard-response","103","251083","0.0-8.0-1.0-1.0-0.0-1.46","7","7","7","7","7","5","5","5","5","5","5","2","1","2","2","2","2","2","2","5","5","5","5","5","4","4","4","5","5","7","7","6","8","8","6","7","8","7","7","7","7","7","7","7","7","1","7","7","1","7","6","7","7","6","6","7","7","7","7","7","7","7","7","6","7","7","7","7","7","7","6","7","7","7","7","7","7","6","7","602287984867278848","肖","498","Male","[""坏他"",""好我"",""坏我"",""好他""]","[""弱他"",""强我"",""弱我"",""强他""]","","","","","","","","","","","","","","","","","","","","","","","","","","","","","","feedback_test","","","","","","","","",""
"1001","","j","psychophysics","104","253086","0.0-8.0-1.0-1.0-0.0-0.47","7","7","7","7","7","5","5","5","5","5","5","2","1","2","2","2","2","2","2","5","5","5","5","5","4","4","4","5","5","7","7","6","8","8","6","7","8","7","7","7","7","7","7","7","7","1","7","7","1","7","6","7","7","6","6","7","7","7","7","7","7","7","7","6","7","7","7","7","7","7","6","7","7","7","7","7","7","6","7","602287984867278848","肖","498","Male","[""坏他"",""好我"",""坏我"",""好他""]","[""弱他"",""强我"",""弱我"",""强他""]","","","","","","","","nonmatch","","","","","","","","","","key","j","16.666386554621752","768","428","j","true","nonmatch","img/pentagon.png","强我","强他","prac_ALT2_ability","practice_ability","","","","","","","","",""
"null","<span style='color:GreenYellow; font-size: 70px;'>正确! </span>","null","html-keyboard-response","105","253588","0.0-8.0-1.0-1.0-0.0-1.47","7","7","7","7","7","5","5","5","5","5","5","2","1","2","2","2","2","2","2","5","5","5","5","5","4","4","4","5","5","7","7","6","8","8","6","7","8","7","7","7","7","7","7","7","7","1","7","7","1","7","6","7","7","6","6","7","7","7","7","7","7","7","7","6","7","7","7","7","7","7","6","7","7","7","7","7","7","6","7","602287984867278848","肖","498","Male","[""坏他"",""好我"",""坏我"",""好他""]","[""弱他"",""强我"",""弱我"",""强他""]","","","","","","","","","","","","","","","","","","","","","","","","","","","","","","feedback_test","","","","","","","","",""
"2121","<style>.context{color:white; font-size: 35px; line-height:40px}</style>                          <div><p class='context'>您正确回答了67% 的试次。</p><p class='context'>您的平均反应时为839毫秒。</p><p class='context'>恭喜您完成练习。按空格键进入正式实验。</p><p class='footer' style='color:white;font-size: 35px; line-height:40px;'>请在进入正式实验实验之前将您的<span style='color: lightgreen;'>食指</span>放在电脑键盘的相应键位上进行按键。</p>"," ","html-keyboard-response","106","255710","0.0-8.0-1.0-2.0","7","7","7","7","7","5","5","5","5","5","5","2","1","2","2","2","2","2","2","5","5","5","5","5","4","4","4","5","5","7","7","6","8","8","6","7","8","7","7","7","7","7","7","7","7","1","7","7","1","7","6","7","7","6","6","7","7","7","7","7","7","7","7","6","7","7","7","7","7","7","6","7","7","7","7","7","7","6","7","602287984867278848","肖","498","Male","[""坏他"",""好我"",""坏我"",""好他""]","[""弱他"",""强我"",""弱我"",""强他""]","","","","","","","","","","","","","","","","","","","","","","","","","","","","","","","","","","","","","","",""
"765","
  <p style='color: white; font-size: 22px'>请您将手指放在按键上，准备进入正式的匹配任务。</p>
  <p> <div style = ""color: green""><按空格键进入下一阶段的匹配任务></div></p>
  "," ","html-keyboard-response","107","256478","0.0-8.0-1.0-3.0","7","7","7","7","7","5","5","5","5","5","5","2","1","2","2","2","2","2","2","5","5","5","5","5","4","4","4","5","5","7","7","6","8","8","6","7","8","7","7","7","7","7","7","7","7","1","7","7","1","7","6","7","7","6","6","7","7","7","7","7","7","7","7","6","7","7","7","7","7","7","6","7","7","7","7","7","7","6","7","602287984867278848","肖","498","Male","[""坏他"",""好我"",""坏我"",""好他""]","[""弱他"",""强我"",""弱我"",""强他""]","","","","","","","","","","","","","","","","","","","","","","","","","","","","","","","","","","","","","","",""
"1039","","j","psychophysics","108","258518","0.0-8.0-1.0-4.0-0.0-0.0","7","7","7","7","7","5","5","5","5","5","5","2","1","2","2","2","2","2","2","5","5","5","5","5","4","4","4","5","5","7","7","6","8","8","6","7","8","7","7","7","7","7","7","7","7","1","7","7","1","7","6","7","7","6","6","7","7","7","7","7","7","7","7","6","7","7","7","7","7","7","6","7","7","7","7","7","7","6","7","602287984867278848","肖","498","Male","[""坏他"",""好我"",""坏我"",""好他""]","[""弱他"",""强我"",""弱我"",""强他""]","","","","","","","","nonmatch","","","","","","","","","","key","j","16.66115702479339","768","428","j","true","nonmatch","img/diamond.png","强他","弱我","ALT2","ability","","","","","","","","",""
"null","<span style='color:GreenYellow; font-size: 70px;'>正确! </span>","null","html-keyboard-response","109","259019","0.0-8.0-1.0-4.0-0.0-1.0","7","7","7","7","7","5","5","5","5","5","5","2","1","2","2","2","2","2","2","5","5","5","5","5","4","4","4","5","5","7","7","6","8","8","6","7","8","7","7","7","7","7","7","7","7","1","7","7","1","7","6","7","7","6","6","7","7","7","7","7","7","7","7","6","7","7","7","7","7","7","6","7","7","7","7","7","7","6","7","602287984867278848","肖","498","Male","[""坏他"",""好我"",""坏我"",""好他""]","[""弱他"",""强我"",""弱我"",""强他""]","","","","","","","","","","","","","","","","","","","","","","","","","","","","","","feedback_test","","","","","","","","",""
"664","","f","psychophysics","110","260686","0.0-8.0-1.0-4.0-0.0-0.1","7","7","7","7","7","5","5","5","5","5","5","2","1","2","2","2","2","2","2","5","5","5","5","5","4","4","4","5","5","7","7","6","8","8","6","7","8","7","7","7","7","7","7","7","7","1","7","7","1","7","6","7","7","6","6","7","7","7","7","7","7","7","7","6","7","7","7","7","7","7","6","7","7","7","7","7","7","6","7","602287984867278848","肖","498","Male","[""坏他"",""好我"",""坏我"",""好他""]","[""弱他"",""强我"",""弱我"",""强他""]","","","","","","","","match","","","","","","","","","","key","f","16.66565656565651","768","428","j","false","nonmatch","img/triangle.png","弱我","强我","ALT2","ability","","","","","","","","",""
"null","<span style='color:red; font-size: 70px;'>错误! </span>","null","html-keyboard-response","111","261186","0.0-8.0-1.0-4.0-0.0-1.1","7","7","7","7","7","5","5","5","5","5","5","2","1","2","2","2","2","2","2","5","5","5","5","5","4","4","4","5","5","7","7","6","8","8","6","7","8","7","7","7","7","7","7","7","7","1","7","7","1","7","6","7","7","6","6","7","7","7","7","7","7","7","7","6","7","7","7","7","7","7","6","7","7","7","7","7","7","6","7","602287984867278848","肖","498","Male","[""坏他"",""好我"",""坏我"",""好他""]","[""弱他"",""强我"",""弱我"",""强他""]","","","","","","","","","","","","","","","","","","","","","","","","","","","","","","feedback_test","","","","","","","","",""
"850","","f","psychophysics","112","263038","0.0-8.0-1.0-4.0-0.0-0.2","7","7","7","7","7","5","5","5","5","5","5","2","1","2","2","2","2","2","2","5","5","5","5","5","4","4","4","5","5","7","7","6","8","8","6","7","8","7","7","7","7","7","7","7","7","1","7","7","1","7","6","7","7","6","6","7","7","7","7","7","7","7","7","6","7","7","7","7","7","7","6","7","7","7","7","7","7","6","7","602287984867278848","肖","498","Male","[""坏他"",""好我"",""坏我"",""好他""]","[""弱他"",""强我"",""弱我"",""强他""]","","","","","","","","match","","","","","","","","","","key","f","16.66636363636353","768","428","j","false","nonmatch","img/triangle.png","弱他","强我","ALT2","ability","","","","","","","","",""
"null","<span style='color:red; font-size: 70px;'>错误! </span>","null","html-keyboard-response","113","263539","0.0-8.0-1.0-4.0-0.0-1.2","7","7","7","7","7","5","5","5","5","5","5","2","1","2","2","2","2","2","2","5","5","5","5","5","4","4","4","5","5","7","7","6","8","8","6","7","8","7","7","7","7","7","7","7","7","1","7","7","1","7","6","7","7","6","6","7","7","7","7","7","7","7","7","6","7","7","7","7","7","7","6","7","7","7","7","7","7","6","7","602287984867278848","肖","498","Male","[""坏他"",""好我"",""坏我"",""好他""]","[""弱他"",""强我"",""弱我"",""强他""]","","","","","","","","","","","","","","","","","","","","","","","","","","","","","","feedback_test","","","","","","","","",""
"938","","j","psychophysics","114","265478","0.0-8.0-1.0-4.0-0.0-0.3","7","7","7","7","7","5","5","5","5","5","5","2","1","2","2","2","2","2","2","5","5","5","5","5","4","4","4","5","5","7","7","6","8","8","6","7","8","7","7","7","7","7","7","7","7","1","7","7","1","7","6","7","7","6","6","7","7","7","7","7","7","7","7","6","7","7","7","7","7","7","6","7","7","7","7","7","7","6","7","602287984867278848","肖","498","Male","[""坏他"",""好我"",""坏我"",""好他""]","[""弱他"",""强我"",""弱我"",""强他""]","","","","","","","","nonmatch","","","","","","","","","","key","j","16.666086956521536","768","428","j","true","nonmatch","img/ellipse.png","强他","弱他","ALT2","ability","","","","","","","","",""
"null","<span style='color:GreenYellow; font-size: 70px;'>正确! </span>","null","html-keyboard-response","115","265980","0.0-8.0-1.0-4.0-0.0-1.3","7","7","7","7","7","5","5","5","5","5","5","2","1","2","2","2","2","2","2","5","5","5","5","5","4","4","4","5","5","7","7","6","8","8","6","7","8","7","7","7","7","7","7","7","7","1","7","7","1","7","6","7","7","6","6","7","7","7","7","7","7","7","7","6","7","7","7","7","7","7","6","7","7","7","7","7","7","6","7","602287984867278848","肖","498","Male","[""坏他"",""好我"",""坏我"",""好他""]","[""弱他"",""强我"",""弱我"",""强他""]","","","","","","","","","","","","","","","","","","","","","","","","","","","","","","feedback_test","","","","","","","","",""
"720","","f","psychophysics","116","267702","0.0-8.0-1.0-4.0-0.0-0.4","7","7","7","7","7","5","5","5","5","5","5","2","1","2","2","2","2","2","2","5","5","5","5","5","4","4","4","5","5","7","7","6","8","8","6","7","8","7","7","7","7","7","7","7","7","1","7","7","1","7","6","7","7","6","6","7","7","7","7","7","7","7","7","6","7","7","7","7","7","7","6","7","7","7","7","7","7","6","7","602287984867278848","肖","498","Male","[""坏他"",""好我"",""坏我"",""好他""]","[""弱他"",""强我"",""弱我"",""强他""]","","","","","","","","match","","","","","","","","","","key","f","16.666666666666668","768","428","f","true","match","img/ellipse.png","弱他","弱他","ALT2","ability","","","","","","","","",""
"null","<span style='color:GreenYellow; font-size: 70px;'>正确! </span>","null","html-keyboard-response","117","268208","0.0-8.0-1.0-4.0-0.0-1.4","7","7","7","7","7","5","5","5","5","5","5","2","1","2","2","2","2","2","2","5","5","5","5","5","4","4","4","5","5","7","7","6","8","8","6","7","8","7","7","7","7","7","7","7","7","1","7","7","1","7","6","7","7","6","6","7","7","7","7","7","7","7","7","6","7","7","7","7","7","7","6","7","7","7","7","7","7","6","7","602287984867278848","肖","498","Male","[""坏他"",""好我"",""坏我"",""好他""]","[""弱他"",""强我"",""弱我"",""强他""]","","","","","","","","","","","","","","","","","","","","","","","","","","","","","","feedback_test","","","","","","","","",""
"644","","f","psychophysics","118","269854","0.0-8.0-1.0-4.0-0.0-0.5","7","7","7","7","7","5","5","5","5","5","5","2","1","2","2","2","2","2","2","5","5","5","5","5","4","4","4","5","5","7","7","6","8","8","6","7","8","7","7","7","7","7","7","7","7","1","7","7","1","7","6","7","7","6","6","7","7","7","7","7","7","7","7","6","7","7","7","7","7","7","6","7","7","7","7","7","7","6","7","602287984867278848","肖","498","Male","[""坏他"",""好我"",""坏我"",""好他""]","[""弱他"",""强我"",""弱我"",""强他""]","","","","","","","","match","","","","","","","","","","key","f","16.665306122448506","768","428","f","true","match","img/triangle.png","强我","强我","ALT2","ability","","","","","","","","",""
"null","<span style='color:GreenYellow; font-size: 70px;'>正确! </span>","null","html-keyboard-response","119","270355","0.0-8.0-1.0-4.0-0.0-1.5","7","7","7","7","7","5","5","5","5","5","5","2","1","2","2","2","2","2","2","5","5","5","5","5","4","4","4","5","5","7","7","6","8","8","6","7","8","7","7","7","7","7","7","7","7","1","7","7","1","7","6","7","7","6","6","7","7","7","7","7","7","7","7","6","7","7","7","7","7","7","6","7","7","7","7","7","7","6","7","602287984867278848","肖","498","Male","[""坏他"",""好我"",""坏我"",""好他""]","[""弱他"",""强我"",""弱我"",""强他""]","","","","","","","","","","","","","","","","","","","","","","","","","","","","","","feedback_test","","","","","","","","",""
"762","","j","psychophysics","120","272118","0.0-8.0-1.0-4.0-0.0-0.6","7","7","7","7","7","5","5","5","5","5","5","2","1","2","2","2","2","2","2","5","5","5","5","5","4","4","4","5","5","7","7","6","8","8","6","7","8","7","7","7","7","7","7","7","7","1","7","7","1","7","6","7","7","6","6","7","7","7","7","7","7","7","7","6","7","7","7","7","7","7","6","7","7","7","7","7","7","6","7","602287984867278848","肖","498","Male","[""坏他"",""好我"",""坏我"",""好他""]","[""弱他"",""强我"",""弱我"",""强他""]","","","","","","","","nonmatch","","","","","","","","","","key","j","16.665714285714508","768","428","f","false","match","img/diamond.png","弱我","弱我","ALT2","ability","","","","","","","","",""
"null","<span style='color:red; font-size: 70px;'>错误! </span>","null","html-keyboard-response","121","272619","0.0-8.0-1.0-4.0-0.0-1.6","7","7","7","7","7","5","5","5","5","5","5","2","1","2","2","2","2","2","2","5","5","5","5","5","4","4","4","5","5","7","7","6","8","8","6","7","8","7","7","7","7","7","7","7","7","1","7","7","1","7","6","7","7","6","6","7","7","7","7","7","7","7","7","6","7","7","7","7","7","7","6","7","7","7","7","7","7","6","7","602287984867278848","肖","498","Male","[""坏他"",""好我"",""坏我"",""好他""]","[""弱他"",""强我"",""弱我"",""强他""]","","","","","","","","","","","","","","","","","","","","","","","","","","","","","","feedback_test","","","","","","","","",""
"953","","f","psychophysics","122","274574","0.0-8.0-1.0-4.0-0.0-0.7","7","7","7","7","7","5","5","5","5","5","5","2","1","2","2","2","2","2","2","5","5","5","5","5","4","4","4","5","5","7","7","6","8","8","6","7","8","7","7","7","7","7","7","7","7","1","7","7","1","7","6","7","7","6","6","7","7","7","7","7","7","7","7","6","7","7","7","7","7","7","6","7","7","7","7","7","7","6","7","602287984867278848","肖","498","Male","[""坏他"",""好我"",""坏我"",""好他""]","[""弱他"",""强我"",""弱我"",""强他""]","","","","","","","","match","","","","","","","","","","key","f","16.665517241379412","768","428","j","false","nonmatch","img/ellipse.png","强我","弱他","ALT2","ability","","","","","","","","",""
"null","<span style='color:red; font-size: 70px;'>错误! </span>","null","html-keyboard-response","123","275076","0.0-8.0-1.0-4.0-0.0-1.7","7","7","7","7","7","5","5","5","5","5","5","2","1","2","2","2","2","2","2","5","5","5","5","5","4","4","4","5","5","7","7","6","8","8","6","7","8","7","7","7","7","7","7","7","7","1","7","7","1","7","6","7","7","6","6","7","7","7","7","7","7","7","7","6","7","7","7","7","7","7","6","7","7","7","7","7","7","6","7","602287984867278848","肖","498","Male","[""坏他"",""好我"",""坏我"",""好他""]","[""弱他"",""强我"",""弱我"",""强他""]","","","","","","","","","","","","","","","","","","","","","","","","","","","","","","feedback_test","","","","","","","","",""
"761","","f","psychophysics","124","276838","0.0-8.0-1.0-4.0-0.0-0.8","7","7","7","7","7","5","5","5","5","5","5","2","1","2","2","2","2","2","2","5","5","5","5","5","4","4","4","5","5","7","7","6","8","8","6","7","8","7","7","7","7","7","7","7","7","1","7","7","1","7","6","7","7","6","6","7","7","7","7","7","7","7","7","6","7","7","7","7","7","7","6","7","7","7","7","7","7","6","7","602287984867278848","肖","498","Male","[""坏他"",""好我"",""坏我"",""好他""]","[""弱他"",""强我"",""弱我"",""强他""]","","","","","","","","match","","","","","","","","","","key","f","16.665384615384728","768","428","f","true","match","img/pentagon.png","强他","强他","ALT2","ability","","","","","","","","",""
"null","<span style='color:GreenYellow; font-size: 70px;'>正确! </span>","null","html-keyboard-response","125","277339","0.0-8.0-1.0-4.0-0.0-1.8","7","7","7","7","7","5","5","5","5","5","5","2","1","2","2","2","2","2","2","5","5","5","5","5","4","4","4","5","5","7","7","6","8","8","6","7","8","7","7","7","7","7","7","7","7","1","7","7","1","7","6","7","7","6","6","7","7","7","7","7","7","7","7","6","7","7","7","7","7","7","6","7","7","7","7","7","7","6","7","602287984867278848","肖","498","Male","[""坏他"",""好我"",""坏我"",""好他""]","[""弱他"",""强我"",""弱我"",""强他""]","","","","","","","","","","","","","","","","","","","","","","","","","","","","","","feedback_test","","","","","","","","",""
"746","","j","psychophysics","126","279086","0.0-8.0-1.0-4.0-0.0-0.9","7","7","7","7","7","5","5","5","5","5","5","2","1","2","2","2","2","2","2","5","5","5","5","5","4","4","4","5","5","7","7","6","8","8","6","7","8","7","7","7","7","7","7","7","7","1","7","7","1","7","6","7","7","6","6","7","7","7","7","7","7","7","7","6","7","7","7","7","7","7","6","7","7","7","7","7","7","6","7","602287984867278848","肖","498","Male","[""坏他"",""好我"",""坏我"",""好他""]","[""弱他"",""强我"",""弱我"",""强他""]","","","","","","","","nonmatch","","","","","","","","","","key","j","16.665384615384728","768","428","j","true","nonmatch","img/diamond.png","强我","弱我","ALT2","ability","","","","","","","","",""
"null","<span style='color:GreenYellow; font-size: 70px;'>正确! </span>","null","html-keyboard-response","127","279588","0.0-8.0-1.0-4.0-0.0-1.9","7","7","7","7","7","5","5","5","5","5","5","2","1","2","2","2","2","2","2","5","5","5","5","5","4","4","4","5","5","7","7","6","8","8","6","7","8","7","7","7","7","7","7","7","7","1","7","7","1","7","6","7","7","6","6","7","7","7","7","7","7","7","7","6","7","7","7","7","7","7","6","7","7","7","7","7","7","6","7","602287984867278848","肖","498","Male","[""坏他"",""好我"",""坏我"",""好他""]","[""弱他"",""强我"",""弱我"",""强他""]","","","","","","","","","","","","","","","","","","","","","","","","","","","","","","feedback_test","","","","","","","","",""
"832","","j","psychophysics","128","281422","0.0-8.0-1.0-4.0-0.0-0.10","7","7","7","7","7","5","5","5","5","5","5","2","1","2","2","2","2","2","2","5","5","5","5","5","4","4","4","5","5","7","7","6","8","8","6","7","8","7","7","7","7","7","7","7","7","1","7","7","1","7","6","7","7","6","6","7","7","7","7","7","7","7","7","6","7","7","7","7","7","7","6","7","7","7","7","7","7","6","7","602287984867278848","肖","498","Male","[""坏他"",""好我"",""坏我"",""好他""]","[""弱他"",""强我"",""弱我"",""强他""]","","","","","","","","nonmatch","","","","","","","","","","key","j","16.666055045871346","768","428","j","true","nonmatch","img/pentagon.png","弱他","强他","ALT2","ability","","","","","","","","",""
"null","<span style='color:GreenYellow; font-size: 70px;'>正确! </span>","null","html-keyboard-response","129","281923","0.0-8.0-1.0-4.0-0.0-1.10","7","7","7","7","7","5","5","5","5","5","5","2","1","2","2","2","2","2","2","5","5","5","5","5","4","4","4","5","5","7","7","6","8","8","6","7","8","7","7","7","7","7","7","7","7","1","7","7","1","7","6","7","7","6","6","7","7","7","7","7","7","7","7","6","7","7","7","7","7","7","6","7","7","7","7","7","7","6","7","602287984867278848","肖","498","Male","[""坏他"",""好我"",""坏我"",""好他""]","[""弱他"",""强我"",""弱我"",""强他""]","","","","","","","","","","","","","","","","","","","","","","","","","","","","","","feedback_test","","","","","","","","",""
"1146","","j","psychophysics","130","284070","0.0-8.0-1.0-4.0-0.0-0.11","7","7","7","7","7","5","5","5","5","5","5","2","1","2","2","2","2","2","2","5","5","5","5","5","4","4","4","5","5","7","7","6","8","8","6","7","8","7","7","7","7","7","7","7","7","1","7","7","1","7","6","7","7","6","6","7","7","7","7","7","7","7","7","6","7","7","7","7","7","7","6","7","7","7","7","7","7","6","7","602287984867278848","肖","498","Male","[""坏他"",""好我"",""坏我"",""好他""]","[""弱他"",""强我"",""弱我"",""强他""]","","","","","","","","nonmatch","","","","","","","","","","key","j","16.66562500000009","768","428","f","false","match","img/diamond.png","弱我","弱我","ALT2","ability","","","","","","","","",""
"null","<span style='color:red; font-size: 70px;'>错误! </span>","null","html-keyboard-response","131","284571","0.0-8.0-1.0-4.0-0.0-1.11","7","7","7","7","7","5","5","5","5","5","5","2","1","2","2","2","2","2","2","5","5","5","5","5","4","4","4","5","5","7","7","6","8","8","6","7","8","7","7","7","7","7","7","7","7","1","7","7","1","7","6","7","7","6","6","7","7","7","7","7","7","7","7","6","7","7","7","7","7","7","6","7","7","7","7","7","7","6","7","602287984867278848","肖","498","Male","[""坏他"",""好我"",""坏我"",""好他""]","[""弱他"",""强我"",""弱我"",""强他""]","","","","","","","","","","","","","","","","","","","","","","","","","","","","","","feedback_test","","","","","","","","",""
"793","","j","psychophysics","132","286366","0.0-8.0-1.0-4.0-0.0-0.12","7","7","7","7","7","5","5","5","5","5","5","2","1","2","2","2","2","2","2","5","5","5","5","5","4","4","4","5","5","7","7","6","8","8","6","7","8","7","7","7","7","7","7","7","7","1","7","7","1","7","6","7","7","6","6","7","7","7","7","7","7","7","7","6","7","7","7","7","7","7","6","7","7","7","7","7","7","6","7","602287984867278848","肖","498","Male","[""坏他"",""好我"",""坏我"",""好他""]","[""弱他"",""强我"",""弱我"",""强他""]","","","","","","","","nonmatch","","","","","","","","","","key","j","16.666355140187353","768","428","j","true","nonmatch","img/pentagon.png","弱我","强他","ALT2","ability","","","","","","","","",""
"null","<span style='color:GreenYellow; font-size: 70px;'>正确! </span>","null","html-keyboard-response","133","286867","0.0-8.0-1.0-4.0-0.0-1.12","7","7","7","7","7","5","5","5","5","5","5","2","1","2","2","2","2","2","2","5","5","5","5","5","4","4","4","5","5","7","7","6","8","8","6","7","8","7","7","7","7","7","7","7","7","1","7","7","1","7","6","7","7","6","6","7","7","7","7","7","7","7","7","6","7","7","7","7","7","7","6","7","7","7","7","7","7","6","7","602287984867278848","肖","498","Male","[""坏他"",""好我"",""坏我"",""好他""]","[""弱他"",""强我"",""弱我"",""强他""]","","","","","","","","","","","","","","","","","","","","","","","","","","","","","","feedback_test","","","","","","","","",""
"704","","f","psychophysics","134","288574","0.0-8.0-1.0-4.0-0.0-0.13","7","7","7","7","7","5","5","5","5","5","5","2","1","2","2","2","2","2","2","5","5","5","5","5","4","4","4","5","5","7","7","6","8","8","6","7","8","7","7","7","7","7","7","7","7","1","7","7","1","7","6","7","7","6","6","7","7","7","7","7","7","7","7","6","7","7","7","7","7","7","6","7","7","7","7","7","7","6","7","602287984867278848","肖","498","Male","[""坏他"",""好我"",""坏我"",""好他""]","[""弱他"",""强我"",""弱我"",""强他""]","","","","","","","","match","","","","","","","","","","key","f","16.666336633663253","768","428","f","true","match","img/ellipse.png","弱他","弱他","ALT2","ability","","","","","","","","",""
"null","<span style='color:GreenYellow; font-size: 70px;'>正确! </span>","null","html-keyboard-response","135","289075","0.0-8.0-1.0-4.0-0.0-1.13","7","7","7","7","7","5","5","5","5","5","5","2","1","2","2","2","2","2","2","5","5","5","5","5","4","4","4","5","5","7","7","6","8","8","6","7","8","7","7","7","7","7","7","7","7","1","7","7","1","7","6","7","7","6","6","7","7","7","7","7","7","7","7","6","7","7","7","7","7","7","6","7","7","7","7","7","7","6","7","602287984867278848","肖","498","Male","[""坏他"",""好我"",""坏我"",""好他""]","[""弱他"",""强我"",""弱我"",""强他""]","","","","","","","","","","","","","","","","","","","","","","","","","","","","","","feedback_test","","","","","","","","",""
"1010","","j","psychophysics","136","291086","0.0-8.0-1.0-4.0-0.0-0.14","7","7","7","7","7","5","5","5","5","5","5","2","1","2","2","2","2","2","2","5","5","5","5","5","4","4","4","5","5","7","7","6","8","8","6","7","8","7","7","7","7","7","7","7","7","1","7","7","1","7","6","7","7","6","6","7","7","7","7","7","7","7","7","6","7","7","7","7","7","7","6","7","7","7","7","7","7","6","7","602287984867278848","肖","498","Male","[""坏他"",""好我"",""坏我"",""好他""]","[""弱他"",""强我"",""弱我"",""强他""]","","","","","","","","nonmatch","","","","","","","","","","key","j","16.664705882352745","768","428","f","false","match","img/triangle.png","强我","强我","ALT2","ability","","","","","","","","",""
"null","<span style='color:red; font-size: 70px;'>错误! </span>","null","html-keyboard-response","137","291589","0.0-8.0-1.0-4.0-0.0-1.14","7","7","7","7","7","5","5","5","5","5","5","2","1","2","2","2","2","2","2","5","5","5","5","5","4","4","4","5","5","7","7","6","8","8","6","7","8","7","7","7","7","7","7","7","7","1","7","7","1","7","6","7","7","6","6","7","7","7","7","7","7","7","7","6","7","7","7","7","7","7","6","7","7","7","7","7","7","6","7","602287984867278848","肖","498","Male","[""坏他"",""好我"",""坏我"",""好他""]","[""弱他"",""强我"",""弱我"",""强他""]","","","","","","","","","","","","","","","","","","","","","","","","","","","","","","feedback_test","","","","","","","","",""
"823","","j","psychophysics","138","293414","0.0-8.0-1.0-4.0-0.0-0.15","7","7","7","7","7","5","5","5","5","5","5","2","1","2","2","2","2","2","2","5","5","5","5","5","4","4","4","5","5","7","7","6","8","8","6","7","8","7","7","7","7","7","7","7","7","1","7","7","1","7","6","7","7","6","6","7","7","7","7","7","7","7","7","6","7","7","7","7","7","7","6","7","7","7","7","7","7","6","7","602287984867278848","肖","498","Male","[""坏他"",""好我"",""坏我"",""好他""]","[""弱他"",""强我"",""弱我"",""强他""]","","","","","","","","nonmatch","","","","","","","","","","key","j","16.665137614678898","768","428","j","true","nonmatch","img/pentagon.png","强我","强他","ALT2","ability","","","","","","","","",""
