"rt","stimulus","response","trial_type","trial_index","time_elapsed","internal_node_id","swb_1","swb_2","swb_3","swb_4","swb_5","LOT_1","LOT_2","LOT_3","LOT_4","LOT_5","LOT_6","IPC_1","IPC_2","IPC_3","IPC_4","IPC_5","IPC_6","IPC_7","IPC_8","MorIden_1","MorIden_2","MorIden_3","MorIden_4","MorIden_5","MorIden_6","MorIden_7","MorIden_8","MorIden_9","MorIden_10","moralSeImag_1","moralSeImag_2","moralSeImag_3","moralSeImag_4","moralSeImag_5","moralSeImag_6","moralSeImag_7","moralSeImag_8","moralSeImag_9","sde_1","sde_2","sde_3","sde_4","sde_5","sde_6","sde_7","sde_8","sde_9","sde_10","trap2","sde_11","sde_12","sde_13","sde_14","sde_15","sde_16","sde_17","sde_18","sde_19","sde_20","IM_1","IM_2","IM_3","IM_4","IM_5","IM_6","IM_7","IM_8","IM_9","IM_10","IM_11","IM_12","IM_13","IM_14","IM_15","IM_16","IM_17","IM_18","IM_19","IM_20","subj_idx","friend_name","ParticipantID","Sex","Word","Word2","value","success","timeout","failed_images","failed_audio","failed_video","user_agent","responses","item_order","radio_event_ids","radio_event_times","key_event_times","mouse_event_times","straightlining","zigzagging","honeypot","view_history","response_type","key_press","avg_frame_time","center_x","center_y","correct_response","correct","identity","Image","word","condition","task_id","screen_id","time_stamp","person","valence","domain","math","status","duration","question_order","trap2_item"
"2059","
   <p><div style='color:white; font-size: 25px'>您好，欢迎参加本次实验。</div></p>
   <p><div style='color:white; font-size: 25px'>为充分保障您的权利，请确保您已经知晓并同意《参与实验同意书》以及《数据公开知情同意书》。</div></p>
   <p><div style='color:white; font-size: 25px'>如果您未见过上述内容，请咨询实验员。</div></p>
   <p style='color:white; font-size: 25px'>如果您选择继续实验，则表示您已经清楚两份知情同意书的内容并同意。</p>
   <p><div style = ""color: pink;font-size:30px;"">请确保您记得day0的实验编号，您将在本次实验输入该编号，若您忘记，请咨询实验员后作答。</div></p>
   <p><div style = ""color:lightblue;font-size:25px;"">请您尽可能认真地作答，我们将依据您在各问卷和按键任务中的作答质量发放报酬。</div></p>
   <p> <div style = ""color: green""><按空格键至下页></div> </p>
   "," ","html-keyboard-response","0","2060","0.0-0.0","7","7","7","7","6","5","5","5","5","5","5","2","1","2","2","2","2","2","2","5","5","5","5","5","4","5","4","5","5","7","7","8","8","7","7","7","7","7","7","7","7","7","7","7","6","1","7","7","1","7","7","7","6","7","6","7","7","7","7","7","7","7","7","6","7","7","7","7","7","7","7","7","7","7","7","7","7","6","7","598908778728914944","黄","249","Male","[""坏我"",""好他"",""坏他"",""好我""]","[""弱我"",""强他"",""弱他"",""强我""]","","","","","","","","","","","","","","","","","","","","","","","","","","","","","","","","","","","","","","",""
"","","","call-function","1","2060","0.0-1.0-0.0","7","7","7","7","6","5","5","5","5","5","5","2","1","2","2","2","2","2","2","5","5","5","5","5","4","5","4","5","5","7","7","8","8","7","7","7","7","7","7","7","7","7","7","7","6","1","7","7","1","7","7","7","6","7","6","7","7","7","7","7","7","7","7","6","7","7","7","7","7","7","7","7","7","7","7","7","7","6","7","598908778728914944","黄","249","Male","[""坏我"",""好他"",""坏他"",""好我""]","[""弱我"",""强他"",""弱他"",""强我""]","","","","","","","","","","","","","","","","","","","","","","","","","","","","","","","","","","","","","","",""
"12080","","[{""name"":""Sex"",""value"":""0""},{""name"":""friend_name"",""value"":""黄""},{""name"":""ParticipantID"",""value"":""249""}]","survey-html-form","2","14141","0.0-1.0-1.0","7","7","7","7","6","5","5","5","5","5","5","2","1","2","2","2","2","2","2","5","5","5","5","5","4","5","4","5","5","7","7","8","8","7","7","7","7","7","7","7","7","7","7","7","6","1","7","7","1","7","7","7","6","7","6","7","7","7","7","7","7","7","7","6","7","7","7","7","7","7","7","7","7","7","7","7","7","6","7","598908778728914944","黄","249","Male","[""坏我"",""好他"",""坏他"",""好我""]","[""弱我"",""强他"",""弱他"",""强我""]","","","","","","","","","","","","","","","","","","","","","","","","","","","","","","","","","","","","","","",""
"","","","preload","3","14393","0.0-2.0","7","7","7","7","6","5","5","5","5","5","5","2","1","2","2","2","2","2","2","5","5","5","5","5","4","5","4","5","5","7","7","8","8","7","7","7","7","7","7","7","7","7","7","7","6","1","7","7","1","7","7","7","6","7","6","7","7","7","7","7","7","7","7","6","7","7","7","7","7","7","7","7","7","7","7","7","7","6","7","598908778728914944","黄","249","Male","[""坏我"",""好他"",""坏他"",""好我""]","[""弱我"",""强他"",""弱他"",""强我""]","","true","false","[]","[]","[]","","","","","","","","","","","","","","","","","","","","","","","","","","","","","","","","",""
"","","","fullscreen","4","15313","0.0-3.0","7","7","7","7","6","5","5","5","5","5","5","2","1","2","2","2","2","2","2","5","5","5","5","5","4","5","4","5","5","7","7","8","8","7","7","7","7","7","7","7","7","7","7","7","6","1","7","7","1","7","7","7","6","7","6","7","7","7","7","7","7","7","7","6","7","7","7","7","7","7","7","7","7","7","7","7","7","6","7","598908778728914944","黄","249","Male","[""坏我"",""好他"",""坏他"",""好我""]","[""弱我"",""强他"",""弱他"",""强我""]","","true","","","","","{}","","","","","","","","","","","","","","","","","","","","","","","","","","","","","","","",""
"5113.300001144409","","{""Q01"":""7"",""Q02"":""7"",""Q03"":""7"",""Q04"":""7"",""Q05"":""6""}","survey-template","5","20429","0.0-4.0","7","7","7","7","6","5","5","5","5","5","5","2","1","2","2","2","2","2","2","5","5","5","5","5","4","5","4","5","5","7","7","8","8","7","7","7","7","7","7","7","7","7","7","7","6","1","7","7","1","7","7","7","6","7","6","7","7","7","7","7","7","7","7","6","7","7","7","7","7","7","7","7","7","7","7","7","7","6","7","598908778728914944","黄","249","Male","[""坏我"",""好他"",""坏他"",""好我""]","[""弱我"",""强他"",""弱他"",""强我""]","","","","","","","","{""Q01"":""7"",""Q02"":""7"",""Q03"":""7"",""Q04"":""7"",""Q05"":""6""}","[0,1,2,3,4]","[""Q01"",""Q02"",""Q03"",""Q04"",""Q05""]","[1257.3000011444092,2241.2000007629395,2648.7000007629395,3057.800001144409,4576.60000038147]","[]","[1257.3000011444092,1760.8999996185303,2241.2000007629395,2648.7000007629395,3057.800001144409,3504.6000003814697,4576.60000038147,5112.60000038147]","0.8","0.25","0","","","","","","","","","","","","","","","","","","","","","","",""
"8469.39999961853","","{""Q01"":""5"",""Q02"":""5"",""Q03"":""5"",""Q04"":""5"",""Q05"":""5"",""Q06"":""5""}","survey-template","6","28900","0.0-5.0","7","7","7","7","6","5","5","5","5","5","5","2","1","2","2","2","2","2","2","5","5","5","5","5","4","5","4","5","5","7","7","8","8","7","7","7","7","7","7","7","7","7","7","7","6","1","7","7","1","7","7","7","6","7","6","7","7","7","7","7","7","7","7","6","7","7","7","7","7","7","7","7","7","7","7","7","7","6","7","598908778728914944","黄","249","Male","[""坏我"",""好他"",""坏他"",""好我""]","[""弱我"",""强他"",""弱他"",""强我""]","","","","","","","","{""Q01"":""5"",""Q02"":""5"",""Q03"":""5"",""Q04"":""5"",""Q05"":""5"",""Q06"":""5""}","[0,1,2,3,4,5]","[""Q01"",""Q02"",""Q03"",""Q04"",""Q05"",""Q06""]","[2133,3069.199998855591,3798.3999996185303,5140.89999961853,5461.10000038147,6966.5]","[]","[2133,3069.199998855591,3798.3999996185303,4638.299999237061,5140.89999961853,5461.10000038147,6966.5,8468.89999961853]","0.5","0.8","0","","","","","","","","","","","","","","","","","","","","","","",""
"9110.19999885559","","{""Q01"":""2"",""Q02"":""1"",""Q03"":""2"",""Q04"":""2"",""Q05"":""2"",""Q06"":""2"",""Q07"":""2"",""Q08"":""2""}","survey-template","7","38013","0.0-6.0","7","7","7","7","6","5","5","5","5","5","5","2","1","2","2","2","2","2","2","5","5","5","5","5","4","5","4","5","5","7","7","8","8","7","7","7","7","7","7","7","7","7","7","7","6","1","7","7","1","7","7","7","6","7","6","7","7","7","7","7","7","7","7","6","7","7","7","7","7","7","7","7","7","7","7","7","7","6","7","598908778728914944","黄","249","Male","[""坏我"",""好他"",""坏他"",""好我""]","[""弱我"",""强他"",""弱他"",""强我""]","","","","","","","","{""Q01"":""2"",""Q02"":""1"",""Q03"":""2"",""Q04"":""2"",""Q05"":""2"",""Q06"":""2"",""Q07"":""2"",""Q08"":""2""}","[0,1,2,3,4,5,6,7]","[""Q01"",""Q02"",""Q03"",""Q02"",""Q04"",""Q05"",""Q06"",""Q08"",""Q07""]","[1541.5,1965.3999996185303,2341.3999996185303,4173.5,4749.39999961853,5117.39999961853,5471.099998474121,6525.599998474121,6973.5]","[]","[1310.099998474121,1541.5,1965.3999996185303,2341.3999996185303,3453.599998474121,4173.5,4749.39999961853,5117.39999961853,5471.099998474121,5837.599998474121,6525.599998474121,6973.5,9109.39999961853]","0.875","0.2857142857142857","0","","","","","","","","","","","","","","","","","","","","","","",""
"2990","","","instructions","8","41004","0.0-7.0","7","7","7","7","6","5","5","5","5","5","5","2","1","2","2","2","2","2","2","5","5","5","5","5","4","5","4","5","5","7","7","8","8","7","7","7","7","7","7","7","7","7","7","7","6","1","7","7","1","7","7","7","6","7","6","7","7","7","7","7","7","7","7","6","7","7","7","7","7","7","7","7","7","7","7","7","7","6","7","598908778728914944","黄","249","Male","[""坏我"",""好他"",""坏他"",""好我""]","[""弱我"",""强他"",""弱他"",""强我""]","","","","","","","","","","","","","","","","","[{""page_index"":0,""viewing_time"":2989}]","","","","","","","","","","","","","","","","","","","","","",""
"194560","","","instructions","9","235565","0.0-8.0-1.0-0.0","7","7","7","7","6","5","5","5","5","5","5","2","1","2","2","2","2","2","2","5","5","5","5","5","4","5","4","5","5","7","7","8","8","7","7","7","7","7","7","7","7","7","7","7","6","1","7","7","1","7","7","7","6","7","6","7","7","7","7","7","7","7","7","6","7","7","7","7","7","7","7","7","7","7","7","7","7","6","7","598908778728914944","黄","249","Male","[""坏我"",""好他"",""坏他"",""好我""]","[""弱我"",""强他"",""弱他"",""强我""]","","","","","","","","","","","","","","","","","[{""page_index"":0,""viewing_time"":87351},{""page_index"":1,""viewing_time"":105728},{""page_index"":2,""viewing_time"":800},{""page_index"":3,""viewing_time"":680}]","","","","","","","","","","","","","","","","","","","","","",""
"572","","j","psychophysics","10","237141","0.0-8.0-1.0-1.0-0.0-0.0","7","7","7","7","6","5","5","5","5","5","5","2","1","2","2","2","2","2","2","5","5","5","5","5","4","5","4","5","5","7","7","8","8","7","7","7","7","7","7","7","7","7","7","7","6","1","7","7","1","7","7","7","6","7","6","7","7","7","7","7","7","7","7","6","7","7","7","7","7","7","7","7","7","7","7","7","7","6","7","598908778728914944","黄","249","Male","[""坏我"",""好他"",""坏他"",""好我""]","[""弱我"",""强他"",""弱他"",""强我""]","","","","","","","","match","","","","","","","","","","key","j","16.65106382978705","768","428","f","false","nonmatch","img/circle.png","强他","强我","prac_ALT2_ability","practice_ability","","","","","","","","",""
"null","<span style='color:red; font-size: 70px;'>错误! </span>","null","html-keyboard-response","11","237642","0.0-8.0-1.0-1.0-0.0-1.0","7","7","7","7","6","5","5","5","5","5","5","2","1","2","2","2","2","2","2","5","5","5","5","5","4","5","4","5","5","7","7","8","8","7","7","7","7","7","7","7","7","7","7","7","6","1","7","7","1","7","7","7","6","7","6","7","7","7","7","7","7","7","7","6","7","7","7","7","7","7","7","7","7","7","7","7","7","6","7","598908778728914944","黄","249","Male","[""坏我"",""好他"",""坏他"",""好我""]","[""弱我"",""强他"",""弱他"",""强我""]","","","","","","","","","","","","","","","","","","","","","","","","","","","","","","feedback_test","","","","","","","","",""
"689","","j","psychophysics","12","239332","0.0-8.0-1.0-1.0-0.0-0.1","7","7","7","7","6","5","5","5","5","5","5","2","1","2","2","2","2","2","2","5","5","5","5","5","4","5","4","5","5","7","7","8","8","7","7","7","7","7","7","7","7","7","7","7","6","1","7","7","1","7","7","7","6","7","6","7","7","7","7","7","7","7","7","6","7","7","7","7","7","7","7","7","7","7","7","7","7","6","7","598908778728914944","黄","249","Male","[""坏我"",""好他"",""坏他"",""好我""]","[""弱我"",""强他"",""弱他"",""强我""]","","","","","","","","match","","","","","","","","","","key","j","16.651000000000057","768","428","f","false","nonmatch","img/hexagon.png","强我","弱他","prac_ALT2_ability","practice_ability","","","","","","","","",""
"null","<span style='color:red; font-size: 70px;'>错误! </span>","null","html-keyboard-response","13","239833","0.0-8.0-1.0-1.0-0.0-1.1","7","7","7","7","6","5","5","5","5","5","5","2","1","2","2","2","2","2","2","5","5","5","5","5","4","5","4","5","5","7","7","8","8","7","7","7","7","7","7","7","7","7","7","7","6","1","7","7","1","7","7","7","6","7","6","7","7","7","7","7","7","7","7","6","7","7","7","7","7","7","7","7","7","7","7","7","7","6","7","598908778728914944","黄","249","Male","[""坏我"",""好他"",""坏他"",""好我""]","[""弱我"",""强他"",""弱他"",""强我""]","","","","","","","","","","","","","","","","","","","","","","","","","","","","","","feedback_test","","","","","","","","",""
"704","","j","psychophysics","14","241540","0.0-8.0-1.0-1.0-0.0-0.2","7","7","7","7","6","5","5","5","5","5","5","2","1","2","2","2","2","2","2","5","5","5","5","5","4","5","4","5","5","7","7","8","8","7","7","7","7","7","7","7","7","7","7","7","6","1","7","7","1","7","7","7","6","7","6","7","7","7","7","7","7","7","7","6","7","7","7","7","7","7","7","7","7","7","7","7","7","6","7","598908778728914944","黄","249","Male","[""坏我"",""好他"",""坏他"",""好我""]","[""弱我"",""强他"",""弱他"",""强我""]","","","","","","","","match","","","","","","","","","","key","j","16.64752475247519","768","428","f","false","nonmatch","img/diamond.png","强我","弱我","prac_ALT2_ability","practice_ability","","","","","","","","",""
"null","<span style='color:red; font-size: 70px;'>错误! </span>","null","html-keyboard-response","15","242042","0.0-8.0-1.0-1.0-0.0-1.2","7","7","7","7","6","5","5","5","5","5","5","2","1","2","2","2","2","2","2","5","5","5","5","5","4","5","4","5","5","7","7","8","8","7","7","7","7","7","7","7","7","7","7","7","6","1","7","7","1","7","7","7","6","7","6","7","7","7","7","7","7","7","7","6","7","7","7","7","7","7","7","7","7","7","7","7","7","6","7","598908778728914944","黄","249","Male","[""坏我"",""好他"",""坏他"",""好我""]","[""弱我"",""强他"",""弱他"",""强我""]","","","","","","","","","","","","","","","","","","","","","","","","","","","","","","feedback_test","","","","","","","","",""
"681","","j","psychophysics","16","243724","0.0-8.0-1.0-1.0-0.0-0.3","7","7","7","7","6","5","5","5","5","5","5","2","1","2","2","2","2","2","2","5","5","5","5","5","4","5","4","5","5","7","7","8","8","7","7","7","7","7","7","7","7","7","7","7","6","1","7","7","1","7","7","7","6","7","6","7","7","7","7","7","7","7","7","6","7","7","7","7","7","7","7","7","7","7","7","7","7","6","7","598908778728914944","黄","249","Male","[""坏我"",""好他"",""坏他"",""好我""]","[""弱我"",""强他"",""弱他"",""强我""]","","","","","","","","match","","","","","","","","","","key","j","16.652000000000115","768","428","f","false","nonmatch","img/circle.png","弱我","强我","prac_ALT2_ability","practice_ability","","","","","","","","",""
"null","<span style='color:red; font-size: 70px;'>错误! </span>","null","html-keyboard-response","17","244225","0.0-8.0-1.0-1.0-0.0-1.3","7","7","7","7","6","5","5","5","5","5","5","2","1","2","2","2","2","2","2","5","5","5","5","5","4","5","4","5","5","7","7","8","8","7","7","7","7","7","7","7","7","7","7","7","6","1","7","7","1","7","7","7","6","7","6","7","7","7","7","7","7","7","7","6","7","7","7","7","7","7","7","7","7","7","7","7","7","6","7","598908778728914944","黄","249","Male","[""坏我"",""好他"",""坏他"",""好我""]","[""弱我"",""强他"",""弱他"",""强我""]","","","","","","","","","","","","","","","","","","","","","","","","","","","","","","feedback_test","","","","","","","","",""
"546","","f","psychophysics","18","245773","0.0-8.0-1.0-1.0-0.0-0.4","7","7","7","7","6","5","5","5","5","5","5","2","1","2","2","2","2","2","2","5","5","5","5","5","4","5","4","5","5","7","7","8","8","7","7","7","7","7","7","7","7","7","7","7","6","1","7","7","1","7","7","7","6","7","6","7","7","7","7","7","7","7","7","6","7","7","7","7","7","7","7","7","7","7","7","7","7","6","7","598908778728914944","黄","249","Male","[""坏我"",""好他"",""坏他"",""好我""]","[""弱我"",""强他"",""弱他"",""强我""]","","","","","","","","nonmatch","","","","","","","","","","key","f","16.65000000000019","768","428","j","false","match","img/diamond.png","弱我","弱我","prac_ALT2_ability","practice_ability","","","","","","","","",""
"null","<span style='color:red; font-size: 70px;'>错误! </span>","null","html-keyboard-response","19","246273","0.0-8.0-1.0-1.0-0.0-1.4","7","7","7","7","6","5","5","5","5","5","5","2","1","2","2","2","2","2","2","5","5","5","5","5","4","5","4","5","5","7","7","8","8","7","7","7","7","7","7","7","7","7","7","7","6","1","7","7","1","7","7","7","6","7","6","7","7","7","7","7","7","7","7","6","7","7","7","7","7","7","7","7","7","7","7","7","7","6","7","598908778728914944","黄","249","Male","[""坏我"",""好他"",""坏他"",""好我""]","[""弱我"",""强他"",""弱他"",""强我""]","","","","","","","","","","","","","","","","","","","","","","","","","","","","","","feedback_test","","","","","","","","",""
"672","","j","psychophysics","20","247948","0.0-8.0-1.0-1.0-0.0-0.5","7","7","7","7","6","5","5","5","5","5","5","2","1","2","2","2","2","2","2","5","5","5","5","5","4","5","4","5","5","7","7","8","8","7","7","7","7","7","7","7","7","7","7","7","6","1","7","7","1","7","7","7","6","7","6","7","7","7","7","7","7","7","7","6","7","7","7","7","7","7","7","7","7","7","7","7","7","6","7","598908778728914944","黄","249","Male","[""坏我"",""好他"",""坏他"",""好我""]","[""弱我"",""强他"",""弱他"",""强我""]","","","","","","","","match","","","","","","","","","","key","j","16.652000000000115","768","428","j","true","match","img/circle.png","强我","强我","prac_ALT2_ability","practice_ability","","","","","","","","",""
"null","<span style='color:GreenYellow; font-size: 70px;'>正确! </span>","null","html-keyboard-response","21","248451","0.0-8.0-1.0-1.0-0.0-1.5","7","7","7","7","6","5","5","5","5","5","5","2","1","2","2","2","2","2","2","5","5","5","5","5","4","5","4","5","5","7","7","8","8","7","7","7","7","7","7","7","7","7","7","7","6","1","7","7","1","7","7","7","6","7","6","7","7","7","7","7","7","7","7","6","7","7","7","7","7","7","7","7","7","7","7","7","7","6","7","598908778728914944","黄","249","Male","[""坏我"",""好他"",""坏他"",""好我""]","[""弱我"",""强他"",""弱他"",""强我""]","","","","","","","","","","","","","","","","","","","","","","","","","","","","","","feedback_test","","","","","","","","",""
"831","","j","psychophysics","22","250284","0.0-8.0-1.0-1.0-0.0-0.6","7","7","7","7","6","5","5","5","5","5","5","2","1","2","2","2","2","2","2","5","5","5","5","5","4","5","4","5","5","7","7","8","8","7","7","7","7","7","7","7","7","7","7","7","6","1","7","7","1","7","7","7","6","7","6","7","7","7","7","7","7","7","7","6","7","7","7","7","7","7","7","7","7","7","7","7","7","6","7","598908778728914944","黄","249","Male","[""坏我"",""好他"",""坏他"",""好我""]","[""弱我"",""强他"",""弱他"",""强我""]","","","","","","","","match","","","","","","","","","","key","j","16.65137614678899","768","428","j","true","match","img/hexagon.png","弱他","弱他","prac_ALT2_ability","practice_ability","","","","","","","","",""
"null","<span style='color:GreenYellow; font-size: 70px;'>正确! </span>","null","html-keyboard-response","23","250785","0.0-8.0-1.0-1.0-0.0-1.6","7","7","7","7","6","5","5","5","5","5","5","2","1","2","2","2","2","2","2","5","5","5","5","5","4","5","4","5","5","7","7","8","8","7","7","7","7","7","7","7","7","7","7","7","6","1","7","7","1","7","7","7","6","7","6","7","7","7","7","7","7","7","7","6","7","7","7","7","7","7","7","7","7","7","7","7","7","6","7","598908778728914944","黄","249","Male","[""坏我"",""好他"",""坏他"",""好我""]","[""弱我"",""强他"",""弱他"",""强我""]","","","","","","","","","","","","","","","","","","","","","","","","","","","","","","feedback_test","","","","","","","","",""
"930","","f","psychophysics","24","252716","0.0-8.0-1.0-1.0-0.0-0.7","7","7","7","7","6","5","5","5","5","5","5","2","1","2","2","2","2","2","2","5","5","5","5","5","4","5","4","5","5","7","7","8","8","7","7","7","7","7","7","7","7","7","7","7","6","1","7","7","1","7","7","7","6","7","6","7","7","7","7","7","7","7","7","6","7","7","7","7","7","7","7","7","7","7","7","7","7","6","7","598908778728914944","黄","249","Male","[""坏我"",""好他"",""坏他"",""好我""]","[""弱我"",""强他"",""弱他"",""强我""]","","","","","","","","nonmatch","","","","","","","","","","key","f","16.65304347826092","768","428","f","true","nonmatch","img/circle.png","弱他","强我","prac_ALT2_ability","practice_ability","","","","","","","","",""
"null","<span style='color:GreenYellow; font-size: 70px;'>正确! </span>","null","html-keyboard-response","25","253218","0.0-8.0-1.0-1.0-0.0-1.7","7","7","7","7","6","5","5","5","5","5","5","2","1","2","2","2","2","2","2","5","5","5","5","5","4","5","4","5","5","7","7","8","8","7","7","7","7","7","7","7","7","7","7","7","6","1","7","7","1","7","7","7","6","7","6","7","7","7","7","7","7","7","7","6","7","7","7","7","7","7","7","7","7","7","7","7","7","6","7","598908778728914944","黄","249","Male","[""坏我"",""好他"",""坏他"",""好我""]","[""弱我"",""强他"",""弱他"",""强我""]","","","","","","","","","","","","","","","","","","","","","","","","","","","","","","feedback_test","","","","","","","","",""
"968","","f","psychophysics","26","255188","0.0-8.0-1.0-1.0-0.0-0.8","7","7","7","7","6","5","5","5","5","5","5","2","1","2","2","2","2","2","2","5","5","5","5","5","4","5","4","5","5","7","7","8","8","7","7","7","7","7","7","7","7","7","7","7","6","1","7","7","1","7","7","7","6","7","6","7","7","7","7","7","7","7","7","6","7","7","7","7","7","7","7","7","7","7","7","7","7","6","7","598908778728914944","黄","249","Male","[""坏我"",""好他"",""坏他"",""好我""]","[""弱我"",""强他"",""弱他"",""强我""]","","","","","","","","nonmatch","","","","","","","","","","key","f","16.65508474576286","768","428","f","true","nonmatch","img/hexagon.png","弱我","弱他","prac_ALT2_ability","practice_ability","","","","","","","","",""
"null","<span style='color:GreenYellow; font-size: 70px;'>正确! </span>","null","html-keyboard-response","27","255689","0.0-8.0-1.0-1.0-0.0-1.8","7","7","7","7","6","5","5","5","5","5","5","2","1","2","2","2","2","2","2","5","5","5","5","5","4","5","4","5","5","7","7","8","8","7","7","7","7","7","7","7","7","7","7","7","6","1","7","7","1","7","7","7","6","7","6","7","7","7","7","7","7","7","7","6","7","7","7","7","7","7","7","7","7","7","7","7","7","6","7","598908778728914944","黄","249","Male","[""坏我"",""好他"",""坏他"",""好我""]","[""弱我"",""强他"",""弱他"",""强我""]","","","","","","","","","","","","","","","","","","","","","","","","","","","","","","feedback_test","","","","","","","","",""
"466","","j","psychophysics","28","257156","0.0-8.0-1.0-1.0-0.0-0.9","7","7","7","7","6","5","5","5","5","5","5","2","1","2","2","2","2","2","2","5","5","5","5","5","4","5","4","5","5","7","7","8","8","7","7","7","7","7","7","7","7","7","7","7","6","1","7","7","1","7","7","7","6","7","6","7","7","7","7","7","7","7","7","6","7","7","7","7","7","7","7","7","7","7","7","7","7","6","7","598908778728914944","黄","249","Male","[""坏我"",""好他"",""坏他"",""好我""]","[""弱我"",""强他"",""弱他"",""强我""]","","","","","","","","match","","","","","","","","","","key","j","16.64712643678181","768","428","j","true","match","img/hexagon.png","弱他","弱他","prac_ALT2_ability","practice_ability","","","","","","","","",""
"null","<span style='color:GreenYellow; font-size: 70px;'>正确! </span>","null","html-keyboard-response","29","257658","0.0-8.0-1.0-1.0-0.0-1.9","7","7","7","7","6","5","5","5","5","5","5","2","1","2","2","2","2","2","2","5","5","5","5","5","4","5","4","5","5","7","7","8","8","7","7","7","7","7","7","7","7","7","7","7","6","1","7","7","1","7","7","7","6","7","6","7","7","7","7","7","7","7","7","6","7","7","7","7","7","7","7","7","7","7","7","7","7","6","7","598908778728914944","黄","249","Male","[""坏我"",""好他"",""坏他"",""好我""]","[""弱我"",""强他"",""弱他"",""强我""]","","","","","","","","","","","","","","","","","","","","","","","","","","","","","","feedback_test","","","","","","","","",""
"496","","j","psychophysics","30","259156","0.0-8.0-1.0-1.0-0.0-0.10","7","7","7","7","6","5","5","5","5","5","5","2","1","2","2","2","2","2","2","5","5","5","5","5","4","5","4","5","5","7","7","8","8","7","7","7","7","7","7","7","7","7","7","7","6","1","7","7","1","7","7","7","6","7","6","7","7","7","7","7","7","7","7","6","7","7","7","7","7","7","7","7","7","7","7","7","7","6","7","598908778728914944","黄","249","Male","[""坏我"",""好他"",""坏他"",""好我""]","[""弱我"",""强他"",""弱他"",""强我""]","","","","","","","","match","","","","","","","","","","key","j","16.651685393258425","768","428","j","true","match","img/circle.png","强我","强我","prac_ALT2_ability","practice_ability","","","","","","","","",""
"null","<span style='color:GreenYellow; font-size: 70px;'>正确! </span>","null","html-keyboard-response","31","259657","0.0-8.0-1.0-1.0-0.0-1.10","7","7","7","7","6","5","5","5","5","5","5","2","1","2","2","2","2","2","2","5","5","5","5","5","4","5","4","5","5","7","7","8","8","7","7","7","7","7","7","7","7","7","7","7","6","1","7","7","1","7","7","7","6","7","6","7","7","7","7","7","7","7","7","6","7","7","7","7","7","7","7","7","7","7","7","7","7","6","7","598908778728914944","黄","249","Male","[""坏我"",""好他"",""坏他"",""好我""]","[""弱我"",""强他"",""弱他"",""强我""]","","","","","","","","","","","","","","","","","","","","","","","","","","","","","","feedback_test","","","","","","","","",""
"858","","j","psychophysics","32","261516","0.0-8.0-1.0-1.0-0.0-0.11","7","7","7","7","6","5","5","5","5","5","5","2","1","2","2","2","2","2","2","5","5","5","5","5","4","5","4","5","5","7","7","8","8","7","7","7","7","7","7","7","7","7","7","7","6","1","7","7","1","7","7","7","6","7","6","7","7","7","7","7","7","7","7","6","7","7","7","7","7","7","7","7","7","7","7","7","7","6","7","598908778728914944","黄","249","Male","[""坏我"",""好他"",""坏他"",""好我""]","[""弱我"",""强他"",""弱他"",""强我""]","","","","","","","","match","","","","","","","","","","key","j","16.651351351351245","768","428","j","true","match","img/hexagon.png","弱他","弱他","prac_ALT2_ability","practice_ability","","","","","","","","",""
"null","<span style='color:GreenYellow; font-size: 70px;'>正确! </span>","null","html-keyboard-response","33","262018","0.0-8.0-1.0-1.0-0.0-1.11","7","7","7","7","6","5","5","5","5","5","5","2","1","2","2","2","2","2","2","5","5","5","5","5","4","5","4","5","5","7","7","8","8","7","7","7","7","7","7","7","7","7","7","7","6","1","7","7","1","7","7","7","6","7","6","7","7","7","7","7","7","7","7","6","7","7","7","7","7","7","7","7","7","7","7","7","7","6","7","598908778728914944","黄","249","Male","[""坏我"",""好他"",""坏他"",""好我""]","[""弱我"",""强他"",""弱他"",""强我""]","","","","","","","","","","","","","","","","","","","","","","","","","","","","","","feedback_test","","","","","","","","",""
"673","","f","psychophysics","34","263693","0.0-8.0-1.0-1.0-0.0-0.12","7","7","7","7","6","5","5","5","5","5","5","2","1","2","2","2","2","2","2","5","5","5","5","5","4","5","4","5","5","7","7","8","8","7","7","7","7","7","7","7","7","7","7","7","6","1","7","7","1","7","7","7","6","7","6","7","7","7","7","7","7","7","7","6","7","7","7","7","7","7","7","7","7","7","7","7","7","6","7","598908778728914944","黄","249","Male","[""坏我"",""好他"",""坏他"",""好我""]","[""弱我"",""强他"",""弱他"",""强我""]","","","","","","","","nonmatch","","","","","","","","","","key","f","16.652525252525606","768","428","j","false","match","img/diamond.png","弱我","弱我","prac_ALT2_ability","practice_ability","","","","","","","","",""
"null","<span style='color:red; font-size: 70px;'>错误! </span>","null","html-keyboard-response","35","264193","0.0-8.0-1.0-1.0-0.0-1.12","7","7","7","7","6","5","5","5","5","5","5","2","1","2","2","2","2","2","2","5","5","5","5","5","4","5","4","5","5","7","7","8","8","7","7","7","7","7","7","7","7","7","7","7","6","1","7","7","1","7","7","7","6","7","6","7","7","7","7","7","7","7","7","6","7","7","7","7","7","7","7","7","7","7","7","7","7","6","7","598908778728914944","黄","249","Male","[""坏我"",""好他"",""坏他"",""好我""]","[""弱我"",""强他"",""弱他"",""强我""]","","","","","","","","","","","","","","","","","","","","","","","","","","","","","","feedback_test","","","","","","","","",""
"803","","f","psychophysics","36","265998","0.0-8.0-1.0-1.0-0.0-0.13","7","7","7","7","6","5","5","5","5","5","5","2","1","2","2","2","2","2","2","5","5","5","5","5","4","5","4","5","5","7","7","8","8","7","7","7","7","7","7","7","7","7","7","7","6","1","7","7","1","7","7","7","6","7","6","7","7","7","7","7","7","7","7","6","7","7","7","7","7","7","7","7","7","7","7","7","7","6","7","598908778728914944","黄","249","Male","[""坏我"",""好他"",""坏他"",""好我""]","[""弱我"",""强他"",""弱他"",""强我""]","","","","","","","","nonmatch","","","","","","","","","","key","f","16.65555555555545","768","428","f","true","nonmatch","img/diamond.png","强他","弱我","prac_ALT2_ability","practice_ability","","","","","","","","",""
"null","<span style='color:GreenYellow; font-size: 70px;'>正确! </span>","null","html-keyboard-response","37","266498","0.0-8.0-1.0-1.0-0.0-1.13","7","7","7","7","6","5","5","5","5","5","5","2","1","2","2","2","2","2","2","5","5","5","5","5","4","5","4","5","5","7","7","8","8","7","7","7","7","7","7","7","7","7","7","7","6","1","7","7","1","7","7","7","6","7","6","7","7","7","7","7","7","7","7","6","7","7","7","7","7","7","7","7","7","7","7","7","7","6","7","598908778728914944","黄","249","Male","[""坏我"",""好他"",""坏他"",""好我""]","[""弱我"",""强他"",""弱他"",""强我""]","","","","","","","","","","","","","","","","","","","","","","","","","","","","","","feedback_test","","","","","","","","",""
"513","","j","psychophysics","38","268013","0.0-8.0-1.0-1.0-0.0-0.14","7","7","7","7","6","5","5","5","5","5","5","2","1","2","2","2","2","2","2","5","5","5","5","5","4","5","4","5","5","7","7","8","8","7","7","7","7","7","7","7","7","7","7","7","6","1","7","7","1","7","7","7","6","7","6","7","7","7","7","7","7","7","7","6","7","7","7","7","7","7","7","7","7","7","7","7","7","6","7","598908778728914944","黄","249","Male","[""坏我"",""好他"",""坏他"",""好我""]","[""弱我"",""强他"",""弱他"",""强我""]","","","","","","","","match","","","","","","","","","","key","j","16.648888888889147","768","428","j","true","match","img/triangle.png","强他","强他","prac_ALT2_ability","practice_ability","","","","","","","","",""
"null","<span style='color:GreenYellow; font-size: 70px;'>正确! </span>","null","html-keyboard-response","39","268513","0.0-8.0-1.0-1.0-0.0-1.14","7","7","7","7","6","5","5","5","5","5","5","2","1","2","2","2","2","2","2","5","5","5","5","5","4","5","4","5","5","7","7","8","8","7","7","7","7","7","7","7","7","7","7","7","6","1","7","7","1","7","7","7","6","7","6","7","7","7","7","7","7","7","7","6","7","7","7","7","7","7","7","7","7","7","7","7","7","6","7","598908778728914944","黄","249","Male","[""坏我"",""好他"",""坏他"",""好我""]","[""弱我"",""强他"",""弱他"",""强我""]","","","","","","","","","","","","","","","","","","","","","","","","","","","","","","feedback_test","","","","","","","","",""
"546","","j","psychophysics","40","270060","0.0-8.0-1.0-1.0-0.0-0.15","7","7","7","7","6","5","5","5","5","5","5","2","1","2","2","2","2","2","2","5","5","5","5","5","4","5","4","5","5","7","7","8","8","7","7","7","7","7","7","7","7","7","7","7","6","1","7","7","1","7","7","7","6","7","6","7","7","7","7","7","7","7","7","6","7","7","7","7","7","7","7","7","7","7","7","7","7","6","7","598908778728914944","黄","249","Male","[""坏我"",""好他"",""坏他"",""好我""]","[""弱我"",""强他"",""弱他"",""强我""]","","","","","","","","match","","","","","","","","","","key","j","16.652173913043477","768","428","f","false","nonmatch","img/hexagon.png","强他","弱他","prac_ALT2_ability","practice_ability","","","","","","","","",""
"null","<span style='color:red; font-size: 70px;'>错误! </span>","null","html-keyboard-response","41","270561","0.0-8.0-1.0-1.0-0.0-1.15","7","7","7","7","6","5","5","5","5","5","5","2","1","2","2","2","2","2","2","5","5","5","5","5","4","5","4","5","5","7","7","8","8","7","7","7","7","7","7","7","7","7","7","7","6","1","7","7","1","7","7","7","6","7","6","7","7","7","7","7","7","7","7","6","7","7","7","7","7","7","7","7","7","7","7","7","7","6","7","598908778728914944","黄","249","Male","[""坏我"",""好他"",""坏他"",""好我""]","[""弱我"",""强他"",""弱他"",""强我""]","","","","","","","","","","","","","","","","","","","","","","","","","","","","","","feedback_test","","","","","","","","",""
"658","","j","psychophysics","42","272220","0.0-8.0-1.0-1.0-0.0-0.16","7","7","7","7","6","5","5","5","5","5","5","2","1","2","2","2","2","2","2","5","5","5","5","5","4","5","4","5","5","7","7","8","8","7","7","7","7","7","7","7","7","7","7","7","6","1","7","7","1","7","7","7","6","7","6","7","7","7","7","7","7","7","7","6","7","7","7","7","7","7","7","7","7","7","7","7","7","6","7","598908778728914944","黄","249","Male","[""坏我"",""好他"",""坏他"",""好我""]","[""弱我"",""强他"",""弱他"",""强我""]","","","","","","","","match","","","","","","","","","","key","j","16.651020408163145","768","428","j","true","match","img/circle.png","强我","强我","prac_ALT2_ability","practice_ability","","","","","","","","",""
"null","<span style='color:GreenYellow; font-size: 70px;'>正确! </span>","null","html-keyboard-response","43","272722","0.0-8.0-1.0-1.0-0.0-1.16","7","7","7","7","6","5","5","5","5","5","5","2","1","2","2","2","2","2","2","5","5","5","5","5","4","5","4","5","5","7","7","8","8","7","7","7","7","7","7","7","7","7","7","7","6","1","7","7","1","7","7","7","6","7","6","7","7","7","7","7","7","7","7","6","7","7","7","7","7","7","7","7","7","7","7","7","7","6","7","598908778728914944","黄","249","Male","[""坏我"",""好他"",""坏他"",""好我""]","[""弱我"",""强他"",""弱他"",""强我""]","","","","","","","","","","","","","","","","","","","","","","","","","","","","","","feedback_test","","","","","","","","",""
"752","","f","psychophysics","44","274476","0.0-8.0-1.0-1.0-0.0-0.17","7","7","7","7","6","5","5","5","5","5","5","2","1","2","2","2","2","2","2","5","5","5","5","5","4","5","4","5","5","7","7","8","8","7","7","7","7","7","7","7","7","7","7","7","6","1","7","7","1","7","7","7","6","7","6","7","7","7","7","7","7","7","7","6","7","7","7","7","7","7","7","7","7","7","7","7","7","6","7","598908778728914944","黄","249","Male","[""坏我"",""好他"",""坏他"",""好我""]","[""弱我"",""强他"",""弱他"",""强我""]","","","","","","","","nonmatch","","","","","","","","","","key","f","16.651923076923524","768","428","f","true","nonmatch","img/triangle.png","弱我","强他","prac_ALT2_ability","practice_ability","","","","","","","","",""
"null","<span style='color:GreenYellow; font-size: 70px;'>正确! </span>","null","html-keyboard-response","45","274977","0.0-8.0-1.0-1.0-0.0-1.17","7","7","7","7","6","5","5","5","5","5","5","2","1","2","2","2","2","2","2","5","5","5","5","5","4","5","4","5","5","7","7","8","8","7","7","7","7","7","7","7","7","7","7","7","6","1","7","7","1","7","7","7","6","7","6","7","7","7","7","7","7","7","7","6","7","7","7","7","7","7","7","7","7","7","7","7","7","6","7","598908778728914944","黄","249","Male","[""坏我"",""好他"",""坏他"",""好我""]","[""弱我"",""强他"",""弱他"",""强我""]","","","","","","","","","","","","","","","","","","","","","","","","","","","","","","feedback_test","","","","","","","","",""
"1025","","f","psychophysics","46","277004","0.0-8.0-1.0-1.0-0.0-0.18","7","7","7","7","6","5","5","5","5","5","5","2","1","2","2","2","2","2","2","5","5","5","5","5","4","5","4","5","5","7","7","8","8","7","7","7","7","7","7","7","7","7","7","7","6","1","7","7","1","7","7","7","6","7","6","7","7","7","7","7","7","7","7","6","7","7","7","7","7","7","7","7","7","7","7","7","7","6","7","598908778728914944","黄","249","Male","[""坏我"",""好他"",""坏他"",""好我""]","[""弱我"",""强他"",""弱他"",""强我""]","","","","","","","","nonmatch","","","","","","","","","","key","f","16.65123966942139","768","428","j","false","match","img/diamond.png","弱我","弱我","prac_ALT2_ability","practice_ability","","","","","","","","",""
"null","<span style='color:red; font-size: 70px;'>错误! </span>","null","html-keyboard-response","47","277506","0.0-8.0-1.0-1.0-0.0-1.18","7","7","7","7","6","5","5","5","5","5","5","2","1","2","2","2","2","2","2","5","5","5","5","5","4","5","4","5","5","7","7","8","8","7","7","7","7","7","7","7","7","7","7","7","6","1","7","7","1","7","7","7","6","7","6","7","7","7","7","7","7","7","7","6","7","7","7","7","7","7","7","7","7","7","7","7","7","6","7","598908778728914944","黄","249","Male","[""坏我"",""好他"",""坏他"",""好我""]","[""弱我"",""强他"",""弱他"",""强我""]","","","","","","","","","","","","","","","","","","","","","","","","","","","","","","feedback_test","","","","","","","","",""
"906","","f","psychophysics","48","279412","0.0-8.0-1.0-1.0-0.0-0.19","7","7","7","7","6","5","5","5","5","5","5","2","1","2","2","2","2","2","2","5","5","5","5","5","4","5","4","5","5","7","7","8","8","7","7","7","7","7","7","7","7","7","7","7","6","1","7","7","1","7","7","7","6","7","6","7","7","7","7","7","7","7","7","6","7","7","7","7","7","7","7","7","7","7","7","7","7","6","7","598908778728914944","黄","249","Male","[""坏我"",""好他"",""坏他"",""好我""]","[""弱我"",""强他"",""弱他"",""强我""]","","","","","","","","nonmatch","","","","","","","","","","key","f","16.65398230088516","768","428","j","false","match","img/triangle.png","强他","强他","prac_ALT2_ability","practice_ability","","","","","","","","",""
"null","<span style='color:red; font-size: 70px;'>错误! </span>","null","html-keyboard-response","49","279913","0.0-8.0-1.0-1.0-0.0-1.19","7","7","7","7","6","5","5","5","5","5","5","2","1","2","2","2","2","2","2","5","5","5","5","5","4","5","4","5","5","7","7","8","8","7","7","7","7","7","7","7","7","7","7","7","6","1","7","7","1","7","7","7","6","7","6","7","7","7","7","7","7","7","7","6","7","7","7","7","7","7","7","7","7","7","7","7","7","6","7","598908778728914944","黄","249","Male","[""坏我"",""好他"",""坏他"",""好我""]","[""弱我"",""强他"",""弱他"",""强我""]","","","","","","","","","","","","","","","","","","","","","","","","","","","","","","feedback_test","","","","","","","","",""
"1003","","j","psychophysics","50","281917","0.0-8.0-1.0-1.0-0.0-0.20","7","7","7","7","6","5","5","5","5","5","5","2","1","2","2","2","2","2","2","5","5","5","5","5","4","5","4","5","5","7","7","8","8","7","7","7","7","7","7","7","7","7","7","7","6","1","7","7","1","7","7","7","6","7","6","7","7","7","7","7","7","7","7","6","7","7","7","7","7","7","7","7","7","7","7","7","7","6","7","598908778728914944","黄","249","Male","[""坏我"",""好他"",""坏他"",""好我""]","[""弱我"",""强他"",""弱他"",""强我""]","","","","","","","","match","","","","","","","","","","key","j","16.642857142857142","768","428","f","false","nonmatch","img/diamond.png","弱他","弱我","prac_ALT2_ability","practice_ability","","","","","","","","",""
"null","<span style='color:red; font-size: 70px;'>错误! </span>","null","html-keyboard-response","51","282419","0.0-8.0-1.0-1.0-0.0-1.20","7","7","7","7","6","5","5","5","5","5","5","2","1","2","2","2","2","2","2","5","5","5","5","5","4","5","4","5","5","7","7","8","8","7","7","7","7","7","7","7","7","7","7","7","6","1","7","7","1","7","7","7","6","7","6","7","7","7","7","7","7","7","7","6","7","7","7","7","7","7","7","7","7","7","7","7","7","6","7","598908778728914944","黄","249","Male","[""坏我"",""好他"",""坏他"",""好我""]","[""弱我"",""强他"",""弱他"",""强我""]","","","","","","","","","","","","","","","","","","","","","","","","","","","","","","feedback_test","","","","","","","","",""
"649","","j","psychophysics","52","284068","0.0-8.0-1.0-1.0-0.0-0.21","7","7","7","7","6","5","5","5","5","5","5","2","1","2","2","2","2","2","2","5","5","5","5","5","4","5","4","5","5","7","7","8","8","7","7","7","7","7","7","7","7","7","7","7","6","1","7","7","1","7","7","7","6","7","6","7","7","7","7","7","7","7","7","6","7","7","7","7","7","7","7","7","7","7","7","7","7","6","7","598908778728914944","黄","249","Male","[""坏我"",""好他"",""坏他"",""好我""]","[""弱我"",""强他"",""弱他"",""强我""]","","","","","","","","match","","","","","","","","","","key","j","16.652040816326767","768","428","j","true","match","img/triangle.png","强他","强他","prac_ALT2_ability","practice_ability","","","","","","","","",""
"null","<span style='color:GreenYellow; font-size: 70px;'>正确! </span>","null","html-keyboard-response","53","284569","0.0-8.0-1.0-1.0-0.0-1.21","7","7","7","7","6","5","5","5","5","5","5","2","1","2","2","2","2","2","2","5","5","5","5","5","4","5","4","5","5","7","7","8","8","7","7","7","7","7","7","7","7","7","7","7","6","1","7","7","1","7","7","7","6","7","6","7","7","7","7","7","7","7","7","6","7","7","7","7","7","7","7","7","7","7","7","7","7","6","7","598908778728914944","黄","249","Male","[""坏我"",""好他"",""坏他"",""好我""]","[""弱我"",""强他"",""弱他"",""强我""]","","","","","","","","","","","","","","","","","","","","","","","","","","","","","","feedback_test","","","","","","","","",""
"891","","j","psychophysics","54","286462","0.0-8.0-1.0-1.0-0.0-0.22","7","7","7","7","6","5","5","5","5","5","5","2","1","2","2","2","2","2","2","5","5","5","5","5","4","5","4","5","5","7","7","8","8","7","7","7","7","7","7","7","7","7","7","7","6","1","7","7","1","7","7","7","6","7","6","7","7","7","7","7","7","7","7","6","7","7","7","7","7","7","7","7","7","7","7","7","7","6","7","598908778728914944","黄","249","Male","[""坏我"",""好他"",""坏他"",""好我""]","[""弱我"",""强他"",""弱他"",""强我""]","","","","","","","","match","","","","","","","","","","key","j","16.6495575221241","768","428","f","false","nonmatch","img/triangle.png","强我","强他","prac_ALT2_ability","practice_ability","","","","","","","","",""
"null","<span style='color:red; font-size: 70px;'>错误! </span>","null","html-keyboard-response","55","286964","0.0-8.0-1.0-1.0-0.0-1.22","7","7","7","7","6","5","5","5","5","5","5","2","1","2","2","2","2","2","2","5","5","5","5","5","4","5","4","5","5","7","7","8","8","7","7","7","7","7","7","7","7","7","7","7","6","1","7","7","1","7","7","7","6","7","6","7","7","7","7","7","7","7","7","6","7","7","7","7","7","7","7","7","7","7","7","7","7","6","7","598908778728914944","黄","249","Male","[""坏我"",""好他"",""坏他"",""好我""]","[""弱我"",""强他"",""弱他"",""强我""]","","","","","","","","","","","","","","","","","","","","","","","","","","","","","","feedback_test","","","","","","","","",""
"751","","f","psychophysics","56","288716","0.0-8.0-1.0-1.0-0.0-0.23","7","7","7","7","6","5","5","5","5","5","5","2","1","2","2","2","2","2","2","5","5","5","5","5","4","5","4","5","5","7","7","8","8","7","7","7","7","7","7","7","7","7","7","7","6","1","7","7","1","7","7","7","6","7","6","7","7","7","7","7","7","7","7","6","7","7","7","7","7","7","7","7","7","7","7","7","7","6","7","598908778728914944","黄","249","Male","[""坏我"",""好他"",""坏他"",""好我""]","[""弱我"",""强他"",""弱他"",""强我""]","","","","","","","","nonmatch","","","","","","","","","","key","f","16.65096153846109","768","428","f","true","nonmatch","img/triangle.png","弱他","强他","prac_ALT2_ability","practice_ability","","","","","","","","",""
"null","<span style='color:GreenYellow; font-size: 70px;'>正确! </span>","null","html-keyboard-response","57","289218","0.0-8.0-1.0-1.0-0.0-1.23","7","7","7","7","6","5","5","5","5","5","5","2","1","2","2","2","2","2","2","5","5","5","5","5","4","5","4","5","5","7","7","8","8","7","7","7","7","7","7","7","7","7","7","7","6","1","7","7","1","7","7","7","6","7","6","7","7","7","7","7","7","7","7","6","7","7","7","7","7","7","7","7","7","7","7","7","7","6","7","598908778728914944","黄","249","Male","[""坏我"",""好他"",""坏他"",""好我""]","[""弱我"",""强他"",""弱他"",""强我""]","","","","","","","","","","","","","","","","","","","","","","","","","","","","","","feedback_test","","","","","","","","",""
"688","","j","psychophysics","58","290909","0.0-8.0-1.0-1.0-0.0-0.24","7","7","7","7","6","5","5","5","5","5","5","2","1","2","2","2","2","2","2","5","5","5","5","5","4","5","4","5","5","7","7","8","8","7","7","7","7","7","7","7","7","7","7","7","6","1","7","7","1","7","7","7","6","7","6","7","7","7","7","7","7","7","7","6","7","7","7","7","7","7","7","7","7","7","7","7","7","6","7","598908778728914944","黄","249","Male","[""坏我"",""好他"",""坏他"",""好我""]","[""弱我"",""强他"",""弱他"",""强我""]","","","","","","","","match","","","","","","","","","","key","j","16.653465346534652","768","428","j","true","match","img/circle.png","强我","强我","prac_ALT2_ability","practice_ability","","","","","","","","",""
"null","<span style='color:GreenYellow; font-size: 70px;'>正确! </span>","null","html-keyboard-response","59","291410","0.0-8.0-1.0-1.0-0.0-1.24","7","7","7","7","6","5","5","5","5","5","5","2","1","2","2","2","2","2","2","5","5","5","5","5","4","5","4","5","5","7","7","8","8","7","7","7","7","7","7","7","7","7","7","7","6","1","7","7","1","7","7","7","6","7","6","7","7","7","7","7","7","7","7","6","7","7","7","7","7","7","7","7","7","7","7","7","7","6","7","598908778728914944","黄","249","Male","[""坏我"",""好他"",""坏他"",""好我""]","[""弱我"",""强他"",""弱他"",""强我""]","","","","","","","","","","","","","","","","","","","","","","","","","","","","","","feedback_test","","","","","","","","",""
"752","","j","psychophysics","60","293163","0.0-8.0-1.0-1.0-0.0-0.25","7","7","7","7","6","5","5","5","5","5","5","2","1","2","2","2","2","2","2","5","5","5","5","5","4","5","4","5","5","7","7","8","8","7","7","7","7","7","7","7","7","7","7","7","6","1","7","7","1","7","7","7","6","7","6","7","7","7","7","7","7","7","7","6","7","7","7","7","7","7","7","7","7","7","7","7","7","6","7","598908778728914944","黄","249","Male","[""坏我"",""好他"",""坏他"",""好我""]","[""弱我"",""强他"",""弱他"",""强我""]","","","","","","","","match","","","","","","","","","","key","j","16.64903846153846","768","428","f","false","nonmatch","img/hexagon.png","弱我","弱他","prac_ALT2_ability","practice_ability","","","","","","","","",""
"null","<span style='color:red; font-size: 70px;'>错误! </span>","null","html-keyboard-response","61","293664","0.0-8.0-1.0-1.0-0.0-1.25","7","7","7","7","6","5","5","5","5","5","5","2","1","2","2","2","2","2","2","5","5","5","5","5","4","5","4","5","5","7","7","8","8","7","7","7","7","7","7","7","7","7","7","7","6","1","7","7","1","7","7","7","6","7","6","7","7","7","7","7","7","7","7","6","7","7","7","7","7","7","7","7","7","7","7","7","7","6","7","598908778728914944","黄","249","Male","[""坏我"",""好他"",""坏他"",""好我""]","[""弱我"",""强他"",""弱他"",""强我""]","","","","","","","","","","","","","","","","","","","","","","","","","","","","","","feedback_test","","","","","","","","",""
"730","","j","psychophysics","62","295395","0.0-8.0-1.0-1.0-0.0-0.26","7","7","7","7","6","5","5","5","5","5","5","2","1","2","2","2","2","2","2","5","5","5","5","5","4","5","4","5","5","7","7","8","8","7","7","7","7","7","7","7","7","7","7","7","6","1","7","7","1","7","7","7","6","7","6","7","7","7","7","7","7","7","7","6","7","7","7","7","7","7","7","7","7","7","7","7","7","6","7","598908778728914944","黄","249","Male","[""坏我"",""好他"",""坏他"",""好我""]","[""弱我"",""强他"",""弱他"",""强我""]","","","","","","","","match","","","","","","","","","","key","j","16.65145631067995","768","428","j","true","match","img/triangle.png","强他","强他","prac_ALT2_ability","practice_ability","","","","","","","","",""
"null","<span style='color:GreenYellow; font-size: 70px;'>正确! </span>","null","html-keyboard-response","63","295896","0.0-8.0-1.0-1.0-0.0-1.26","7","7","7","7","6","5","5","5","5","5","5","2","1","2","2","2","2","2","2","5","5","5","5","5","4","5","4","5","5","7","7","8","8","7","7","7","7","7","7","7","7","7","7","7","6","1","7","7","1","7","7","7","6","7","6","7","7","7","7","7","7","7","7","6","7","7","7","7","7","7","7","7","7","7","7","7","7","6","7","598908778728914944","黄","249","Male","[""坏我"",""好他"",""坏他"",""好我""]","[""弱我"",""强他"",""弱他"",""强我""]","","","","","","","","","","","","","","","","","","","","","","","","","","","","","","feedback_test","","","","","","","","",""
"842","","f","psychophysics","64","297739","0.0-8.0-1.0-1.0-0.0-0.27","7","7","7","7","6","5","5","5","5","5","5","2","1","2","2","2","2","2","2","5","5","5","5","5","4","5","4","5","5","7","7","8","8","7","7","7","7","7","7","7","7","7","7","7","6","1","7","7","1","7","7","7","6","7","6","7","7","7","7","7","7","7","7","6","7","7","7","7","7","7","7","7","7","7","7","7","7","6","7","598908778728914944","黄","249","Male","[""坏我"",""好他"",""坏他"",""好我""]","[""弱我"",""强他"",""弱他"",""强我""]","","","","","","","","nonmatch","","","","","","","","","","key","f","16.65181818181776","768","428","f","true","nonmatch","img/diamond.png","强他","弱我","prac_ALT2_ability","practice_ability","","","","","","","","",""
"null","<span style='color:GreenYellow; font-size: 70px;'>正确! </span>","null","html-keyboard-response","65","298240","0.0-8.0-1.0-1.0-0.0-1.27","7","7","7","7","6","5","5","5","5","5","5","2","1","2","2","2","2","2","2","5","5","5","5","5","4","5","4","5","5","7","7","8","8","7","7","7","7","7","7","7","7","7","7","7","6","1","7","7","1","7","7","7","6","7","6","7","7","7","7","7","7","7","7","6","7","7","7","7","7","7","7","7","7","7","7","7","7","6","7","598908778728914944","黄","249","Male","[""坏我"",""好他"",""坏他"",""好我""]","[""弱我"",""强他"",""弱他"",""强我""]","","","","","","","","","","","","","","","","","","","","","","","","","","","","","","feedback_test","","","","","","","","",""
"875","","j","psychophysics","66","300116","0.0-8.0-1.0-1.0-0.0-0.28","7","7","7","7","6","5","5","5","5","5","5","2","1","2","2","2","2","2","2","5","5","5","5","5","4","5","4","5","5","7","7","8","8","7","7","7","7","7","7","7","7","7","7","7","6","1","7","7","1","7","7","7","6","7","6","7","7","7","7","7","7","7","7","6","7","7","7","7","7","7","7","7","7","7","7","7","7","6","7","598908778728914944","黄","249","Male","[""坏我"",""好他"",""坏他"",""好我""]","[""弱我"",""强他"",""弱他"",""强我""]","","","","","","","","match","","","","","","","","","","key","j","16.65446428571418","768","428","j","true","match","img/hexagon.png","弱他","弱他","prac_ALT2_ability","practice_ability","","","","","","","","",""
"null","<span style='color:GreenYellow; font-size: 70px;'>正确! </span>","null","html-keyboard-response","67","300617","0.0-8.0-1.0-1.0-0.0-1.28","7","7","7","7","6","5","5","5","5","5","5","2","1","2","2","2","2","2","2","5","5","5","5","5","4","5","4","5","5","7","7","8","8","7","7","7","7","7","7","7","7","7","7","7","6","1","7","7","1","7","7","7","6","7","6","7","7","7","7","7","7","7","7","6","7","7","7","7","7","7","7","7","7","7","7","7","7","6","7","598908778728914944","黄","249","Male","[""坏我"",""好他"",""坏他"",""好我""]","[""弱我"",""强他"",""弱他"",""强我""]","","","","","","","","","","","","","","","","","","","","","","","","","","","","","","feedback_test","","","","","","","","",""
"641","","j","psychophysics","68","302260","0.0-8.0-1.0-1.0-0.0-0.29","7","7","7","7","6","5","5","5","5","5","5","2","1","2","2","2","2","2","2","5","5","5","5","5","4","5","4","5","5","7","7","8","8","7","7","7","7","7","7","7","7","7","7","7","6","1","7","7","1","7","7","7","6","7","6","7","7","7","7","7","7","7","7","6","7","7","7","7","7","7","7","7","7","7","7","7","7","6","7","598908778728914944","黄","249","Male","[""坏我"",""好他"",""坏他"",""好我""]","[""弱我"",""强他"",""弱他"",""强我""]","","","","","","","","match","","","","","","","","","","key","j","16.651020408163145","768","428","j","true","match","img/diamond.png","弱我","弱我","prac_ALT2_ability","practice_ability","","","","","","","","",""
"null","<span style='color:GreenYellow; font-size: 70px;'>正确! </span>","null","html-keyboard-response","69","302761","0.0-8.0-1.0-1.0-0.0-1.29","7","7","7","7","6","5","5","5","5","5","5","2","1","2","2","2","2","2","2","5","5","5","5","5","4","5","4","5","5","7","7","8","8","7","7","7","7","7","7","7","7","7","7","7","6","1","7","7","1","7","7","7","6","7","6","7","7","7","7","7","7","7","7","6","7","7","7","7","7","7","7","7","7","7","7","7","7","6","7","598908778728914944","黄","249","Male","[""坏我"",""好他"",""坏他"",""好我""]","[""弱我"",""强他"",""弱他"",""强我""]","","","","","","","","","","","","","","","","","","","","","","","","","","","","","","feedback_test","","","","","","","","",""
"952","","f","psychophysics","70","304715","0.0-8.0-1.0-1.0-0.0-0.30","7","7","7","7","6","5","5","5","5","5","5","2","1","2","2","2","2","2","2","5","5","5","5","5","4","5","4","5","5","7","7","8","8","7","7","7","7","7","7","7","7","7","7","7","6","1","7","7","1","7","7","7","6","7","6","7","7","7","7","7","7","7","7","6","7","7","7","7","7","7","7","7","7","7","7","7","7","6","7","598908778728914944","黄","249","Male","[""坏我"",""好他"",""坏他"",""好我""]","[""弱我"",""强他"",""弱他"",""强我""]","","","","","","","","nonmatch","","","","","","","","","","key","f","16.650862068965516","768","428","f","true","nonmatch","img/hexagon.png","强他","弱他","prac_ALT2_ability","practice_ability","","","","","","","","",""
"null","<span style='color:GreenYellow; font-size: 70px;'>正确! </span>","null","html-keyboard-response","71","305218","0.0-8.0-1.0-1.0-0.0-1.30","7","7","7","7","6","5","5","5","5","5","5","2","1","2","2","2","2","2","2","5","5","5","5","5","4","5","4","5","5","7","7","8","8","7","7","7","7","7","7","7","7","7","7","7","6","1","7","7","1","7","7","7","6","7","6","7","7","7","7","7","7","7","7","6","7","7","7","7","7","7","7","7","7","7","7","7","7","6","7","598908778728914944","黄","249","Male","[""坏我"",""好他"",""坏他"",""好我""]","[""弱我"",""强他"",""弱他"",""强我""]","","","","","","","","","","","","","","","","","","","","","","","","","","","","","","feedback_test","","","","","","","","",""
"807","","j","psychophysics","72","307027","0.0-8.0-1.0-1.0-0.0-0.31","7","7","7","7","6","5","5","5","5","5","5","2","1","2","2","2","2","2","2","5","5","5","5","5","4","5","4","5","5","7","7","8","8","7","7","7","7","7","7","7","7","7","7","7","6","1","7","7","1","7","7","7","6","7","6","7","7","7","7","7","7","7","7","6","7","7","7","7","7","7","7","7","7","7","7","7","7","6","7","598908778728914944","黄","249","Male","[""坏我"",""好他"",""坏他"",""好我""]","[""弱我"",""强他"",""弱他"",""强我""]","","","","","","","","match","","","","","","","","","","key","j","16.65000000000011","768","428","j","true","match","img/hexagon.png","弱他","弱他","prac_ALT2_ability","practice_ability","","","","","","","","",""
"null","<span style='color:GreenYellow; font-size: 70px;'>正确! </span>","null","html-keyboard-response","73","307529","0.0-8.0-1.0-1.0-0.0-1.31","7","7","7","7","6","5","5","5","5","5","5","2","1","2","2","2","2","2","2","5","5","5","5","5","4","5","4","5","5","7","7","8","8","7","7","7","7","7","7","7","7","7","7","7","6","1","7","7","1","7","7","7","6","7","6","7","7","7","7","7","7","7","7","6","7","7","7","7","7","7","7","7","7","7","7","7","7","6","7","598908778728914944","黄","249","Male","[""坏我"",""好他"",""坏他"",""好我""]","[""弱我"",""强他"",""弱他"",""强我""]","","","","","","","","","","","","","","","","","","","","","","","","","","","","","","feedback_test","","","","","","","","",""
"681","","j","psychophysics","74","309211","0.0-8.0-1.0-1.0-0.0-0.32","7","7","7","7","6","5","5","5","5","5","5","2","1","2","2","2","2","2","2","5","5","5","5","5","4","5","4","5","5","7","7","8","8","7","7","7","7","7","7","7","7","7","7","7","6","1","7","7","1","7","7","7","6","7","6","7","7","7","7","7","7","7","7","6","7","7","7","7","7","7","7","7","7","7","7","7","7","6","7","598908778728914944","黄","249","Male","[""坏我"",""好他"",""坏他"",""好我""]","[""弱我"",""强他"",""弱他"",""强我""]","","","","","","","","match","","","","","","","","","","key","j","16.655","768","428","j","true","match","img/triangle.png","强他","强他","prac_ALT2_ability","practice_ability","","","","","","","","",""
"null","<span style='color:GreenYellow; font-size: 70px;'>正确! </span>","null","html-keyboard-response","75","309712","0.0-8.0-1.0-1.0-0.0-1.32","7","7","7","7","6","5","5","5","5","5","5","2","1","2","2","2","2","2","2","5","5","5","5","5","4","5","4","5","5","7","7","8","8","7","7","7","7","7","7","7","7","7","7","7","6","1","7","7","1","7","7","7","6","7","6","7","7","7","7","7","7","7","7","6","7","7","7","7","7","7","7","7","7","7","7","7","7","6","7","598908778728914944","黄","249","Male","[""坏我"",""好他"",""坏他"",""好我""]","[""弱我"",""强他"",""弱他"",""强我""]","","","","","","","","","","","","","","","","","","","","","","","","","","","","","","feedback_test","","","","","","","","",""
"626","","j","psychophysics","76","311340","0.0-8.0-1.0-1.0-0.0-0.33","7","7","7","7","6","5","5","5","5","5","5","2","1","2","2","2","2","2","2","5","5","5","5","5","4","5","4","5","5","7","7","8","8","7","7","7","7","7","7","7","7","7","7","7","6","1","7","7","1","7","7","7","6","7","6","7","7","7","7","7","7","7","7","6","7","7","7","7","7","7","7","7","7","7","7","7","7","6","7","598908778728914944","黄","249","Male","[""坏我"",""好他"",""坏他"",""好我""]","[""弱我"",""强他"",""弱他"",""强我""]","","","","","","","","match","","","","","","","","","","key","j","16.652577319587508","768","428","j","true","match","img/circle.png","强我","强我","prac_ALT2_ability","practice_ability","","","","","","","","",""
"null","<span style='color:GreenYellow; font-size: 70px;'>正确! </span>","null","html-keyboard-response","77","311842","0.0-8.0-1.0-1.0-0.0-1.33","7","7","7","7","6","5","5","5","5","5","5","2","1","2","2","2","2","2","2","5","5","5","5","5","4","5","4","5","5","7","7","8","8","7","7","7","7","7","7","7","7","7","7","7","6","1","7","7","1","7","7","7","6","7","6","7","7","7","7","7","7","7","7","6","7","7","7","7","7","7","7","7","7","7","7","7","7","6","7","598908778728914944","黄","249","Male","[""坏我"",""好他"",""坏他"",""好我""]","[""弱我"",""强他"",""弱他"",""强我""]","","","","","","","","","","","","","","","","","","","","","","","","","","","","","","feedback_test","","","","","","","","",""
"592","","j","psychophysics","78","313436","0.0-8.0-1.0-1.0-0.0-0.34","7","7","7","7","6","5","5","5","5","5","5","2","1","2","2","2","2","2","2","5","5","5","5","5","4","5","4","5","5","7","7","8","8","7","7","7","7","7","7","7","7","7","7","7","6","1","7","7","1","7","7","7","6","7","6","7","7","7","7","7","7","7","7","6","7","7","7","7","7","7","7","7","7","7","7","7","7","6","7","598908778728914944","黄","249","Male","[""坏我"",""好他"",""坏他"",""好我""]","[""弱我"",""强他"",""弱他"",""强我""]","","","","","","","","match","","","","","","","","","","key","j","16.650526315789964","768","428","j","true","match","img/diamond.png","弱我","弱我","prac_ALT2_ability","practice_ability","","","","","","","","",""
"null","<span style='color:GreenYellow; font-size: 70px;'>正确! </span>","null","html-keyboard-response","79","313937","0.0-8.0-1.0-1.0-0.0-1.34","7","7","7","7","6","5","5","5","5","5","5","2","1","2","2","2","2","2","2","5","5","5","5","5","4","5","4","5","5","7","7","8","8","7","7","7","7","7","7","7","7","7","7","7","6","1","7","7","1","7","7","7","6","7","6","7","7","7","7","7","7","7","7","6","7","7","7","7","7","7","7","7","7","7","7","7","7","6","7","598908778728914944","黄","249","Male","[""坏我"",""好他"",""坏他"",""好我""]","[""弱我"",""强他"",""弱他"",""强我""]","","","","","","","","","","","","","","","","","","","","","","","","","","","","","","feedback_test","","","","","","","","",""
"577","","j","psychophysics","80","315515","0.0-8.0-1.0-1.0-0.0-0.35","7","7","7","7","6","5","5","5","5","5","5","2","1","2","2","2","2","2","2","5","5","5","5","5","4","5","4","5","5","7","7","8","8","7","7","7","7","7","7","7","7","7","7","7","6","1","7","7","1","7","7","7","6","7","6","7","7","7","7","7","7","7","7","6","7","7","7","7","7","7","7","7","7","7","7","7","7","6","7","598908778728914944","黄","249","Male","[""坏我"",""好他"",""坏他"",""好我""]","[""弱我"",""强他"",""弱他"",""强我""]","","","","","","","","match","","","","","","","","","","key","j","16.657446808510514","768","428","f","false","nonmatch","img/diamond.png","弱他","弱我","prac_ALT2_ability","practice_ability","","","","","","","","",""
"null","<span style='color:red; font-size: 70px;'>错误! </span>","null","html-keyboard-response","81","316017","0.0-8.0-1.0-1.0-0.0-1.35","7","7","7","7","6","5","5","5","5","5","5","2","1","2","2","2","2","2","2","5","5","5","5","5","4","5","4","5","5","7","7","8","8","7","7","7","7","7","7","7","7","7","7","7","6","1","7","7","1","7","7","7","6","7","6","7","7","7","7","7","7","7","7","6","7","7","7","7","7","7","7","7","7","7","7","7","7","6","7","598908778728914944","黄","249","Male","[""坏我"",""好他"",""坏他"",""好我""]","[""弱我"",""强他"",""弱他"",""强我""]","","","","","","","","","","","","","","","","","","","","","","","","","","","","","","feedback_test","","","","","","","","",""
"681","","f","psychophysics","82","317700","0.0-8.0-1.0-1.0-0.0-0.36","7","7","7","7","6","5","5","5","5","5","5","2","1","2","2","2","2","2","2","5","5","5","5","5","4","5","4","5","5","7","7","8","8","7","7","7","7","7","7","7","7","7","7","7","6","1","7","7","1","7","7","7","6","7","6","7","7","7","7","7","7","7","7","6","7","7","7","7","7","7","7","7","7","7","7","7","7","6","7","598908778728914944","黄","249","Male","[""坏我"",""好他"",""坏他"",""好我""]","[""弱我"",""强他"",""弱他"",""强我""]","","","","","","","","nonmatch","","","","","","","","","","key","f","16.647000000000116","768","428","f","true","nonmatch","img/triangle.png","弱我","强他","prac_ALT2_ability","practice_ability","","","","","","","","",""
"null","<span style='color:GreenYellow; font-size: 70px;'>正确! </span>","null","html-keyboard-response","83","318200","0.0-8.0-1.0-1.0-0.0-1.36","7","7","7","7","6","5","5","5","5","5","5","2","1","2","2","2","2","2","2","5","5","5","5","5","4","5","4","5","5","7","7","8","8","7","7","7","7","7","7","7","7","7","7","7","6","1","7","7","1","7","7","7","6","7","6","7","7","7","7","7","7","7","7","6","7","7","7","7","7","7","7","7","7","7","7","7","7","6","7","598908778728914944","黄","249","Male","[""坏我"",""好他"",""坏他"",""好我""]","[""弱我"",""强他"",""弱他"",""强我""]","","","","","","","","","","","","","","","","","","","","","","","","","","","","","","feedback_test","","","","","","","","",""
"778","","j","psychophysics","84","319980","0.0-8.0-1.0-1.0-0.0-0.37","7","7","7","7","6","5","5","5","5","5","5","2","1","2","2","2","2","2","2","5","5","5","5","5","4","5","4","5","5","7","7","8","8","7","7","7","7","7","7","7","7","7","7","7","6","1","7","7","1","7","7","7","6","7","6","7","7","7","7","7","7","7","7","6","7","7","7","7","7","7","7","7","7","7","7","7","7","6","7","598908778728914944","黄","249","Male","[""坏我"",""好他"",""坏他"",""好我""]","[""弱我"",""强他"",""弱他"",""强我""]","","","","","","","","match","","","","","","","","","","key","j","16.65000000000022","768","428","j","true","match","img/hexagon.png","弱他","弱他","prac_ALT2_ability","practice_ability","","","","","","","","",""
"null","<span style='color:GreenYellow; font-size: 70px;'>正确! </span>","null","html-keyboard-response","85","320481","0.0-8.0-1.0-1.0-0.0-1.37","7","7","7","7","6","5","5","5","5","5","5","2","1","2","2","2","2","2","2","5","5","5","5","5","4","5","4","5","5","7","7","8","8","7","7","7","7","7","7","7","7","7","7","7","6","1","7","7","1","7","7","7","6","7","6","7","7","7","7","7","7","7","7","6","7","7","7","7","7","7","7","7","7","7","7","7","7","6","7","598908778728914944","黄","249","Male","[""坏我"",""好他"",""坏他"",""好我""]","[""弱我"",""强他"",""弱他"",""强我""]","","","","","","","","","","","","","","","","","","","","","","","","","","","","","","feedback_test","","","","","","","","",""
"792","","f","psychophysics","86","322275","0.0-8.0-1.0-1.0-0.0-0.38","7","7","7","7","6","5","5","5","5","5","5","2","1","2","2","2","2","2","2","5","5","5","5","5","4","5","4","5","5","7","7","8","8","7","7","7","7","7","7","7","7","7","7","7","6","1","7","7","1","7","7","7","6","7","6","7","7","7","7","7","7","7","7","6","7","7","7","7","7","7","7","7","7","7","7","7","7","6","7","598908778728914944","黄","249","Male","[""坏我"",""好他"",""坏他"",""好我""]","[""弱我"",""强他"",""弱他"",""强我""]","","","","","","","","nonmatch","","","","","","","","","","key","f","16.646728971962727","768","428","f","true","nonmatch","img/circle.png","强他","强我","prac_ALT2_ability","practice_ability","","","","","","","","",""
"null","<span style='color:GreenYellow; font-size: 70px;'>正确! </span>","null","html-keyboard-response","87","322776","0.0-8.0-1.0-1.0-0.0-1.38","7","7","7","7","6","5","5","5","5","5","5","2","1","2","2","2","2","2","2","5","5","5","5","5","4","5","4","5","5","7","7","8","8","7","7","7","7","7","7","7","7","7","7","7","6","1","7","7","1","7","7","7","6","7","6","7","7","7","7","7","7","7","7","6","7","7","7","7","7","7","7","7","7","7","7","7","7","6","7","598908778728914944","黄","249","Male","[""坏我"",""好他"",""坏他"",""好我""]","[""弱我"",""强他"",""弱他"",""强我""]","","","","","","","","","","","","","","","","","","","","","","","","","","","","","","feedback_test","","","","","","","","",""
"993","","f","psychophysics","88","324772","0.0-8.0-1.0-1.0-0.0-0.39","7","7","7","7","6","5","5","5","5","5","5","2","1","2","2","2","2","2","2","5","5","5","5","5","4","5","4","5","5","7","7","8","8","7","7","7","7","7","7","7","7","7","7","7","6","1","7","7","1","7","7","7","6","7","6","7","7","7","7","7","7","7","7","6","7","7","7","7","7","7","7","7","7","7","7","7","7","6","7","598908778728914944","黄","249","Male","[""坏我"",""好他"",""坏他"",""好我""]","[""弱我"",""强他"",""弱他"",""强我""]","","","","","","","","nonmatch","","","","","","","","","","key","f","16.649579831932677","768","428","f","true","nonmatch","img/triangle.png","弱他","强他","prac_ALT2_ability","practice_ability","","","","","","","","",""
"null","<span style='color:GreenYellow; font-size: 70px;'>正确! </span>","null","html-keyboard-response","89","325273","0.0-8.0-1.0-1.0-0.0-1.39","7","7","7","7","6","5","5","5","5","5","5","2","1","2","2","2","2","2","2","5","5","5","5","5","4","5","4","5","5","7","7","8","8","7","7","7","7","7","7","7","7","7","7","7","6","1","7","7","1","7","7","7","6","7","6","7","7","7","7","7","7","7","7","6","7","7","7","7","7","7","7","7","7","7","7","7","7","6","7","598908778728914944","黄","249","Male","[""坏我"",""好他"",""坏他"",""好我""]","[""弱我"",""强他"",""弱他"",""强我""]","","","","","","","","","","","","","","","","","","","","","","","","","","","","","","feedback_test","","","","","","","","",""
"618","","j","psychophysics","90","326892","0.0-8.0-1.0-1.0-0.0-0.40","7","7","7","7","6","5","5","5","5","5","5","2","1","2","2","2","2","2","2","5","5","5","5","5","4","5","4","5","5","7","7","8","8","7","7","7","7","7","7","7","7","7","7","7","6","1","7","7","1","7","7","7","6","7","6","7","7","7","7","7","7","7","7","6","7","7","7","7","7","7","7","7","7","7","7","7","7","6","7","598908778728914944","黄","249","Male","[""坏我"",""好他"",""坏他"",""好我""]","[""弱我"",""强他"",""弱他"",""强我""]","","","","","","","","match","","","","","","","","","","key","j","16.651041666666668","768","428","f","false","nonmatch","img/triangle.png","强我","强他","prac_ALT2_ability","practice_ability","","","","","","","","",""
"null","<span style='color:red; font-size: 70px;'>错误! </span>","null","html-keyboard-response","91","327392","0.0-8.0-1.0-1.0-0.0-1.40","7","7","7","7","6","5","5","5","5","5","5","2","1","2","2","2","2","2","2","5","5","5","5","5","4","5","4","5","5","7","7","8","8","7","7","7","7","7","7","7","7","7","7","7","6","1","7","7","1","7","7","7","6","7","6","7","7","7","7","7","7","7","7","6","7","7","7","7","7","7","7","7","7","7","7","7","7","6","7","598908778728914944","黄","249","Male","[""坏我"",""好他"",""坏他"",""好我""]","[""弱我"",""强他"",""弱他"",""强我""]","","","","","","","","","","","","","","","","","","","","","","","","","","","","","","feedback_test","","","","","","","","",""
"538","","j","psychophysics","92","328932","0.0-8.0-1.0-1.0-0.0-0.41","7","7","7","7","6","5","5","5","5","5","5","2","1","2","2","2","2","2","2","5","5","5","5","5","4","5","4","5","5","7","7","8","8","7","7","7","7","7","7","7","7","7","7","7","6","1","7","7","1","7","7","7","6","7","6","7","7","7","7","7","7","7","7","6","7","7","7","7","7","7","7","7","7","7","7","7","7","6","7","598908778728914944","黄","249","Male","[""坏我"",""好他"",""坏他"",""好我""]","[""弱我"",""强他"",""弱他"",""强我""]","","","","","","","","match","","","","","","","","","","key","j","16.64835164835165","768","428","f","false","nonmatch","img/circle.png","弱他","强我","prac_ALT2_ability","practice_ability","","","","","","","","",""
"null","<span style='color:red; font-size: 70px;'>错误! </span>","null","html-keyboard-response","93","329433","0.0-8.0-1.0-1.0-0.0-1.41","7","7","7","7","6","5","5","5","5","5","5","2","1","2","2","2","2","2","2","5","5","5","5","5","4","5","4","5","5","7","7","8","8","7","7","7","7","7","7","7","7","7","7","7","6","1","7","7","1","7","7","7","6","7","6","7","7","7","7","7","7","7","7","6","7","7","7","7","7","7","7","7","7","7","7","7","7","6","7","598908778728914944","黄","249","Male","[""坏我"",""好他"",""坏他"",""好我""]","[""弱我"",""强他"",""弱他"",""强我""]","","","","","","","","","","","","","","","","","","","","","","","","","","","","","","feedback_test","","","","","","","","",""
"699","","j","psychophysics","94","331132","0.0-8.0-1.0-1.0-0.0-0.42","7","7","7","7","6","5","5","5","5","5","5","2","1","2","2","2","2","2","2","5","5","5","5","5","4","5","4","5","5","7","7","8","8","7","7","7","7","7","7","7","7","7","7","7","6","1","7","7","1","7","7","7","6","7","6","7","7","7","7","7","7","7","7","6","7","7","7","7","7","7","7","7","7","7","7","7","7","6","7","598908778728914944","黄","249","Male","[""坏我"",""好他"",""坏他"",""好我""]","[""弱我"",""强他"",""弱他"",""强我""]","","","","","","","","match","","","","","","","","","","key","j","16.64554455445556","768","428","j","true","match","img/circle.png","强我","强我","prac_ALT2_ability","practice_ability","","","","","","","","",""
"null","<span style='color:GreenYellow; font-size: 70px;'>正确! </span>","null","html-keyboard-response","95","331634","0.0-8.0-1.0-1.0-0.0-1.42","7","7","7","7","6","5","5","5","5","5","5","2","1","2","2","2","2","2","2","5","5","5","5","5","4","5","4","5","5","7","7","8","8","7","7","7","7","7","7","7","7","7","7","7","6","1","7","7","1","7","7","7","6","7","6","7","7","7","7","7","7","7","7","6","7","7","7","7","7","7","7","7","7","7","7","7","7","6","7","598908778728914944","黄","249","Male","[""坏我"",""好他"",""坏他"",""好我""]","[""弱我"",""强他"",""弱他"",""强我""]","","","","","","","","","","","","","","","","","","","","","","","","","","","","","","feedback_test","","","","","","","","",""
"729","","f","psychophysics","96","333364","0.0-8.0-1.0-1.0-0.0-0.43","7","7","7","7","6","5","5","5","5","5","5","2","1","2","2","2","2","2","2","5","5","5","5","5","4","5","4","5","5","7","7","8","8","7","7","7","7","7","7","7","7","7","7","7","6","1","7","7","1","7","7","7","6","7","6","7","7","7","7","7","7","7","7","6","7","7","7","7","7","7","7","7","7","7","7","7","7","6","7","598908778728914944","黄","249","Male","[""坏我"",""好他"",""坏他"",""好我""]","[""弱我"",""强他"",""弱他"",""强我""]","","","","","","","","nonmatch","","","","","","","","","","key","f","16.652427184465566","768","428","f","true","nonmatch","img/circle.png","弱我","强我","prac_ALT2_ability","practice_ability","","","","","","","","",""
"null","<span style='color:GreenYellow; font-size: 70px;'>正确! </span>","null","html-keyboard-response","97","333864","0.0-8.0-1.0-1.0-0.0-1.43","7","7","7","7","6","5","5","5","5","5","5","2","1","2","2","2","2","2","2","5","5","5","5","5","4","5","4","5","5","7","7","8","8","7","7","7","7","7","7","7","7","7","7","7","6","1","7","7","1","7","7","7","6","7","6","7","7","7","7","7","7","7","7","6","7","7","7","7","7","7","7","7","7","7","7","7","7","6","7","598908778728914944","黄","249","Male","[""坏我"",""好他"",""坏他"",""好我""]","[""弱我"",""强他"",""弱他"",""强我""]","","","","","","","","","","","","","","","","","","","","","","","","","","","","","","feedback_test","","","","","","","","",""
"794","","f","psychophysics","98","335660","0.0-8.0-1.0-1.0-0.0-0.44","7","7","7","7","6","5","5","5","5","5","5","2","1","2","2","2","2","2","2","5","5","5","5","5","4","5","4","5","5","7","7","8","8","7","7","7","7","7","7","7","7","7","7","7","6","1","7","7","1","7","7","7","6","7","6","7","7","7","7","7","7","7","7","6","7","7","7","7","7","7","7","7","7","7","7","7","7","6","7","598908778728914944","黄","249","Male","[""坏我"",""好他"",""坏他"",""好我""]","[""弱我"",""强他"",""弱他"",""强我""]","","","","","","","","nonmatch","","","","","","","","","","key","f","16.650943396226417","768","428","f","true","nonmatch","img/diamond.png","强我","弱我","prac_ALT2_ability","practice_ability","","","","","","","","",""
"null","<span style='color:GreenYellow; font-size: 70px;'>正确! </span>","null","html-keyboard-response","99","336160","0.0-8.0-1.0-1.0-0.0-1.44","7","7","7","7","6","5","5","5","5","5","5","2","1","2","2","2","2","2","2","5","5","5","5","5","4","5","4","5","5","7","7","8","8","7","7","7","7","7","7","7","7","7","7","7","6","1","7","7","1","7","7","7","6","7","6","7","7","7","7","7","7","7","7","6","7","7","7","7","7","7","7","7","7","7","7","7","7","6","7","598908778728914944","黄","249","Male","[""坏我"",""好他"",""坏他"",""好我""]","[""弱我"",""强他"",""弱他"",""强我""]","","","","","","","","","","","","","","","","","","","","","","","","","","","","","","feedback_test","","","","","","","","",""
"834","","f","psychophysics","100","337996","0.0-8.0-1.0-1.0-0.0-0.45","7","7","7","7","6","5","5","5","5","5","5","2","1","2","2","2","2","2","2","5","5","5","5","5","4","5","4","5","5","7","7","8","8","7","7","7","7","7","7","7","7","7","7","7","6","1","7","7","1","7","7","7","6","7","6","7","7","7","7","7","7","7","7","6","7","7","7","7","7","7","7","7","7","7","7","7","7","6","7","598908778728914944","黄","249","Male","[""坏我"",""好他"",""坏他"",""好我""]","[""弱我"",""强他"",""弱他"",""强我""]","","","","","","","","nonmatch","","","","","","","","","","key","f","16.65137614678899","768","428","f","true","nonmatch","img/hexagon.png","强我","弱他","prac_ALT2_ability","practice_ability","","","","","","","","",""
"null","<span style='color:GreenYellow; font-size: 70px;'>正确! </span>","null","html-keyboard-response","101","338497","0.0-8.0-1.0-1.0-0.0-1.45","7","7","7","7","6","5","5","5","5","5","5","2","1","2","2","2","2","2","2","5","5","5","5","5","4","5","4","5","5","7","7","8","8","7","7","7","7","7","7","7","7","7","7","7","6","1","7","7","1","7","7","7","6","7","6","7","7","7","7","7","7","7","7","6","7","7","7","7","7","7","7","7","7","7","7","7","7","6","7","598908778728914944","黄","249","Male","[""坏我"",""好他"",""坏他"",""好我""]","[""弱我"",""强他"",""弱他"",""强我""]","","","","","","","","","","","","","","","","","","","","","","","","","","","","","","feedback_test","","","","","","","","",""
"738","","j","psychophysics","102","340236","0.0-8.0-1.0-1.0-0.0-0.46","7","7","7","7","6","5","5","5","5","5","5","2","1","2","2","2","2","2","2","5","5","5","5","5","4","5","4","5","5","7","7","8","8","7","7","7","7","7","7","7","7","7","7","7","6","1","7","7","1","7","7","7","6","7","6","7","7","7","7","7","7","7","7","6","7","7","7","7","7","7","7","7","7","7","7","7","7","6","7","598908778728914944","黄","249","Male","[""坏我"",""好他"",""坏他"",""好我""]","[""弱我"",""强他"",""弱他"",""强我""]","","","","","","","","match","","","","","","","","","","key","j","16.648543689320274","768","428","j","true","match","img/triangle.png","强他","强他","prac_ALT2_ability","practice_ability","","","","","","","","",""
"null","<span style='color:GreenYellow; font-size: 70px;'>正确! </span>","null","html-keyboard-response","103","340737","0.0-8.0-1.0-1.0-0.0-1.46","7","7","7","7","6","5","5","5","5","5","5","2","1","2","2","2","2","2","2","5","5","5","5","5","4","5","4","5","5","7","7","8","8","7","7","7","7","7","7","7","7","7","7","7","6","1","7","7","1","7","7","7","6","7","6","7","7","7","7","7","7","7","7","6","7","7","7","7","7","7","7","7","7","7","7","7","7","6","7","598908778728914944","黄","249","Male","[""坏我"",""好他"",""坏他"",""好我""]","[""弱我"",""强他"",""弱他"",""强我""]","","","","","","","","","","","","","","","","","","","","","","","","","","","","","","feedback_test","","","","","","","","",""
"929","","j","psychophysics","104","342668","0.0-8.0-1.0-1.0-0.0-0.47","7","7","7","7","6","5","5","5","5","5","5","2","1","2","2","2","2","2","2","5","5","5","5","5","4","5","4","5","5","7","7","8","8","7","7","7","7","7","7","7","7","7","7","7","6","1","7","7","1","7","7","7","6","7","6","7","7","7","7","7","7","7","7","6","7","7","7","7","7","7","7","7","7","7","7","7","7","6","7","598908778728914944","黄","249","Male","[""坏我"",""好他"",""坏他"",""好我""]","[""弱我"",""强他"",""弱他"",""强我""]","","","","","","","","match","","","","","","","","","","key","j","16.652173913043477","768","428","j","true","match","img/diamond.png","弱我","弱我","prac_ALT2_ability","practice_ability","","","","","","","","",""
"null","<span style='color:GreenYellow; font-size: 70px;'>正确! </span>","null","html-keyboard-response","105","343168","0.0-8.0-1.0-1.0-0.0-1.47","7","7","7","7","6","5","5","5","5","5","5","2","1","2","2","2","2","2","2","5","5","5","5","5","4","5","4","5","5","7","7","8","8","7","7","7","7","7","7","7","7","7","7","7","6","1","7","7","1","7","7","7","6","7","6","7","7","7","7","7","7","7","7","6","7","7","7","7","7","7","7","7","7","7","7","7","7","6","7","598908778728914944","黄","249","Male","[""坏我"",""好他"",""坏他"",""好我""]","[""弱我"",""强他"",""弱他"",""强我""]","","","","","","","","","","","","","","","","","","","","","","","","","","","","","","feedback_test","","","","","","","","",""
"168914","<style>.context{color:white; font-size: 35px; line-height:40px}</style>                          <div><p class='context'>您正确回答了69% 的试次。</p><p class='context'>您的平均反应时为750毫秒。</p><p class='context'>恭喜您完成练习。按空格键进入正式实验。</p><p class='footer' style='color:white;font-size: 35px; line-height:40px;'>请在进入正式实验实验之前将您的<span style='color: lightgreen;'>食指</span>放在电脑键盘的相应键位上进行按键。</p>"," ","html-keyboard-response","106","512084","0.0-8.0-1.0-2.0","7","7","7","7","6","5","5","5","5","5","5","2","1","2","2","2","2","2","2","5","5","5","5","5","4","5","4","5","5","7","7","8","8","7","7","7","7","7","7","7","7","7","7","7","6","1","7","7","1","7","7","7","6","7","6","7","7","7","7","7","7","7","7","6","7","7","7","7","7","7","7","7","7","7","7","7","7","6","7","598908778728914944","黄","249","Male","[""坏我"",""好他"",""坏他"",""好我""]","[""弱我"",""强他"",""弱他"",""强我""]","","","","","","","","","","","","","","","","","","","","","","","","","","","","","","","","","","","","","","",""
"1125","
  <p style='color: white; font-size: 22px'>请您将手指放在按键上，准备进入正式的匹配任务。</p>
  <p> <div style = ""color: green""><按空格键进入下一阶段的匹配任务></div></p>
  "," ","html-keyboard-response","107","513212","0.0-8.0-1.0-3.0","7","7","7","7","6","5","5","5","5","5","5","2","1","2","2","2","2","2","2","5","5","5","5","5","4","5","4","5","5","7","7","8","8","7","7","7","7","7","7","7","7","7","7","7","6","1","7","7","1","7","7","7","6","7","6","7","7","7","7","7","7","7","7","6","7","7","7","7","7","7","7","7","7","7","7","7","7","6","7","598908778728914944","黄","249","Male","[""坏我"",""好他"",""坏他"",""好我""]","[""弱我"",""强他"",""弱他"",""强我""]","","","","","","","","","","","","","","","","","","","","","","","","","","","","","","","","","","","","","","",""
"696","","j","psychophysics","108","514908","0.0-8.0-1.0-4.0-0.0-0.0","7","7","7","7","6","5","5","5","5","5","5","2","1","2","2","2","2","2","2","5","5","5","5","5","4","5","4","5","5","7","7","8","8","7","7","7","7","7","7","7","7","7","7","7","6","1","7","7","1","7","7","7","6","7","6","7","7","7","7","7","7","7","7","6","7","7","7","7","7","7","7","7","7","7","7","7","7","6","7","598908778728914944","黄","249","Male","[""坏我"",""好他"",""坏他"",""好我""]","[""弱我"",""强他"",""弱他"",""强我""]","","","","","","","","match","","","","","","","","","","key","j","16.64600000000035","768","428","j","true","match","img/circle.png","强我","强我","ALT2","ability","","","","","","","","",""
"null","<span style='color:GreenYellow; font-size: 70px;'>正确! </span>","null","html-keyboard-response","109","515410","0.0-8.0-1.0-4.0-0.0-1.0","7","7","7","7","6","5","5","5","5","5","5","2","1","2","2","2","2","2","2","5","5","5","5","5","4","5","4","5","5","7","7","8","8","7","7","7","7","7","7","7","7","7","7","7","6","1","7","7","1","7","7","7","6","7","6","7","7","7","7","7","7","7","7","6","7","7","7","7","7","7","7","7","7","7","7","7","7","6","7","598908778728914944","黄","249","Male","[""坏我"",""好他"",""坏他"",""好我""]","[""弱我"",""强他"",""弱他"",""强我""]","","","","","","","","","","","","","","","","","","","","","","","","","","","","","","feedback_test","","","","","","","","",""
"866","","f","psychophysics","110","517277","0.0-8.0-1.0-4.0-0.0-0.1","7","7","7","7","6","5","5","5","5","5","5","2","1","2","2","2","2","2","2","5","5","5","5","5","4","5","4","5","5","7","7","8","8","7","7","7","7","7","7","7","7","7","7","7","6","1","7","7","1","7","7","7","6","7","6","7","7","7","7","7","7","7","7","6","7","7","7","7","7","7","7","7","7","7","7","7","7","6","7","598908778728914944","黄","249","Male","[""坏我"",""好他"",""坏他"",""好我""]","[""弱我"",""强他"",""弱他"",""强我""]","","","","","","","","nonmatch","","","","","","","","","","key","f","16.646846846846742","768","428","f","true","nonmatch","img/hexagon.png","强他","弱他","ALT2","ability","","","","","","","","",""
"null","<span style='color:GreenYellow; font-size: 70px;'>正确! </span>","null","html-keyboard-response","111","517778","0.0-8.0-1.0-4.0-0.0-1.1","7","7","7","7","6","5","5","5","5","5","5","2","1","2","2","2","2","2","2","5","5","5","5","5","4","5","4","5","5","7","7","8","8","7","7","7","7","7","7","7","7","7","7","7","6","1","7","7","1","7","7","7","6","7","6","7","7","7","7","7","7","7","7","6","7","7","7","7","7","7","7","7","7","7","7","7","7","6","7","598908778728914944","黄","249","Male","[""坏我"",""好他"",""坏他"",""好我""]","[""弱我"",""强他"",""弱他"",""强我""]","","","","","","","","","","","","","","","","","","","","","","","","","","","","","","feedback_test","","","","","","","","",""
"778","","j","psychophysics","112","519556","0.0-8.0-1.0-4.0-0.0-0.2","7","7","7","7","6","5","5","5","5","5","5","2","1","2","2","2","2","2","2","5","5","5","5","5","4","5","4","5","5","7","7","8","8","7","7","7","7","7","7","7","7","7","7","7","6","1","7","7","1","7","7","7","6","7","6","7","7","7","7","7","7","7","7","6","7","7","7","7","7","7","7","7","7","7","7","7","7","6","7","598908778728914944","黄","249","Male","[""坏我"",""好他"",""坏他"",""好我""]","[""弱我"",""强他"",""弱他"",""强我""]","","","","","","","","match","","","","","","","","","","key","j","16.651428571428237","768","428","f","false","nonmatch","img/circle.png","弱我","强我","ALT2","ability","","","","","","","","",""
"null","<span style='color:red; font-size: 70px;'>错误! </span>","null","html-keyboard-response","113","520057","0.0-8.0-1.0-4.0-0.0-1.2","7","7","7","7","6","5","5","5","5","5","5","2","1","2","2","2","2","2","2","5","5","5","5","5","4","5","4","5","5","7","7","8","8","7","7","7","7","7","7","7","7","7","7","7","6","1","7","7","1","7","7","7","6","7","6","7","7","7","7","7","7","7","7","6","7","7","7","7","7","7","7","7","7","7","7","7","7","6","7","598908778728914944","黄","249","Male","[""坏我"",""好他"",""坏他"",""好我""]","[""弱我"",""强他"",""弱他"",""强我""]","","","","","","","","","","","","","","","","","","","","","","","","","","","","","","feedback_test","","","","","","","","",""
"763","","j","psychophysics","114","521821","0.0-8.0-1.0-4.0-0.0-0.3","7","7","7","7","6","5","5","5","5","5","5","2","1","2","2","2","2","2","2","5","5","5","5","5","4","5","4","5","5","7","7","8","8","7","7","7","7","7","7","7","7","7","7","7","6","1","7","7","1","7","7","7","6","7","6","7","7","7","7","7","7","7","7","6","7","7","7","7","7","7","7","7","7","7","7","7","7","6","7","598908778728914944","黄","249","Male","[""坏我"",""好他"",""坏他"",""好我""]","[""弱我"",""强他"",""弱他"",""强我""]","","","","","","","","match","","","","","","","","","","key","j","16.655769230769344","768","428","j","true","match","img/hexagon.png","弱他","弱他","ALT2","ability","","","","","","","","",""
"null","<span style='color:GreenYellow; font-size: 70px;'>正确! </span>","null","html-keyboard-response","115","522322","0.0-8.0-1.0-4.0-0.0-1.3","7","7","7","7","6","5","5","5","5","5","5","2","1","2","2","2","2","2","2","5","5","5","5","5","4","5","4","5","5","7","7","8","8","7","7","7","7","7","7","7","7","7","7","7","6","1","7","7","1","7","7","7","6","7","6","7","7","7","7","7","7","7","7","6","7","7","7","7","7","7","7","7","7","7","7","7","7","6","7","598908778728914944","黄","249","Male","[""坏我"",""好他"",""坏他"",""好我""]","[""弱我"",""强他"",""弱他"",""强我""]","","","","","","","","","","","","","","","","","","","","","","","","","","","","","","feedback_test","","","","","","","","",""
"824","","f","psychophysics","116","524148","0.0-8.0-1.0-4.0-0.0-0.4","7","7","7","7","6","5","5","5","5","5","5","2","1","2","2","2","2","2","2","5","5","5","5","5","4","5","4","5","5","7","7","8","8","7","7","7","7","7","7","7","7","7","7","7","6","1","7","7","1","7","7","7","6","7","6","7","7","7","7","7","7","7","7","6","7","7","7","7","7","7","7","7","7","7","7","7","7","6","7","598908778728914944","黄","249","Male","[""坏我"",""好他"",""坏他"",""好我""]","[""弱我"",""强他"",""弱他"",""强我""]","","","","","","","","nonmatch","","","","","","","","","","key","f","16.65092592592582","768","428","f","true","nonmatch","img/diamond.png","弱他","弱我","ALT2","ability","","","","","","","","",""
"null","<span style='color:GreenYellow; font-size: 70px;'>正确! </span>","null","html-keyboard-response","117","524650","0.0-8.0-1.0-4.0-0.0-1.4","7","7","7","7","6","5","5","5","5","5","5","2","1","2","2","2","2","2","2","5","5","5","5","5","4","5","4","5","5","7","7","8","8","7","7","7","7","7","7","7","7","7","7","7","6","1","7","7","1","7","7","7","6","7","6","7","7","7","7","7","7","7","7","6","7","7","7","7","7","7","7","7","7","7","7","7","7","6","7","598908778728914944","黄","249","Male","[""坏我"",""好他"",""坏他"",""好我""]","[""弱我"",""强他"",""弱他"",""强我""]","","","","","","","","","","","","","","","","","","","","","","","","","","","","","","feedback_test","","","","","","","","",""
"793","","f","psychophysics","118","526444","0.0-8.0-1.0-4.0-0.0-0.5","7","7","7","7","6","5","5","5","5","5","5","2","1","2","2","2","2","2","2","5","5","5","5","5","4","5","4","5","5","7","7","8","8","7","7","7","7","7","7","7","7","7","7","7","6","1","7","7","1","7","7","7","6","7","6","7","7","7","7","7","7","7","7","6","7","7","7","7","7","7","7","7","7","7","7","7","7","6","7","598908778728914944","黄","249","Male","[""坏我"",""好他"",""坏他"",""好我""]","[""弱我"",""强他"",""弱他"",""强我""]","","","","","","","","nonmatch","","","","","","","","","","key","f","16.651401869159532","768","428","j","false","match","img/diamond.png","弱我","弱我","ALT2","ability","","","","","","","","",""
"null","<span style='color:red; font-size: 70px;'>错误! </span>","null","html-keyboard-response","119","526945","0.0-8.0-1.0-4.0-0.0-1.5","7","7","7","7","6","5","5","5","5","5","5","2","1","2","2","2","2","2","2","5","5","5","5","5","4","5","4","5","5","7","7","8","8","7","7","7","7","7","7","7","7","7","7","7","6","1","7","7","1","7","7","7","6","7","6","7","7","7","7","7","7","7","7","6","7","7","7","7","7","7","7","7","7","7","7","7","7","6","7","598908778728914944","黄","249","Male","[""坏我"",""好他"",""坏他"",""好我""]","[""弱我"",""强他"",""弱他"",""强我""]","","","","","","","","","","","","","","","","","","","","","","","","","","","","","","feedback_test","","","","","","","","",""
"898","","f","psychophysics","120","528845","0.0-8.0-1.0-4.0-0.0-0.6","7","7","7","7","6","5","5","5","5","5","5","2","1","2","2","2","2","2","2","5","5","5","5","5","4","5","4","5","5","7","7","8","8","7","7","7","7","7","7","7","7","7","7","7","6","1","7","7","1","7","7","7","6","7","6","7","7","7","7","7","7","7","7","6","7","7","7","7","7","7","7","7","7","7","7","7","7","6","7","598908778728914944","黄","249","Male","[""坏我"",""好他"",""坏他"",""好我""]","[""弱我"",""强他"",""弱他"",""强我""]","","","","","","","","nonmatch","","","","","","","","","","key","f","16.653097345133155","768","428","f","true","nonmatch","img/circle.png","强他","强我","ALT2","ability","","","","","","","","",""
"null","<span style='color:GreenYellow; font-size: 70px;'>正确! </span>","null","html-keyboard-response","121","529346","0.0-8.0-1.0-4.0-0.0-1.6","7","7","7","7","6","5","5","5","5","5","5","2","1","2","2","2","2","2","2","5","5","5","5","5","4","5","4","5","5","7","7","8","8","7","7","7","7","7","7","7","7","7","7","7","6","1","7","7","1","7","7","7","6","7","6","7","7","7","7","7","7","7","7","6","7","7","7","7","7","7","7","7","7","7","7","7","7","6","7","598908778728914944","黄","249","Male","[""坏我"",""好他"",""坏他"",""好我""]","[""弱我"",""强他"",""弱他"",""强我""]","","","","","","","","","","","","","","","","","","","","","","","","","","","","","","feedback_test","","","","","","","","",""
"657","","j","psychophysics","122","531004","0.0-8.0-1.0-4.0-0.0-0.7","7","7","7","7","6","5","5","5","5","5","5","2","1","2","2","2","2","2","2","5","5","5","5","5","4","5","4","5","5","7","7","8","8","7","7","7","7","7","7","7","7","7","7","7","6","1","7","7","1","7","7","7","6","7","6","7","7","7","7","7","7","7","7","6","7","7","7","7","7","7","7","7","7","7","7","7","7","6","7","598908778728914944","黄","249","Male","[""坏我"",""好他"",""坏他"",""好我""]","[""弱我"",""强他"",""弱他"",""强我""]","","","","","","","","match","","","","","","","","","","key","j","16.650505050505284","768","428","j","true","match","img/triangle.png","强他","强他","ALT2","ability","","","","","","","","",""
"null","<span style='color:GreenYellow; font-size: 70px;'>正确! </span>","null","html-keyboard-response","123","531505","0.0-8.0-1.0-4.0-0.0-1.7","7","7","7","7","6","5","5","5","5","5","5","2","1","2","2","2","2","2","2","5","5","5","5","5","4","5","4","5","5","7","7","8","8","7","7","7","7","7","7","7","7","7","7","7","6","1","7","7","1","7","7","7","6","7","6","7","7","7","7","7","7","7","7","6","7","7","7","7","7","7","7","7","7","7","7","7","7","6","7","598908778728914944","黄","249","Male","[""坏我"",""好他"",""坏他"",""好我""]","[""弱我"",""强他"",""弱他"",""强我""]","","","","","","","","","","","","","","","","","","","","","","","","","","","","","","feedback_test","","","","","","","","",""
"682","","f","psychophysics","124","533188","0.0-8.0-1.0-4.0-0.0-0.8","7","7","7","7","6","5","5","5","5","5","5","2","1","2","2","2","2","2","2","5","5","5","5","5","4","5","4","5","5","7","7","8","8","7","7","7","7","7","7","7","7","7","7","7","6","1","7","7","1","7","7","7","6","7","6","7","7","7","7","7","7","7","7","6","7","7","7","7","7","7","7","7","7","7","7","7","7","6","7","598908778728914944","黄","249","Male","[""坏我"",""好他"",""坏他"",""好我""]","[""弱我"",""强他"",""弱他"",""强我""]","","","","","","","","nonmatch","","","","","","","","","","key","f","16.651999999999536","768","428","j","false","match","img/circle.png","强我","强我","ALT2","ability","","","","","","","","",""
"null","<span style='color:red; font-size: 70px;'>错误! </span>","null","html-keyboard-response","125","533690","0.0-8.0-1.0-4.0-0.0-1.8","7","7","7","7","6","5","5","5","5","5","5","2","1","2","2","2","2","2","2","5","5","5","5","5","4","5","4","5","5","7","7","8","8","7","7","7","7","7","7","7","7","7","7","7","6","1","7","7","1","7","7","7","6","7","6","7","7","7","7","7","7","7","7","6","7","7","7","7","7","7","7","7","7","7","7","7","7","6","7","598908778728914944","黄","249","Male","[""坏我"",""好他"",""坏他"",""好我""]","[""弱我"",""强他"",""弱他"",""强我""]","","","","","","","","","","","","","","","","","","","","","","","","","","","","","","feedback_test","","","","","","","","",""
"648","","j","psychophysics","126","535340","0.0-8.0-1.0-4.0-0.0-0.9","7","7","7","7","6","5","5","5","5","5","5","2","1","2","2","2","2","2","2","5","5","5","5","5","4","5","4","5","5","7","7","8","8","7","7","7","7","7","7","7","7","7","7","7","6","1","7","7","1","7","7","7","6","7","6","7","7","7","7","7","7","7","7","6","7","7","7","7","7","7","7","7","7","7","7","7","7","6","7","598908778728914944","黄","249","Male","[""坏我"",""好他"",""坏他"",""好我""]","[""弱我"",""强他"",""弱他"",""强我""]","","","","","","","","match","","","","","","","","","","key","j","16.65102040816255","768","428","j","true","match","img/hexagon.png","弱他","弱他","ALT2","ability","","","","","","","","",""
"null","<span style='color:GreenYellow; font-size: 70px;'>正确! </span>","null","html-keyboard-response","127","535842","0.0-8.0-1.0-4.0-0.0-1.9","7","7","7","7","6","5","5","5","5","5","5","2","1","2","2","2","2","2","2","5","5","5","5","5","4","5","4","5","5","7","7","8","8","7","7","7","7","7","7","7","7","7","7","7","6","1","7","7","1","7","7","7","6","7","6","7","7","7","7","7","7","7","7","6","7","7","7","7","7","7","7","7","7","7","7","7","7","6","7","598908778728914944","黄","249","Male","[""坏我"",""好他"",""坏他"",""好我""]","[""弱我"",""强他"",""弱他"",""强我""]","","","","","","","","","","","","","","","","","","","","","","","","","","","","","","feedback_test","","","","","","","","",""
"537","","j","psychophysics","128","537380","0.0-8.0-1.0-4.0-0.0-0.10","7","7","7","7","6","5","5","5","5","5","5","2","1","2","2","2","2","2","2","5","5","5","5","5","4","5","4","5","5","7","7","8","8","7","7","7","7","7","7","7","7","7","7","7","6","1","7","7","1","7","7","7","6","7","6","7","7","7","7","7","7","7","7","6","7","7","7","7","7","7","7","7","7","7","7","7","7","6","7","598908778728914944","黄","249","Male","[""坏我"",""好他"",""坏他"",""好我""]","[""弱我"",""强他"",""弱他"",""强我""]","","","","","","","","match","","","","","","","","","","key","j","16.651648351647584","768","428","f","false","nonmatch","img/triangle.png","弱他","强他","ALT2","ability","","","","","","","","",""
"null","<span style='color:red; font-size: 70px;'>错误! </span>","null","html-keyboard-response","129","537882","0.0-8.0-1.0-4.0-0.0-1.10","7","7","7","7","6","5","5","5","5","5","5","2","1","2","2","2","2","2","2","5","5","5","5","5","4","5","4","5","5","7","7","8","8","7","7","7","7","7","7","7","7","7","7","7","6","1","7","7","1","7","7","7","6","7","6","7","7","7","7","7","7","7","7","6","7","7","7","7","7","7","7","7","7","7","7","7","7","6","7","598908778728914944","黄","249","Male","[""坏我"",""好他"",""坏他"",""好我""]","[""弱我"",""强他"",""弱他"",""强我""]","","","","","","","","","","","","","","","","","","","","","","","","","","","","","","feedback_test","","","","","","","","",""
"506","","j","psychophysics","130","539388","0.0-8.0-1.0-4.0-0.0-0.11","7","7","7","7","6","5","5","5","5","5","5","2","1","2","2","2","2","2","2","5","5","5","5","5","4","5","4","5","5","7","7","8","8","7","7","7","7","7","7","7","7","7","7","7","6","1","7","7","1","7","7","7","6","7","6","7","7","7","7","7","7","7","7","6","7","7","7","7","7","7","7","7","7","7","7","7","7","6","7","598908778728914944","黄","249","Male","[""坏我"",""好他"",""坏他"",""好我""]","[""弱我"",""强他"",""弱他"",""强我""]","","","","","","","","match","","","","","","","","","","key","j","16.658426966291874","768","428","f","false","nonmatch","img/diamond.png","强我","弱我","ALT2","ability","","","","","","","","",""
"null","<span style='color:red; font-size: 70px;'>错误! </span>","null","html-keyboard-response","131","539890","0.0-8.0-1.0-4.0-0.0-1.11","7","7","7","7","6","5","5","5","5","5","5","2","1","2","2","2","2","2","2","5","5","5","5","5","4","5","4","5","5","7","7","8","8","7","7","7","7","7","7","7","7","7","7","7","6","1","7","7","1","7","7","7","6","7","6","7","7","7","7","7","7","7","7","6","7","7","7","7","7","7","7","7","7","7","7","7","7","6","7","598908778728914944","黄","249","Male","[""坏我"",""好他"",""坏他"",""好我""]","[""弱我"",""强他"",""弱他"",""强我""]","","","","","","","","","","","","","","","","","","","","","","","","","","","","","","feedback_test","","","","","","","","",""
"584","","j","psychophysics","132","541476","0.0-8.0-1.0-4.0-0.0-0.12","7","7","7","7","6","5","5","5","5","5","5","2","1","2","2","2","2","2","2","5","5","5","5","5","4","5","4","5","5","7","7","8","8","7","7","7","7","7","7","7","7","7","7","7","6","1","7","7","1","7","7","7","6","7","6","7","7","7","7","7","7","7","7","6","7","7","7","7","7","7","7","7","7","7","7","7","7","6","7","598908778728914944","黄","249","Male","[""坏我"",""好他"",""坏他"",""好我""]","[""弱我"",""强他"",""弱他"",""强我""]","","","","","","","","match","","","","","","","","","","key","j","16.64787234042578","768","428","f","false","nonmatch","img/triangle.png","强我","强他","ALT2","ability","","","","","","","","",""
"null","<span style='color:red; font-size: 70px;'>错误! </span>","null","html-keyboard-response","133","541977","0.0-8.0-1.0-4.0-0.0-1.12","7","7","7","7","6","5","5","5","5","5","5","2","1","2","2","2","2","2","2","5","5","5","5","5","4","5","4","5","5","7","7","8","8","7","7","7","7","7","7","7","7","7","7","7","6","1","7","7","1","7","7","7","6","7","6","7","7","7","7","7","7","7","7","6","7","7","7","7","7","7","7","7","7","7","7","7","7","6","7","598908778728914944","黄","249","Male","[""坏我"",""好他"",""坏他"",""好我""]","[""弱我"",""强他"",""弱他"",""强我""]","","","","","","","","","","","","","","","","","","","","","","","","","","","","","","feedback_test","","","","","","","","",""
"746","","f","psychophysics","134","543724","0.0-8.0-1.0-4.0-0.0-0.13","7","7","7","7","6","5","5","5","5","5","5","2","1","2","2","2","2","2","2","5","5","5","5","5","4","5","4","5","5","7","7","8","8","7","7","7","7","7","7","7","7","7","7","7","6","1","7","7","1","7","7","7","6","7","6","7","7","7","7","7","7","7","7","6","7","7","7","7","7","7","7","7","7","7","7","7","7","6","7","598908778728914944","黄","249","Male","[""坏我"",""好他"",""坏他"",""好我""]","[""弱我"",""强他"",""弱他"",""强我""]","","","","","","","","nonmatch","","","","","","","","","","key","f","16.65096153846221","768","428","f","true","nonmatch","img/hexagon.png","强我","弱他","ALT2","ability","","","","","","","","",""
"null","<span style='color:GreenYellow; font-size: 70px;'>正确! </span>","null","html-keyboard-response","135","544226","0.0-8.0-1.0-4.0-0.0-1.13","7","7","7","7","6","5","5","5","5","5","5","2","1","2","2","2","2","2","2","5","5","5","5","5","4","5","4","5","5","7","7","8","8","7","7","7","7","7","7","7","7","7","7","7","6","1","7","7","1","7","7","7","6","7","6","7","7","7","7","7","7","7","7","6","7","7","7","7","7","7","7","7","7","7","7","7","7","6","7","598908778728914944","黄","249","Male","[""坏我"",""好他"",""坏他"",""好我""]","[""弱我"",""强他"",""弱他"",""强我""]","","","","","","","","","","","","","","","","","","","","","","","","","","","","","","feedback_test","","","","","","","","",""
"729","","f","psychophysics","136","545956","0.0-8.0-1.0-4.0-0.0-0.14","7","7","7","7","6","5","5","5","5","5","5","2","1","2","2","2","2","2","2","5","5","5","5","5","4","5","4","5","5","7","7","8","8","7","7","7","7","7","7","7","7","7","7","7","6","1","7","7","1","7","7","7","6","7","6","7","7","7","7","7","7","7","7","6","7","7","7","7","7","7","7","7","7","7","7","7","7","6","7","598908778728914944","黄","249","Male","[""坏我"",""好他"",""坏他"",""好我""]","[""弱我"",""强他"",""弱他"",""强我""]","","","","","","","","nonmatch","","","","","","","","","","key","f","16.650485436893202","768","428","j","false","match","img/circle.png","强我","强我","ALT2","ability","","","","","","","","",""
"null","<span style='color:red; font-size: 70px;'>错误! </span>","null","html-keyboard-response","137","546458","0.0-8.0-1.0-4.0-0.0-1.14","7","7","7","7","6","5","5","5","5","5","5","2","1","2","2","2","2","2","2","5","5","5","5","5","4","5","4","5","5","7","7","8","8","7","7","7","7","7","7","7","7","7","7","7","6","1","7","7","1","7","7","7","6","7","6","7","7","7","7","7","7","7","7","6","7","7","7","7","7","7","7","7","7","7","7","7","7","6","7","598908778728914944","黄","249","Male","[""坏我"",""好他"",""坏他"",""好我""]","[""弱我"",""强他"",""弱他"",""强我""]","","","","","","","","","","","","","","","","","","","","","","","","","","","","","","feedback_test","","","","","","","","",""
"512","","j","psychophysics","138","547972","0.0-8.0-1.0-4.0-0.0-0.15","7","7","7","7","6","5","5","5","5","5","5","2","1","2","2","2","2","2","2","5","5","5","5","5","4","5","4","5","5","7","7","8","8","7","7","7","7","7","7","7","7","7","7","7","6","1","7","7","1","7","7","7","6","7","6","7","7","7","7","7","7","7","7","6","7","7","7","7","7","7","7","7","7","7","7","7","7","6","7","598908778728914944","黄","249","Male","[""坏我"",""好他"",""坏他"",""好我""]","[""弱我"",""强他"",""弱他"",""强我""]","","","","","","","","match","","","","","","","","","","key","j","16.646666666667443","768","428","f","false","nonmatch","img/hexagon.png","弱我","弱他","ALT2","ability","","","","","","","","",""
