"rt","stimulus","response","trial_type","trial_index","time_elapsed","internal_node_id","ses_1","ses_2","ses_3","ses_4","ses_5","ses_6","ses_7","ses_8","ses_9","ses_10","coreself_1","coreself_2","coreself_3","coreself_4","coreself_5","coreself_6","coreself_7","coreself_8","coreself_9","coreself_10","SGPS_1","SGPS_2","SGPS_3","SGPS_4","SGPS_5","SGPS_6","SGPS_7","SGPS_8","SGPS_9","NPI1","NPI2","NPI3","NPI4","NPI5","NPI6","NPI7","NPI8","NPI9","NPI10","NPI11","NPI12","NPI13","NPI14","NPI15","hsns_1","hsns_2","hsns_3","hsns_4","hsns_5","trap1","hsns_6","hsns_7","hsns_8","hsns_9","hsns_10","subj_idx","friend_name","ParticipantID","value","success","user_agent","responses","item_order","radio_event_ids","radio_event_times","key_event_times","mouse_event_times","straightlining","zigzagging","honeypot","timeout","failed_images","failed_audio","failed_video","version_attrib","version_target","correct","IAT","screen_id","task_id","RT","condition","word","varname","summary","version_attrib2","version_target2","time_stamp","view_history","response_type","key_press","avg_frame_time","center_x","center_y","correct_response","identity","Image","question_order","correct_answer","trap1_item"
"6208","
   <p><div style = ""color: white;font-size:25px;"">您好，欢迎参加本次实验。</div> </p>
   <p><div style = ""color: white;font-size:25px;"">为充分保障您的权利，请确保您已经知晓并同意《参与实验同意书》以及《数据公开知情同意书》。</div></p>
   <p><div style = ""color: white;font-size:25px;"">如果您未见过上述内容，请咨询实验员。</div></p>
   <p><div style = ""color: white;font-size:25px;"">如果您选择继续实验，则表示您已经清楚两份知情同意书的内容并同意。</div></p>
   <p><div style = ""color: pink;font-size:30px;"">请确保您记得day0的实验编号，您将在本次实验输入该编号，若您忘记，请咨询实验员后作答。</div></p>
   <p><div style = ""color: lightblue;font-size:25px;"">请您尽可能认真地作答，我们将依据您在各问卷和按键任务中的作答质量发放报酬。</div></p>
   <p> <div style = ""color: green;font-size:25px;""><按空格键至下页></div> </p>
   "," ","html-keyboard-response","0","6214","0.0-0.0","3","3","3","4","3","3","3","4","4","4","5","4","4","3","4","4","4","5","4","5","2","1","5","2","2","4","2","1","4","0","0","1","1","0","0","1","1","0","1","1","0","0","0","1","4","3","2","2","2","1","2","3","2","2","1","661494086074630144","于","588","","","","","","","","","","","","","","","","","","","","","","","","","","","","","","","","","","","","","","","","","",""
"","","","call-function","1","6217","0.0-1.0-0.0","3","3","3","4","3","3","3","4","4","4","5","4","4","3","4","4","4","5","4","5","2","1","5","2","2","4","2","1","4","0","0","1","1","0","0","1","1","0","1","1","0","0","0","1","4","3","2","2","2","1","2","3","2","2","1","661494086074630144","于","588","","","","","","","","","","","","","","","","","","","","","","","","","","","","","","","","","","","","","","","","","",""
"12750","","{""friend_name"":""于"",""ParticipantID"":""588""}","survey-html-form","2","18968","0.0-1.0-1.0","3","3","3","4","3","3","3","4","4","4","5","4","4","3","4","4","4","5","4","5","2","1","5","2","2","4","2","1","4","0","0","1","1","0","0","1","1","0","1","1","0","0","0","1","4","3","2","2","2","1","2","3","2","2","1","661494086074630144","于","588","","","","","","","","","","","","","","","","","","","","","","","","","","","","","","","","","","","","","","","","","",""
"","","","fullscreen","3","59927","0.0-2.0","3","3","3","4","3","3","3","4","4","4","5","4","4","3","4","4","4","5","4","5","2","1","5","2","2","4","2","1","4","0","0","1","1","0","0","1","1","0","1","1","0","0","0","1","4","3","2","2","2","1","2","3","2","2","1","661494086074630144","于","588","","true","{}","","","","","","","","","","","","","","","","","","","","","","","","","","","","","","","","","","","","","","",""
"44707.70000000298","","{""Q01"":""3"",""Q02"":""3"",""Q03"":""3"",""Q04"":""4"",""Q05"":""3"",""Q06"":""3"",""Q07"":""3"",""Q08"":""4"",""Q09"":""4"",""Q10"":""4""}","survey-template","4","104642","0.0-3.0","3","3","3","4","3","3","3","4","4","4","5","4","4","3","4","4","4","5","4","5","2","1","5","2","2","4","2","1","4","0","0","1","1","0","0","1","1","0","1","1","0","0","0","1","4","3","2","2","2","1","2","3","2","2","1","661494086074630144","于","588","","","","{""Q01"":""3"",""Q02"":""3"",""Q03"":""3"",""Q04"":""4"",""Q05"":""3"",""Q06"":""3"",""Q07"":""3"",""Q08"":""4"",""Q09"":""4"",""Q10"":""4""}","[0,1,2,3,4,5,6,7,8,9]","[""Q01"",""Q02"",""Q03"",""Q04"",""Q05"",""Q06"",""Q07"",""Q08"",""Q08"",""Q09"",""Q10""]","[9403,11887.5,13792.40000000596,15448.300000011921,22069,25162.20000000298,35985.60000000894,39125,40511.60000000894,41486.70000000298,42512.60000000894]","[]","[9403,11887.5,13792.40000000596,15448.300000011921,22069,25162.20000000298,35985.60000000894,39125,40511.60000000894,41486.70000000298,42512.60000000894,44705.40000000596]","0.4","0.2222222222222222","0","","","","","","","","","","","","","","","","","","","","","","","","","","","","","",""
"82437.59999999404","","{""Q01"":""5"",""Q02"":""4"",""Q03"":""4"",""Q04"":""3"",""Q05"":""4"",""Q06"":""4"",""Q07"":""4"",""Q08"":""5"",""Q09"":""4"",""Q10"":""5""}","survey-template","5","187088","0.0-4.0","3","3","3","4","3","3","3","4","4","4","5","4","4","3","4","4","4","5","4","5","2","1","5","2","2","4","2","1","4","0","0","1","1","0","0","1","1","0","1","1","0","0","0","1","4","3","2","2","2","1","2","3","2","2","1","661494086074630144","于","588","","","","{""Q01"":""5"",""Q02"":""4"",""Q03"":""4"",""Q04"":""3"",""Q05"":""4"",""Q06"":""4"",""Q07"":""4"",""Q08"":""5"",""Q09"":""4"",""Q10"":""5""}","[0,1,2,3,4,5,6,7,8,9]","[""Q01"",""Q02"",""Q03"",""Q04"",""Q05"",""Q05"",""Q06"",""Q07"",""Q08"",""Q09"",""Q10""]","[42525.40000000596,49396.59999999404,52104,53699.59999999404,66683,70272.70000000298,71786.09999999404,73545.09999999404,75269.79999999702,79107.70000000298,81121.20000000298]","[]","[42525.40000000596,48165.40000000596,49396.59999999404,52104,53699.59999999404,66683,70272.70000000298,71786.09999999404,73545.09999999404,75269.79999999702,79107.70000000298,81121.20000000298,82429.5]","0.4","0.3333333333333333","0","","","","","","","","","","","","","","","","","","","","","","","","","","","","","",""
"","","","preload","6","187444","0.0-5.0","3","3","3","4","3","3","3","4","4","4","5","4","4","3","4","4","4","5","4","5","2","1","5","2","2","4","2","1","4","0","0","1","1","0","0","1","1","0","1","1","0","0","0","1","4","3","2","2","2","1","2","3","2","2","1","661494086074630144","于","588","","true","","","","","","","","","","","false","[]","[]","[]","","","","","","","","","","","","","","","","","","","","","","","","","",""
"14828","
    <h3>词语分类任务</h3>
    <p>在接下来的任务中，你需要对一系列词语进行分类。</p>
    <p>请先熟悉这些词语，这有利于你完成接下来的任务。</p>
    <table align=""center"" border=1 cellpadding=3 cellspacing=0>
    <tr> <th>类别</th> <th>词语</th> </tr>
    <tr> <td>&emsp;积极&emsp;</td> <td>&emsp;能干、全能、全才、高效、精干、天才&emsp;</td> </tr>
    <tr> <td>&emsp;消极&emsp;</td> <td>&emsp;无能、低能、废物、拙笨、愚钝、蠢笨&emsp;</td> </tr>
    <tr> <td>&emsp;自我&emsp;</td> <td>&emsp;我、我的、自己、自己的、本人、本人的&emsp;</td> </tr>
    <tr> <td>&emsp;他人&emsp;</td> <td>&emsp;他、他的、别人、别人的、他人、他人的&emsp;</td> </tr>
    </table><br/>","0","html-button-response","7","202276","0.0-6.0-0.0-0.0","3","3","3","4","3","3","3","4","4","4","5","4","4","3","4","4","4","5","4","5","2","1","5","2","2","4","2","1","4","0","0","1","1","0","0","1","1","0","1","1","0","0","0","1","4","3","2","2","2","1","2","3","2","2","1","661494086074630144","于","588","","","","","","","","","","","","","","","","","1","2","","","","","","","","","","","","","","","","","","","","","","","",""
"6067","
    <div class=""tag-bottom"">
    <p> —— 任务1：对“他人”词和“自我”词分类 ——<p/>
    不同词语会出现在屏幕中央，类别标签将始终显示在屏幕上方<p/>   
    <span style=""color:#FFD866""><b>请根据上方标签的提示，尽可能正确并且快速地做出按键反应</b></span><p/>
    当按键错误时屏幕中会出现<span style=""color:red""> X </span>，需要按另一个键纠正才能继续<br/><p/>
    请把双手食指分别放在键盘的“E”键和“I”键上<p/>
    按<空格键>开始
    </p></div>"," ","html-keyboard-response","8","208350","0.0-6.0-0.0-1.0","3","3","3","4","3","3","3","4","4","4","5","4","4","3","4","4","4","5","4","5","2","1","5","2","2","4","2","1","4","0","0","1","1","0","0","1","1","0","1","1","0","0","0","1","4","3","2","2","2","1","2","3","2","2","1","661494086074630144","于","588","","","","","","","","","","","","","","","","","","","","","","","","","","","","","","","","","","","","","","","","","",""
"null","","null","html-keyboard-response","9","208610","0.0-6.0-0.0-2.0-0.0","3","3","3","4","3","3","3","4","4","4","5","4","4","3","4","4","4","5","4","5","2","1","5","2","2","4","2","1","4","0","0","1","1","0","0","1","1","0","1","1","0","0","0","1","4","3","2","2","2","1","2","3","2","2","1","661494086074630144","于","588","","","","","","","","","","","","","","","","","","","","","","","","","","","","","","","","","","","","","","","","","",""
"1138","<p style=""color:rgb(150, 250, 100); font-size: 35px;"">自己</p>","i","categorize-html","10","209754","0.0-6.0-0.0-2.0-1.0","3","3","3","4","3","3","3","4","4","4","5","4","4","3","4","4","4","5","4","5","2","1","5","2","2","4","2","1","4","0","0","1","1","0","0","1","1","0","1","1","0","0","0","1","4","3","2","2","2","1","2","3","2","2","1","661494086074630144","于","588","","","","","","","","","","","","","","","","","","","true","1","1","ability","1138","self","自己","","","","","","","","","","","","","","","","",""
"null","","null","html-keyboard-response","11","210012","0.0-6.0-0.0-2.0-0.1","3","3","3","4","3","3","3","4","4","4","5","4","4","3","4","4","4","5","4","5","2","1","5","2","2","4","2","1","4","0","0","1","1","0","0","1","1","0","1","1","0","0","0","1","4","3","2","2","2","1","2","3","2","2","1","661494086074630144","于","588","","","","","","","","","","","","","","","","","","","","","","","","","","","","","","","","","","","","","","","","","",""
"704","<p style=""color:rgb(150, 250, 100); font-size: 35px;"">我的</p>","i","categorize-html","12","210719","0.0-6.0-0.0-2.0-1.1","3","3","3","4","3","3","3","4","4","4","5","4","4","3","4","4","4","5","4","5","2","1","5","2","2","4","2","1","4","0","0","1","1","0","0","1","1","0","1","1","0","0","0","1","4","3","2","2","2","1","2","3","2","2","1","661494086074630144","于","588","","","","","","","","","","","","","","","","","","","true","1","1","ability","704","self","我的","","","","","","","","","","","","","","","","",""
"null","","null","html-keyboard-response","13","210979","0.0-6.0-0.0-2.0-0.2","3","3","3","4","3","3","3","4","4","4","5","4","4","3","4","4","4","5","4","5","2","1","5","2","2","4","2","1","4","0","0","1","1","0","0","1","1","0","1","1","0","0","0","1","4","3","2","2","2","1","2","3","2","2","1","661494086074630144","于","588","","","","","","","","","","","","","","","","","","","","","","","","","","","","","","","","","","","","","","","","","",""
"825","<p style=""color:rgb(150, 250, 100); font-size: 35px;"">他的</p>","e","categorize-html","14","211807","0.0-6.0-0.0-2.0-1.2","3","3","3","4","3","3","3","4","4","4","5","4","4","3","4","4","4","5","4","5","2","1","5","2","2","4","2","1","4","0","0","1","1","0","0","1","1","0","1","1","0","0","0","1","4","3","2","2","2","1","2","3","2","2","1","661494086074630144","于","588","","","","","","","","","","","","","","","","","","","true","1","1","ability","825","other","他的","","","","","","","","","","","","","","","","",""
"null","","null","html-keyboard-response","15","212073","0.0-6.0-0.0-2.0-0.3","3","3","3","4","3","3","3","4","4","4","5","4","4","3","4","4","4","5","4","5","2","1","5","2","2","4","2","1","4","0","0","1","1","0","0","1","1","0","1","1","0","0","0","1","4","3","2","2","2","1","2","3","2","2","1","661494086074630144","于","588","","","","","","","","","","","","","","","","","","","","","","","","","","","","","","","","","","","","","","","","","",""
"697","<p style=""color:rgb(150, 250, 100); font-size: 35px;"">本人的</p>","i","categorize-html","16","212773","0.0-6.0-0.0-2.0-1.3","3","3","3","4","3","3","3","4","4","4","5","4","4","3","4","4","4","5","4","5","2","1","5","2","2","4","2","1","4","0","0","1","1","0","0","1","1","0","1","1","0","0","0","1","4","3","2","2","2","1","2","3","2","2","1","661494086074630144","于","588","","","","","","","","","","","","","","","","","","","true","1","1","ability","697","self","本人的","","","","","","","","","","","","","","","","",""
"null","","null","html-keyboard-response","17","213031","0.0-6.0-0.0-2.0-0.4","3","3","3","4","3","3","3","4","4","4","5","4","4","3","4","4","4","5","4","5","2","1","5","2","2","4","2","1","4","0","0","1","1","0","0","1","1","0","1","1","0","0","0","1","4","3","2","2","2","1","2","3","2","2","1","661494086074630144","于","588","","","","","","","","","","","","","","","","","","","","","","","","","","","","","","","","","","","","","","","","","",""
"561","<p style=""color:rgb(150, 250, 100); font-size: 35px;"">别人的</p>","e","categorize-html","18","213595","0.0-6.0-0.0-2.0-1.4","3","3","3","4","3","3","3","4","4","4","5","4","4","3","4","4","4","5","4","5","2","1","5","2","2","4","2","1","4","0","0","1","1","0","0","1","1","0","1","1","0","0","0","1","4","3","2","2","2","1","2","3","2","2","1","661494086074630144","于","588","","","","","","","","","","","","","","","","","","","true","1","1","ability","561","other","别人的","","","","","","","","","","","","","","","","",""
"null","","null","html-keyboard-response","19","213849","0.0-6.0-0.0-2.0-0.5","3","3","3","4","3","3","3","4","4","4","5","4","4","3","4","4","4","5","4","5","2","1","5","2","2","4","2","1","4","0","0","1","1","0","0","1","1","0","1","1","0","0","0","1","4","3","2","2","2","1","2","3","2","2","1","661494086074630144","于","588","","","","","","","","","","","","","","","","","","","","","","","","","","","","","","","","","","","","","","","","","",""
"635","<p style=""color:rgb(150, 250, 100); font-size: 35px;"">他</p>","e","categorize-html","20","214487","0.0-6.0-0.0-2.0-1.5","3","3","3","4","3","3","3","4","4","4","5","4","4","3","4","4","4","5","4","5","2","1","5","2","2","4","2","1","4","0","0","1","1","0","0","1","1","0","1","1","0","0","0","1","4","3","2","2","2","1","2","3","2","2","1","661494086074630144","于","588","","","","","","","","","","","","","","","","","","","true","1","1","ability","635","other","他","","","","","","","","","","","","","","","","",""
"null","","null","html-keyboard-response","21","214741","0.0-6.0-0.0-2.0-0.6","3","3","3","4","3","3","3","4","4","4","5","4","4","3","4","4","4","5","4","5","2","1","5","2","2","4","2","1","4","0","0","1","1","0","0","1","1","0","1","1","0","0","0","1","4","3","2","2","2","1","2","3","2","2","1","661494086074630144","于","588","","","","","","","","","","","","","","","","","","","","","","","","","","","","","","","","","","","","","","","","","",""
"707","<p style=""color:rgb(150, 250, 100); font-size: 35px;"">自己的</p>","i","categorize-html","22","215450","0.0-6.0-0.0-2.0-1.6","3","3","3","4","3","3","3","4","4","4","5","4","4","3","4","4","4","5","4","5","2","1","5","2","2","4","2","1","4","0","0","1","1","0","0","1","1","0","1","1","0","0","0","1","4","3","2","2","2","1","2","3","2","2","1","661494086074630144","于","588","","","","","","","","","","","","","","","","","","","true","1","1","ability","707","self","自己的","","","","","","","","","","","","","","","","",""
"null","","null","html-keyboard-response","23","215717","0.0-6.0-0.0-2.0-0.7","3","3","3","4","3","3","3","4","4","4","5","4","4","3","4","4","4","5","4","5","2","1","5","2","2","4","2","1","4","0","0","1","1","0","0","1","1","0","1","1","0","0","0","1","4","3","2","2","2","1","2","3","2","2","1","661494086074630144","于","588","","","","","","","","","","","","","","","","","","","","","","","","","","","","","","","","","","","","","","","","","",""
"1233","<p style=""color:rgb(150, 250, 100); font-size: 35px;"">他人</p>","e","categorize-html","24","216952","0.0-6.0-0.0-2.0-1.7","3","3","3","4","3","3","3","4","4","4","5","4","4","3","4","4","4","5","4","5","2","1","5","2","2","4","2","1","4","0","0","1","1","0","0","1","1","0","1","1","0","0","0","1","4","3","2","2","2","1","2","3","2","2","1","661494086074630144","于","588","","","","","","","","","","","","","","","","","","","true","1","1","ability","1233","other","他人","","","","","","","","","","","","","","","","",""
"null","","null","html-keyboard-response","25","217213","0.0-6.0-0.0-2.0-0.8","3","3","3","4","3","3","3","4","4","4","5","4","4","3","4","4","4","5","4","5","2","1","5","2","2","4","2","1","4","0","0","1","1","0","0","1","1","0","1","1","0","0","0","1","4","3","2","2","2","1","2","3","2","2","1","661494086074630144","于","588","","","","","","","","","","","","","","","","","","","","","","","","","","","","","","","","","","","","","","","","","",""
"2715","<p style=""color:rgb(150, 250, 100); font-size: 35px;"">别人</p>","i","categorize-html","26","220384","0.0-6.0-0.0-2.0-1.8","3","3","3","4","3","3","3","4","4","4","5","4","4","3","4","4","4","5","4","5","2","1","5","2","2","4","2","1","4","0","0","1","1","0","0","1","1","0","1","1","0","0","0","1","4","3","2","2","2","1","2","3","2","2","1","661494086074630144","于","588","","","","","","","","","","","","","","","","","","","false","1","1","ability","2715","other","别人","","","","","","","","","","","","","","","","",""
"null","","null","html-keyboard-response","27","220643","0.0-6.0-0.0-2.0-0.9","3","3","3","4","3","3","3","4","4","4","5","4","4","3","4","4","4","5","4","5","2","1","5","2","2","4","2","1","4","0","0","1","1","0","0","1","1","0","1","1","0","0","0","1","4","3","2","2","2","1","2","3","2","2","1","661494086074630144","于","588","","","","","","","","","","","","","","","","","","","","","","","","","","","","","","","","","","","","","","","","","",""
"532","<p style=""color:rgb(150, 250, 100); font-size: 35px;"">本人</p>","i","categorize-html","28","221178","0.0-6.0-0.0-2.0-1.9","3","3","3","4","3","3","3","4","4","4","5","4","4","3","4","4","4","5","4","5","2","1","5","2","2","4","2","1","4","0","0","1","1","0","0","1","1","0","1","1","0","0","0","1","4","3","2","2","2","1","2","3","2","2","1","661494086074630144","于","588","","","","","","","","","","","","","","","","","","","true","1","1","ability","532","self","本人","","","","","","","","","","","","","","","","",""
"null","","null","html-keyboard-response","29","221438","0.0-6.0-0.0-2.0-0.10","3","3","3","4","3","3","3","4","4","4","5","4","4","3","4","4","4","5","4","5","2","1","5","2","2","4","2","1","4","0","0","1","1","0","0","1","1","0","1","1","0","0","0","1","4","3","2","2","2","1","2","3","2","2","1","661494086074630144","于","588","","","","","","","","","","","","","","","","","","","","","","","","","","","","","","","","","","","","","","","","","",""
"862","<p style=""color:rgb(150, 250, 100); font-size: 35px;"">我</p>","i","categorize-html","30","222302","0.0-6.0-0.0-2.0-1.10","3","3","3","4","3","3","3","4","4","4","5","4","4","3","4","4","4","5","4","5","2","1","5","2","2","4","2","1","4","0","0","1","1","0","0","1","1","0","1","1","0","0","0","1","4","3","2","2","2","1","2","3","2","2","1","661494086074630144","于","588","","","","","","","","","","","","","","","","","","","true","1","1","ability","862","self","我","","","","","","","","","","","","","","","","",""
"null","","null","html-keyboard-response","31","222563","0.0-6.0-0.0-2.0-0.11","3","3","3","4","3","3","3","4","4","4","5","4","4","3","4","4","4","5","4","5","2","1","5","2","2","4","2","1","4","0","0","1","1","0","0","1","1","0","1","1","0","0","0","1","4","3","2","2","2","1","2","3","2","2","1","661494086074630144","于","588","","","","","","","","","","","","","","","","","","","","","","","","","","","","","","","","","","","","","","","","","",""
"634","<p style=""color:rgb(150, 250, 100); font-size: 35px;"">他人的</p>","i","categorize-html","32","223210","0.0-6.0-0.0-2.0-1.11","3","3","3","4","3","3","3","4","4","4","5","4","4","3","4","4","4","5","4","5","2","1","5","2","2","4","2","1","4","0","0","1","1","0","0","1","1","0","1","1","0","0","0","1","4","3","2","2","2","1","2","3","2","2","1","661494086074630144","于","588","","","","","","","","","","","","","","","","","","","false","1","1","ability","634","other","他人的","","","","","","","","","","","","","","","","",""
"2103","
    <div class=""tag-bottom""><p>
    —— 任务2：对“积极”词和“消极”词分类 ——<p/>   
    <span style=""color:#78DCE8""><b>注意上方，类别标签和需要分类的词语都已经改变</b></span><p/>
    <span style=""color:#FFD866""><b>请根据上方标签的提示，尽可能正确并且快速地做出按键反应</b></span><p/>
    当按键错误时屏幕中会出现<span style=""color:red""> X </span>，需要按另一个键纠正才能继续<br/><p/>
    请把双手食指分别放在键盘的“E”键和“I”键上<p/>
    按<空格键>开始
    </p></div>"," ","html-keyboard-response","33","225315","0.0-6.0-0.0-3.0","3","3","3","4","3","3","3","4","4","4","5","4","4","3","4","4","4","5","4","5","2","1","5","2","2","4","2","1","4","0","0","1","1","0","0","1","1","0","1","1","0","0","0","1","4","3","2","2","2","1","2","3","2","2","1","661494086074630144","于","588","","","","","","","","","","","","","","","","","","","","","","","","","","","","","","","","","","","","","","","","","",""
"null","","null","html-keyboard-response","34","225574","0.0-6.0-0.0-4.0-0.0","3","3","3","4","3","3","3","4","4","4","5","4","4","3","4","4","4","5","4","5","2","1","5","2","2","4","2","1","4","0","0","1","1","0","0","1","1","0","1","1","0","0","0","1","4","3","2","2","2","1","2","3","2","2","1","661494086074630144","于","588","","","","","","","","","","","","","","","","","","","","","","","","","","","","","","","","","","","","","","","","","",""
"711","<p style=""color:white; font-size: 35px;"">全能</p>","e","categorize-html","35","226289","0.0-6.0-0.0-4.0-1.0","3","3","3","4","3","3","3","4","4","4","5","4","4","3","4","4","4","5","4","5","2","1","5","2","2","4","2","1","4","0","0","1","1","0","0","1","1","0","1","1","0","0","0","1","4","3","2","2","2","1","2","3","2","2","1","661494086074630144","于","588","","","","","","","","","","","","","","","","","","","true","2","2","ability","711","positive","全能","","","","","","","","","","","","","","","","",""
"null","","null","html-keyboard-response","36","226552","0.0-6.0-0.0-4.0-0.1","3","3","3","4","3","3","3","4","4","4","5","4","4","3","4","4","4","5","4","5","2","1","5","2","2","4","2","1","4","0","0","1","1","0","0","1","1","0","1","1","0","0","0","1","4","3","2","2","2","1","2","3","2","2","1","661494086074630144","于","588","","","","","","","","","","","","","","","","","","","","","","","","","","","","","","","","","","","","","","","","","",""
"470","<p style=""color:white; font-size: 35px;"">能干</p>","e","categorize-html","37","227026","0.0-6.0-0.0-4.0-1.1","3","3","3","4","3","3","3","4","4","4","5","4","4","3","4","4","4","5","4","5","2","1","5","2","2","4","2","1","4","0","0","1","1","0","0","1","1","0","1","1","0","0","0","1","4","3","2","2","2","1","2","3","2","2","1","661494086074630144","于","588","","","","","","","","","","","","","","","","","","","true","2","2","ability","470","positive","能干","","","","","","","","","","","","","","","","",""
"null","","null","html-keyboard-response","38","227280","0.0-6.0-0.0-4.0-0.2","3","3","3","4","3","3","3","4","4","4","5","4","4","3","4","4","4","5","4","5","2","1","5","2","2","4","2","1","4","0","0","1","1","0","0","1","1","0","1","1","0","0","0","1","4","3","2","2","2","1","2","3","2","2","1","661494086074630144","于","588","","","","","","","","","","","","","","","","","","","","","","","","","","","","","","","","","","","","","","","","","",""
"538","<p style=""color:white; font-size: 35px;"">全才</p>","e","categorize-html","39","227820","0.0-6.0-0.0-4.0-1.2","3","3","3","4","3","3","3","4","4","4","5","4","4","3","4","4","4","5","4","5","2","1","5","2","2","4","2","1","4","0","0","1","1","0","0","1","1","0","1","1","0","0","0","1","4","3","2","2","2","1","2","3","2","2","1","661494086074630144","于","588","","","","","","","","","","","","","","","","","","","true","2","2","ability","538","positive","全才","","","","","","","","","","","","","","","","",""
"null","","null","html-keyboard-response","40","228079","0.0-6.0-0.0-4.0-0.3","3","3","3","4","3","3","3","4","4","4","5","4","4","3","4","4","4","5","4","5","2","1","5","2","2","4","2","1","4","0","0","1","1","0","0","1","1","0","1","1","0","0","0","1","4","3","2","2","2","1","2","3","2","2","1","661494086074630144","于","588","","","","","","","","","","","","","","","","","","","","","","","","","","","","","","","","","","","","","","","","","",""
"544","<p style=""color:white; font-size: 35px;"">愚钝</p>","i","categorize-html","41","228626","0.0-6.0-0.0-4.0-1.3","3","3","3","4","3","3","3","4","4","4","5","4","4","3","4","4","4","5","4","5","2","1","5","2","2","4","2","1","4","0","0","1","1","0","0","1","1","0","1","1","0","0","0","1","4","3","2","2","2","1","2","3","2","2","1","661494086074630144","于","588","","","","","","","","","","","","","","","","","","","true","2","2","ability","544","negative","愚钝","","","","","","","","","","","","","","","","",""
"null","","null","html-keyboard-response","42","228878","0.0-6.0-0.0-4.0-0.4","3","3","3","4","3","3","3","4","4","4","5","4","4","3","4","4","4","5","4","5","2","1","5","2","2","4","2","1","4","0","0","1","1","0","0","1","1","0","1","1","0","0","0","1","4","3","2","2","2","1","2","3","2","2","1","661494086074630144","于","588","","","","","","","","","","","","","","","","","","","","","","","","","","","","","","","","","","","","","","","","","",""
"542","<p style=""color:white; font-size: 35px;"">精干</p>","e","categorize-html","43","229421","0.0-6.0-0.0-4.0-1.4","3","3","3","4","3","3","3","4","4","4","5","4","4","3","4","4","4","5","4","5","2","1","5","2","2","4","2","1","4","0","0","1","1","0","0","1","1","0","1","1","0","0","0","1","4","3","2","2","2","1","2","3","2","2","1","661494086074630144","于","588","","","","","","","","","","","","","","","","","","","true","2","2","ability","542","positive","精干","","","","","","","","","","","","","","","","",""
"null","","null","html-keyboard-response","44","229674","0.0-6.0-0.0-4.0-0.5","3","3","3","4","3","3","3","4","4","4","5","4","4","3","4","4","4","5","4","5","2","1","5","2","2","4","2","1","4","0","0","1","1","0","0","1","1","0","1","1","0","0","0","1","4","3","2","2","2","1","2","3","2","2","1","661494086074630144","于","588","","","","","","","","","","","","","","","","","","","","","","","","","","","","","","","","","","","","","","","","","",""
"674","<p style=""color:white; font-size: 35px;"">蠢笨</p>","i","categorize-html","45","230351","0.0-6.0-0.0-4.0-1.5","3","3","3","4","3","3","3","4","4","4","5","4","4","3","4","4","4","5","4","5","2","1","5","2","2","4","2","1","4","0","0","1","1","0","0","1","1","0","1","1","0","0","0","1","4","3","2","2","2","1","2","3","2","2","1","661494086074630144","于","588","","","","","","","","","","","","","","","","","","","true","2","2","ability","674","negative","蠢笨","","","","","","","","","","","","","","","","",""
"null","","null","html-keyboard-response","46","230604","0.0-6.0-0.0-4.0-0.6","3","3","3","4","3","3","3","4","4","4","5","4","4","3","4","4","4","5","4","5","2","1","5","2","2","4","2","1","4","0","0","1","1","0","0","1","1","0","1","1","0","0","0","1","4","3","2","2","2","1","2","3","2","2","1","661494086074630144","于","588","","","","","","","","","","","","","","","","","","","","","","","","","","","","","","","","","","","","","","","","","",""
"584","<p style=""color:white; font-size: 35px;"">低能</p>","i","categorize-html","47","231190","0.0-6.0-0.0-4.0-1.6","3","3","3","4","3","3","3","4","4","4","5","4","4","3","4","4","4","5","4","5","2","1","5","2","2","4","2","1","4","0","0","1","1","0","0","1","1","0","1","1","0","0","0","1","4","3","2","2","2","1","2","3","2","2","1","661494086074630144","于","588","","","","","","","","","","","","","","","","","","","true","2","2","ability","584","negative","低能","","","","","","","","","","","","","","","","",""
"null","","null","html-keyboard-response","48","231449","0.0-6.0-0.0-4.0-0.7","3","3","3","4","3","3","3","4","4","4","5","4","4","3","4","4","4","5","4","5","2","1","5","2","2","4","2","1","4","0","0","1","1","0","0","1","1","0","1","1","0","0","0","1","4","3","2","2","2","1","2","3","2","2","1","661494086074630144","于","588","","","","","","","","","","","","","","","","","","","","","","","","","","","","","","","","","","","","","","","","","",""
"525","<p style=""color:white; font-size: 35px;"">废物</p>","i","categorize-html","49","231976","0.0-6.0-0.0-4.0-1.7","3","3","3","4","3","3","3","4","4","4","5","4","4","3","4","4","4","5","4","5","2","1","5","2","2","4","2","1","4","0","0","1","1","0","0","1","1","0","1","1","0","0","0","1","4","3","2","2","2","1","2","3","2","2","1","661494086074630144","于","588","","","","","","","","","","","","","","","","","","","true","2","2","ability","525","negative","废物","","","","","","","","","","","","","","","","",""
"null","","null","html-keyboard-response","50","232231","0.0-6.0-0.0-4.0-0.8","3","3","3","4","3","3","3","4","4","4","5","4","4","3","4","4","4","5","4","5","2","1","5","2","2","4","2","1","4","0","0","1","1","0","0","1","1","0","1","1","0","0","0","1","4","3","2","2","2","1","2","3","2","2","1","661494086074630144","于","588","","","","","","","","","","","","","","","","","","","","","","","","","","","","","","","","","","","","","","","","","",""
"465","<p style=""color:white; font-size: 35px;"">天才</p>","e","categorize-html","51","232697","0.0-6.0-0.0-4.0-1.8","3","3","3","4","3","3","3","4","4","4","5","4","4","3","4","4","4","5","4","5","2","1","5","2","2","4","2","1","4","0","0","1","1","0","0","1","1","0","1","1","0","0","0","1","4","3","2","2","2","1","2","3","2","2","1","661494086074630144","于","588","","","","","","","","","","","","","","","","","","","true","2","2","ability","465","positive","天才","","","","","","","","","","","","","","","","",""
"null","","null","html-keyboard-response","52","232956","0.0-6.0-0.0-4.0-0.9","3","3","3","4","3","3","3","4","4","4","5","4","4","3","4","4","4","5","4","5","2","1","5","2","2","4","2","1","4","0","0","1","1","0","0","1","1","0","1","1","0","0","0","1","4","3","2","2","2","1","2","3","2","2","1","661494086074630144","于","588","","","","","","","","","","","","","","","","","","","","","","","","","","","","","","","","","","","","","","","","","",""
"824","<p style=""color:white; font-size: 35px;"">无能</p>","i","categorize-html","53","233783","0.0-6.0-0.0-4.0-1.9","3","3","3","4","3","3","3","4","4","4","5","4","4","3","4","4","4","5","4","5","2","1","5","2","2","4","2","1","4","0","0","1","1","0","0","1","1","0","1","1","0","0","0","1","4","3","2","2","2","1","2","3","2","2","1","661494086074630144","于","588","","","","","","","","","","","","","","","","","","","true","2","2","ability","824","negative","无能","","","","","","","","","","","","","","","","",""
"null","","null","html-keyboard-response","54","234047","0.0-6.0-0.0-4.0-0.10","3","3","3","4","3","3","3","4","4","4","5","4","4","3","4","4","4","5","4","5","2","1","5","2","2","4","2","1","4","0","0","1","1","0","0","1","1","0","1","1","0","0","0","1","4","3","2","2","2","1","2","3","2","2","1","661494086074630144","于","588","","","","","","","","","","","","","","","","","","","","","","","","","","","","","","","","","","","","","","","","","",""
"1005","<p style=""color:white; font-size: 35px;"">拙笨</p>","i","categorize-html","55","235054","0.0-6.0-0.0-4.0-1.10","3","3","3","4","3","3","3","4","4","4","5","4","4","3","4","4","4","5","4","5","2","1","5","2","2","4","2","1","4","0","0","1","1","0","0","1","1","0","1","1","0","0","0","1","4","3","2","2","2","1","2","3","2","2","1","661494086074630144","于","588","","","","","","","","","","","","","","","","","","","true","2","2","ability","1005","negative","拙笨","","","","","","","","","","","","","","","","",""
"null","","null","html-keyboard-response","56","235320","0.0-6.0-0.0-4.0-0.11","3","3","3","4","3","3","3","4","4","4","5","4","4","3","4","4","4","5","4","5","2","1","5","2","2","4","2","1","4","0","0","1","1","0","0","1","1","0","1","1","0","0","0","1","4","3","2","2","2","1","2","3","2","2","1","661494086074630144","于","588","","","","","","","","","","","","","","","","","","","","","","","","","","","","","","","","","","","","","","","","","",""
"468","<p style=""color:white; font-size: 35px;"">高效</p>","e","categorize-html","57","235791","0.0-6.0-0.0-4.0-1.11","3","3","3","4","3","3","3","4","4","4","5","4","4","3","4","4","4","5","4","5","2","1","5","2","2","4","2","1","4","0","0","1","1","0","0","1","1","0","1","1","0","0","0","1","4","3","2","2","2","1","2","3","2","2","1","661494086074630144","于","588","","","","","","","","","","","","","","","","","","","true","2","2","ability","468","positive","高效","","","","","","","","","","","","","","","","",""
"1285","
    <div class=""tag-bottom""><p>
    —— 任务3：对“他人/积极”词和“自我/消极”词分类 ——<p/>
    <span style=""color:#78DCE8""><b>注意上方，之前的四类词语将混合在一起交替呈现</b></span><p/>
    <span style=""color:#FFD866""><b>请根据上方标签的提示，尽可能正确并且快速地做出按键反应</b></span><p/>
    当按键错误时屏幕中会出现<span style=""color:red""> X </span>，需要按另一个键纠正才能继续<br/><p/>
    请把双手食指分别放在键盘的“E”键和“I”键上<p/>
    按<空格键>开始
    </p></div>"," ","html-keyboard-response","58","237078","0.0-6.0-0.0-5.0","3","3","3","4","3","3","3","4","4","4","5","4","4","3","4","4","4","5","4","5","2","1","5","2","2","4","2","1","4","0","0","1","1","0","0","1","1","0","1","1","0","0","0","1","4","3","2","2","2","1","2","3","2","2","1","661494086074630144","于","588","","","","","","","","","","","","","","","","","","","","","","","","","","","","","","","","","","","","","","","","","",""
"null","","null","html-keyboard-response","59","237337","0.0-6.0-0.0-6.0-0.0","3","3","3","4","3","3","3","4","4","4","5","4","4","3","4","4","4","5","4","5","2","1","5","2","2","4","2","1","4","0","0","1","1","0","0","1","1","0","1","1","0","0","0","1","4","3","2","2","2","1","2","3","2","2","1","661494086074630144","于","588","","","","","","","","","","","","","","","","","","","","","","","","","","","","","","","","","","","","","","","","","",""
"783","<p style=""color:rgb(150, 250, 100); font-size: 35px;"">他的</p>","e","categorize-html","60","238123","0.0-6.0-0.0-6.0-1.0","3","3","3","4","3","3","3","4","4","4","5","4","4","3","4","4","4","5","4","5","2","1","5","2","2","4","2","1","4","0","0","1","1","0","0","1","1","0","1","1","0","0","0","1","4","3","2","2","2","1","2","3","2","2","1","661494086074630144","于","588","","","","","","","","","","","","","","","","","","","true","3","3","ability","783","other","他的","","","","","","","","","","","","","","","","",""
"null","","null","html-keyboard-response","61","238378","0.0-6.0-0.0-6.0-0.1","3","3","3","4","3","3","3","4","4","4","5","4","4","3","4","4","4","5","4","5","2","1","5","2","2","4","2","1","4","0","0","1","1","0","0","1","1","0","1","1","0","0","0","1","4","3","2","2","2","1","2","3","2","2","1","661494086074630144","于","588","","","","","","","","","","","","","","","","","","","","","","","","","","","","","","","","","","","","","","","","","",""
"687","<p style=""color:white; font-size: 35px;"">无能</p>","i","categorize-html","62","239067","0.0-6.0-0.0-6.0-1.1","3","3","3","4","3","3","3","4","4","4","5","4","4","3","4","4","4","5","4","5","2","1","5","2","2","4","2","1","4","0","0","1","1","0","0","1","1","0","1","1","0","0","0","1","4","3","2","2","2","1","2","3","2","2","1","661494086074630144","于","588","","","","","","","","","","","","","","","","","","","true","3","3","ability","687","negative","无能","","","","","","","","","","","","","","","","",""
"null","","null","html-keyboard-response","63","239322","0.0-6.0-0.0-6.0-0.2","3","3","3","4","3","3","3","4","4","4","5","4","4","3","4","4","4","5","4","5","2","1","5","2","2","4","2","1","4","0","0","1","1","0","0","1","1","0","1","1","0","0","0","1","4","3","2","2","2","1","2","3","2","2","1","661494086074630144","于","588","","","","","","","","","","","","","","","","","","","","","","","","","","","","","","","","","","","","","","","","","",""
"504","<p style=""color:rgb(150, 250, 100); font-size: 35px;"">自己</p>","i","categorize-html","64","239830","0.0-6.0-0.0-6.0-1.2","3","3","3","4","3","3","3","4","4","4","5","4","4","3","4","4","4","5","4","5","2","1","5","2","2","4","2","1","4","0","0","1","1","0","0","1","1","0","1","1","0","0","0","1","4","3","2","2","2","1","2","3","2","2","1","661494086074630144","于","588","","","","","","","","","","","","","","","","","","","true","3","3","ability","504","self","自己","","","","","","","","","","","","","","","","",""
"null","","null","html-keyboard-response","65","240083","0.0-6.0-0.0-6.0-0.3","3","3","3","4","3","3","3","4","4","4","5","4","4","3","4","4","4","5","4","5","2","1","5","2","2","4","2","1","4","0","0","1","1","0","0","1","1","0","1","1","0","0","0","1","4","3","2","2","2","1","2","3","2","2","1","661494086074630144","于","588","","","","","","","","","","","","","","","","","","","","","","","","","","","","","","","","","","","","","","","","","",""
"1040","<p style=""color:white; font-size: 35px;"">能干</p>","e","categorize-html","66","241126","0.0-6.0-0.0-6.0-1.3","3","3","3","4","3","3","3","4","4","4","5","4","4","3","4","4","4","5","4","5","2","1","5","2","2","4","2","1","4","0","0","1","1","0","0","1","1","0","1","1","0","0","0","1","4","3","2","2","2","1","2","3","2","2","1","661494086074630144","于","588","","","","","","","","","","","","","","","","","","","true","3","3","ability","1040","positive","能干","","","","","","","","","","","","","","","","",""
"null","","null","html-keyboard-response","67","241385","0.0-6.0-0.0-6.0-0.4","3","3","3","4","3","3","3","4","4","4","5","4","4","3","4","4","4","5","4","5","2","1","5","2","2","4","2","1","4","0","0","1","1","0","0","1","1","0","1","1","0","0","0","1","4","3","2","2","2","1","2","3","2","2","1","661494086074630144","于","588","","","","","","","","","","","","","","","","","","","","","","","","","","","","","","","","","","","","","","","","","",""
"548","<p style=""color:rgb(150, 250, 100); font-size: 35px;"">我</p>","i","categorize-html","68","241935","0.0-6.0-0.0-6.0-1.4","3","3","3","4","3","3","3","4","4","4","5","4","4","3","4","4","4","5","4","5","2","1","5","2","2","4","2","1","4","0","0","1","1","0","0","1","1","0","1","1","0","0","0","1","4","3","2","2","2","1","2","3","2","2","1","661494086074630144","于","588","","","","","","","","","","","","","","","","","","","true","3","3","ability","548","self","我","","","","","","","","","","","","","","","","",""
"null","","null","html-keyboard-response","69","242188","0.0-6.0-0.0-6.0-0.5","3","3","3","4","3","3","3","4","4","4","5","4","4","3","4","4","4","5","4","5","2","1","5","2","2","4","2","1","4","0","0","1","1","0","0","1","1","0","1","1","0","0","0","1","4","3","2","2","2","1","2","3","2","2","1","661494086074630144","于","588","","","","","","","","","","","","","","","","","","","","","","","","","","","","","","","","","","","","","","","","","",""
"939","<p style=""color:white; font-size: 35px;"">废物</p>","i","categorize-html","70","243129","0.0-6.0-0.0-6.0-1.5","3","3","3","4","3","3","3","4","4","4","5","4","4","3","4","4","4","5","4","5","2","1","5","2","2","4","2","1","4","0","0","1","1","0","0","1","1","0","1","1","0","0","0","1","4","3","2","2","2","1","2","3","2","2","1","661494086074630144","于","588","","","","","","","","","","","","","","","","","","","true","3","3","ability","939","negative","废物","","","","","","","","","","","","","","","","",""
"null","","null","html-keyboard-response","71","243383","0.0-6.0-0.0-6.0-0.6","3","3","3","4","3","3","3","4","4","4","5","4","4","3","4","4","4","5","4","5","2","1","5","2","2","4","2","1","4","0","0","1","1","0","0","1","1","0","1","1","0","0","0","1","4","3","2","2","2","1","2","3","2","2","1","661494086074630144","于","588","","","","","","","","","","","","","","","","","","","","","","","","","","","","","","","","","","","","","","","","","",""
"560","<p style=""color:rgb(150, 250, 100); font-size: 35px;"">他人的</p>","e","categorize-html","72","243946","0.0-6.0-0.0-6.0-1.6","3","3","3","4","3","3","3","4","4","4","5","4","4","3","4","4","4","5","4","5","2","1","5","2","2","4","2","1","4","0","0","1","1","0","0","1","1","0","1","1","0","0","0","1","4","3","2","2","2","1","2","3","2","2","1","661494086074630144","于","588","","","","","","","","","","","","","","","","","","","true","3","3","ability","560","other","他人的","","","","","","","","","","","","","","","","",""
"null","","null","html-keyboard-response","73","244209","0.0-6.0-0.0-6.0-0.7","3","3","3","4","3","3","3","4","4","4","5","4","4","3","4","4","4","5","4","5","2","1","5","2","2","4","2","1","4","0","0","1","1","0","0","1","1","0","1","1","0","0","0","1","4","3","2","2","2","1","2","3","2","2","1","661494086074630144","于","588","","","","","","","","","","","","","","","","","","","","","","","","","","","","","","","","","","","","","","","","","",""
"1145","<p style=""color:white; font-size: 35px;"">天才</p>","e","categorize-html","74","245359","0.0-6.0-0.0-6.0-1.7","3","3","3","4","3","3","3","4","4","4","5","4","4","3","4","4","4","5","4","5","2","1","5","2","2","4","2","1","4","0","0","1","1","0","0","1","1","0","1","1","0","0","0","1","4","3","2","2","2","1","2","3","2","2","1","661494086074630144","于","588","","","","","","","","","","","","","","","","","","","true","3","3","ability","1145","positive","天才","","","","","","","","","","","","","","","","",""
"null","","null","html-keyboard-response","75","245612","0.0-6.0-0.0-6.0-0.8","3","3","3","4","3","3","3","4","4","4","5","4","4","3","4","4","4","5","4","5","2","1","5","2","2","4","2","1","4","0","0","1","1","0","0","1","1","0","1","1","0","0","0","1","4","3","2","2","2","1","2","3","2","2","1","661494086074630144","于","588","","","","","","","","","","","","","","","","","","","","","","","","","","","","","","","","","","","","","","","","","",""
"562","<p style=""color:rgb(150, 250, 100); font-size: 35px;"">本人</p>","i","categorize-html","76","246176","0.0-6.0-0.0-6.0-1.8","3","3","3","4","3","3","3","4","4","4","5","4","4","3","4","4","4","5","4","5","2","1","5","2","2","4","2","1","4","0","0","1","1","0","0","1","1","0","1","1","0","0","0","1","4","3","2","2","2","1","2","3","2","2","1","661494086074630144","于","588","","","","","","","","","","","","","","","","","","","true","3","3","ability","562","self","本人","","","","","","","","","","","","","","","","",""
"null","","null","html-keyboard-response","77","246437","0.0-6.0-0.0-6.0-0.9","3","3","3","4","3","3","3","4","4","4","5","4","4","3","4","4","4","5","4","5","2","1","5","2","2","4","2","1","4","0","0","1","1","0","0","1","1","0","1","1","0","0","0","1","4","3","2","2","2","1","2","3","2","2","1","661494086074630144","于","588","","","","","","","","","","","","","","","","","","","","","","","","","","","","","","","","","","","","","","","","","",""
"561","<p style=""color:white; font-size: 35px;"">全能</p>","e","categorize-html","78","247000","0.0-6.0-0.0-6.0-1.9","3","3","3","4","3","3","3","4","4","4","5","4","4","3","4","4","4","5","4","5","2","1","5","2","2","4","2","1","4","0","0","1","1","0","0","1","1","0","1","1","0","0","0","1","4","3","2","2","2","1","2","3","2","2","1","661494086074630144","于","588","","","","","","","","","","","","","","","","","","","true","3","3","ability","561","positive","全能","","","","","","","","","","","","","","","","",""
"null","","null","html-keyboard-response","79","247253","0.0-6.0-0.0-6.0-0.10","3","3","3","4","3","3","3","4","4","4","5","4","4","3","4","4","4","5","4","5","2","1","5","2","2","4","2","1","4","0","0","1","1","0","0","1","1","0","1","1","0","0","0","1","4","3","2","2","2","1","2","3","2","2","1","661494086074630144","于","588","","","","","","","","","","","","","","","","","","","","","","","","","","","","","","","","","","","","","","","","","",""
"1695","<p style=""color:rgb(150, 250, 100); font-size: 35px;"">别人</p>","e","categorize-html","80","248952","0.0-6.0-0.0-6.0-1.10","3","3","3","4","3","3","3","4","4","4","5","4","4","3","4","4","4","5","4","5","2","1","5","2","2","4","2","1","4","0","0","1","1","0","0","1","1","0","1","1","0","0","0","1","4","3","2","2","2","1","2","3","2","2","1","661494086074630144","于","588","","","","","","","","","","","","","","","","","","","true","3","3","ability","1695","other","别人","","","","","","","","","","","","","","","","",""
"null","","null","html-keyboard-response","81","249218","0.0-6.0-0.0-6.0-0.11","3","3","3","4","3","3","3","4","4","4","5","4","4","3","4","4","4","5","4","5","2","1","5","2","2","4","2","1","4","0","0","1","1","0","0","1","1","0","1","1","0","0","0","1","4","3","2","2","2","1","2","3","2","2","1","661494086074630144","于","588","","","","","","","","","","","","","","","","","","","","","","","","","","","","","","","","","","","","","","","","","",""
"566","<p style=""color:white; font-size: 35px;"">蠢笨</p>","i","categorize-html","82","249787","0.0-6.0-0.0-6.0-1.11","3","3","3","4","3","3","3","4","4","4","5","4","4","3","4","4","4","5","4","5","2","1","5","2","2","4","2","1","4","0","0","1","1","0","0","1","1","0","1","1","0","0","0","1","4","3","2","2","2","1","2","3","2","2","1","661494086074630144","于","588","","","","","","","","","","","","","","","","","","","true","3","3","ability","566","negative","蠢笨","","","","","","","","","","","","","","","","",""
"null","","null","html-keyboard-response","83","250045","0.0-6.0-0.0-6.0-0.12","3","3","3","4","3","3","3","4","4","4","5","4","4","3","4","4","4","5","4","5","2","1","5","2","2","4","2","1","4","0","0","1","1","0","0","1","1","0","1","1","0","0","0","1","4","3","2","2","2","1","2","3","2","2","1","661494086074630144","于","588","","","","","","","","","","","","","","","","","","","","","","","","","","","","","","","","","","","","","","","","","",""
"518","<p style=""color:rgb(150, 250, 100); font-size: 35px;"">自己的</p>","i","categorize-html","84","250565","0.0-6.0-0.0-6.0-1.12","3","3","3","4","3","3","3","4","4","4","5","4","4","3","4","4","4","5","4","5","2","1","5","2","2","4","2","1","4","0","0","1","1","0","0","1","1","0","1","1","0","0","0","1","4","3","2","2","2","1","2","3","2","2","1","661494086074630144","于","588","","","","","","","","","","","","","","","","","","","true","3","3","ability","518","self","自己的","","","","","","","","","","","","","","","","",""
"null","","null","html-keyboard-response","85","250819","0.0-6.0-0.0-6.0-0.13","3","3","3","4","3","3","3","4","4","4","5","4","4","3","4","4","4","5","4","5","2","1","5","2","2","4","2","1","4","0","0","1","1","0","0","1","1","0","1","1","0","0","0","1","4","3","2","2","2","1","2","3","2","2","1","661494086074630144","于","588","","","","","","","","","","","","","","","","","","","","","","","","","","","","","","","","","","","","","","","","","",""
"1156","<p style=""color:white; font-size: 35px;"">低能</p>","e","categorize-html","86","252429","0.0-6.0-0.0-6.0-1.13","3","3","3","4","3","3","3","4","4","4","5","4","4","3","4","4","4","5","4","5","2","1","5","2","2","4","2","1","4","0","0","1","1","0","0","1","1","0","1","1","0","0","0","1","4","3","2","2","2","1","2","3","2","2","1","661494086074630144","于","588","","","","","","","","","","","","","","","","","","","false","3","3","ability","1392.090909090909","negative","低能","","","","","","","","","","","","","","","","",""
"null","","null","html-keyboard-response","87","252688","0.0-6.0-0.0-6.0-0.14","3","3","3","4","3","3","3","4","4","4","5","4","4","3","4","4","4","5","4","5","2","1","5","2","2","4","2","1","4","0","0","1","1","0","0","1","1","0","1","1","0","0","0","1","4","3","2","2","2","1","2","3","2","2","1","661494086074630144","于","588","","","","","","","","","","","","","","","","","","","","","","","","","","","","","","","","","","","","","","","","","",""
"594","<p style=""color:rgb(150, 250, 100); font-size: 35px;"">他</p>","e","categorize-html","88","253284","0.0-6.0-0.0-6.0-1.14","3","3","3","4","3","3","3","4","4","4","5","4","4","3","4","4","4","5","4","5","2","1","5","2","2","4","2","1","4","0","0","1","1","0","0","1","1","0","1","1","0","0","0","1","4","3","2","2","2","1","2","3","2","2","1","661494086074630144","于","588","","","","","","","","","","","","","","","","","","","true","3","3","ability","594","other","他","","","","","","","","","","","","","","","","",""
"null","","null","html-keyboard-response","89","253546","0.0-6.0-0.0-6.0-0.15","3","3","3","4","3","3","3","4","4","4","5","4","4","3","4","4","4","5","4","5","2","1","5","2","2","4","2","1","4","0","0","1","1","0","0","1","1","0","1","1","0","0","0","1","4","3","2","2","2","1","2","3","2","2","1","661494086074630144","于","588","","","","","","","","","","","","","","","","","","","","","","","","","","","","","","","","","","","","","","","","","",""
"852","<p style=""color:white; font-size: 35px;"">高效</p>","e","categorize-html","90","254402","0.0-6.0-0.0-6.0-1.15","3","3","3","4","3","3","3","4","4","4","5","4","4","3","4","4","4","5","4","5","2","1","5","2","2","4","2","1","4","0","0","1","1","0","0","1","1","0","1","1","0","0","0","1","4","3","2","2","2","1","2","3","2","2","1","661494086074630144","于","588","","","","","","","","","","","","","","","","","","","true","3","3","ability","852","positive","高效","","","","","","","","","","","","","","","","",""
"null","","null","html-keyboard-response","91","254659","0.0-6.0-0.0-6.0-0.16","3","3","3","4","3","3","3","4","4","4","5","4","4","3","4","4","4","5","4","5","2","1","5","2","2","4","2","1","4","0","0","1","1","0","0","1","1","0","1","1","0","0","0","1","4","3","2","2","2","1","2","3","2","2","1","661494086074630144","于","588","","","","","","","","","","","","","","","","","","","","","","","","","","","","","","","","","","","","","","","","","",""
"547","<p style=""color:rgb(150, 250, 100); font-size: 35px;"">别人的</p>","e","categorize-html","92","255208","0.0-6.0-0.0-6.0-1.16","3","3","3","4","3","3","3","4","4","4","5","4","4","3","4","4","4","5","4","5","2","1","5","2","2","4","2","1","4","0","0","1","1","0","0","1","1","0","1","1","0","0","0","1","4","3","2","2","2","1","2","3","2","2","1","661494086074630144","于","588","","","","","","","","","","","","","","","","","","","true","3","3","ability","547","other","别人的","","","","","","","","","","","","","","","","",""
"null","","null","html-keyboard-response","93","255476","0.0-6.0-0.0-6.0-0.17","3","3","3","4","3","3","3","4","4","4","5","4","4","3","4","4","4","5","4","5","2","1","5","2","2","4","2","1","4","0","0","1","1","0","0","1","1","0","1","1","0","0","0","1","4","3","2","2","2","1","2","3","2","2","1","661494086074630144","于","588","","","","","","","","","","","","","","","","","","","","","","","","","","","","","","","","","","","","","","","","","",""
"571","<p style=""color:white; font-size: 35px;"">愚钝</p>","i","categorize-html","94","256050","0.0-6.0-0.0-6.0-1.17","3","3","3","4","3","3","3","4","4","4","5","4","4","3","4","4","4","5","4","5","2","1","5","2","2","4","2","1","4","0","0","1","1","0","0","1","1","0","1","1","0","0","0","1","4","3","2","2","2","1","2","3","2","2","1","661494086074630144","于","588","","","","","","","","","","","","","","","","","","","true","3","3","ability","571","negative","愚钝","","","","","","","","","","","","","","","","",""
"null","","null","html-keyboard-response","95","256309","0.0-6.0-0.0-6.0-0.18","3","3","3","4","3","3","3","4","4","4","5","4","4","3","4","4","4","5","4","5","2","1","5","2","2","4","2","1","4","0","0","1","1","0","0","1","1","0","1","1","0","0","0","1","4","3","2","2","2","1","2","3","2","2","1","661494086074630144","于","588","","","","","","","","","","","","","","","","","","","","","","","","","","","","","","","","","","","","","","","","","",""
"1155","<p style=""color:rgb(150, 250, 100); font-size: 35px;"">本人的</p>","e","categorize-html","96","258017","0.0-6.0-0.0-6.0-1.18","3","3","3","4","3","3","3","4","4","4","5","4","4","3","4","4","4","5","4","5","2","1","5","2","2","4","2","1","4","0","0","1","1","0","0","1","1","0","1","1","0","0","0","1","4","3","2","2","2","1","2","3","2","2","1","661494086074630144","于","588","","","","","","","","","","","","","","","","","","","false","3","3","ability","1392.090909090909","self","本人的","","","","","","","","","","","","","","","","",""
"null","","null","html-keyboard-response","97","258269","0.0-6.0-0.0-6.0-0.19","3","3","3","4","3","3","3","4","4","4","5","4","4","3","4","4","4","5","4","5","2","1","5","2","2","4","2","1","4","0","0","1","1","0","0","1","1","0","1","1","0","0","0","1","4","3","2","2","2","1","2","3","2","2","1","661494086074630144","于","588","","","","","","","","","","","","","","","","","","","","","","","","","","","","","","","","","","","","","","","","","",""
"566","<p style=""color:white; font-size: 35px;"">全才</p>","e","categorize-html","98","258837","0.0-6.0-0.0-6.0-1.19","3","3","3","4","3","3","3","4","4","4","5","4","4","3","4","4","4","5","4","5","2","1","5","2","2","4","2","1","4","0","0","1","1","0","0","1","1","0","1","1","0","0","0","1","4","3","2","2","2","1","2","3","2","2","1","661494086074630144","于","588","","","","","","","","","","","","","","","","","","","true","3","3","ability","566","positive","全才","","","","","","","","","","","","","","","","",""
"null","","null","html-keyboard-response","99","259103","0.0-6.0-0.0-6.0-0.20","3","3","3","4","3","3","3","4","4","4","5","4","4","3","4","4","4","5","4","5","2","1","5","2","2","4","2","1","4","0","0","1","1","0","0","1","1","0","1","1","0","0","0","1","4","3","2","2","2","1","2","3","2","2","1","661494086074630144","于","588","","","","","","","","","","","","","","","","","","","","","","","","","","","","","","","","","","","","","","","","","",""
"702","<p style=""color:rgb(150, 250, 100); font-size: 35px;"">我的</p>","i","categorize-html","100","259807","0.0-6.0-0.0-6.0-1.20","3","3","3","4","3","3","3","4","4","4","5","4","4","3","4","4","4","5","4","5","2","1","5","2","2","4","2","1","4","0","0","1","1","0","0","1","1","0","1","1","0","0","0","1","4","3","2","2","2","1","2","3","2","2","1","661494086074630144","于","588","","","","","","","","","","","","","","","","","","","true","3","3","ability","702","self","我的","","","","","","","","","","","","","","","","",""
"null","","null","html-keyboard-response","101","260062","0.0-6.0-0.0-6.0-0.21","3","3","3","4","3","3","3","4","4","4","5","4","4","3","4","4","4","5","4","5","2","1","5","2","2","4","2","1","4","0","0","1","1","0","0","1","1","0","1","1","0","0","0","1","4","3","2","2","2","1","2","3","2","2","1","661494086074630144","于","588","","","","","","","","","","","","","","","","","","","","","","","","","","","","","","","","","","","","","","","","","",""
"755","<p style=""color:white; font-size: 35px;"">拙笨</p>","i","categorize-html","102","260820","0.0-6.0-0.0-6.0-1.21","3","3","3","4","3","3","3","4","4","4","5","4","4","3","4","4","4","5","4","5","2","1","5","2","2","4","2","1","4","0","0","1","1","0","0","1","1","0","1","1","0","0","0","1","4","3","2","2","2","1","2","3","2","2","1","661494086074630144","于","588","","","","","","","","","","","","","","","","","","","true","3","3","ability","755","negative","拙笨","","","","","","","","","","","","","","","","",""
"null","","null","html-keyboard-response","103","261073","0.0-6.0-0.0-6.0-0.22","3","3","3","4","3","3","3","4","4","4","5","4","4","3","4","4","4","5","4","5","2","1","5","2","2","4","2","1","4","0","0","1","1","0","0","1","1","0","1","1","0","0","0","1","4","3","2","2","2","1","2","3","2","2","1","661494086074630144","于","588","","","","","","","","","","","","","","","","","","","","","","","","","","","","","","","","","","","","","","","","","",""
"620","<p style=""color:rgb(150, 250, 100); font-size: 35px;"">他人</p>","e","categorize-html","104","261696","0.0-6.0-0.0-6.0-1.22","3","3","3","4","3","3","3","4","4","4","5","4","4","3","4","4","4","5","4","5","2","1","5","2","2","4","2","1","4","0","0","1","1","0","0","1","1","0","1","1","0","0","0","1","4","3","2","2","2","1","2","3","2","2","1","661494086074630144","于","588","","","","","","","","","","","","","","","","","","","true","3","3","ability","620","other","他人","","","","","","","","","","","","","","","","",""
"null","","null","html-keyboard-response","105","261956","0.0-6.0-0.0-6.0-0.23","3","3","3","4","3","3","3","4","4","4","5","4","4","3","4","4","4","5","4","5","2","1","5","2","2","4","2","1","4","0","0","1","1","0","0","1","1","0","1","1","0","0","0","1","4","3","2","2","2","1","2","3","2","2","1","661494086074630144","于","588","","","","","","","","","","","","","","","","","","","","","","","","","","","","","","","","","","","","","","","","","",""
"2111","<p style=""color:white; font-size: 35px;"">精干</p>","e","categorize-html","106","264069","0.0-6.0-0.0-6.0-1.23","3","3","3","4","3","3","3","4","4","4","5","4","4","3","4","4","4","5","4","5","2","1","5","2","2","4","2","1","4","0","0","1","1","0","0","1","1","0","1","1","0","0","0","1","4","3","2","2","2","1","2","3","2","2","1","661494086074630144","于","588","","","","","","","","","","","","","","","","","","","true","3","3","ability","2111","positive","精干","","","","","","","","","","","","","","","","",""
"1532","
    <div class=""tag-bottom""><p>
    —— 任务4：对“他人/积极”词和“自我/消极”词分类 ——<p/>
    <span style=""color:#78DCE8""><b>与刚才的任务完全相同，请再次对这四类词语分类</b></span><p/>
    <span style=""color:#FFD866""><b>请根据上方标签的提示，尽可能正确并且快速地做出按键反应</b></span><p/>
    当按键错误时屏幕中会出现<span style=""color:red""> X </span>，需要按另一个键纠正才能继续<br/><p/>
    请把双手食指分别放在键盘的“E”键和“I”键上<p/>
    按<空格键>开始
    </p></div>"," ","html-keyboard-response","107","265601","0.0-6.0-0.0-7.0","3","3","3","4","3","3","3","4","4","4","5","4","4","3","4","4","4","5","4","5","2","1","5","2","2","4","2","1","4","0","0","1","1","0","0","1","1","0","1","1","0","0","0","1","4","3","2","2","2","1","2","3","2","2","1","661494086074630144","于","588","","","","","","","","","","","","","","","","","","","","","","","","","","","","","","","","","","","","","","","","","",""
"null","","null","html-keyboard-response","108","265859","0.0-6.0-0.0-8.0-0.0","3","3","3","4","3","3","3","4","4","4","5","4","4","3","4","4","4","5","4","5","2","1","5","2","2","4","2","1","4","0","0","1","1","0","0","1","1","0","1","1","0","0","0","1","4","3","2","2","2","1","2","3","2","2","1","661494086074630144","于","588","","","","","","","","","","","","","","","","","","","","","","","","","","","","","","","","","","","","","","","","","",""
"688","<p style=""color:rgb(150, 250, 100); font-size: 35px;"">他人</p>","e","categorize-html","109","266550","0.0-6.0-0.0-8.0-1.0","3","3","3","4","3","3","3","4","4","4","5","4","4","3","4","4","4","5","4","5","2","1","5","2","2","4","2","1","4","0","0","1","1","0","0","1","1","0","1","1","0","0","0","1","4","3","2","2","2","1","2","3","2","2","1","661494086074630144","于","588","","","","","","","","","","","","","","","","","","","true","4","4","ability","688","other","他人","","","","","","","","","","","","","","","","",""
"null","","null","html-keyboard-response","110","266803","0.0-6.0-0.0-8.0-0.1","3","3","3","4","3","3","3","4","4","4","5","4","4","3","4","4","4","5","4","5","2","1","5","2","2","4","2","1","4","0","0","1","1","0","0","1","1","0","1","1","0","0","0","1","4","3","2","2","2","1","2","3","2","2","1","661494086074630144","于","588","","","","","","","","","","","","","","","","","","","","","","","","","","","","","","","","","","","","","","","","","",""
"665","<p style=""color:white; font-size: 35px;"">天才</p>","e","categorize-html","111","267470","0.0-6.0-0.0-8.0-1.1","3","3","3","4","3","3","3","4","4","4","5","4","4","3","4","4","4","5","4","5","2","1","5","2","2","4","2","1","4","0","0","1","1","0","0","1","1","0","1","1","0","0","0","1","4","3","2","2","2","1","2","3","2","2","1","661494086074630144","于","588","","","","","","","","","","","","","","","","","","","true","4","4","ability","665","positive","天才","","","","","","","","","","","","","","","","",""
"null","","null","html-keyboard-response","112","267726","0.0-6.0-0.0-8.0-0.2","3","3","3","4","3","3","3","4","4","4","5","4","4","3","4","4","4","5","4","5","2","1","5","2","2","4","2","1","4","0","0","1","1","0","0","1","1","0","1","1","0","0","0","1","4","3","2","2","2","1","2","3","2","2","1","661494086074630144","于","588","","","","","","","","","","","","","","","","","","","","","","","","","","","","","","","","","","","","","","","","","",""
"563","<p style=""color:rgb(150, 250, 100); font-size: 35px;"">自己的</p>","i","categorize-html","113","268291","0.0-6.0-0.0-8.0-1.2","3","3","3","4","3","3","3","4","4","4","5","4","4","3","4","4","4","5","4","5","2","1","5","2","2","4","2","1","4","0","0","1","1","0","0","1","1","0","1","1","0","0","0","1","4","3","2","2","2","1","2","3","2","2","1","661494086074630144","于","588","","","","","","","","","","","","","","","","","","","true","4","4","ability","563","self","自己的","","","","","","","","","","","","","","","","",""
"null","","null","html-keyboard-response","114","268557","0.0-6.0-0.0-8.0-0.3","3","3","3","4","3","3","3","4","4","4","5","4","4","3","4","4","4","5","4","5","2","1","5","2","2","4","2","1","4","0","0","1","1","0","0","1","1","0","1","1","0","0","0","1","4","3","2","2","2","1","2","3","2","2","1","661494086074630144","于","588","","","","","","","","","","","","","","","","","","","","","","","","","","","","","","","","","","","","","","","","","",""
"537","<p style=""color:white; font-size: 35px;"">低能</p>","i","categorize-html","115","269097","0.0-6.0-0.0-8.0-1.3","3","3","3","4","3","3","3","4","4","4","5","4","4","3","4","4","4","5","4","5","2","1","5","2","2","4","2","1","4","0","0","1","1","0","0","1","1","0","1","1","0","0","0","1","4","3","2","2","2","1","2","3","2","2","1","661494086074630144","于","588","","","","","","","","","","","","","","","","","","","true","4","4","ability","537","negative","低能","","","","","","","","","","","","","","","","",""
"null","","null","html-keyboard-response","116","269356","0.0-6.0-0.0-8.0-0.4","3","3","3","4","3","3","3","4","4","4","5","4","4","3","4","4","4","5","4","5","2","1","5","2","2","4","2","1","4","0","0","1","1","0","0","1","1","0","1","1","0","0","0","1","4","3","2","2","2","1","2","3","2","2","1","661494086074630144","于","588","","","","","","","","","","","","","","","","","","","","","","","","","","","","","","","","","","","","","","","","","",""
"553","<p style=""color:rgb(150, 250, 100); font-size: 35px;"">他</p>","e","categorize-html","117","269911","0.0-6.0-0.0-8.0-1.4","3","3","3","4","3","3","3","4","4","4","5","4","4","3","4","4","4","5","4","5","2","1","5","2","2","4","2","1","4","0","0","1","1","0","0","1","1","0","1","1","0","0","0","1","4","3","2","2","2","1","2","3","2","2","1","661494086074630144","于","588","","","","","","","","","","","","","","","","","","","true","4","4","ability","553","other","他","","","","","","","","","","","","","","","","",""
"null","","null","html-keyboard-response","118","270165","0.0-6.0-0.0-8.0-0.5","3","3","3","4","3","3","3","4","4","4","5","4","4","3","4","4","4","5","4","5","2","1","5","2","2","4","2","1","4","0","0","1","1","0","0","1","1","0","1","1","0","0","0","1","4","3","2","2","2","1","2","3","2","2","1","661494086074630144","于","588","","","","","","","","","","","","","","","","","","","","","","","","","","","","","","","","","","","","","","","","","",""
"1186","<p style=""color:white; font-size: 35px;"">精干</p>","e","categorize-html","119","271353","0.0-6.0-0.0-8.0-1.5","3","3","3","4","3","3","3","4","4","4","5","4","4","3","4","4","4","5","4","5","2","1","5","2","2","4","2","1","4","0","0","1","1","0","0","1","1","0","1","1","0","0","0","1","4","3","2","2","2","1","2","3","2","2","1","661494086074630144","于","588","","","","","","","","","","","","","","","","","","","true","4","4","ability","1186","positive","精干","","","","","","","","","","","","","","","","",""
"null","","null","html-keyboard-response","120","271607","0.0-6.0-0.0-8.0-0.6","3","3","3","4","3","3","3","4","4","4","5","4","4","3","4","4","4","5","4","5","2","1","5","2","2","4","2","1","4","0","0","1","1","0","0","1","1","0","1","1","0","0","0","1","4","3","2","2","2","1","2","3","2","2","1","661494086074630144","于","588","","","","","","","","","","","","","","","","","","","","","","","","","","","","","","","","","","","","","","","","","",""
"1043","<p style=""color:rgb(150, 250, 100); font-size: 35px;"">本人</p>","i","categorize-html","121","272652","0.0-6.0-0.0-8.0-1.6","3","3","3","4","3","3","3","4","4","4","5","4","4","3","4","4","4","5","4","5","2","1","5","2","2","4","2","1","4","0","0","1","1","0","0","1","1","0","1","1","0","0","0","1","4","3","2","2","2","1","2","3","2","2","1","661494086074630144","于","588","","","","","","","","","","","","","","","","","","","true","4","4","ability","1043","self","本人","","","","","","","","","","","","","","","","",""
"null","","null","html-keyboard-response","122","272904","0.0-6.0-0.0-8.0-0.7","3","3","3","4","3","3","3","4","4","4","5","4","4","3","4","4","4","5","4","5","2","1","5","2","2","4","2","1","4","0","0","1","1","0","0","1","1","0","1","1","0","0","0","1","4","3","2","2","2","1","2","3","2","2","1","661494086074630144","于","588","","","","","","","","","","","","","","","","","","","","","","","","","","","","","","","","","","","","","","","","","",""
"1277","<p style=""color:white; font-size: 35px;"">低能</p>","i","categorize-html","123","274186","0.0-6.0-0.0-8.0-1.7","3","3","3","4","3","3","3","4","4","4","5","4","4","3","4","4","4","5","4","5","2","1","5","2","2","4","2","1","4","0","0","1","1","0","0","1","1","0","1","1","0","0","0","1","4","3","2","2","2","1","2","3","2","2","1","661494086074630144","于","588","","","","","","","","","","","","","","","","","","","true","4","4","ability","1277","negative","低能","","","","","","","","","","","","","","","","",""
"null","","null","html-keyboard-response","124","274440","0.0-6.0-0.0-8.0-0.8","3","3","3","4","3","3","3","4","4","4","5","4","4","3","4","4","4","5","4","5","2","1","5","2","2","4","2","1","4","0","0","1","1","0","0","1","1","0","1","1","0","0","0","1","4","3","2","2","2","1","2","3","2","2","1","661494086074630144","于","588","","","","","","","","","","","","","","","","","","","","","","","","","","","","","","","","","","","","","","","","","",""
"924","<p style=""color:rgb(150, 250, 100); font-size: 35px;"">自己</p>","i","categorize-html","125","275366","0.0-6.0-0.0-8.0-1.8","3","3","3","4","3","3","3","4","4","4","5","4","4","3","4","4","4","5","4","5","2","1","5","2","2","4","2","1","4","0","0","1","1","0","0","1","1","0","1","1","0","0","0","1","4","3","2","2","2","1","2","3","2","2","1","661494086074630144","于","588","","","","","","","","","","","","","","","","","","","true","4","4","ability","924","self","自己","","","","","","","","","","","","","","","","",""
"null","","null","html-keyboard-response","126","275628","0.0-6.0-0.0-8.0-0.9","3","3","3","4","3","3","3","4","4","4","5","4","4","3","4","4","4","5","4","5","2","1","5","2","2","4","2","1","4","0","0","1","1","0","0","1","1","0","1","1","0","0","0","1","4","3","2","2","2","1","2","3","2","2","1","661494086074630144","于","588","","","","","","","","","","","","","","","","","","","","","","","","","","","","","","","","","","","","","","","","","",""
"960","<p style=""color:white; font-size: 35px;"">全才</p>","e","categorize-html","127","276593","0.0-6.0-0.0-8.0-1.9","3","3","3","4","3","3","3","4","4","4","5","4","4","3","4","4","4","5","4","5","2","1","5","2","2","4","2","1","4","0","0","1","1","0","0","1","1","0","1","1","0","0","0","1","4","3","2","2","2","1","2","3","2","2","1","661494086074630144","于","588","","","","","","","","","","","","","","","","","","","true","4","4","ability","960","positive","全才","","","","","","","","","","","","","","","","",""
"null","","null","html-keyboard-response","128","276848","0.0-6.0-0.0-8.0-0.10","3","3","3","4","3","3","3","4","4","4","5","4","4","3","4","4","4","5","4","5","2","1","5","2","2","4","2","1","4","0","0","1","1","0","0","1","1","0","1","1","0","0","0","1","4","3","2","2","2","1","2","3","2","2","1","661494086074630144","于","588","","","","","","","","","","","","","","","","","","","","","","","","","","","","","","","","","","","","","","","","","",""
"527","<p style=""color:rgb(150, 250, 100); font-size: 35px;"">他人</p>","e","categorize-html","129","277377","0.0-6.0-0.0-8.0-1.10","3","3","3","4","3","3","3","4","4","4","5","4","4","3","4","4","4","5","4","5","2","1","5","2","2","4","2","1","4","0","0","1","1","0","0","1","1","0","1","1","0","0","0","1","4","3","2","2","2","1","2","3","2","2","1","661494086074630144","于","588","","","","","","","","","","","","","","","","","","","true","4","4","ability","527","other","他人","","","","","","","","","","","","","","","","",""
"null","","null","html-keyboard-response","130","277635","0.0-6.0-0.0-8.0-0.11","3","3","3","4","3","3","3","4","4","4","5","4","4","3","4","4","4","5","4","5","2","1","5","2","2","4","2","1","4","0","0","1","1","0","0","1","1","0","1","1","0","0","0","1","4","3","2","2","2","1","2","3","2","2","1","661494086074630144","于","588","","","","","","","","","","","","","","","","","","","","","","","","","","","","","","","","","","","","","","","","","",""
"692","<p style=""color:white; font-size: 35px;"">无能</p>","i","categorize-html","131","278330","0.0-6.0-0.0-8.0-1.11","3","3","3","4","3","3","3","4","4","4","5","4","4","3","4","4","4","5","4","5","2","1","5","2","2","4","2","1","4","0","0","1","1","0","0","1","1","0","1","1","0","0","0","1","4","3","2","2","2","1","2","3","2","2","1","661494086074630144","于","588","","","","","","","","","","","","","","","","","","","true","4","4","ability","692","negative","无能","","","","","","","","","","","","","","","","",""
"null","","null","html-keyboard-response","132","278589","0.0-6.0-0.0-8.0-0.12","3","3","3","4","3","3","3","4","4","4","5","4","4","3","4","4","4","5","4","5","2","1","5","2","2","4","2","1","4","0","0","1","1","0","0","1","1","0","1","1","0","0","0","1","4","3","2","2","2","1","2","3","2","2","1","661494086074630144","于","588","","","","","","","","","","","","","","","","","","","","","","","","","","","","","","","","","","","","","","","","","",""
"672","<p style=""color:rgb(150, 250, 100); font-size: 35px;"">我</p>","e","categorize-html","133","279834","0.0-6.0-0.0-8.0-1.12","3","3","3","4","3","3","3","4","4","4","5","4","4","3","4","4","4","5","4","5","2","1","5","2","2","4","2","1","4","0","0","1","1","0","0","1","1","0","1","1","0","0","0","1","4","3","2","2","2","1","2","3","2","2","1","661494086074630144","于","588","","","","","","","","","","","","","","","","","","","false","4","4","ability","1544.2888888888888","self","我","","","","","","","","","","","","","","","","",""
"null","","null","html-keyboard-response","134","280101","0.0-6.0-0.0-8.0-0.13","3","3","3","4","3","3","3","4","4","4","5","4","4","3","4","4","4","5","4","5","2","1","5","2","2","4","2","1","4","0","0","1","1","0","0","1","1","0","1","1","0","0","0","1","4","3","2","2","2","1","2","3","2","2","1","661494086074630144","于","588","","","","","","","","","","","","","","","","","","","","","","","","","","","","","","","","","","","","","","","","","",""
"746","<p style=""color:white; font-size: 35px;"">废物</p>","i","categorize-html","135","280849","0.0-6.0-0.0-8.0-1.13","3","3","3","4","3","3","3","4","4","4","5","4","4","3","4","4","4","5","4","5","2","1","5","2","2","4","2","1","4","0","0","1","1","0","0","1","1","0","1","1","0","0","0","1","4","3","2","2","2","1","2","3","2","2","1","661494086074630144","于","588","","","","","","","","","","","","","","","","","","","true","4","4","ability","746","negative","废物","","","","","","","","","","","","","","","","",""
"null","","null","html-keyboard-response","136","281112","0.0-6.0-0.0-8.0-0.14","3","3","3","4","3","3","3","4","4","4","5","4","4","3","4","4","4","5","4","5","2","1","5","2","2","4","2","1","4","0","0","1","1","0","0","1","1","0","1","1","0","0","0","1","4","3","2","2","2","1","2","3","2","2","1","661494086074630144","于","588","","","","","","","","","","","","","","","","","","","","","","","","","","","","","","","","","","","","","","","","","",""
"634","<p style=""color:rgb(150, 250, 100); font-size: 35px;"">别人的</p>","e","categorize-html","137","281750","0.0-6.0-0.0-8.0-1.14","3","3","3","4","3","3","3","4","4","4","5","4","4","3","4","4","4","5","4","5","2","1","5","2","2","4","2","1","4","0","0","1","1","0","0","1","1","0","1","1","0","0","0","1","4","3","2","2","2","1","2","3","2","2","1","661494086074630144","于","588","","","","","","","","","","","","","","","","","","","true","4","4","ability","634","other","别人的","","","","","","","","","","","","","","","","",""
"null","","null","html-keyboard-response","138","282006","0.0-6.0-0.0-8.0-0.15","3","3","3","4","3","3","3","4","4","4","5","4","4","3","4","4","4","5","4","5","2","1","5","2","2","4","2","1","4","0","0","1","1","0","0","1","1","0","1","1","0","0","0","1","4","3","2","2","2","1","2","3","2","2","1","661494086074630144","于","588","","","","","","","","","","","","","","","","","","","","","","","","","","","","","","","","","","","","","","","","","",""
"724","<p style=""color:white; font-size: 35px;"">全能</p>","e","categorize-html","139","282734","0.0-6.0-0.0-8.0-1.15","3","3","3","4","3","3","3","4","4","4","5","4","4","3","4","4","4","5","4","5","2","1","5","2","2","4","2","1","4","0","0","1","1","0","0","1","1","0","1","1","0","0","0","1","4","3","2","2","2","1","2","3","2","2","1","661494086074630144","于","588","","","","","","","","","","","","","","","","","","","true","4","4","ability","724","positive","全能","","","","","","","","","","","","","","","","",""
"null","","null","html-keyboard-response","140","282987","0.0-6.0-0.0-8.0-0.16","3","3","3","4","3","3","3","4","4","4","5","4","4","3","4","4","4","5","4","5","2","1","5","2","2","4","2","1","4","0","0","1","1","0","0","1","1","0","1","1","0","0","0","1","4","3","2","2","2","1","2","3","2","2","1","661494086074630144","于","588","","","","","","","","","","","","","","","","","","","","","","","","","","","","","","","","","","","","","","","","","",""
"861","<p style=""color:rgb(150, 250, 100); font-size: 35px;"">别人</p>","e","categorize-html","141","283853","0.0-6.0-0.0-8.0-1.16","3","3","3","4","3","3","3","4","4","4","5","4","4","3","4","4","4","5","4","5","2","1","5","2","2","4","2","1","4","0","0","1","1","0","0","1","1","0","1","1","0","0","0","1","4","3","2","2","2","1","2","3","2","2","1","661494086074630144","于","588","","","","","","","","","","","","","","","","","","","true","4","4","ability","861","other","别人","","","","","","","","","","","","","","","","",""
"null","","null","html-keyboard-response","142","284119","0.0-6.0-0.0-8.0-0.17","3","3","3","4","3","3","3","4","4","4","5","4","4","3","4","4","4","5","4","5","2","1","5","2","2","4","2","1","4","0","0","1","1","0","0","1","1","0","1","1","0","0","0","1","4","3","2","2","2","1","2","3","2","2","1","661494086074630144","于","588","","","","","","","","","","","","","","","","","","","","","","","","","","","","","","","","","","","","","","","","","",""
"959","<p style=""color:white; font-size: 35px;"">天才</p>","e","categorize-html","143","285080","0.0-6.0-0.0-8.0-1.17","3","3","3","4","3","3","3","4","4","4","5","4","4","3","4","4","4","5","4","5","2","1","5","2","2","4","2","1","4","0","0","1","1","0","0","1","1","0","1","1","0","0","0","1","4","3","2","2","2","1","2","3","2","2","1","661494086074630144","于","588","","","","","","","","","","","","","","","","","","","true","4","4","ability","959","positive","天才","","","","","","","","","","","","","","","","",""
"null","","null","html-keyboard-response","144","285336","0.0-6.0-0.0-8.0-0.18","3","3","3","4","3","3","3","4","4","4","5","4","4","3","4","4","4","5","4","5","2","1","5","2","2","4","2","1","4","0","0","1","1","0","0","1","1","0","1","1","0","0","0","1","4","3","2","2","2","1","2","3","2","2","1","661494086074630144","于","588","","","","","","","","","","","","","","","","","","","","","","","","","","","","","","","","","","","","","","","","","",""
"1259","<p style=""color:rgb(150, 250, 100); font-size: 35px;"">自己</p>","i","categorize-html","145","286598","0.0-6.0-0.0-8.0-1.18","3","3","3","4","3","3","3","4","4","4","5","4","4","3","4","4","4","5","4","5","2","1","5","2","2","4","2","1","4","0","0","1","1","0","0","1","1","0","1","1","0","0","0","1","4","3","2","2","2","1","2","3","2","2","1","661494086074630144","于","588","","","","","","","","","","","","","","","","","","","true","4","4","ability","1259","self","自己","","","","","","","","","","","","","","","","",""
"null","","null","html-keyboard-response","146","286856","0.0-6.0-0.0-8.0-0.19","3","3","3","4","3","3","3","4","4","4","5","4","4","3","4","4","4","5","4","5","2","1","5","2","2","4","2","1","4","0","0","1","1","0","0","1","1","0","1","1","0","0","0","1","4","3","2","2","2","1","2","3","2","2","1","661494086074630144","于","588","","","","","","","","","","","","","","","","","","","","","","","","","","","","","","","","","","","","","","","","","",""
"567","<p style=""color:white; font-size: 35px;"">蠢笨</p>","i","categorize-html","147","287427","0.0-6.0-0.0-8.0-1.19","3","3","3","4","3","3","3","4","4","4","5","4","4","3","4","4","4","5","4","5","2","1","5","2","2","4","2","1","4","0","0","1","1","0","0","1","1","0","1","1","0","0","0","1","4","3","2","2","2","1","2","3","2","2","1","661494086074630144","于","588","","","","","","","","","","","","","","","","","","","true","4","4","ability","567","negative","蠢笨","","","","","","","","","","","","","","","","",""
"null","","null","html-keyboard-response","148","287684","0.0-6.0-0.0-8.0-0.20","3","3","3","4","3","3","3","4","4","4","5","4","4","3","4","4","4","5","4","5","2","1","5","2","2","4","2","1","4","0","0","1","1","0","0","1","1","0","1","1","0","0","0","1","4","3","2","2","2","1","2","3","2","2","1","661494086074630144","于","588","","","","","","","","","","","","","","","","","","","","","","","","","","","","","","","","","","","","","","","","","",""
"659","<p style=""color:rgb(150, 250, 100); font-size: 35px;"">本人的</p>","i","categorize-html","149","288345","0.0-6.0-0.0-8.0-1.20","3","3","3","4","3","3","3","4","4","4","5","4","4","3","4","4","4","5","4","5","2","1","5","2","2","4","2","1","4","0","0","1","1","0","0","1","1","0","1","1","0","0","0","1","4","3","2","2","2","1","2","3","2","2","1","661494086074630144","于","588","","","","","","","","","","","","","","","","","","","true","4","4","ability","659","self","本人的","","","","","","","","","","","","","","","","",""
"null","","null","html-keyboard-response","150","288609","0.0-6.0-0.0-8.0-0.21","3","3","3","4","3","3","3","4","4","4","5","4","4","3","4","4","4","5","4","5","2","1","5","2","2","4","2","1","4","0","0","1","1","0","0","1","1","0","1","1","0","0","0","1","4","3","2","2","2","1","2","3","2","2","1","661494086074630144","于","588","","","","","","","","","","","","","","","","","","","","","","","","","","","","","","","","","","","","","","","","","",""
"921","<p style=""color:white; font-size: 35px;"">高效</p>","e","categorize-html","151","289533","0.0-6.0-0.0-8.0-1.21","3","3","3","4","3","3","3","4","4","4","5","4","4","3","4","4","4","5","4","5","2","1","5","2","2","4","2","1","4","0","0","1","1","0","0","1","1","0","1","1","0","0","0","1","4","3","2","2","2","1","2","3","2","2","1","661494086074630144","于","588","","","","","","","","","","","","","","","","","","","true","4","4","ability","921","positive","高效","","","","","","","","","","","","","","","","",""
"null","","null","html-keyboard-response","152","289785","0.0-6.0-0.0-8.0-0.22","3","3","3","4","3","3","3","4","4","4","5","4","4","3","4","4","4","5","4","5","2","1","5","2","2","4","2","1","4","0","0","1","1","0","0","1","1","0","1","1","0","0","0","1","4","3","2","2","2","1","2","3","2","2","1","661494086074630144","于","588","","","","","","","","","","","","","","","","","","","","","","","","","","","","","","","","","","","","","","","","","",""
"547","<p style=""color:rgb(150, 250, 100); font-size: 35px;"">他人的</p>","e","categorize-html","153","290336","0.0-6.0-0.0-8.0-1.22","3","3","3","4","3","3","3","4","4","4","5","4","4","3","4","4","4","5","4","5","2","1","5","2","2","4","2","1","4","0","0","1","1","0","0","1","1","0","1","1","0","0","0","1","4","3","2","2","2","1","2","3","2","2","1","661494086074630144","于","588","","","","","","","","","","","","","","","","","","","true","4","4","ability","547","other","他人的","","","","","","","","","","","","","","","","",""
"null","","null","html-keyboard-response","154","290589","0.0-6.0-0.0-8.0-0.23","3","3","3","4","3","3","3","4","4","4","5","4","4","3","4","4","4","5","4","5","2","1","5","2","2","4","2","1","4","0","0","1","1","0","0","1","1","0","1","1","0","0","0","1","4","3","2","2","2","1","2","3","2","2","1","661494086074630144","于","588","","","","","","","","","","","","","","","","","","","","","","","","","","","","","","","","","","","","","","","","","",""
"619","<p style=""color:white; font-size: 35px;"">废物</p>","i","categorize-html","155","291210","0.0-6.0-0.0-8.0-1.23","3","3","3","4","3","3","3","4","4","4","5","4","4","3","4","4","4","5","4","5","2","1","5","2","2","4","2","1","4","0","0","1","1","0","0","1","1","0","1","1","0","0","0","1","4","3","2","2","2","1","2","3","2","2","1","661494086074630144","于","588","","","","","","","","","","","","","","","","","","","true","4","4","ability","619","negative","废物","","","","","","","","","","","","","","","","",""
"null","","null","html-keyboard-response","156","291468","0.0-6.0-0.0-8.0-0.24","3","3","3","4","3","3","3","4","4","4","5","4","4","3","4","4","4","5","4","5","2","1","5","2","2","4","2","1","4","0","0","1","1","0","0","1","1","0","1","1","0","0","0","1","4","3","2","2","2","1","2","3","2","2","1","661494086074630144","于","588","","","","","","","","","","","","","","","","","","","","","","","","","","","","","","","","","","","","","","","","","",""
"602","<p style=""color:rgb(150, 250, 100); font-size: 35px;"">本人的</p>","e","categorize-html","157","292613","0.0-6.0-0.0-8.0-1.24","3","3","3","4","3","3","3","4","4","4","5","4","4","3","4","4","4","5","4","5","2","1","5","2","2","4","2","1","4","0","0","1","1","0","0","1","1","0","1","1","0","0","0","1","4","3","2","2","2","1","2","3","2","2","1","661494086074630144","于","588","","","","","","","","","","","","","","","","","","","false","4","4","ability","1544.2888888888888","self","本人的","","","","","","","","","","","","","","","","",""
"null","","null","html-keyboard-response","158","292876","0.0-6.0-0.0-8.0-0.25","3","3","3","4","3","3","3","4","4","4","5","4","4","3","4","4","4","5","4","5","2","1","5","2","2","4","2","1","4","0","0","1","1","0","0","1","1","0","1","1","0","0","0","1","4","3","2","2","2","1","2","3","2","2","1","661494086074630144","于","588","","","","","","","","","","","","","","","","","","","","","","","","","","","","","","","","","","","","","","","","","",""
"601","<p style=""color:white; font-size: 35px;"">拙笨</p>","i","categorize-html","159","293481","0.0-6.0-0.0-8.0-1.25","3","3","3","4","3","3","3","4","4","4","5","4","4","3","4","4","4","5","4","5","2","1","5","2","2","4","2","1","4","0","0","1","1","0","0","1","1","0","1","1","0","0","0","1","4","3","2","2","2","1","2","3","2","2","1","661494086074630144","于","588","","","","","","","","","","","","","","","","","","","true","4","4","ability","601","negative","拙笨","","","","","","","","","","","","","","","","",""
"null","","null","html-keyboard-response","160","293736","0.0-6.0-0.0-8.0-0.26","3","3","3","4","3","3","3","4","4","4","5","4","4","3","4","4","4","5","4","5","2","1","5","2","2","4","2","1","4","0","0","1","1","0","0","1","1","0","1","1","0","0","0","1","4","3","2","2","2","1","2","3","2","2","1","661494086074630144","于","588","","","","","","","","","","","","","","","","","","","","","","","","","","","","","","","","","","","","","","","","","",""
"1136","<p style=""color:rgb(150, 250, 100); font-size: 35px;"">别人</p>","e","categorize-html","161","294874","0.0-6.0-0.0-8.0-1.26","3","3","3","4","3","3","3","4","4","4","5","4","4","3","4","4","4","5","4","5","2","1","5","2","2","4","2","1","4","0","0","1","1","0","0","1","1","0","1","1","0","0","0","1","4","3","2","2","2","1","2","3","2","2","1","661494086074630144","于","588","","","","","","","","","","","","","","","","","","","true","4","4","ability","1136","other","别人","","","","","","","","","","","","","","","","",""
"null","","null","html-keyboard-response","162","295138","0.0-6.0-0.0-8.0-0.27","3","3","3","4","3","3","3","4","4","4","5","4","4","3","4","4","4","5","4","5","2","1","5","2","2","4","2","1","4","0","0","1","1","0","0","1","1","0","1","1","0","0","0","1","4","3","2","2","2","1","2","3","2","2","1","661494086074630144","于","588","","","","","","","","","","","","","","","","","","","","","","","","","","","","","","","","","","","","","","","","","",""
"565","<p style=""color:white; font-size: 35px;"">高效</p>","e","categorize-html","163","295706","0.0-6.0-0.0-8.0-1.27","3","3","3","4","3","3","3","4","4","4","5","4","4","3","4","4","4","5","4","5","2","1","5","2","2","4","2","1","4","0","0","1","1","0","0","1","1","0","1","1","0","0","0","1","4","3","2","2","2","1","2","3","2","2","1","661494086074630144","于","588","","","","","","","","","","","","","","","","","","","true","4","4","ability","565","positive","高效","","","","","","","","","","","","","","","","",""
"null","","null","html-keyboard-response","164","295959","0.0-6.0-0.0-8.0-0.28","3","3","3","4","3","3","3","4","4","4","5","4","4","3","4","4","4","5","4","5","2","1","5","2","2","4","2","1","4","0","0","1","1","0","0","1","1","0","1","1","0","0","0","1","4","3","2","2","2","1","2","3","2","2","1","661494086074630144","于","588","","","","","","","","","","","","","","","","","","","","","","","","","","","","","","","","","","","","","","","","","",""
"515","<p style=""color:rgb(150, 250, 100); font-size: 35px;"">我的</p>","i","categorize-html","165","296478","0.0-6.0-0.0-8.0-1.28","3","3","3","4","3","3","3","4","4","4","5","4","4","3","4","4","4","5","4","5","2","1","5","2","2","4","2","1","4","0","0","1","1","0","0","1","1","0","1","1","0","0","0","1","4","3","2","2","2","1","2","3","2","2","1","661494086074630144","于","588","","","","","","","","","","","","","","","","","","","true","4","4","ability","515","self","我的","","","","","","","","","","","","","","","","",""
"null","","null","html-keyboard-response","166","296731","0.0-6.0-0.0-8.0-0.29","3","3","3","4","3","3","3","4","4","4","5","4","4","3","4","4","4","5","4","5","2","1","5","2","2","4","2","1","4","0","0","1","1","0","0","1","1","0","1","1","0","0","0","1","4","3","2","2","2","1","2","3","2","2","1","661494086074630144","于","588","","","","","","","","","","","","","","","","","","","","","","","","","","","","","","","","","","","","","","","","","",""
"574","<p style=""color:white; font-size: 35px;"">愚钝</p>","i","categorize-html","167","297307","0.0-6.0-0.0-8.0-1.29","3","3","3","4","3","3","3","4","4","4","5","4","4","3","4","4","4","5","4","5","2","1","5","2","2","4","2","1","4","0","0","1","1","0","0","1","1","0","1","1","0","0","0","1","4","3","2","2","2","1","2","3","2","2","1","661494086074630144","于","588","","","","","","","","","","","","","","","","","","","true","4","4","ability","574","negative","愚钝","","","","","","","","","","","","","","","","",""
"null","","null","html-keyboard-response","168","297564","0.0-6.0-0.0-8.0-0.30","3","3","3","4","3","3","3","4","4","4","5","4","4","3","4","4","4","5","4","5","2","1","5","2","2","4","2","1","4","0","0","1","1","0","0","1","1","0","1","1","0","0","0","1","4","3","2","2","2","1","2","3","2","2","1","661494086074630144","于","588","","","","","","","","","","","","","","","","","","","","","","","","","","","","","","","","","","","","","","","","","",""
"1052","<p style=""color:rgb(150, 250, 100); font-size: 35px;"">他的</p>","e","categorize-html","169","298617","0.0-6.0-0.0-8.0-1.30","3","3","3","4","3","3","3","4","4","4","5","4","4","3","4","4","4","5","4","5","2","1","5","2","2","4","2","1","4","0","0","1","1","0","0","1","1","0","1","1","0","0","0","1","4","3","2","2","2","1","2","3","2","2","1","661494086074630144","于","588","","","","","","","","","","","","","","","","","","","true","4","4","ability","1052","other","他的","","","","","","","","","","","","","","","","",""
"null","","null","html-keyboard-response","170","298880","0.0-6.0-0.0-8.0-0.31","3","3","3","4","3","3","3","4","4","4","5","4","4","3","4","4","4","5","4","5","2","1","5","2","2","4","2","1","4","0","0","1","1","0","0","1","1","0","1","1","0","0","0","1","4","3","2","2","2","1","2","3","2","2","1","661494086074630144","于","588","","","","","","","","","","","","","","","","","","","","","","","","","","","","","","","","","","","","","","","","","",""
"1554","<p style=""color:white; font-size: 35px;"">全能</p>","e","categorize-html","171","300437","0.0-6.0-0.0-8.0-1.31","3","3","3","4","3","3","3","4","4","4","5","4","4","3","4","4","4","5","4","5","2","1","5","2","2","4","2","1","4","0","0","1","1","0","0","1","1","0","1","1","0","0","0","1","4","3","2","2","2","1","2","3","2","2","1","661494086074630144","于","588","","","","","","","","","","","","","","","","","","","true","4","4","ability","1554","positive","全能","","","","","","","","","","","","","","","","",""
"null","","null","html-keyboard-response","172","300693","0.0-6.0-0.0-8.0-0.32","3","3","3","4","3","3","3","4","4","4","5","4","4","3","4","4","4","5","4","5","2","1","5","2","2","4","2","1","4","0","0","1","1","0","0","1","1","0","1","1","0","0","0","1","4","3","2","2","2","1","2","3","2","2","1","661494086074630144","于","588","","","","","","","","","","","","","","","","","","","","","","","","","","","","","","","","","","","","","","","","","",""
"609","<p style=""color:rgb(150, 250, 100); font-size: 35px;"">他人的</p>","e","categorize-html","173","301304","0.0-6.0-0.0-8.0-1.32","3","3","3","4","3","3","3","4","4","4","5","4","4","3","4","4","4","5","4","5","2","1","5","2","2","4","2","1","4","0","0","1","1","0","0","1","1","0","1","1","0","0","0","1","4","3","2","2","2","1","2","3","2","2","1","661494086074630144","于","588","","","","","","","","","","","","","","","","","","","true","4","4","ability","609","other","他人的","","","","","","","","","","","","","","","","",""
"null","","null","html-keyboard-response","174","301562","0.0-6.0-0.0-8.0-0.33","3","3","3","4","3","3","3","4","4","4","5","4","4","3","4","4","4","5","4","5","2","1","5","2","2","4","2","1","4","0","0","1","1","0","0","1","1","0","1","1","0","0","0","1","4","3","2","2","2","1","2","3","2","2","1","661494086074630144","于","588","","","","","","","","","","","","","","","","","","","","","","","","","","","","","","","","","","","","","","","","","",""
"634","<p style=""color:white; font-size: 35px;"">蠢笨</p>","i","categorize-html","175","302198","0.0-6.0-0.0-8.0-1.33","3","3","3","4","3","3","3","4","4","4","5","4","4","3","4","4","4","5","4","5","2","1","5","2","2","4","2","1","4","0","0","1","1","0","0","1","1","0","1","1","0","0","0","1","4","3","2","2","2","1","2","3","2","2","1","661494086074630144","于","588","","","","","","","","","","","","","","","","","","","true","4","4","ability","634","negative","蠢笨","","","","","","","","","","","","","","","","",""
"null","","null","html-keyboard-response","176","302459","0.0-6.0-0.0-8.0-0.34","3","3","3","4","3","3","3","4","4","4","5","4","4","3","4","4","4","5","4","5","2","1","5","2","2","4","2","1","4","0","0","1","1","0","0","1","1","0","1","1","0","0","0","1","4","3","2","2","2","1","2","3","2","2","1","661494086074630144","于","588","","","","","","","","","","","","","","","","","","","","","","","","","","","","","","","","","","","","","","","","","",""
"2217","<p style=""color:rgb(150, 250, 100); font-size: 35px;"">自己的</p>","i","categorize-html","177","304678","0.0-6.0-0.0-8.0-1.34","3","3","3","4","3","3","3","4","4","4","5","4","4","3","4","4","4","5","4","5","2","1","5","2","2","4","2","1","4","0","0","1","1","0","0","1","1","0","1","1","0","0","0","1","4","3","2","2","2","1","2","3","2","2","1","661494086074630144","于","588","","","","","","","","","","","","","","","","","","","true","4","4","ability","2217","self","自己的","","","","","","","","","","","","","","","","",""
"null","","null","html-keyboard-response","178","304937","0.0-6.0-0.0-8.0-0.35","3","3","3","4","3","3","3","4","4","4","5","4","4","3","4","4","4","5","4","5","2","1","5","2","2","4","2","1","4","0","0","1","1","0","0","1","1","0","1","1","0","0","0","1","4","3","2","2","2","1","2","3","2","2","1","661494086074630144","于","588","","","","","","","","","","","","","","","","","","","","","","","","","","","","","","","","","","","","","","","","","",""
"1809","<p style=""color:white; font-size: 35px;"">能干</p>","e","categorize-html","179","306751","0.0-6.0-0.0-8.0-1.35","3","3","3","4","3","3","3","4","4","4","5","4","4","3","4","4","4","5","4","5","2","1","5","2","2","4","2","1","4","0","0","1","1","0","0","1","1","0","1","1","0","0","0","1","4","3","2","2","2","1","2","3","2","2","1","661494086074630144","于","588","","","","","","","","","","","","","","","","","","","true","4","4","ability","1809","positive","能干","","","","","","","","","","","","","","","","",""
"null","","null","html-keyboard-response","180","307014","0.0-6.0-0.0-8.0-0.36","3","3","3","4","3","3","3","4","4","4","5","4","4","3","4","4","4","5","4","5","2","1","5","2","2","4","2","1","4","0","0","1","1","0","0","1","1","0","1","1","0","0","0","1","4","3","2","2","2","1","2","3","2","2","1","661494086074630144","于","588","","","","","","","","","","","","","","","","","","","","","","","","","","","","","","","","","","","","","","","","","",""
"1969","<p style=""color:rgb(150, 250, 100); font-size: 35px;"">别人的</p>","e","categorize-html","181","308985","0.0-6.0-0.0-8.0-1.36","3","3","3","4","3","3","3","4","4","4","5","4","4","3","4","4","4","5","4","5","2","1","5","2","2","4","2","1","4","0","0","1","1","0","0","1","1","0","1","1","0","0","0","1","4","3","2","2","2","1","2","3","2","2","1","661494086074630144","于","588","","","","","","","","","","","","","","","","","","","true","4","4","ability","1969","other","别人的","","","","","","","","","","","","","","","","",""
"null","","null","html-keyboard-response","182","309245","0.0-6.0-0.0-8.0-0.37","3","3","3","4","3","3","3","4","4","4","5","4","4","3","4","4","4","5","4","5","2","1","5","2","2","4","2","1","4","0","0","1","1","0","0","1","1","0","1","1","0","0","0","1","4","3","2","2","2","1","2","3","2","2","1","661494086074630144","于","588","","","","","","","","","","","","","","","","","","","","","","","","","","","","","","","","","","","","","","","","","",""
"570","<p style=""color:white; font-size: 35px;"">拙笨</p>","i","categorize-html","183","309817","0.0-6.0-0.0-8.0-1.37","3","3","3","4","3","3","3","4","4","4","5","4","4","3","4","4","4","5","4","5","2","1","5","2","2","4","2","1","4","0","0","1","1","0","0","1","1","0","1","1","0","0","0","1","4","3","2","2","2","1","2","3","2","2","1","661494086074630144","于","588","","","","","","","","","","","","","","","","","","","true","4","4","ability","570","negative","拙笨","","","","","","","","","","","","","","","","",""
"null","","null","html-keyboard-response","184","310073","0.0-6.0-0.0-8.0-0.38","3","3","3","4","3","3","3","4","4","4","5","4","4","3","4","4","4","5","4","5","2","1","5","2","2","4","2","1","4","0","0","1","1","0","0","1","1","0","1","1","0","0","0","1","4","3","2","2","2","1","2","3","2","2","1","661494086074630144","于","588","","","","","","","","","","","","","","","","","","","","","","","","","","","","","","","","","","","","","","","","","",""
"2967","<p style=""color:rgb(150, 250, 100); font-size: 35px;"">本人</p>","i","categorize-html","185","313044","0.0-6.0-0.0-8.0-1.38","3","3","3","4","3","3","3","4","4","4","5","4","4","3","4","4","4","5","4","5","2","1","5","2","2","4","2","1","4","0","0","1","1","0","0","1","1","0","1","1","0","0","0","1","4","3","2","2","2","1","2","3","2","2","1","661494086074630144","于","588","","","","","","","","","","","","","","","","","","","true","4","4","ability","2967","self","本人","","","","","","","","","","","","","","","","",""
"null","","null","html-keyboard-response","186","313301","0.0-6.0-0.0-8.0-0.39","3","3","3","4","3","3","3","4","4","4","5","4","4","3","4","4","4","5","4","5","2","1","5","2","2","4","2","1","4","0","0","1","1","0","0","1","1","0","1","1","0","0","0","1","4","3","2","2","2","1","2","3","2","2","1","661494086074630144","于","588","","","","","","","","","","","","","","","","","","","","","","","","","","","","","","","","","","","","","","","","","",""
"899","<p style=""color:white; font-size: 35px;"">精干</p>","e","categorize-html","187","314203","0.0-6.0-0.0-8.0-1.39","3","3","3","4","3","3","3","4","4","4","5","4","4","3","4","4","4","5","4","5","2","1","5","2","2","4","2","1","4","0","0","1","1","0","0","1","1","0","1","1","0","0","0","1","4","3","2","2","2","1","2","3","2","2","1","661494086074630144","于","588","","","","","","","","","","","","","","","","","","","true","4","4","ability","899","positive","精干","","","","","","","","","","","","","","","","",""
"null","","null","html-keyboard-response","188","314468","0.0-6.0-0.0-8.0-0.40","3","3","3","4","3","3","3","4","4","4","5","4","4","3","4","4","4","5","4","5","2","1","5","2","2","4","2","1","4","0","0","1","1","0","0","1","1","0","1","1","0","0","0","1","4","3","2","2","2","1","2","3","2","2","1","661494086074630144","于","588","","","","","","","","","","","","","","","","","","","","","","","","","","","","","","","","","","","","","","","","","",""
"1277","<p style=""color:rgb(150, 250, 100); font-size: 35px;"">他的</p>","e","categorize-html","189","315747","0.0-6.0-0.0-8.0-1.40","3","3","3","4","3","3","3","4","4","4","5","4","4","3","4","4","4","5","4","5","2","1","5","2","2","4","2","1","4","0","0","1","1","0","0","1","1","0","1","1","0","0","0","1","4","3","2","2","2","1","2","3","2","2","1","661494086074630144","于","588","","","","","","","","","","","","","","","","","","","true","4","4","ability","1277","other","他的","","","","","","","","","","","","","","","","",""
"null","","null","html-keyboard-response","190","316012","0.0-6.0-0.0-8.0-0.41","3","3","3","4","3","3","3","4","4","4","5","4","4","3","4","4","4","5","4","5","2","1","5","2","2","4","2","1","4","0","0","1","1","0","0","1","1","0","1","1","0","0","0","1","4","3","2","2","2","1","2","3","2","2","1","661494086074630144","于","588","","","","","","","","","","","","","","","","","","","","","","","","","","","","","","","","","","","","","","","","","",""
"4738","<p style=""color:white; font-size: 35px;"">全才</p>","i","categorize-html","191","321236","0.0-6.0-0.0-8.0-1.41","3","3","3","4","3","3","3","4","4","4","5","4","4","3","4","4","4","5","4","5","2","1","5","2","2","4","2","1","4","0","0","1","1","0","0","1","1","0","1","1","0","0","0","1","4","3","2","2","2","1","2","3","2","2","1","661494086074630144","于","588","","","","","","","","","","","","","","","","","","","false","4","4","ability","1544.2888888888888","positive","全才","","","","","","","","","","","","","","","","",""
"null","","null","html-keyboard-response","192","321503","0.0-6.0-0.0-8.0-0.42","3","3","3","4","3","3","3","4","4","4","5","4","4","3","4","4","4","5","4","5","2","1","5","2","2","4","2","1","4","0","0","1","1","0","0","1","1","0","1","1","0","0","0","1","4","3","2","2","2","1","2","3","2","2","1","661494086074630144","于","588","","","","","","","","","","","","","","","","","","","","","","","","","","","","","","","","","","","","","","","","","",""
