"rt","stimulus","response","trial_type","trial_index","time_elapsed","internal_node_id","ses_1","ses_2","ses_3","ses_4","ses_5","ses_6","ses_7","ses_8","ses_9","ses_10","coreself_1","coreself_2","coreself_3","coreself_4","coreself_5","coreself_6","coreself_7","coreself_8","coreself_9","coreself_10","SGPS_1","SGPS_2","SGPS_3","SGPS_4","SGPS_5","SGPS_6","SGPS_7","SGPS_8","SGPS_9","NPI1","NPI2","NPI3","NPI4","NPI5","NPI6","NPI7","NPI8","NPI9","NPI10","NPI11","NPI12","NPI13","NPI14","NPI15","hsns_1","hsns_2","hsns_3","hsns_4","hsns_5","trap1","hsns_6","hsns_7","hsns_8","hsns_9","hsns_10","subj_idx","friend_name","ParticipantID","value","success","user_agent","responses","item_order","radio_event_ids","radio_event_times","key_event_times","mouse_event_times","straightlining","zigzagging","honeypot","timeout","failed_images","failed_audio","failed_video","view_history","response_type","key_press","avg_frame_time","center_x","center_y","correct_response","correct","identity","Image","word","condition","task_id","screen_id","time_stamp","version_attrib2","version_target2","IAT","RT","varname","summary","version_attrib","version_target","question_order","correct_answer","trap1_item"
"204535","
   <p><div style = ""color: white;font-size:25px;"">您好，欢迎参加本次实验。</div> </p>
   <p><div style = ""color: white;font-size:25px;"">为充分保障您的权利，请确保您已经知晓并同意《参与实验同意书》以及《数据公开知情同意书》。</div></p>
   <p><div style = ""color: white;font-size:25px;"">如果您未见过上述内容，请咨询实验员。</div></p>
   <p><div style = ""color: white;font-size:25px;"">如果您选择继续实验，则表示您已经清楚两份知情同意书的内容并同意。</div></p>
   <p><div style = ""color: pink;font-size:30px;"">请确保您记得day0的实验编号，您将在本次实验输入该编号，若您忘记，请咨询实验员后作答。</div></p>
   <p><div style = ""color: lightblue;font-size:25px;"">请您尽可能认真地作答，我们将依据您在各问卷和按键任务中的作答质量发放报酬。</div></p>
   <p> <div style = ""color: green;font-size:25px;""><按空格键至下页></div> </p>
   "," ","html-keyboard-response","0","204538","0.0-0.0","3","3","2","2","2","2","2","2","2","3","3","2","2","3","2","2","2","3","4","2","5","4","4","3","4","4","4","4","4","1","0","0","1","0","1","1","0","0","1","1","0","0","0","0","4","1","3","2","4","3","4","4","5","2","1","798267707752587265","杨","67","","","","","","","","","","","","","","","","","","","","","","","","","","","","","","","","","","","","","","","","","",""
"","","","call-function","1","204539","0.0-1.0-0.0","3","3","2","2","2","2","2","2","2","3","3","2","2","3","2","2","2","3","4","2","5","4","4","3","4","4","4","4","4","1","0","0","1","0","1","1","0","0","1","1","0","0","0","0","4","1","3","2","4","3","4","4","5","2","1","798267707752587265","杨","67","","","","","","","","","","","","","","","","","","","","","","","","","","","","","","","","","","","","","","","","","",""
"13436","","{""friend_name"":""杨"",""ParticipantID"":""67""}","survey-html-form","2","217976","0.0-1.0-1.0","3","3","2","2","2","2","2","2","2","3","3","2","2","3","2","2","2","3","4","2","5","4","4","3","4","4","4","4","4","1","0","0","1","0","1","1","0","0","1","1","0","0","0","0","4","1","3","2","4","3","4","4","5","2","1","798267707752587265","杨","67","","","","","","","","","","","","","","","","","","","","","","","","","","","","","","","","","","","","","","","","","",""
"","","","fullscreen","3","232991","0.0-2.0","3","3","2","2","2","2","2","2","2","3","3","2","2","3","2","2","2","3","4","2","5","4","4","3","4","4","4","4","4","1","0","0","1","0","1","1","0","0","1","1","0","0","0","0","4","1","3","2","4","3","4","4","5","2","1","798267707752587265","杨","67","","true","{}","","","","","","","","","","","","","","","","","","","","","","","","","","","","","","","","","","","","","","",""
"27055.29999999993","","{""Q01"":""3"",""Q02"":""3"",""Q03"":""2"",""Q04"":""2"",""Q05"":""2"",""Q06"":""2"",""Q07"":""2"",""Q08"":""2"",""Q09"":""2"",""Q10"":""3""}","survey-template","4","260050","0.0-3.0","3","3","2","2","2","2","2","2","2","3","3","2","2","3","2","2","2","3","4","2","5","4","4","3","4","4","4","4","4","1","0","0","1","0","1","1","0","0","1","1","0","0","0","0","4","1","3","2","4","3","4","4","5","2","1","798267707752587265","杨","67","","","","{""Q01"":""3"",""Q02"":""3"",""Q03"":""2"",""Q04"":""2"",""Q05"":""2"",""Q06"":""2"",""Q07"":""2"",""Q08"":""2"",""Q09"":""2"",""Q10"":""3""}","[0,1,2,3,4,5,6,7,8,9]","[""Q01"",""Q02"",""Q03"",""Q04"",""Q05"",""Q06"",""Q07"",""Q08"",""Q09"",""Q10""]","[11826,12456.400000000023,14864,17596.400000000023,18645.699999999953,20222.099999999977,22253.79999999993,23247.699999999953,24266,26175.79999999993]","[]","[10908.400000000023,11826,12456.400000000023,13882.099999999977,14864,17596.400000000023,18645.699999999953,20222.099999999977,22253.79999999993,23247.699999999953,24266,26175.79999999993,27053.900000000023]","0.6","0.5555555555555556","0","","","","","","","","","","","","","","","","","","","","","","","","","","","","","",""
"24910.800000000047","","{""Q01"":""3"",""Q02"":""2"",""Q03"":""2"",""Q04"":""3"",""Q05"":""2"",""Q06"":""2"",""Q07"":""2"",""Q08"":""3"",""Q09"":""4"",""Q10"":""2""}","survey-template","5","284968","0.0-4.0","3","3","2","2","2","2","2","2","2","3","3","2","2","3","2","2","2","3","4","2","5","4","4","3","4","4","4","4","4","1","0","0","1","0","1","1","0","0","1","1","0","0","0","0","4","1","3","2","4","3","4","4","5","2","1","798267707752587265","杨","67","","","","{""Q01"":""3"",""Q02"":""2"",""Q03"":""2"",""Q04"":""3"",""Q05"":""2"",""Q06"":""2"",""Q07"":""2"",""Q08"":""3"",""Q09"":""4"",""Q10"":""2""}","[0,1,2,3,4,5,6,7,8,9]","[""Q01"",""Q02"",""Q03"",""Q04"",""Q05"",""Q06"",""Q07"",""Q08"",""Q09"",""Q10""]","[6872.800000000047,8607,10493,12287.300000000047,13423.199999999953,16347.300000000047,17166.5,18830.900000000023,20748.599999999977,24253]","[]","[6872.800000000047,8607,10493,12287.300000000047,13423.199999999953,16347.300000000047,17166.5,18830.900000000023,20748.599999999977,24253,24909.400000000023]","0.6","0.5555555555555556","0","","","","","","","","","","","","","","","","","","","","","","","","","","","","","",""
"","","","preload","6","285404","0.0-5.0","3","3","2","2","2","2","2","2","2","3","3","2","2","3","2","2","2","3","4","2","5","4","4","3","4","4","4","4","4","1","0","0","1","0","1","1","0","0","1","1","0","0","0","0","4","1","3","2","4","3","4","4","5","2","1","798267707752587265","杨","67","","true","","","","","","","","","","","false","[]","[]","[]","","","","","","","","","","","","","","","","","","","","","","","","","",""
"11505","","","instructions","7","296909","0.0-6.0","3","3","2","2","2","2","2","2","2","3","3","2","2","3","2","2","2","3","4","2","5","4","4","3","4","4","4","4","4","1","0","0","1","0","1","1","0","0","1","1","0","0","0","0","4","1","3","2","4","3","4","4","5","2","1","798267707752587265","杨","67","","","","","","","","","","","","","","","","","[{""page_index"":0,""viewing_time"":11505}]","","","","","","","","","","","","","","","","","","","","","","","","",""
"23034","","","instructions","8","319945","0.0-7.0-1.0-0.0","3","3","2","2","2","2","2","2","2","3","3","2","2","3","2","2","2","3","4","2","5","4","4","3","4","4","4","4","4","1","0","0","1","0","1","1","0","0","1","1","0","0","0","0","4","1","3","2","4","3","4","4","5","2","1","798267707752587265","杨","67","","","","","","","","","","","","","","","","","[{""page_index"":0,""viewing_time"":14422},{""page_index"":1,""viewing_time"":6378},{""page_index"":2,""viewing_time"":2234}]","","","","","","","","","","","","","","","","","","","","","","","","",""
"null","","null","psychophysics","9","322155","0.0-7.0-1.0-1.0-0.0-0.0","3","3","2","2","2","2","2","2","2","3","3","2","2","3","2","2","2","3","4","2","5","4","4","3","4","4","4","4","4","1","0","0","1","0","1","1","0","0","1","1","0","0","0","0","4","1","3","2","4","3","4","4","5","2","1","798267707752587265","杨","67","","","","null","","","","","","","","","","","","","","key","null","16.66335877862569","640","356","j","false","match","img/trapezoid.png","梯形","梯形","ALT1_2","prac_ALT1_2","","","","","","","","","","","",""
"null","<span class='add_' style='color:yellow; font-size: 70px;'> 太慢! </span>","null","html-keyboard-response","10","322656","0.0-7.0-1.0-1.0-0.0-1.0","3","3","2","2","2","2","2","2","2","3","3","2","2","3","2","2","2","3","4","2","5","4","4","3","4","4","4","4","4","1","0","0","1","0","1","1","0","0","1","1","0","0","0","0","4","1","3","2","4","3","4","4","5","2","1","798267707752587265","杨","67","","","","","","","","","","","","","","","","","","","","","","","","","","","","","","feedback_test","","","","","","","","","","","",""
"337","","j","psychophysics","11","323995","0.0-7.0-1.0-1.0-0.0-0.1","3","3","2","2","2","2","2","2","2","3","3","2","2","3","2","2","2","3","4","2","5","4","4","3","4","4","4","4","4","1","0","0","1","0","1","1","0","0","1","1","0","0","0","0","4","1","3","2","4","3","4","4","5","2","1","798267707752587265","杨","67","","","","match","","","","","","","","","","","","","","key","j","16.664556962025316","640","356","f","false","nonmatch","img/diamond.png","椭圆","菱形","ALT1_2","prac_ALT1_2","","","","","","","","","","","",""
"null","<span style='color:red; font-size: 70px;'>错误! </span>","null","html-keyboard-response","12","324496","0.0-7.0-1.0-1.0-0.0-1.1","3","3","2","2","2","2","2","2","2","3","3","2","2","3","2","2","2","3","4","2","5","4","4","3","4","4","4","4","4","1","0","0","1","0","1","1","0","0","1","1","0","0","0","0","4","1","3","2","4","3","4","4","5","2","1","798267707752587265","杨","67","","","","","","","","","","","","","","","","","","","","","","","","","","","","","","feedback_test","","","","","","","","","","","",""
"333","","f","psychophysics","13","325831","0.0-7.0-1.0-1.0-0.0-0.2","3","3","2","2","2","2","2","2","2","3","3","2","2","3","2","2","2","3","4","2","5","4","4","3","4","4","4","4","4","1","0","0","1","0","1","1","0","0","1","1","0","0","0","0","4","1","3","2","4","3","4","4","5","2","1","798267707752587265","杨","67","","","","nonmatch","","","","","","","","","","","","","","key","f","16.6632911392408","640","356","j","false","match","img/diamond.png","菱形","菱形","ALT1_2","prac_ALT1_2","","","","","","","","","","","",""
"null","<span style='color:red; font-size: 70px;'>错误! </span>","null","html-keyboard-response","14","326332","0.0-7.0-1.0-1.0-0.0-1.2","3","3","2","2","2","2","2","2","2","3","3","2","2","3","2","2","2","3","4","2","5","4","4","3","4","4","4","4","4","1","0","0","1","0","1","1","0","0","1","1","0","0","0","0","4","1","3","2","4","3","4","4","5","2","1","798267707752587265","杨","67","","","","","","","","","","","","","","","","","","","","","","","","","","","","","","feedback_test","","","","","","","","","","","",""
"null","","null","psychophysics","15","328536","0.0-7.0-1.0-1.0-0.0-0.3","3","3","2","2","2","2","2","2","2","3","3","2","2","3","2","2","2","3","4","2","5","4","4","3","4","4","4","4","4","1","0","0","1","0","1","1","0","0","1","1","0","0","0","0","4","1","3","2","4","3","4","4","5","2","1","798267707752587265","杨","67","","","","null","","","","","","","","","","","","","","key","null","16.655725190839426","640","356","j","false","match","img/ellipse.png","椭圆","椭圆","ALT1_2","prac_ALT1_2","","","","","","","","","","","",""
"null","<span class='add_' style='color:yellow; font-size: 70px;'> 太慢! </span>","null","html-keyboard-response","16","329037","0.0-7.0-1.0-1.0-0.0-1.3","3","3","2","2","2","2","2","2","2","3","3","2","2","3","2","2","2","3","4","2","5","4","4","3","4","4","4","4","4","1","0","0","1","0","1","1","0","0","1","1","0","0","0","0","4","1","3","2","4","3","4","4","5","2","1","798267707752587265","杨","67","","","","","","","","","","","","","","","","","","","","","","","","","","","","","","feedback_test","","","","","","","","","","","",""
"226","","j","psychophysics","17","330265","0.0-7.0-1.0-1.0-0.0-0.4","3","3","2","2","2","2","2","2","2","3","3","2","2","3","2","2","2","3","4","2","5","4","4","3","4","4","4","4","4","1","0","0","1","0","1","1","0","0","1","1","0","0","0","0","4","1","3","2","4","3","4","4","5","2","1","798267707752587265","杨","67","","","","match","","","","","","","","","","","","","","key","j","16.663888888889534","640","356","j","true","match","img/diamond.png","菱形","菱形","ALT1_2","prac_ALT1_2","","","","","","","","","","","",""
"null","<span style='color:GreenYellow; font-size: 70px;'>正确! </span>","null","html-keyboard-response","18","330774","0.0-7.0-1.0-1.0-0.0-1.4","3","3","2","2","2","2","2","2","2","3","3","2","2","3","2","2","2","3","4","2","5","4","4","3","4","4","4","4","4","1","0","0","1","0","1","1","0","0","1","1","0","0","0","0","4","1","3","2","4","3","4","4","5","2","1","798267707752587265","杨","67","","","","","","","","","","","","","","","","","","","","","","","","","","","","","","feedback_test","","","","","","","","","","","",""
"417","","j","psychophysics","19","332193","0.0-7.0-1.0-1.0-0.0-0.5","3","3","2","2","2","2","2","2","2","3","3","2","2","3","2","2","2","3","4","2","5","4","4","3","4","4","4","4","4","1","0","0","1","0","1","1","0","0","1","1","0","0","0","0","4","1","3","2","4","3","4","4","5","2","1","798267707752587265","杨","67","","","","match","","","","","","","","","","","","","","key","j","16.661904761904484","640","356","f","false","nonmatch","img/trapezoid.png","五边","梯形","ALT1_2","prac_ALT1_2","","","","","","","","","","","",""
"null","<span style='color:red; font-size: 70px;'>错误! </span>","null","html-keyboard-response","20","332694","0.0-7.0-1.0-1.0-0.0-1.5","3","3","2","2","2","2","2","2","2","3","3","2","2","3","2","2","2","3","4","2","5","4","4","3","4","4","4","4","4","1","0","0","1","0","1","1","0","0","1","1","0","0","0","0","4","1","3","2","4","3","4","4","5","2","1","798267707752587265","杨","67","","","","","","","","","","","","","","","","","","","","","","","","","","","","","","feedback_test","","","","","","","","","","","",""
"760","","f","psychophysics","21","334455","0.0-7.0-1.0-1.0-0.0-0.6","3","3","2","2","2","2","2","2","2","3","3","2","2","3","2","2","2","3","4","2","5","4","4","3","4","4","4","4","4","1","0","0","1","0","1","1","0","0","1","1","0","0","0","0","4","1","3","2","4","3","4","4","5","2","1","798267707752587265","杨","67","","","","nonmatch","","","","","","","","","","","","","","key","f","16.663809523809082","640","356","j","false","match","img/trapezoid.png","梯形","梯形","ALT1_2","prac_ALT1_2","","","","","","","","","","","",""
"null","<span style='color:red; font-size: 70px;'>错误! </span>","null","html-keyboard-response","22","334956","0.0-7.0-1.0-1.0-0.0-1.6","3","3","2","2","2","2","2","2","2","3","3","2","2","3","2","2","2","3","4","2","5","4","4","3","4","4","4","4","4","1","0","0","1","0","1","1","0","0","1","1","0","0","0","0","4","1","3","2","4","3","4","4","5","2","1","798267707752587265","杨","67","","","","","","","","","","","","","","","","","","","","","","","","","","","","","","feedback_test","","","","","","","","","","","",""
"792","","f","psychophysics","23","336752","0.0-7.0-1.0-1.0-0.0-0.7","3","3","2","2","2","2","2","2","2","3","3","2","2","3","2","2","2","3","4","2","5","4","4","3","4","4","4","4","4","1","0","0","1","0","1","1","0","0","1","1","0","0","0","0","4","1","3","2","4","3","4","4","5","2","1","798267707752587265","杨","67","","","","nonmatch","","","","","","","","","","","","","","key","f","16.66261682242958","640","356","j","false","match","img/diamond.png","菱形","菱形","ALT1_2","prac_ALT1_2","","","","","","","","","","","",""
"null","<span style='color:red; font-size: 70px;'>错误! </span>","null","html-keyboard-response","24","337254","0.0-7.0-1.0-1.0-0.0-1.7","3","3","2","2","2","2","2","2","2","3","3","2","2","3","2","2","2","3","4","2","5","4","4","3","4","4","4","4","4","1","0","0","1","0","1","1","0","0","1","1","0","0","0","0","4","1","3","2","4","3","4","4","5","2","1","798267707752587265","杨","67","","","","","","","","","","","","","","","","","","","","","","","","","","","","","","feedback_test","","","","","","","","","","","",""
"394","","j","psychophysics","25","338649","0.0-7.0-1.0-1.0-0.0-0.8","3","3","2","2","2","2","2","2","2","3","3","2","2","3","2","2","2","3","4","2","5","4","4","3","4","4","4","4","4","1","0","0","1","0","1","1","0","0","1","1","0","0","0","0","4","1","3","2","4","3","4","4","5","2","1","798267707752587265","杨","67","","","","match","","","","","","","","","","","","","","key","j","16.662650602409638","640","356","j","true","match","img/ellipse.png","椭圆","椭圆","ALT1_2","prac_ALT1_2","","","","","","","","","","","",""
"null","<span style='color:GreenYellow; font-size: 70px;'>正确! </span>","null","html-keyboard-response","26","339150","0.0-7.0-1.0-1.0-0.0-1.8","3","3","2","2","2","2","2","2","2","3","3","2","2","3","2","2","2","3","4","2","5","4","4","3","4","4","4","4","4","1","0","0","1","0","1","1","0","0","1","1","0","0","0","0","4","1","3","2","4","3","4","4","5","2","1","798267707752587265","杨","67","","","","","","","","","","","","","","","","","","","","","","","","","","","","","","feedback_test","","","","","","","","","","","",""
"425","","j","psychophysics","27","340577","0.0-7.0-1.0-1.0-0.0-0.9","3","3","2","2","2","2","2","2","2","3","3","2","2","3","2","2","2","3","4","2","5","4","4","3","4","4","4","4","4","1","0","0","1","0","1","1","0","0","1","1","0","0","0","0","4","1","3","2","4","3","4","4","5","2","1","798267707752587265","杨","67","","","","match","","","","","","","","","","","","","","key","j","16.664285714285576","640","356","f","false","nonmatch","img/ellipse.png","菱形","椭圆","ALT1_2","prac_ALT1_2","","","","","","","","","","","",""
"null","<span style='color:red; font-size: 70px;'>错误! </span>","null","html-keyboard-response","28","341079","0.0-7.0-1.0-1.0-0.0-1.9","3","3","2","2","2","2","2","2","2","3","3","2","2","3","2","2","2","3","4","2","5","4","4","3","4","4","4","4","4","1","0","0","1","0","1","1","0","0","1","1","0","0","0","0","4","1","3","2","4","3","4","4","5","2","1","798267707752587265","杨","67","","","","","","","","","","","","","","","","","","","","","","","","","","","","","","feedback_test","","","","","","","","","","","",""
"689","","f","psychophysics","29","342769","0.0-7.0-1.0-1.0-0.0-0.10","3","3","2","2","2","2","2","2","2","3","3","2","2","3","2","2","2","3","4","2","5","4","4","3","4","4","4","4","4","1","0","0","1","0","1","1","0","0","1","1","0","0","0","0","4","1","3","2","4","3","4","4","5","2","1","798267707752587265","杨","67","","","","nonmatch","","","","","","","","","","","","","","key","f","16.66237623762399","640","356","f","true","nonmatch","img/trapezoid.png","椭圆","梯形","ALT1_2","prac_ALT1_2","","","","","","","","","","","",""
"null","<span style='color:GreenYellow; font-size: 70px;'>正确! </span>","null","html-keyboard-response","30","343271","0.0-7.0-1.0-1.0-0.0-1.10","3","3","2","2","2","2","2","2","2","3","3","2","2","3","2","2","2","3","4","2","5","4","4","3","4","4","4","4","4","1","0","0","1","0","1","1","0","0","1","1","0","0","0","0","4","1","3","2","4","3","4","4","5","2","1","798267707752587265","杨","67","","","","","","","","","","","","","","","","","","","","","","","","","","","","","","feedback_test","","","","","","","","","","","",""
"1040","","f","psychophysics","31","345313","0.0-7.0-1.0-1.0-0.0-0.11","3","3","2","2","2","2","2","2","2","3","3","2","2","3","2","2","2","3","4","2","5","4","4","3","4","4","4","4","4","1","0","0","1","0","1","1","0","0","1","1","0","0","0","0","4","1","3","2","4","3","4","4","5","2","1","798267707752587265","杨","67","","","","nonmatch","","","","","","","","","","","","","","key","f","16.663636363636748","640","356","f","true","nonmatch","img/pentagon.png","椭圆","五边","ALT1_2","prac_ALT1_2","","","","","","","","","","","",""
"null","<span style='color:GreenYellow; font-size: 70px;'>正确! </span>","null","html-keyboard-response","32","345815","0.0-7.0-1.0-1.0-0.0-1.11","3","3","2","2","2","2","2","2","2","3","3","2","2","3","2","2","2","3","4","2","5","4","4","3","4","4","4","4","4","1","0","0","1","0","1","1","0","0","1","1","0","0","0","0","4","1","3","2","4","3","4","4","5","2","1","798267707752587265","杨","67","","","","","","","","","","","","","","","","","","","","","","","","","","","","","","feedback_test","","","","","","","","","","","",""
"866","","f","psychophysics","33","347682","0.0-7.0-1.0-1.0-0.0-0.12","3","3","2","2","2","2","2","2","2","3","3","2","2","3","2","2","2","3","4","2","5","4","4","3","4","4","4","4","4","1","0","0","1","0","1","1","0","0","1","1","0","0","0","0","4","1","3","2","4","3","4","4","5","2","1","798267707752587265","杨","67","","","","nonmatch","","","","","","","","","","","","","","key","f","16.663063063063376","640","356","f","true","nonmatch","img/diamond.png","五边","菱形","ALT1_2","prac_ALT1_2","","","","","","","","","","","",""
"null","<span style='color:GreenYellow; font-size: 70px;'>正确! </span>","null","html-keyboard-response","34","348183","0.0-7.0-1.0-1.0-0.0-1.12","3","3","2","2","2","2","2","2","2","3","3","2","2","3","2","2","2","3","4","2","5","4","4","3","4","4","4","4","4","1","0","0","1","0","1","1","0","0","1","1","0","0","0","0","4","1","3","2","4","3","4","4","5","2","1","798267707752587265","杨","67","","","","","","","","","","","","","","","","","","","","","","","","","","","","","","feedback_test","","","","","","","","","","","",""
"981","","f","psychophysics","35","350166","0.0-7.0-1.0-1.0-0.0-0.13","3","3","2","2","2","2","2","2","2","3","3","2","2","3","2","2","2","3","4","2","5","4","4","3","4","4","4","4","4","1","0","0","1","0","1","1","0","0","1","1","0","0","0","0","4","1","3","2","4","3","4","4","5","2","1","798267707752587265","杨","67","","","","nonmatch","","","","","","","","","","","","","","key","f","16.663559322033798","640","356","f","true","nonmatch","img/ellipse.png","五边","椭圆","ALT1_2","prac_ALT1_2","","","","","","","","","","","",""
"null","<span style='color:GreenYellow; font-size: 70px;'>正确! </span>","null","html-keyboard-response","36","350667","0.0-7.0-1.0-1.0-0.0-1.13","3","3","2","2","2","2","2","2","2","3","3","2","2","3","2","2","2","3","4","2","5","4","4","3","4","4","4","4","4","1","0","0","1","0","1","1","0","0","1","1","0","0","0","0","4","1","3","2","4","3","4","4","5","2","1","798267707752587265","杨","67","","","","","","","","","","","","","","","","","","","","","","","","","","","","","","feedback_test","","","","","","","","","","","",""
"694","","j","psychophysics","37","352364","0.0-7.0-1.0-1.0-0.0-0.14","3","3","2","2","2","2","2","2","2","3","3","2","2","3","2","2","2","3","4","2","5","4","4","3","4","4","4","4","4","1","0","0","1","0","1","1","0","0","1","1","0","0","0","0","4","1","3","2","4","3","4","4","5","2","1","798267707752587265","杨","67","","","","match","","","","","","","","","","","","","","key","j","16.663366336633665","640","356","j","true","match","img/ellipse.png","椭圆","椭圆","ALT1_2","prac_ALT1_2","","","","","","","","","","","",""
"null","<span style='color:GreenYellow; font-size: 70px;'>正确! </span>","null","html-keyboard-response","38","352864","0.0-7.0-1.0-1.0-0.0-1.14","3","3","2","2","2","2","2","2","2","3","3","2","2","3","2","2","2","3","4","2","5","4","4","3","4","4","4","4","4","1","0","0","1","0","1","1","0","0","1","1","0","0","0","0","4","1","3","2","4","3","4","4","5","2","1","798267707752587265","杨","67","","","","","","","","","","","","","","","","","","","","","","","","","","","","","","feedback_test","","","","","","","","","","","",""
"920","","f","psychophysics","39","354785","0.0-7.0-1.0-1.0-0.0-0.15","3","3","2","2","2","2","2","2","2","3","3","2","2","3","2","2","2","3","4","2","5","4","4","3","4","4","4","4","4","1","0","0","1","0","1","1","0","0","1","1","0","0","0","0","4","1","3","2","4","3","4","4","5","2","1","798267707752587265","杨","67","","","","nonmatch","","","","","","","","","","","","","","key","f","16.66315789473715","640","356","f","true","nonmatch","img/trapezoid.png","菱形","梯形","ALT1_2","prac_ALT1_2","","","","","","","","","","","",""
"null","<span style='color:GreenYellow; font-size: 70px;'>正确! </span>","null","html-keyboard-response","40","355287","0.0-7.0-1.0-1.0-0.0-1.15","3","3","2","2","2","2","2","2","2","3","3","2","2","3","2","2","2","3","4","2","5","4","4","3","4","4","4","4","4","1","0","0","1","0","1","1","0","0","1","1","0","0","0","0","4","1","3","2","4","3","4","4","5","2","1","798267707752587265","杨","67","","","","","","","","","","","","","","","","","","","","","","","","","","","","","","feedback_test","","","","","","","","","","","",""
"1126","","f","psychophysics","41","357415","0.0-7.0-1.0-1.0-0.0-0.16","3","3","2","2","2","2","2","2","2","3","3","2","2","3","2","2","2","3","4","2","5","4","4","3","4","4","4","4","4","1","0","0","1","0","1","1","0","0","1","1","0","0","0","0","4","1","3","2","4","3","4","4","5","2","1","798267707752587265","杨","67","","","","nonmatch","","","","","","","","","","","","","","key","f","16.66377952755896","640","356","f","true","nonmatch","img/pentagon.png","菱形","五边","ALT1_2","prac_ALT1_2","","","","","","","","","","","",""
"null","<span style='color:GreenYellow; font-size: 70px;'>正确! </span>","null","html-keyboard-response","42","357917","0.0-7.0-1.0-1.0-0.0-1.16","3","3","2","2","2","2","2","2","2","3","3","2","2","3","2","2","2","3","4","2","5","4","4","3","4","4","4","4","4","1","0","0","1","0","1","1","0","0","1","1","0","0","0","0","4","1","3","2","4","3","4","4","5","2","1","798267707752587265","杨","67","","","","","","","","","","","","","","","","","","","","","","","","","","","","","","feedback_test","","","","","","","","","","","",""
"715","","f","psychophysics","43","359633","0.0-7.0-1.0-1.0-0.0-0.17","3","3","2","2","2","2","2","2","2","3","3","2","2","3","2","2","2","3","4","2","5","4","4","3","4","4","4","4","4","1","0","0","1","0","1","1","0","0","1","1","0","0","0","0","4","1","3","2","4","3","4","4","5","2","1","798267707752587265","杨","67","","","","nonmatch","","","","","","","","","","","","","","key","f","16.662745098039558","640","356","j","false","match","img/pentagon.png","五边","五边","ALT1_2","prac_ALT1_2","","","","","","","","","","","",""
"null","<span style='color:red; font-size: 70px;'>错误! </span>","null","html-keyboard-response","44","360133","0.0-7.0-1.0-1.0-0.0-1.17","3","3","2","2","2","2","2","2","2","3","3","2","2","3","2","2","2","3","4","2","5","4","4","3","4","4","4","4","4","1","0","0","1","0","1","1","0","0","1","1","0","0","0","0","4","1","3","2","4","3","4","4","5","2","1","798267707752587265","杨","67","","","","","","","","","","","","","","","","","","","","","","","","","","","","","","feedback_test","","","","","","","","","","","",""
"696","","f","psychophysics","45","361831","0.0-7.0-1.0-1.0-0.0-0.18","3","3","2","2","2","2","2","2","2","3","3","2","2","3","2","2","2","3","4","2","5","4","4","3","4","4","4","4","4","1","0","0","1","0","1","1","0","0","1","1","0","0","0","0","4","1","3","2","4","3","4","4","5","2","1","798267707752587265","杨","67","","","","nonmatch","","","","","","","","","","","","","","key","f","16.66237623762399","640","356","f","true","nonmatch","img/diamond.png","梯形","菱形","ALT1_2","prac_ALT1_2","","","","","","","","","","","",""
"null","<span style='color:GreenYellow; font-size: 70px;'>正确! </span>","null","html-keyboard-response","46","362334","0.0-7.0-1.0-1.0-0.0-1.18","3","3","2","2","2","2","2","2","2","3","3","2","2","3","2","2","2","3","4","2","5","4","4","3","4","4","4","4","4","1","0","0","1","0","1","1","0","0","1","1","0","0","0","0","4","1","3","2","4","3","4","4","5","2","1","798267707752587265","杨","67","","","","","","","","","","","","","","","","","","","","","","","","","","","","","","feedback_test","","","","","","","","","","","",""
"1180","","j","psychophysics","47","364514","0.0-7.0-1.0-1.0-0.0-0.19","3","3","2","2","2","2","2","2","2","3","3","2","2","3","2","2","2","3","4","2","5","4","4","3","4","4","4","4","4","1","0","0","1","0","1","1","0","0","1","1","0","0","0","0","4","1","3","2","4","3","4","4","5","2","1","798267707752587265","杨","67","","","","match","","","","","","","","","","","","","","key","j","16.663076923077014","640","356","j","true","match","img/pentagon.png","五边","五边","ALT1_2","prac_ALT1_2","","","","","","","","","","","",""
"null","<span style='color:GreenYellow; font-size: 70px;'>正确! </span>","null","html-keyboard-response","48","365015","0.0-7.0-1.0-1.0-0.0-1.19","3","3","2","2","2","2","2","2","2","3","3","2","2","3","2","2","2","3","4","2","5","4","4","3","4","4","4","4","4","1","0","0","1","0","1","1","0","0","1","1","0","0","0","0","4","1","3","2","4","3","4","4","5","2","1","798267707752587265","杨","67","","","","","","","","","","","","","","","","","","","","","","","","","","","","","","feedback_test","","","","","","","","","","","",""
"null","","null","psychophysics","49","367220","0.0-7.0-1.0-1.0-0.0-0.20","3","3","2","2","2","2","2","2","2","3","3","2","2","3","2","2","2","3","4","2","5","4","4","3","4","4","4","4","4","1","0","0","1","0","1","1","0","0","1","1","0","0","0","0","4","1","3","2","4","3","4","4","5","2","1","798267707752587265","杨","67","","","","null","","","","","","","","","","","","","","key","null","16.66259541984724","640","356","f","false","nonmatch","img/ellipse.png","梯形","椭圆","ALT1_2","prac_ALT1_2","","","","","","","","","","","",""
"null","<span class='add_' style='color:yellow; font-size: 70px;'> 太慢! </span>","null","html-keyboard-response","50","367721","0.0-7.0-1.0-1.0-0.0-1.20","3","3","2","2","2","2","2","2","2","3","3","2","2","3","2","2","2","3","4","2","5","4","4","3","4","4","4","4","4","1","0","0","1","0","1","1","0","0","1","1","0","0","0","0","4","1","3","2","4","3","4","4","5","2","1","798267707752587265","杨","67","","","","","","","","","","","","","","","","","","","","","","","","","","","","","","feedback_test","","","","","","","","","","","",""
"878","","j","psychophysics","51","369600","0.0-7.0-1.0-1.0-0.0-0.21","3","3","2","2","2","2","2","2","2","3","3","2","2","3","2","2","2","3","4","2","5","4","4","3","4","4","4","4","4","1","0","0","1","0","1","1","0","0","1","1","0","0","0","0","4","1","3","2","4","3","4","4","5","2","1","798267707752587265","杨","67","","","","match","","","","","","","","","","","","","","key","j","16.663392857142753","640","356","j","true","match","img/pentagon.png","五边","五边","ALT1_2","prac_ALT1_2","","","","","","","","","","","",""
"null","<span style='color:GreenYellow; font-size: 70px;'>正确! </span>","null","html-keyboard-response","52","370101","0.0-7.0-1.0-1.0-0.0-1.21","3","3","2","2","2","2","2","2","2","3","3","2","2","3","2","2","2","3","4","2","5","4","4","3","4","4","4","4","4","1","0","0","1","0","1","1","0","0","1","1","0","0","0","0","4","1","3","2","4","3","4","4","5","2","1","798267707752587265","杨","67","","","","","","","","","","","","","","","","","","","","","","","","","","","","","","feedback_test","","","","","","","","","","","",""
"982","","f","psychophysics","53","372085","0.0-7.0-1.0-1.0-0.0-0.22","3","3","2","2","2","2","2","2","2","3","3","2","2","3","2","2","2","3","4","2","5","4","4","3","4","4","4","4","4","1","0","0","1","0","1","1","0","0","1","1","0","0","0","0","4","1","3","2","4","3","4","4","5","2","1","798267707752587265","杨","67","","","","nonmatch","","","","","","","","","","","","","","key","f","16.663559322033798","640","356","f","true","nonmatch","img/pentagon.png","梯形","五边","ALT1_2","prac_ALT1_2","","","","","","","","","","","",""
"null","<span style='color:GreenYellow; font-size: 70px;'>正确! </span>","null","html-keyboard-response","54","372586","0.0-7.0-1.0-1.0-0.0-1.22","3","3","2","2","2","2","2","2","2","3","3","2","2","3","2","2","2","3","4","2","5","4","4","3","4","4","4","4","4","1","0","0","1","0","1","1","0","0","1","1","0","0","0","0","4","1","3","2","4","3","4","4","5","2","1","798267707752587265","杨","67","","","","","","","","","","","","","","","","","","","","","","","","","","","","","","feedback_test","","","","","","","","","","","",""
"813","","j","psychophysics","55","374400","0.0-7.0-1.0-1.0-0.0-0.23","3","3","2","2","2","2","2","2","2","3","3","2","2","3","2","2","2","3","4","2","5","4","4","3","4","4","4","4","4","1","0","0","1","0","1","1","0","0","1","1","0","0","0","0","4","1","3","2","4","3","4","4","5","2","1","798267707752587265","杨","67","","","","match","","","","","","","","","","","","","","key","j","16.663888888888998","640","356","j","true","match","img/trapezoid.png","梯形","梯形","ALT1_2","prac_ALT1_2","","","","","","","","","","","",""
"null","<span style='color:GreenYellow; font-size: 70px;'>正确! </span>","null","html-keyboard-response","56","374901","0.0-7.0-1.0-1.0-0.0-1.23","3","3","2","2","2","2","2","2","2","3","3","2","2","3","2","2","2","3","4","2","5","4","4","3","4","4","4","4","4","1","0","0","1","0","1","1","0","0","1","1","0","0","0","0","4","1","3","2","4","3","4","4","5","2","1","798267707752587265","杨","67","","","","","","","","","","","","","","","","","","","","","","","","","","","","","","feedback_test","","","","","","","","","","","",""
"767","","f","psychophysics","57","376671","0.0-7.0-1.0-1.0-0.0-0.24","3","3","2","2","2","2","2","2","2","3","3","2","2","3","2","2","2","3","4","2","5","4","4","3","4","4","4","4","4","1","0","0","1","0","1","1","0","0","1","1","0","0","0","0","4","1","3","2","4","3","4","4","5","2","1","798267707752587265","杨","67","","","","nonmatch","","","","","","","","","","","","","","key","f","16.66285714285692","640","356","f","true","nonmatch","img/pentagon.png","菱形","五边","ALT1_2","prac_ALT1_2","","","","","","","","","","","",""
"null","<span style='color:GreenYellow; font-size: 70px;'>正确! </span>","null","html-keyboard-response","58","377172","0.0-7.0-1.0-1.0-0.0-1.24","3","3","2","2","2","2","2","2","2","3","3","2","2","3","2","2","2","3","4","2","5","4","4","3","4","4","4","4","4","1","0","0","1","0","1","1","0","0","1","1","0","0","0","0","4","1","3","2","4","3","4","4","5","2","1","798267707752587265","杨","67","","","","","","","","","","","","","","","","","","","","","","","","","","","","","","feedback_test","","","","","","","","","","","",""
"782","","f","psychophysics","59","378956","0.0-7.0-1.0-1.0-0.0-0.25","3","3","2","2","2","2","2","2","2","3","3","2","2","3","2","2","2","3","4","2","5","4","4","3","4","4","4","4","4","1","0","0","1","0","1","1","0","0","1","1","0","0","0","0","4","1","3","2","4","3","4","4","5","2","1","798267707752587265","杨","67","","","","nonmatch","","","","","","","","","","","","","","key","f","16.65904761904773","640","356","f","true","nonmatch","img/trapezoid.png","菱形","梯形","ALT1_2","prac_ALT1_2","","","","","","","","","","","",""
"null","<span style='color:GreenYellow; font-size: 70px;'>正确! </span>","null","html-keyboard-response","60","379458","0.0-7.0-1.0-1.0-0.0-1.25","3","3","2","2","2","2","2","2","2","3","3","2","2","3","2","2","2","3","4","2","5","4","4","3","4","4","4","4","4","1","0","0","1","0","1","1","0","0","1","1","0","0","0","0","4","1","3","2","4","3","4","4","5","2","1","798267707752587265","杨","67","","","","","","","","","","","","","","","","","","","","","","","","","","","","","","feedback_test","","","","","","","","","","","",""
"699","","j","psychophysics","61","381159","0.0-7.0-1.0-1.0-0.0-0.26","3","3","2","2","2","2","2","2","2","3","3","2","2","3","2","2","2","3","4","2","5","4","4","3","4","4","4","4","4","1","0","0","1","0","1","1","0","0","1","1","0","0","0","0","4","1","3","2","4","3","4","4","5","2","1","798267707752587265","杨","67","","","","match","","","","","","","","","","","","","","key","j","16.662376237623416","640","356","f","false","nonmatch","img/ellipse.png","菱形","椭圆","ALT1_2","prac_ALT1_2","","","","","","","","","","","",""
"null","<span style='color:red; font-size: 70px;'>错误! </span>","null","html-keyboard-response","62","381661","0.0-7.0-1.0-1.0-0.0-1.26","3","3","2","2","2","2","2","2","2","3","3","2","2","3","2","2","2","3","4","2","5","4","4","3","4","4","4","4","4","1","0","0","1","0","1","1","0","0","1","1","0","0","0","0","4","1","3","2","4","3","4","4","5","2","1","798267707752587265","杨","67","","","","","","","","","","","","","","","","","","","","","","","","","","","","","","feedback_test","","","","","","","","","","","",""
"877","","j","psychophysics","63","383539","0.0-7.0-1.0-1.0-0.0-0.27","3","3","2","2","2","2","2","2","2","3","3","2","2","3","2","2","2","3","4","2","5","4","4","3","4","4","4","4","4","1","0","0","1","0","1","1","0","0","1","1","0","0","0","0","4","1","3","2","4","3","4","4","5","2","1","798267707752587265","杨","67","","","","match","","","","","","","","","","","","","","key","j","16.663063063062854","640","356","j","true","match","img/trapezoid.png","梯形","梯形","ALT1_2","prac_ALT1_2","","","","","","","","","","","",""
"null","<span style='color:GreenYellow; font-size: 70px;'>正确! </span>","null","html-keyboard-response","64","384040","0.0-7.0-1.0-1.0-0.0-1.27","3","3","2","2","2","2","2","2","2","3","3","2","2","3","2","2","2","3","4","2","5","4","4","3","4","4","4","4","4","1","0","0","1","0","1","1","0","0","1","1","0","0","0","0","4","1","3","2","4","3","4","4","5","2","1","798267707752587265","杨","67","","","","","","","","","","","","","","","","","","","","","","","","","","","","","","feedback_test","","","","","","","","","","","",""
"733","","f","psychophysics","65","385775","0.0-7.0-1.0-1.0-0.0-0.28","3","3","2","2","2","2","2","2","2","3","3","2","2","3","2","2","2","3","4","2","5","4","4","3","4","4","4","4","4","1","0","0","1","0","1","1","0","0","1","1","0","0","0","0","4","1","3","2","4","3","4","4","5","2","1","798267707752587265","杨","67","","","","nonmatch","","","","","","","","","","","","","","key","f","16.664077669902575","640","356","f","true","nonmatch","img/ellipse.png","梯形","椭圆","ALT1_2","prac_ALT1_2","","","","","","","","","","","",""
"null","<span style='color:GreenYellow; font-size: 70px;'>正确! </span>","null","html-keyboard-response","66","386288","0.0-7.0-1.0-1.0-0.0-1.28","3","3","2","2","2","2","2","2","2","3","3","2","2","3","2","2","2","3","4","2","5","4","4","3","4","4","4","4","4","1","0","0","1","0","1","1","0","0","1","1","0","0","0","0","4","1","3","2","4","3","4","4","5","2","1","798267707752587265","杨","67","","","","","","","","","","","","","","","","","","","","","","","","","","","","","","feedback_test","","","","","","","","","","","",""
"765","","f","psychophysics","67","388054","0.0-7.0-1.0-1.0-0.0-0.29","3","3","2","2","2","2","2","2","2","3","3","2","2","3","2","2","2","3","4","2","5","4","4","3","4","4","4","4","4","1","0","0","1","0","1","1","0","0","1","1","0","0","0","0","4","1","3","2","4","3","4","4","5","2","1","798267707752587265","杨","67","","","","nonmatch","","","","","","","","","","","","","","key","f","16.66346153846154","640","356","f","true","nonmatch","img/diamond.png","椭圆","菱形","ALT1_2","prac_ALT1_2","","","","","","","","","","","",""
"null","<span style='color:GreenYellow; font-size: 70px;'>正确! </span>","null","html-keyboard-response","68","388556","0.0-7.0-1.0-1.0-0.0-1.29","3","3","2","2","2","2","2","2","2","3","3","2","2","3","2","2","2","3","4","2","5","4","4","3","4","4","4","4","4","1","0","0","1","0","1","1","0","0","1","1","0","0","0","0","4","1","3","2","4","3","4","4","5","2","1","798267707752587265","杨","67","","","","","","","","","","","","","","","","","","","","","","","","","","","","","","feedback_test","","","","","","","","","","","",""
"796","","j","psychophysics","69","390353","0.0-7.0-1.0-1.0-0.0-0.30","3","3","2","2","2","2","2","2","2","3","3","2","2","3","2","2","2","3","4","2","5","4","4","3","4","4","4","4","4","1","0","0","1","0","1","1","0","0","1","1","0","0","0","0","4","1","3","2","4","3","4","4","5","2","1","798267707752587265","杨","67","","","","match","","","","","","","","","","","","","","key","j","16.664150943395896","640","356","j","true","match","img/ellipse.png","椭圆","椭圆","ALT1_2","prac_ALT1_2","","","","","","","","","","","",""
"null","<span style='color:GreenYellow; font-size: 70px;'>正确! </span>","null","html-keyboard-response","70","390855","0.0-7.0-1.0-1.0-0.0-1.30","3","3","2","2","2","2","2","2","2","3","3","2","2","3","2","2","2","3","4","2","5","4","4","3","4","4","4","4","4","1","0","0","1","0","1","1","0","0","1","1","0","0","0","0","4","1","3","2","4","3","4","4","5","2","1","798267707752587265","杨","67","","","","","","","","","","","","","","","","","","","","","","","","","","","","","","feedback_test","","","","","","","","","","","",""
"null","","null","psychophysics","71","393059","0.0-7.0-1.0-1.0-0.0-0.31","3","3","2","2","2","2","2","2","2","3","3","2","2","3","2","2","2","3","4","2","5","4","4","3","4","4","4","4","4","1","0","0","1","0","1","1","0","0","1","1","0","0","0","0","4","1","3","2","4","3","4","4","5","2","1","798267707752587265","杨","67","","","","null","","","","","","","","","","","","","","key","null","16.663358778626133","640","356","j","false","match","img/diamond.png","菱形","菱形","ALT1_2","prac_ALT1_2","","","","","","","","","","","",""
"null","<span class='add_' style='color:yellow; font-size: 70px;'> 太慢! </span>","null","html-keyboard-response","72","393560","0.0-7.0-1.0-1.0-0.0-1.31","3","3","2","2","2","2","2","2","2","3","3","2","2","3","2","2","2","3","4","2","5","4","4","3","4","4","4","4","4","1","0","0","1","0","1","1","0","0","1","1","0","0","0","0","4","1","3","2","4","3","4","4","5","2","1","798267707752587265","杨","67","","","","","","","","","","","","","","","","","","","","","","","","","","","","","","feedback_test","","","","","","","","","","","",""
"705","","f","psychophysics","73","395266","0.0-7.0-1.0-1.0-0.0-0.32","3","3","2","2","2","2","2","2","2","3","3","2","2","3","2","2","2","3","4","2","5","4","4","3","4","4","4","4","4","1","0","0","1","0","1","1","0","0","1","1","0","0","0","0","4","1","3","2","4","3","4","4","5","2","1","798267707752587265","杨","67","","","","nonmatch","","","","","","","","","","","","","","key","f","16.662376237623416","640","356","f","true","nonmatch","img/ellipse.png","五边","椭圆","ALT1_2","prac_ALT1_2","","","","","","","","","","","",""
"null","<span style='color:GreenYellow; font-size: 70px;'>正确! </span>","null","html-keyboard-response","74","395767","0.0-7.0-1.0-1.0-0.0-1.32","3","3","2","2","2","2","2","2","2","3","3","2","2","3","2","2","2","3","4","2","5","4","4","3","4","4","4","4","4","1","0","0","1","0","1","1","0","0","1","1","0","0","0","0","4","1","3","2","4","3","4","4","5","2","1","798267707752587265","杨","67","","","","","","","","","","","","","","","","","","","","","","","","","","","","","","feedback_test","","","","","","","","","","","",""
"744","","f","psychophysics","75","397512","0.0-7.0-1.0-1.0-0.0-0.33","3","3","2","2","2","2","2","2","2","3","3","2","2","3","2","2","2","3","4","2","5","4","4","3","4","4","4","4","4","1","0","0","1","0","1","1","0","0","1","1","0","0","0","0","4","1","3","2","4","3","4","4","5","2","1","798267707752587265","杨","67","","","","nonmatch","","","","","","","","","","","","","","key","f","16.662500000000225","640","356","j","false","match","img/diamond.png","菱形","菱形","ALT1_2","prac_ALT1_2","","","","","","","","","","","",""
"null","<span style='color:red; font-size: 70px;'>错误! </span>","null","html-keyboard-response","76","398013","0.0-7.0-1.0-1.0-0.0-1.33","3","3","2","2","2","2","2","2","2","3","3","2","2","3","2","2","2","3","4","2","5","4","4","3","4","4","4","4","4","1","0","0","1","0","1","1","0","0","1","1","0","0","0","0","4","1","3","2","4","3","4","4","5","2","1","798267707752587265","杨","67","","","","","","","","","","","","","","","","","","","","","","","","","","","","","","feedback_test","","","","","","","","","","","",""
"956","","f","psychophysics","77","399971","0.0-7.0-1.0-1.0-0.0-0.34","3","3","2","2","2","2","2","2","2","3","3","2","2","3","2","2","2","3","4","2","5","4","4","3","4","4","4","4","4","1","0","0","1","0","1","1","0","0","1","1","0","0","0","0","4","1","3","2","4","3","4","4","5","2","1","798267707752587265","杨","67","","","","nonmatch","","","","","","","","","","","","","","key","f","16.664102564102663","640","356","f","true","nonmatch","img/diamond.png","梯形","菱形","ALT1_2","prac_ALT1_2","","","","","","","","","","","",""
"null","<span style='color:GreenYellow; font-size: 70px;'>正确! </span>","null","html-keyboard-response","78","400472","0.0-7.0-1.0-1.0-0.0-1.34","3","3","2","2","2","2","2","2","2","3","3","2","2","3","2","2","2","3","4","2","5","4","4","3","4","4","4","4","4","1","0","0","1","0","1","1","0","0","1","1","0","0","0","0","4","1","3","2","4","3","4","4","5","2","1","798267707752587265","杨","67","","","","","","","","","","","","","","","","","","","","","","","","","","","","","","feedback_test","","","","","","","","","","","",""
"724","","j","psychophysics","79","402198","0.0-7.0-1.0-1.0-0.0-0.35","3","3","2","2","2","2","2","2","2","3","3","2","2","3","2","2","2","3","4","2","5","4","4","3","4","4","4","4","4","1","0","0","1","0","1","1","0","0","1","1","0","0","0","0","4","1","3","2","4","3","4","4","5","2","1","798267707752587265","杨","67","","","","match","","","","","","","","","","","","","","key","j","16.662745098038986","640","356","j","true","match","img/trapezoid.png","梯形","梯形","ALT1_2","prac_ALT1_2","","","","","","","","","","","",""
"null","<span style='color:GreenYellow; font-size: 70px;'>正确! </span>","null","html-keyboard-response","80","402699","0.0-7.0-1.0-1.0-0.0-1.35","3","3","2","2","2","2","2","2","2","3","3","2","2","3","2","2","2","3","4","2","5","4","4","3","4","4","4","4","4","1","0","0","1","0","1","1","0","0","1","1","0","0","0","0","4","1","3","2","4","3","4","4","5","2","1","798267707752587265","杨","67","","","","","","","","","","","","","","","","","","","","","","","","","","","","","","feedback_test","","","","","","","","","","","",""
"895","","j","psychophysics","81","404596","0.0-7.0-1.0-1.0-0.0-0.36","3","3","2","2","2","2","2","2","2","3","3","2","2","3","2","2","2","3","4","2","5","4","4","3","4","4","4","4","4","1","0","0","1","0","1","1","0","0","1","1","0","0","0","0","4","1","3","2","4","3","4","4","5","2","1","798267707752587265","杨","67","","","","match","","","","","","","","","","","","","","key","j","16.661946902654766","640","356","j","true","match","img/pentagon.png","五边","五边","ALT1_2","prac_ALT1_2","","","","","","","","","","","",""
"null","<span style='color:GreenYellow; font-size: 70px;'>正确! </span>","null","html-keyboard-response","82","405097","0.0-7.0-1.0-1.0-0.0-1.36","3","3","2","2","2","2","2","2","2","3","3","2","2","3","2","2","2","3","4","2","5","4","4","3","4","4","4","4","4","1","0","0","1","0","1","1","0","0","1","1","0","0","0","0","4","1","3","2","4","3","4","4","5","2","1","798267707752587265","杨","67","","","","","","","","","","","","","","","","","","","","","","","","","","","","","","feedback_test","","","","","","","","","","","",""
"733","","j","psychophysics","83","406831","0.0-7.0-1.0-1.0-0.0-0.37","3","3","2","2","2","2","2","2","2","3","3","2","2","3","2","2","2","3","4","2","5","4","4","3","4","4","4","4","4","1","0","0","1","0","1","1","0","0","1","1","0","0","0","0","4","1","3","2","4","3","4","4","5","2","1","798267707752587265","杨","67","","","","match","","","","","","","","","","","","","","key","j","16.66213592233021","640","356","j","true","match","img/trapezoid.png","梯形","梯形","ALT1_2","prac_ALT1_2","","","","","","","","","","","",""
"null","<span style='color:GreenYellow; font-size: 70px;'>正确! </span>","null","html-keyboard-response","84","407333","0.0-7.0-1.0-1.0-0.0-1.37","3","3","2","2","2","2","2","2","2","3","3","2","2","3","2","2","2","3","4","2","5","4","4","3","4","4","4","4","4","1","0","0","1","0","1","1","0","0","1","1","0","0","0","0","4","1","3","2","4","3","4","4","5","2","1","798267707752587265","杨","67","","","","","","","","","","","","","","","","","","","","","","","","","","","","","","feedback_test","","","","","","","","","","","",""
"1064","","j","psychophysics","85","409397","0.0-7.0-1.0-1.0-0.0-0.38","3","3","2","2","2","2","2","2","2","3","3","2","2","3","2","2","2","3","4","2","5","4","4","3","4","4","4","4","4","1","0","0","1","0","1","1","0","0","1","1","0","0","0","0","4","1","3","2","4","3","4","4","5","2","1","798267707752587265","杨","67","","","","match","","","","","","","","","","","","","","key","j","16.65409836065564","640","356","j","true","match","img/diamond.png","菱形","菱形","ALT1_2","prac_ALT1_2","","","","","","","","","","","",""
"null","<span style='color:GreenYellow; font-size: 70px;'>正确! </span>","null","html-keyboard-response","86","409899","0.0-7.0-1.0-1.0-0.0-1.38","3","3","2","2","2","2","2","2","2","3","3","2","2","3","2","2","2","3","4","2","5","4","4","3","4","4","4","4","4","1","0","0","1","0","1","1","0","0","1","1","0","0","0","0","4","1","3","2","4","3","4","4","5","2","1","798267707752587265","杨","67","","","","","","","","","","","","","","","","","","","","","","","","","","","","","","feedback_test","","","","","","","","","","","",""
"null","","null","psychophysics","87","412103","0.0-7.0-1.0-1.0-0.0-0.39","3","3","2","2","2","2","2","2","2","3","3","2","2","3","2","2","2","3","4","2","5","4","4","3","4","4","4","4","4","1","0","0","1","0","1","1","0","0","1","1","0","0","0","0","4","1","3","2","4","3","4","4","5","2","1","798267707752587265","杨","67","","","","null","","","","","","","","","","","","","","key","null","16.653435114504084","640","356","f","false","nonmatch","img/diamond.png","五边","菱形","ALT1_2","prac_ALT1_2","","","","","","","","","","","",""
"null","<span class='add_' style='color:yellow; font-size: 70px;'> 太慢! </span>","null","html-keyboard-response","88","412605","0.0-7.0-1.0-1.0-0.0-1.39","3","3","2","2","2","2","2","2","2","3","3","2","2","3","2","2","2","3","4","2","5","4","4","3","4","4","4","4","4","1","0","0","1","0","1","1","0","0","1","1","0","0","0","0","4","1","3","2","4","3","4","4","5","2","1","798267707752587265","杨","67","","","","","","","","","","","","","","","","","","","","","","","","","","","","","","feedback_test","","","","","","","","","","","",""
"811","","f","psychophysics","89","414418","0.0-7.0-1.0-1.0-0.0-0.40","3","3","2","2","2","2","2","2","2","3","3","2","2","3","2","2","2","3","4","2","5","4","4","3","4","4","4","4","4","1","0","0","1","0","1","1","0","0","1","1","0","0","0","0","4","1","3","2","4","3","4","4","5","2","1","798267707752587265","杨","67","","","","nonmatch","","","","","","","","","","","","","","key","f","16.662962962963288","640","356","j","false","match","img/pentagon.png","五边","五边","ALT1_2","prac_ALT1_2","","","","","","","","","","","",""
"null","<span style='color:red; font-size: 70px;'>错误! </span>","null","html-keyboard-response","90","414920","0.0-7.0-1.0-1.0-0.0-1.40","3","3","2","2","2","2","2","2","2","3","3","2","2","3","2","2","2","3","4","2","5","4","4","3","4","4","4","4","4","1","0","0","1","0","1","1","0","0","1","1","0","0","0","0","4","1","3","2","4","3","4","4","5","2","1","798267707752587265","杨","67","","","","","","","","","","","","","","","","","","","","","","","","","","","","","","feedback_test","","","","","","","","","","","",""
"732","","f","psychophysics","91","416653","0.0-7.0-1.0-1.0-0.0-0.41","3","3","2","2","2","2","2","2","2","3","3","2","2","3","2","2","2","3","4","2","5","4","4","3","4","4","4","4","4","1","0","0","1","0","1","1","0","0","1","1","0","0","0","0","4","1","3","2","4","3","4","4","5","2","1","798267707752587265","杨","67","","","","nonmatch","","","","","","","","","","","","","","key","f","16.66310679611639","640","356","f","true","nonmatch","img/trapezoid.png","五边","梯形","ALT1_2","prac_ALT1_2","","","","","","","","","","","",""
"null","<span style='color:GreenYellow; font-size: 70px;'>正确! </span>","null","html-keyboard-response","92","417154","0.0-7.0-1.0-1.0-0.0-1.41","3","3","2","2","2","2","2","2","2","3","3","2","2","3","2","2","2","3","4","2","5","4","4","3","4","4","4","4","4","1","0","0","1","0","1","1","0","0","1","1","0","0","0","0","4","1","3","2","4","3","4","4","5","2","1","798267707752587265","杨","67","","","","","","","","","","","","","","","","","","","","","","","","","","","","","","feedback_test","","","","","","","","","","","",""
"886","","j","psychophysics","93","419041","0.0-7.0-1.0-1.0-0.0-0.42","3","3","2","2","2","2","2","2","2","3","3","2","2","3","2","2","2","3","4","2","5","4","4","3","4","4","4","4","4","1","0","0","1","0","1","1","0","0","1","1","0","0","0","0","4","1","3","2","4","3","4","4","5","2","1","798267707752587265","杨","67","","","","match","","","","","","","","","","","","","","key","j","16.663392857142753","640","356","j","true","match","img/pentagon.png","五边","五边","ALT1_2","prac_ALT1_2","","","","","","","","","","","",""
"null","<span style='color:GreenYellow; font-size: 70px;'>正确! </span>","null","html-keyboard-response","94","419542","0.0-7.0-1.0-1.0-0.0-1.42","3","3","2","2","2","2","2","2","2","3","3","2","2","3","2","2","2","3","4","2","5","4","4","3","4","4","4","4","4","1","0","0","1","0","1","1","0","0","1","1","0","0","0","0","4","1","3","2","4","3","4","4","5","2","1","798267707752587265","杨","67","","","","","","","","","","","","","","","","","","","","","","","","","","","","","","feedback_test","","","","","","","","","","","",""
"749","","j","psychophysics","95","421293","0.0-7.0-1.0-1.0-0.0-0.43","3","3","2","2","2","2","2","2","2","3","3","2","2","3","2","2","2","3","4","2","5","4","4","3","4","4","4","4","4","1","0","0","1","0","1","1","0","0","1","1","0","0","0","0","4","1","3","2","4","3","4","4","5","2","1","798267707752587265","杨","67","","","","match","","","","","","","","","","","","","","key","j","16.662499999999664","640","356","j","true","match","img/ellipse.png","椭圆","椭圆","ALT1_2","prac_ALT1_2","","","","","","","","","","","",""
"null","<span style='color:GreenYellow; font-size: 70px;'>正确! </span>","null","html-keyboard-response","96","421795","0.0-7.0-1.0-1.0-0.0-1.43","3","3","2","2","2","2","2","2","2","3","3","2","2","3","2","2","2","3","4","2","5","4","4","3","4","4","4","4","4","1","0","0","1","0","1","1","0","0","1","1","0","0","0","0","4","1","3","2","4","3","4","4","5","2","1","798267707752587265","杨","67","","","","","","","","","","","","","","","","","","","","","","","","","","","","","","feedback_test","","","","","","","","","","","",""
"688","","j","psychophysics","97","423485","0.0-7.0-1.0-1.0-0.0-0.44","3","3","2","2","2","2","2","2","2","3","3","2","2","3","2","2","2","3","4","2","5","4","4","3","4","4","4","4","4","1","0","0","1","0","1","1","0","0","1","1","0","0","0","0","4","1","3","2","4","3","4","4","5","2","1","798267707752587265","杨","67","","","","match","","","","","","","","","","","","","","key","j","16.663366336633665","640","356","j","true","match","img/ellipse.png","椭圆","椭圆","ALT1_2","prac_ALT1_2","","","","","","","","","","","",""
"null","<span style='color:GreenYellow; font-size: 70px;'>正确! </span>","null","html-keyboard-response","98","423986","0.0-7.0-1.0-1.0-0.0-1.44","3","3","2","2","2","2","2","2","2","3","3","2","2","3","2","2","2","3","4","2","5","4","4","3","4","4","4","4","4","1","0","0","1","0","1","1","0","0","1","1","0","0","0","0","4","1","3","2","4","3","4","4","5","2","1","798267707752587265","杨","67","","","","","","","","","","","","","","","","","","","","","","","","","","","","","","feedback_test","","","","","","","","","","","",""
"802","","f","psychophysics","99","425790","0.0-7.0-1.0-1.0-0.0-0.45","3","3","2","2","2","2","2","2","2","3","3","2","2","3","2","2","2","3","4","2","5","4","4","3","4","4","4","4","4","1","0","0","1","0","1","1","0","0","1","1","0","0","0","0","4","1","3","2","4","3","4","4","5","2","1","798267707752587265","杨","67","","","","nonmatch","","","","","","","","","","","","","","key","f","16.66355140186916","640","356","f","true","nonmatch","img/pentagon.png","梯形","五边","ALT1_2","prac_ALT1_2","","","","","","","","","","","",""
"null","<span style='color:GreenYellow; font-size: 70px;'>正确! </span>","null","html-keyboard-response","100","426291","0.0-7.0-1.0-1.0-0.0-1.45","3","3","2","2","2","2","2","2","2","3","3","2","2","3","2","2","2","3","4","2","5","4","4","3","4","4","4","4","4","1","0","0","1","0","1","1","0","0","1","1","0","0","0","0","4","1","3","2","4","3","4","4","5","2","1","798267707752587265","杨","67","","","","","","","","","","","","","","","","","","","","","","","","","","","","","","feedback_test","","","","","","","","","","","",""
"932","","f","psychophysics","101","428224","0.0-7.0-1.0-1.0-0.0-0.46","3","3","2","2","2","2","2","2","2","3","3","2","2","3","2","2","2","3","4","2","5","4","4","3","4","4","4","4","4","1","0","0","1","0","1","1","0","0","1","1","0","0","0","0","4","1","3","2","4","3","4","4","5","2","1","798267707752587265","杨","67","","","","nonmatch","","","","","","","","","","","","","","key","f","16.662608695652274","640","356","f","true","nonmatch","img/trapezoid.png","椭圆","梯形","ALT1_2","prac_ALT1_2","","","","","","","","","","","",""
"null","<span style='color:GreenYellow; font-size: 70px;'>正确! </span>","null","html-keyboard-response","102","428725","0.0-7.0-1.0-1.0-0.0-1.46","3","3","2","2","2","2","2","2","2","3","3","2","2","3","2","2","2","3","4","2","5","4","4","3","4","4","4","4","4","1","0","0","1","0","1","1","0","0","1","1","0","0","0","0","4","1","3","2","4","3","4","4","5","2","1","798267707752587265","杨","67","","","","","","","","","","","","","","","","","","","","","","","","","","","","","","feedback_test","","","","","","","","","","","",""
"821","","j","psychophysics","103","430548","0.0-7.0-1.0-1.0-0.0-0.47","3","3","2","2","2","2","2","2","2","3","3","2","2","3","2","2","2","3","4","2","5","4","4","3","4","4","4","4","4","1","0","0","1","0","1","1","0","0","1","1","0","0","0","0","4","1","3","2","4","3","4","4","5","2","1","798267707752587265","杨","67","","","","match","","","","","","","","","","","","","","key","j","16.663302752294005","640","356","f","false","nonmatch","img/pentagon.png","椭圆","五边","ALT1_2","prac_ALT1_2","","","","","","","","","","","",""
"null","<span style='color:red; font-size: 70px;'>错误! </span>","null","html-keyboard-response","104","431050","0.0-7.0-1.0-1.0-0.0-1.47","3","3","2","2","2","2","2","2","2","3","3","2","2","3","2","2","2","3","4","2","5","4","4","3","4","4","4","4","4","1","0","0","1","0","1","1","0","0","1","1","0","0","0","0","4","1","3","2","4","3","4","4","5","2","1","798267707752587265","杨","67","","","","","","","","","","","","","","","","","","","","","","","","","","","","","","feedback_test","","","","","","","","","","","",""
"3550","<style>.context{color:white; font-size: 35px; line-height:40px}</style>                          <div><p class='context'>您正确回答了67% 的试次。</p><p class='context'>您的平均反应时为815毫秒。</p><p class='context'>恭喜您完成练习。按空格键进入正式实验。</p><p class='footer' style='font-size: 35px; line-height:40px;'>请在进入正式实验实验之前将您的<span style='color: lightgreen;'>食指</span>放在电脑键盘的相应键位上进行按键。</p>"," ","html-keyboard-response","105","434603","0.0-7.0-1.0-2.0","3","3","2","2","2","2","2","2","2","3","3","2","2","3","2","2","2","3","4","2","5","4","4","3","4","4","4","4","4","1","0","0","1","0","1","1","0","0","1","1","0","0","0","0","4","1","3","2","4","3","4","4","5","2","1","798267707752587265","杨","67","","","","","","","","","","","","","","","","","","","","","","","","","","","","","","","","","","","","","","","","","",""
"4044","
  <p style='color: white; font-size: 22px'>请您将手指放在按键上，准备进入正式的匹配任务。</p>
  <p> <div style = ""color: green""><按空格键进入下一阶段的匹配任务></div></p>
  "," ","html-keyboard-response","106","438654","0.0-7.0-1.0-3.0","3","3","2","2","2","2","2","2","2","3","3","2","2","3","2","2","2","3","4","2","5","4","4","3","4","4","4","4","4","1","0","0","1","0","1","1","0","0","1","1","0","0","0","0","4","1","3","2","4","3","4","4","5","2","1","798267707752587265","杨","67","","","","","","","","","","","","","","","","","","","","","","","","","","","","","","","","","","","","","","","","","",""
"1149","","j","psychophysics","107","440804","0.0-7.0-1.0-4.0-0.0-0.0","3","3","2","2","2","2","2","2","2","3","3","2","2","3","2","2","2","3","4","2","5","4","4","3","4","4","4","4","4","1","0","0","1","0","1","1","0","0","1","1","0","0","0","0","4","1","3","2","4","3","4","4","5","2","1","798267707752587265","杨","67","","","","match","","","","","","","","","","","","","","key","j","16.66249999999991","640","356","j","true","match","img/diamond.png","菱形","菱形","ALT1","formal_ALT1_2","","","","","","","","","","","",""
"null","<span style='color:GreenYellow; font-size: 70px;'>正确! </span>","null","html-keyboard-response","108","441313","0.0-7.0-1.0-4.0-0.0-1.0","3","3","2","2","2","2","2","2","2","3","3","2","2","3","2","2","2","3","4","2","5","4","4","3","4","4","4","4","4","1","0","0","1","0","1","1","0","0","1","1","0","0","0","0","4","1","3","2","4","3","4","4","5","2","1","798267707752587265","杨","67","","","","","","","","","","","","","","","","","","","","","","","","","","","","","","feedback_test","","","","","","","","","","","",""
"678","","f","psychophysics","109","442993","0.0-7.0-1.0-4.0-0.0-0.1","3","3","2","2","2","2","2","2","2","3","3","2","2","3","2","2","2","3","4","2","5","4","4","3","4","4","4","4","4","1","0","0","1","0","1","1","0","0","1","1","0","0","0","0","4","1","3","2","4","3","4","4","5","2","1","798267707752587265","杨","67","","","","nonmatch","","","","","","","","","","","","","","key","f","16.66363636363648","640","356","f","true","nonmatch","img/pentagon.png","椭圆","五边","ALT1","formal_ALT1_2","","","","","","","","","","","",""
"null","<span style='color:GreenYellow; font-size: 70px;'>正确! </span>","null","html-keyboard-response","110","443495","0.0-7.0-1.0-4.0-0.0-1.1","3","3","2","2","2","2","2","2","2","3","3","2","2","3","2","2","2","3","4","2","5","4","4","3","4","4","4","4","4","1","0","0","1","0","1","1","0","0","1","1","0","0","0","0","4","1","3","2","4","3","4","4","5","2","1","798267707752587265","杨","67","","","","","","","","","","","","","","","","","","","","","","","","","","","","","","feedback_test","","","","","","","","","","","",""
"955","","f","psychophysics","111","445451","0.0-7.0-1.0-4.0-0.0-0.2","3","3","2","2","2","2","2","2","2","3","3","2","2","3","2","2","2","3","4","2","5","4","4","3","4","4","4","4","4","1","0","0","1","0","1","1","0","0","1","1","0","0","0","0","4","1","3","2","4","3","4","4","5","2","1","798267707752587265","杨","67","","","","nonmatch","","","","","","","","","","","","","","key","f","16.662931034482458","640","356","f","true","nonmatch","img/ellipse.png","梯形","椭圆","ALT1","formal_ALT1_2","","","","","","","","","","","",""
"null","<span style='color:GreenYellow; font-size: 70px;'>正确! </span>","null","html-keyboard-response","112","445952","0.0-7.0-1.0-4.0-0.0-1.2","3","3","2","2","2","2","2","2","2","3","3","2","2","3","2","2","2","3","4","2","5","4","4","3","4","4","4","4","4","1","0","0","1","0","1","1","0","0","1","1","0","0","0","0","4","1","3","2","4","3","4","4","5","2","1","798267707752587265","杨","67","","","","","","","","","","","","","","","","","","","","","","","","","","","","","","feedback_test","","","","","","","","","","","",""
"831","","j","psychophysics","113","447784","0.0-7.0-1.0-4.0-0.0-0.3","3","3","2","2","2","2","2","2","2","3","3","2","2","3","2","2","2","3","4","2","5","4","4","3","4","4","4","4","4","1","0","0","1","0","1","1","0","0","1","1","0","0","0","0","4","1","3","2","4","3","4","4","5","2","1","798267707752587265","杨","67","","","","match","","","","","","","","","","","","","","key","j","16.663302752293472","640","356","j","true","match","img/pentagon.png","五边","五边","ALT1","formal_ALT1_2","","","","","","","","","","","",""
"null","<span style='color:GreenYellow; font-size: 70px;'>正确! </span>","null","html-keyboard-response","114","448285","0.0-7.0-1.0-4.0-0.0-1.3","3","3","2","2","2","2","2","2","2","3","3","2","2","3","2","2","2","3","4","2","5","4","4","3","4","4","4","4","4","1","0","0","1","0","1","1","0","0","1","1","0","0","0","0","4","1","3","2","4","3","4","4","5","2","1","798267707752587265","杨","67","","","","","","","","","","","","","","","","","","","","","","","","","","","","","","feedback_test","","","","","","","","","","","",""
"642","","j","psychophysics","115","449929","0.0-7.0-1.0-4.0-0.0-0.4","3","3","2","2","2","2","2","2","2","3","3","2","2","3","2","2","2","3","4","2","5","4","4","3","4","4","4","4","4","1","0","0","1","0","1","1","0","0","1","1","0","0","0","0","4","1","3","2","4","3","4","4","5","2","1","798267707752587265","杨","67","","","","match","","","","","","","","","","","","","","key","j","16.663265306122447","640","356","j","true","match","img/trapezoid.png","梯形","梯形","ALT1","formal_ALT1_2","","","","","","","","","","","",""
"null","<span style='color:GreenYellow; font-size: 70px;'>正确! </span>","null","html-keyboard-response","116","450430","0.0-7.0-1.0-4.0-0.0-1.4","3","3","2","2","2","2","2","2","2","3","3","2","2","3","2","2","2","3","4","2","5","4","4","3","4","4","4","4","4","1","0","0","1","0","1","1","0","0","1","1","0","0","0","0","4","1","3","2","4","3","4","4","5","2","1","798267707752587265","杨","67","","","","","","","","","","","","","","","","","","","","","","","","","","","","","","feedback_test","","","","","","","","","","","",""
"1068","","j","psychophysics","117","452499","0.0-7.0-1.0-4.0-0.0-0.5","3","3","2","2","2","2","2","2","2","3","3","2","2","3","2","2","2","3","4","2","5","4","4","3","4","4","4","4","4","1","0","0","1","0","1","1","0","0","1","1","0","0","0","0","4","1","3","2","4","3","4","4","5","2","1","798267707752587265","杨","67","","","","match","","","","","","","","","","","","","","key","j","16.66260162601626","640","356","j","true","match","img/pentagon.png","五边","五边","ALT1","formal_ALT1_2","","","","","","","","","","","",""
"null","<span style='color:GreenYellow; font-size: 70px;'>正确! </span>","null","html-keyboard-response","118","453000","0.0-7.0-1.0-4.0-0.0-1.5","3","3","2","2","2","2","2","2","2","3","3","2","2","3","2","2","2","3","4","2","5","4","4","3","4","4","4","4","4","1","0","0","1","0","1","1","0","0","1","1","0","0","0","0","4","1","3","2","4","3","4","4","5","2","1","798267707752587265","杨","67","","","","","","","","","","","","","","","","","","","","","","","","","","","","","","feedback_test","","","","","","","","","","","",""
"772","","f","psychophysics","119","454774","0.0-7.0-1.0-4.0-0.0-0.6","3","3","2","2","2","2","2","2","2","3","3","2","2","3","2","2","2","3","4","2","5","4","4","3","4","4","4","4","4","1","0","0","1","0","1","1","0","0","1","1","0","0","0","0","4","1","3","2","4","3","4","4","5","2","1","798267707752587265","杨","67","","","","nonmatch","","","","","","","","","","","","","","key","f","16.663809523809082","640","356","f","true","nonmatch","img/diamond.png","五边","菱形","ALT1","formal_ALT1_2","","","","","","","","","","","",""
"null","<span style='color:GreenYellow; font-size: 70px;'>正确! </span>","null","html-keyboard-response","120","455275","0.0-7.0-1.0-4.0-0.0-1.6","3","3","2","2","2","2","2","2","2","3","3","2","2","3","2","2","2","3","4","2","5","4","4","3","4","4","4","4","4","1","0","0","1","0","1","1","0","0","1","1","0","0","0","0","4","1","3","2","4","3","4","4","5","2","1","798267707752587265","杨","67","","","","","","","","","","","","","","","","","","","","","","","","","","","","","","feedback_test","","","","","","","","","","","",""
"1177","","f","psychophysics","121","457454","0.0-7.0-1.0-4.0-0.0-0.7","3","3","2","2","2","2","2","2","2","3","3","2","2","3","2","2","2","3","4","2","5","4","4","3","4","4","4","4","4","1","0","0","1","0","1","1","0","0","1","1","0","0","0","0","4","1","3","2","4","3","4","4","5","2","1","798267707752587265","杨","67","","","","nonmatch","","","","","","","","","","","","","","key","f","16.663565891473137","640","356","f","true","nonmatch","img/ellipse.png","五边","椭圆","ALT1","formal_ALT1_2","","","","","","","","","","","",""
"null","<span style='color:GreenYellow; font-size: 70px;'>正确! </span>","null","html-keyboard-response","122","457955","0.0-7.0-1.0-4.0-0.0-1.7","3","3","2","2","2","2","2","2","2","3","3","2","2","3","2","2","2","3","4","2","5","4","4","3","4","4","4","4","4","1","0","0","1","0","1","1","0","0","1","1","0","0","0","0","4","1","3","2","4","3","4","4","5","2","1","798267707752587265","杨","67","","","","","","","","","","","","","","","","","","","","","","","","","","","","","","feedback_test","","","","","","","","","","","",""
"908","","f","psychophysics","123","459864","0.0-7.0-1.0-4.0-0.0-0.8","3","3","2","2","2","2","2","2","2","3","3","2","2","3","2","2","2","3","4","2","5","4","4","3","4","4","4","4","4","1","0","0","1","0","1","1","0","0","1","1","0","0","0","0","4","1","3","2","4","3","4","4","5","2","1","798267707752587265","杨","67","","","","nonmatch","","","","","","","","","","","","","","key","f","16.65929203539823","640","356","f","true","nonmatch","img/trapezoid.png","菱形","梯形","ALT1","formal_ALT1_2","","","","","","","","","","","",""
"null","<span style='color:GreenYellow; font-size: 70px;'>正确! </span>","null","html-keyboard-response","124","460366","0.0-7.0-1.0-4.0-0.0-1.8","3","3","2","2","2","2","2","2","2","3","3","2","2","3","2","2","2","3","4","2","5","4","4","3","4","4","4","4","4","1","0","0","1","0","1","1","0","0","1","1","0","0","0","0","4","1","3","2","4","3","4","4","5","2","1","798267707752587265","杨","67","","","","","","","","","","","","","","","","","","","","","","","","","","","","","","feedback_test","","","","","","","","","","","",""
"718","","j","psychophysics","125","462086","0.0-7.0-1.0-4.0-0.0-0.9","3","3","2","2","2","2","2","2","2","3","3","2","2","3","2","2","2","3","4","2","5","4","4","3","4","4","4","4","4","1","0","0","1","0","1","1","0","0","1","1","0","0","0","0","4","1","3","2","4","3","4","4","5","2","1","798267707752587265","杨","67","","","","match","","","","","","","","","","","","","","key","j","16.663725490196192","640","356","j","true","match","img/ellipse.png","椭圆","椭圆","ALT1","formal_ALT1_2","","","","","","","","","","","",""
"null","<span style='color:GreenYellow; font-size: 70px;'>正确! </span>","null","html-keyboard-response","126","462587","0.0-7.0-1.0-4.0-0.0-1.9","3","3","2","2","2","2","2","2","2","3","3","2","2","3","2","2","2","3","4","2","5","4","4","3","4","4","4","4","4","1","0","0","1","0","1","1","0","0","1","1","0","0","0","0","4","1","3","2","4","3","4","4","5","2","1","798267707752587265","杨","67","","","","","","","","","","","","","","","","","","","","","","","","","","","","","","feedback_test","","","","","","","","","","","",""
"879","","f","psychophysics","127","464468","0.0-7.0-1.0-4.0-0.0-0.10","3","3","2","2","2","2","2","2","2","3","3","2","2","3","2","2","2","3","4","2","5","4","4","3","4","4","4","4","4","1","0","0","1","0","1","1","0","0","1","1","0","0","0","0","4","1","3","2","4","3","4","4","5","2","1","798267707752587265","杨","67","","","","nonmatch","","","","","","","","","","","","","","key","f","16.662499999999586","640","356","f","true","nonmatch","img/pentagon.png","梯形","五边","ALT1","formal_ALT1_2","","","","","","","","","","","",""
"null","<span style='color:GreenYellow; font-size: 70px;'>正确! </span>","null","html-keyboard-response","128","464970","0.0-7.0-1.0-4.0-0.0-1.10","3","3","2","2","2","2","2","2","2","3","3","2","2","3","2","2","2","3","4","2","5","4","4","3","4","4","4","4","4","1","0","0","1","0","1","1","0","0","1","1","0","0","0","0","4","1","3","2","4","3","4","4","5","2","1","798267707752587265","杨","67","","","","","","","","","","","","","","","","","","","","","","","","","","","","","","feedback_test","","","","","","","","","","","",""
"624","","j","psychophysics","129","466595","0.0-7.0-1.0-4.0-0.0-0.11","3","3","2","2","2","2","2","2","2","3","3","2","2","3","2","2","2","3","4","2","5","4","4","3","4","4","4","4","4","1","0","0","1","0","1","1","0","0","1","1","0","0","0","0","4","1","3","2","4","3","4","4","5","2","1","798267707752587265","杨","67","","","","match","","","","","","","","","","","","","","key","j","16.662886597938023","640","356","j","true","match","img/trapezoid.png","梯形","梯形","ALT1","formal_ALT1_2","","","","","","","","","","","",""
"null","<span style='color:GreenYellow; font-size: 70px;'>正确! </span>","null","html-keyboard-response","130","467096","0.0-7.0-1.0-4.0-0.0-1.11","3","3","2","2","2","2","2","2","2","3","3","2","2","3","2","2","2","3","4","2","5","4","4","3","4","4","4","4","4","1","0","0","1","0","1","1","0","0","1","1","0","0","0","0","4","1","3","2","4","3","4","4","5","2","1","798267707752587265","杨","67","","","","","","","","","","","","","","","","","","","","","","","","","","","","","","feedback_test","","","","","","","","","","","",""
"658","","j","psychophysics","131","468756","0.0-7.0-1.0-4.0-0.0-0.12","3","3","2","2","2","2","2","2","2","3","3","2","2","3","2","2","2","3","4","2","5","4","4","3","4","4","4","4","4","1","0","0","1","0","1","1","0","0","1","1","0","0","0","0","4","1","3","2","4","3","4","4","5","2","1","798267707752587265","杨","67","","","","match","","","","","","","","","","","","","","key","j","16.66363636363648","640","356","j","true","match","img/trapezoid.png","梯形","梯形","ALT1","formal_ALT1_2","","","","","","","","","","","",""
"null","<span style='color:GreenYellow; font-size: 70px;'>正确! </span>","null","html-keyboard-response","132","469257","0.0-7.0-1.0-4.0-0.0-1.12","3","3","2","2","2","2","2","2","2","3","3","2","2","3","2","2","2","3","4","2","5","4","4","3","4","4","4","4","4","1","0","0","1","0","1","1","0","0","1","1","0","0","0","0","4","1","3","2","4","3","4","4","5","2","1","798267707752587265","杨","67","","","","","","","","","","","","","","","","","","","","","","","","","","","","","","feedback_test","","","","","","","","","","","",""
"696","","f","psychophysics","133","470956","0.0-7.0-1.0-4.0-0.0-0.13","3","3","2","2","2","2","2","2","2","3","3","2","2","3","2","2","2","3","4","2","5","4","4","3","4","4","4","4","4","1","0","0","1","0","1","1","0","0","1","1","0","0","0","0","4","1","3","2","4","3","4","4","5","2","1","798267707752587265","杨","67","","","","nonmatch","","","","","","","","","","","","","","key","f","16.664356435643334","640","356","f","true","nonmatch","img/ellipse.png","菱形","椭圆","ALT1","formal_ALT1_2","","","","","","","","","","","",""
"null","<span style='color:GreenYellow; font-size: 70px;'>正确! </span>","null","html-keyboard-response","134","471456","0.0-7.0-1.0-4.0-0.0-1.13","3","3","2","2","2","2","2","2","2","3","3","2","2","3","2","2","2","3","4","2","5","4","4","3","4","4","4","4","4","1","0","0","1","0","1","1","0","0","1","1","0","0","0","0","4","1","3","2","4","3","4","4","5","2","1","798267707752587265","杨","67","","","","","","","","","","","","","","","","","","","","","","","","","","","","","","feedback_test","","","","","","","","","","","",""
"664","","f","psychophysics","135","473123","0.0-7.0-1.0-4.0-0.0-0.14","3","3","2","2","2","2","2","2","2","3","3","2","2","3","2","2","2","3","4","2","5","4","4","3","4","4","4","4","4","1","0","0","1","0","1","1","0","0","1","1","0","0","0","0","4","1","3","2","4","3","4","4","5","2","1","798267707752587265","杨","67","","","","nonmatch","","","","","","","","","","","","","","key","f","16.66363636363648","640","356","f","true","nonmatch","img/trapezoid.png","五边","梯形","ALT1","formal_ALT1_2","","","","","","","","","","","",""
"null","<span style='color:GreenYellow; font-size: 70px;'>正确! </span>","null","html-keyboard-response","136","473623","0.0-7.0-1.0-4.0-0.0-1.14","3","3","2","2","2","2","2","2","2","3","3","2","2","3","2","2","2","3","4","2","5","4","4","3","4","4","4","4","4","1","0","0","1","0","1","1","0","0","1","1","0","0","0","0","4","1","3","2","4","3","4","4","5","2","1","798267707752587265","杨","67","","","","","","","","","","","","","","","","","","","","","","","","","","","","","","feedback_test","","","","","","","","","","","",""
"866","","f","psychophysics","137","475493","0.0-7.0-1.0-4.0-0.0-0.15","3","3","2","2","2","2","2","2","2","3","3","2","2","3","2","2","2","3","4","2","5","4","4","3","4","4","4","4","4","1","0","0","1","0","1","1","0","0","1","1","0","0","0","0","4","1","3","2","4","3","4","4","5","2","1","798267707752587265","杨","67","","","","nonmatch","","","","","","","","","","","","","","key","f","16.663063063062854","640","356","f","true","nonmatch","img/diamond.png","梯形","菱形","ALT1","formal_ALT1_2","","","","","","","","","","","",""
"null","<span style='color:GreenYellow; font-size: 70px;'>正确! </span>","null","html-keyboard-response","138","475993","0.0-7.0-1.0-4.0-0.0-1.15","3","3","2","2","2","2","2","2","2","3","3","2","2","3","2","2","2","3","4","2","5","4","4","3","4","4","4","4","4","1","0","0","1","0","1","1","0","0","1","1","0","0","0","0","4","1","3","2","4","3","4","4","5","2","1","798267707752587265","杨","67","","","","","","","","","","","","","","","","","","","","","","","","","","","","","","feedback_test","","","","","","","","","","","",""
"659","","j","psychophysics","139","477655","0.0-7.0-1.0-4.0-0.0-0.16","3","3","2","2","2","2","2","2","2","3","3","2","2","3","2","2","2","3","4","2","5","4","4","3","4","4","4","4","4","1","0","0","1","0","1","1","0","0","1","1","0","0","0","0","4","1","3","2","4","3","4","4","5","2","1","798267707752587265","杨","67","","","","match","","","","","","","","","","","","","","key","j","16.662626262626617","640","356","j","true","match","img/ellipse.png","椭圆","椭圆","ALT1","formal_ALT1_2","","","","","","","","","","","",""
"null","<span style='color:GreenYellow; font-size: 70px;'>正确! </span>","null","html-keyboard-response","140","478156","0.0-7.0-1.0-4.0-0.0-1.16","3","3","2","2","2","2","2","2","2","3","3","2","2","3","2","2","2","3","4","2","5","4","4","3","4","4","4","4","4","1","0","0","1","0","1","1","0","0","1","1","0","0","0","0","4","1","3","2","4","3","4","4","5","2","1","798267707752587265","杨","67","","","","","","","","","","","","","","","","","","","","","","","","","","","","","","feedback_test","","","","","","","","","","","",""
"999","","j","psychophysics","141","480157","0.0-7.0-1.0-4.0-0.0-0.17","3","3","2","2","2","2","2","2","2","3","3","2","2","3","2","2","2","3","4","2","5","4","4","3","4","4","4","4","4","1","0","0","1","0","1","1","0","0","1","1","0","0","0","0","4","1","3","2","4","3","4","4","5","2","1","798267707752587265","杨","67","","","","match","","","","","","","","","","","","","","key","j","16.66386554621849","640","356","j","true","match","img/diamond.png","菱形","菱形","ALT1","formal_ALT1_2","","","","","","","","","","","",""
"null","<span style='color:GreenYellow; font-size: 70px;'>正确! </span>","null","html-keyboard-response","142","480659","0.0-7.0-1.0-4.0-0.0-1.17","3","3","2","2","2","2","2","2","2","3","3","2","2","3","2","2","2","3","4","2","5","4","4","3","4","4","4","4","4","1","0","0","1","0","1","1","0","0","1","1","0","0","0","0","4","1","3","2","4","3","4","4","5","2","1","798267707752587265","杨","67","","","","","","","","","","","","","","","","","","","","","","","","","","","","","","feedback_test","","","","","","","","","","","",""
"784","","j","psychophysics","143","482444","0.0-7.0-1.0-4.0-0.0-0.18","3","3","2","2","2","2","2","2","2","3","3","2","2","3","2","2","2","3","4","2","5","4","4","3","4","4","4","4","4","1","0","0","1","0","1","1","0","0","1","1","0","0","0","0","4","1","3","2","4","3","4","4","5","2","1","798267707752587265","杨","67","","","","match","","","","","","","","","","","","","","key","j","16.664150943396447","640","356","f","false","nonmatch","img/diamond.png","椭圆","菱形","ALT1","formal_ALT1_2","","","","","","","","","","","",""
"null","<span style='color:red; font-size: 70px;'>错误! </span>","null","html-keyboard-response","144","482946","0.0-7.0-1.0-4.0-0.0-1.18","3","3","2","2","2","2","2","2","2","3","3","2","2","3","2","2","2","3","4","2","5","4","4","3","4","4","4","4","4","1","0","0","1","0","1","1","0","0","1","1","0","0","0","0","4","1","3","2","4","3","4","4","5","2","1","798267707752587265","杨","67","","","","","","","","","","","","","","","","","","","","","","","","","","","","","","feedback_test","","","","","","","","","","","",""
"847","","j","psychophysics","145","484795","0.0-7.0-1.0-4.0-0.0-0.19","3","3","2","2","2","2","2","2","2","3","3","2","2","3","2","2","2","3","4","2","5","4","4","3","4","4","4","4","4","1","0","0","1","0","1","1","0","0","1","1","0","0","0","0","4","1","3","2","4","3","4","4","5","2","1","798267707752587265","杨","67","","","","match","","","","","","","","","","","","","","key","j","16.663636363636364","640","356","j","true","match","img/diamond.png","菱形","菱形","ALT1","formal_ALT1_2","","","","","","","","","","","",""
"null","<span style='color:GreenYellow; font-size: 70px;'>正确! </span>","null","html-keyboard-response","146","485296","0.0-7.0-1.0-4.0-0.0-1.19","3","3","2","2","2","2","2","2","2","3","3","2","2","3","2","2","2","3","4","2","5","4","4","3","4","4","4","4","4","1","0","0","1","0","1","1","0","0","1","1","0","0","0","0","4","1","3","2","4","3","4","4","5","2","1","798267707752587265","杨","67","","","","","","","","","","","","","","","","","","","","","","","","","","","","","","feedback_test","","","","","","","","","","","",""
"819","","f","psychophysics","147","487116","0.0-7.0-1.0-4.0-0.0-0.20","3","3","2","2","2","2","2","2","2","3","3","2","2","3","2","2","2","3","4","2","5","4","4","3","4","4","4","4","4","1","0","0","1","0","1","1","0","0","1","1","0","0","0","0","4","1","3","2","4","3","4","4","5","2","1","798267707752587265","杨","67","","","","nonmatch","","","","","","","","","","","","","","key","f","16.663888888888998","640","356","f","true","nonmatch","img/trapezoid.png","椭圆","梯形","ALT1","formal_ALT1_2","","","","","","","","","","","",""
"null","<span style='color:GreenYellow; font-size: 70px;'>正确! </span>","null","html-keyboard-response","148","487617","0.0-7.0-1.0-4.0-0.0-1.20","3","3","2","2","2","2","2","2","2","3","3","2","2","3","2","2","2","3","4","2","5","4","4","3","4","4","4","4","4","1","0","0","1","0","1","1","0","0","1","1","0","0","0","0","4","1","3","2","4","3","4","4","5","2","1","798267707752587265","杨","67","","","","","","","","","","","","","","","","","","","","","","","","","","","","","","feedback_test","","","","","","","","","","","",""
"730","","j","psychophysics","149","489349","0.0-7.0-1.0-4.0-0.0-0.21","3","3","2","2","2","2","2","2","2","3","3","2","2","3","2","2","2","3","4","2","5","4","4","3","4","4","4","4","4","1","0","0","1","0","1","1","0","0","1","1","0","0","0","0","4","1","3","2","4","3","4","4","5","2","1","798267707752587265","杨","67","","","","match","","","","","","","","","","","","","","key","j","16.662745098039558","640","356","j","true","match","img/pentagon.png","五边","五边","ALT1","formal_ALT1_2","","","","","","","","","","","",""
"null","<span style='color:GreenYellow; font-size: 70px;'>正确! </span>","null","html-keyboard-response","150","489850","0.0-7.0-1.0-4.0-0.0-1.21","3","3","2","2","2","2","2","2","2","3","3","2","2","3","2","2","2","3","4","2","5","4","4","3","4","4","4","4","4","1","0","0","1","0","1","1","0","0","1","1","0","0","0","0","4","1","3","2","4","3","4","4","5","2","1","798267707752587265","杨","67","","","","","","","","","","","","","","","","","","","","","","","","","","","","","","feedback_test","","","","","","","","","","","",""
"792","","f","psychophysics","151","491643","0.0-7.0-1.0-4.0-0.0-0.22","3","3","2","2","2","2","2","2","2","3","3","2","2","3","2","2","2","3","4","2","5","4","4","3","4","4","4","4","4","1","0","0","1","0","1","1","0","0","1","1","0","0","0","0","4","1","3","2","4","3","4","4","5","2","1","798267707752587265","杨","67","","","","nonmatch","","","","","","","","","","","","","","key","f","16.6632075471697","640","356","f","true","nonmatch","img/pentagon.png","菱形","五边","ALT1","formal_ALT1_2","","","","","","","","","","","",""
"null","<span style='color:GreenYellow; font-size: 70px;'>正确! </span>","null","html-keyboard-response","152","492143","0.0-7.0-1.0-4.0-0.0-1.22","3","3","2","2","2","2","2","2","2","3","3","2","2","3","2","2","2","3","4","2","5","4","4","3","4","4","4","4","4","1","0","0","1","0","1","1","0","0","1","1","0","0","0","0","4","1","3","2","4","3","4","4","5","2","1","798267707752587265","杨","67","","","","","","","","","","","","","","","","","","","","","","","","","","","","","","feedback_test","","","","","","","","","","","",""
"640","","j","psychophysics","153","493785","0.0-7.0-1.0-4.0-0.0-0.23","3","3","2","2","2","2","2","2","2","3","3","2","2","3","2","2","2","3","4","2","5","4","4","3","4","4","4","4","4","1","0","0","1","0","1","1","0","0","1","1","0","0","0","0","4","1","3","2","4","3","4","4","5","2","1","798267707752587265","杨","67","","","","match","","","","","","","","","","","","","","key","j","16.663265306122447","640","356","j","true","match","img/ellipse.png","椭圆","椭圆","ALT1","formal_ALT1_2","","","","","","","","","","","",""
"null","<span style='color:GreenYellow; font-size: 70px;'>正确! </span>","null","html-keyboard-response","154","494286","0.0-7.0-1.0-4.0-0.0-1.23","3","3","2","2","2","2","2","2","2","3","3","2","2","3","2","2","2","3","4","2","5","4","4","3","4","4","4","4","4","1","0","0","1","0","1","1","0","0","1","1","0","0","0","0","4","1","3","2","4","3","4","4","5","2","1","798267707752587265","杨","67","","","","","","","","","","","","","","","","","","","","","","","","","","","","","","feedback_test","","","","","","","","","","","",""
"799","","f","psychophysics","155","496086","0.0-7.0-1.0-4.0-0.0-0.24","3","3","2","2","2","2","2","2","2","3","3","2","2","3","2","2","2","3","4","2","5","4","4","3","4","4","4","4","4","1","0","0","1","0","1","1","0","0","1","1","0","0","0","0","4","1","3","2","4","3","4","4","5","2","1","798267707752587265","杨","67","","","","nonmatch","","","","","","","","","","","","","","key","f","16.66355140186916","640","356","f","true","nonmatch","img/ellipse.png","五边","椭圆","ALT1","formal_ALT1_2","","","","","","","","","","","",""
"null","<span style='color:GreenYellow; font-size: 70px;'>正确! </span>","null","html-keyboard-response","156","496588","0.0-7.0-1.0-4.0-0.0-1.24","3","3","2","2","2","2","2","2","2","3","3","2","2","3","2","2","2","3","4","2","5","4","4","3","4","4","4","4","4","1","0","0","1","0","1","1","0","0","1","1","0","0","0","0","4","1","3","2","4","3","4","4","5","2","1","798267707752587265","杨","67","","","","","","","","","","","","","","","","","","","","","","","","","","","","","","feedback_test","","","","","","","","","","","",""
"812","","j","psychophysics","157","498401","0.0-7.0-1.0-4.0-0.0-0.25","3","3","2","2","2","2","2","2","2","3","3","2","2","3","2","2","2","3","4","2","5","4","4","3","4","4","4","4","4","1","0","0","1","0","1","1","0","0","1","1","0","0","0","0","4","1","3","2","4","3","4","4","5","2","1","798267707752587265","杨","67","","","","match","","","","","","","","","","","","","","key","j","16.663888888888458","640","356","j","true","match","img/trapezoid.png","梯形","梯形","ALT1","formal_ALT1_2","","","","","","","","","","","",""
"null","<span style='color:GreenYellow; font-size: 70px;'>正确! </span>","null","html-keyboard-response","158","498903","0.0-7.0-1.0-4.0-0.0-1.25","3","3","2","2","2","2","2","2","2","3","3","2","2","3","2","2","2","3","4","2","5","4","4","3","4","4","4","4","4","1","0","0","1","0","1","1","0","0","1","1","0","0","0","0","4","1","3","2","4","3","4","4","5","2","1","798267707752587265","杨","67","","","","","","","","","","","","","","","","","","","","","","","","","","","","","","feedback_test","","","","","","","","","","","",""
"673","","j","psychophysics","159","500577","0.0-7.0-1.0-4.0-0.0-0.26","3","3","2","2","2","2","2","2","2","3","3","2","2","3","2","2","2","3","4","2","5","4","4","3","4","4","4","4","4","1","0","0","1","0","1","1","0","0","1","1","0","0","0","0","4","1","3","2","4","3","4","4","5","2","1","798267707752587265","杨","67","","","","match","","","","","","","","","","","","","","key","j","16.66363636363648","640","356","j","true","match","img/ellipse.png","椭圆","椭圆","ALT1","formal_ALT1_2","","","","","","","","","","","",""
"null","<span style='color:GreenYellow; font-size: 70px;'>正确! </span>","null","html-keyboard-response","160","501078","0.0-7.0-1.0-4.0-0.0-1.26","3","3","2","2","2","2","2","2","2","3","3","2","2","3","2","2","2","3","4","2","5","4","4","3","4","4","4","4","4","1","0","0","1","0","1","1","0","0","1","1","0","0","0","0","4","1","3","2","4","3","4","4","5","2","1","798267707752587265","杨","67","","","","","","","","","","","","","","","","","","","","","","","","","","","","","","feedback_test","","","","","","","","","","","",""
"743","","f","psychophysics","161","502824","0.0-7.0-1.0-4.0-0.0-0.27","3","3","2","2","2","2","2","2","2","3","3","2","2","3","2","2","2","3","4","2","5","4","4","3","4","4","4","4","4","1","0","0","1","0","1","1","0","0","1","1","0","0","0","0","4","1","3","2","4","3","4","4","5","2","1","798267707752587265","杨","67","","","","nonmatch","","","","","","","","","","","","","","key","f","16.662499999999664","640","356","f","true","nonmatch","img/ellipse.png","梯形","椭圆","ALT1","formal_ALT1_2","","","","","","","","","","","",""
"null","<span style='color:GreenYellow; font-size: 70px;'>正确! </span>","null","html-keyboard-response","162","503325","0.0-7.0-1.0-4.0-0.0-1.27","3","3","2","2","2","2","2","2","2","3","3","2","2","3","2","2","2","3","4","2","5","4","4","3","4","4","4","4","4","1","0","0","1","0","1","1","0","0","1","1","0","0","0","0","4","1","3","2","4","3","4","4","5","2","1","798267707752587265","杨","67","","","","","","","","","","","","","","","","","","","","","","","","","","","","","","feedback_test","","","","","","","","","","","",""
"962","","j","psychophysics","163","505288","0.0-7.0-1.0-4.0-0.0-0.28","3","3","2","2","2","2","2","2","2","3","3","2","2","3","2","2","2","3","4","2","5","4","4","3","4","4","4","4","4","1","0","0","1","0","1","1","0","0","1","1","0","0","0","0","4","1","3","2","4","3","4","4","5","2","1","798267707752587265","杨","67","","","","match","","","","","","","","","","","","","","key","j","16.66153846153866","640","356","j","true","match","img/trapezoid.png","梯形","梯形","ALT1","formal_ALT1_2","","","","","","","","","","","",""
"null","<span style='color:GreenYellow; font-size: 70px;'>正确! </span>","null","html-keyboard-response","164","505789","0.0-7.0-1.0-4.0-0.0-1.28","3","3","2","2","2","2","2","2","2","3","3","2","2","3","2","2","2","3","4","2","5","4","4","3","4","4","4","4","4","1","0","0","1","0","1","1","0","0","1","1","0","0","0","0","4","1","3","2","4","3","4","4","5","2","1","798267707752587265","杨","67","","","","","","","","","","","","","","","","","","","","","","","","","","","","","","feedback_test","","","","","","","","","","","",""
"615","","j","psychophysics","165","507406","0.0-7.0-1.0-4.0-0.0-0.29","3","3","2","2","2","2","2","2","2","3","3","2","2","3","2","2","2","3","4","2","5","4","4","3","4","4","4","4","4","1","0","0","1","0","1","1","0","0","1","1","0","0","0","0","4","1","3","2","4","3","4","4","5","2","1","798267707752587265","杨","67","","","","match","","","","","","","","","","","","","","key","j","16.661458333333332","640","356","j","true","match","img/ellipse.png","椭圆","椭圆","ALT1","formal_ALT1_2","","","","","","","","","","","",""
"null","<span style='color:GreenYellow; font-size: 70px;'>正确! </span>","null","html-keyboard-response","166","507908","0.0-7.0-1.0-4.0-0.0-1.29","3","3","2","2","2","2","2","2","2","3","3","2","2","3","2","2","2","3","4","2","5","4","4","3","4","4","4","4","4","1","0","0","1","0","1","1","0","0","1","1","0","0","0","0","4","1","3","2","4","3","4","4","5","2","1","798267707752587265","杨","67","","","","","","","","","","","","","","","","","","","","","","","","","","","","","","feedback_test","","","","","","","","","","","",""
"753","","j","psychophysics","167","509662","0.0-7.0-1.0-4.0-0.0-0.30","3","3","2","2","2","2","2","2","2","3","3","2","2","3","2","2","2","3","4","2","5","4","4","3","4","4","4","4","4","1","0","0","1","0","1","1","0","0","1","1","0","0","0","0","4","1","3","2","4","3","4","4","5","2","1","798267707752587265","杨","67","","","","match","","","","","","","","","","","","","","key","j","16.66346153846154","640","356","f","false","nonmatch","img/pentagon.png","椭圆","五边","ALT1","formal_ALT1_2","","","","","","","","","","","",""
"null","<span style='color:red; font-size: 70px;'>错误! </span>","null","html-keyboard-response","168","510163","0.0-7.0-1.0-4.0-0.0-1.30","3","3","2","2","2","2","2","2","2","3","3","2","2","3","2","2","2","3","4","2","5","4","4","3","4","4","4","4","4","1","0","0","1","0","1","1","0","0","1","1","0","0","0","0","4","1","3","2","4","3","4","4","5","2","1","798267707752587265","杨","67","","","","","","","","","","","","","","","","","","","","","","","","","","","","","","feedback_test","","","","","","","","","","","",""
"853","","j","psychophysics","169","512018","0.0-7.0-1.0-4.0-0.0-0.31","3","3","2","2","2","2","2","2","2","3","3","2","2","3","2","2","2","3","4","2","5","4","4","3","4","4","4","4","4","1","0","0","1","0","1","1","0","0","1","1","0","0","0","0","4","1","3","2","4","3","4","4","5","2","1","798267707752587265","杨","67","","","","match","","","","","","","","","","","","","","key","j","16.662727272727484","640","356","j","true","match","img/diamond.png","菱形","菱形","ALT1","formal_ALT1_2","","","","","","","","","","","",""
"null","<span style='color:GreenYellow; font-size: 70px;'>正确! </span>","null","html-keyboard-response","170","512519","0.0-7.0-1.0-4.0-0.0-1.31","3","3","2","2","2","2","2","2","2","3","3","2","2","3","2","2","2","3","4","2","5","4","4","3","4","4","4","4","4","1","0","0","1","0","1","1","0","0","1","1","0","0","0","0","4","1","3","2","4","3","4","4","5","2","1","798267707752587265","杨","67","","","","","","","","","","","","","","","","","","","","","","","","","","","","","","feedback_test","","","","","","","","","","","",""
"770","","f","psychophysics","171","514291","0.0-7.0-1.0-4.0-0.0-0.32","3","3","2","2","2","2","2","2","2","3","3","2","2","3","2","2","2","3","4","2","5","4","4","3","4","4","4","4","4","1","0","0","1","0","1","1","0","0","1","1","0","0","0","0","4","1","3","2","4","3","4","4","5","2","1","798267707752587265","杨","67","","","","nonmatch","","","","","","","","","","","","","","key","f","16.663809523809636","640","356","f","true","nonmatch","img/ellipse.png","菱形","椭圆","ALT1","formal_ALT1_2","","","","","","","","","","","",""
"null","<span style='color:GreenYellow; font-size: 70px;'>正确! </span>","null","html-keyboard-response","172","514792","0.0-7.0-1.0-4.0-0.0-1.32","3","3","2","2","2","2","2","2","2","3","3","2","2","3","2","2","2","3","4","2","5","4","4","3","4","4","4","4","4","1","0","0","1","0","1","1","0","0","1","1","0","0","0","0","4","1","3","2","4","3","4","4","5","2","1","798267707752587265","杨","67","","","","","","","","","","","","","","","","","","","","","","","","","","","","","","feedback_test","","","","","","","","","","","",""
"740","","j","psychophysics","173","516534","0.0-7.0-1.0-4.0-0.0-0.33","3","3","2","2","2","2","2","2","2","3","3","2","2","3","2","2","2","3","4","2","5","4","4","3","4","4","4","4","4","1","0","0","1","0","1","1","0","0","1","1","0","0","0","0","4","1","3","2","4","3","4","4","5","2","1","798267707752587265","杨","67","","","","match","","","","","","","","","","","","","","key","j","16.66153846153835","640","356","j","true","match","img/diamond.png","菱形","菱形","ALT1","formal_ALT1_2","","","","","","","","","","","",""
"null","<span style='color:GreenYellow; font-size: 70px;'>正确! </span>","null","html-keyboard-response","174","517035","0.0-7.0-1.0-4.0-0.0-1.33","3","3","2","2","2","2","2","2","2","3","3","2","2","3","2","2","2","3","4","2","5","4","4","3","4","4","4","4","4","1","0","0","1","0","1","1","0","0","1","1","0","0","0","0","4","1","3","2","4","3","4","4","5","2","1","798267707752587265","杨","67","","","","","","","","","","","","","","","","","","","","","","","","","","","","","","feedback_test","","","","","","","","","","","",""
"805","","f","psychophysics","175","518842","0.0-7.0-1.0-4.0-0.0-0.34","3","3","2","2","2","2","2","2","2","3","3","2","2","3","2","2","2","3","4","2","5","4","4","3","4","4","4","4","4","1","0","0","1","0","1","1","0","0","1","1","0","0","0","0","4","1","3","2","4","3","4","4","5","2","1","798267707752587265","杨","67","","","","nonmatch","","","","","","","","","","","","","","key","f","16.66355140186916","640","356","f","true","nonmatch","img/trapezoid.png","椭圆","梯形","ALT1","formal_ALT1_2","","","","","","","","","","","",""
"null","<span style='color:GreenYellow; font-size: 70px;'>正确! </span>","null","html-keyboard-response","176","519343","0.0-7.0-1.0-4.0-0.0-1.34","3","3","2","2","2","2","2","2","2","3","3","2","2","3","2","2","2","3","4","2","5","4","4","3","4","4","4","4","4","1","0","0","1","0","1","1","0","0","1","1","0","0","0","0","4","1","3","2","4","3","4","4","5","2","1","798267707752587265","杨","67","","","","","","","","","","","","","","","","","","","","","","","","","","","","","","feedback_test","","","","","","","","","","","",""
"895","","f","psychophysics","177","521239","0.0-7.0-1.0-4.0-0.0-0.35","3","3","2","2","2","2","2","2","2","3","3","2","2","3","2","2","2","3","4","2","5","4","4","3","4","4","4","4","4","1","0","0","1","0","1","1","0","0","1","1","0","0","0","0","4","1","3","2","4","3","4","4","5","2","1","798267707752587265","杨","67","","","","nonmatch","","","","","","","","","","","","","","key","f","16.657142857143167","640","356","f","true","nonmatch","img/diamond.png","梯形","菱形","ALT1","formal_ALT1_2","","","","","","","","","","","",""
"null","<span style='color:GreenYellow; font-size: 70px;'>正确! </span>","null","html-keyboard-response","178","521740","0.0-7.0-1.0-4.0-0.0-1.35","3","3","2","2","2","2","2","2","2","3","3","2","2","3","2","2","2","3","4","2","5","4","4","3","4","4","4","4","4","1","0","0","1","0","1","1","0","0","1","1","0","0","0","0","4","1","3","2","4","3","4","4","5","2","1","798267707752587265","杨","67","","","","","","","","","","","","","","","","","","","","","","","","","","","","","","feedback_test","","","","","","","","","","","",""
"945","","f","psychophysics","179","523687","0.0-7.0-1.0-4.0-0.0-0.36","3","3","2","2","2","2","2","2","2","3","3","2","2","3","2","2","2","3","4","2","5","4","4","3","4","4","4","4","4","1","0","0","1","0","1","1","0","0","1","1","0","0","0","0","4","1","3","2","4","3","4","4","5","2","1","798267707752587265","杨","67","","","","nonmatch","","","","","","","","","","","","","","key","f","16.661206896551324","640","356","f","true","nonmatch","img/trapezoid.png","五边","梯形","ALT1","formal_ALT1_2","","","","","","","","","","","",""
"null","<span style='color:GreenYellow; font-size: 70px;'>正确! </span>","null","html-keyboard-response","180","524189","0.0-7.0-1.0-4.0-0.0-1.36","3","3","2","2","2","2","2","2","2","3","3","2","2","3","2","2","2","3","4","2","5","4","4","3","4","4","4","4","4","1","0","0","1","0","1","1","0","0","1","1","0","0","0","0","4","1","3","2","4","3","4","4","5","2","1","798267707752587265","杨","67","","","","","","","","","","","","","","","","","","","","","","","","","","","","","","feedback_test","","","","","","","","","","","",""
"1194","","f","psychophysics","181","526385","0.0-7.0-1.0-4.0-0.0-0.37","3","3","2","2","2","2","2","2","2","3","3","2","2","3","2","2","2","3","4","2","5","4","4","3","4","4","4","4","4","1","0","0","1","0","1","1","0","0","1","1","0","0","0","0","4","1","3","2","4","3","4","4","5","2","1","798267707752587265","杨","67","","","","nonmatch","","","","","","","","","","","","","","key","f","16.663358778626133","640","356","f","true","nonmatch","img/diamond.png","五边","菱形","ALT1","formal_ALT1_2","","","","","","","","","","","",""
