"rt","stimulus","response","trial_type","trial_index","time_elapsed","internal_node_id","ses_1","ses_2","ses_3","ses_4","ses_5","ses_6","ses_7","ses_8","ses_9","ses_10","coreself_1","coreself_2","coreself_3","coreself_4","coreself_5","coreself_6","coreself_7","coreself_8","coreself_9","coreself_10","SGPS_1","SGPS_2","SGPS_3","SGPS_4","SGPS_5","SGPS_6","SGPS_7","SGPS_8","SGPS_9","NPI1","NPI2","NPI3","NPI4","NPI5","NPI6","NPI7","NPI8","NPI9","NPI10","NPI11","NPI12","NPI13","NPI14","NPI15","hsns_1","hsns_2","hsns_3","hsns_4","hsns_5","trap1","hsns_6","hsns_7","hsns_8","hsns_9","hsns_10","subj_idx","friend_name","ParticipantID","value","success","user_agent","responses","item_order","radio_event_ids","radio_event_times","key_event_times","mouse_event_times","straightlining","zigzagging","honeypot","timeout","failed_images","failed_audio","failed_video","view_history","response_type","key_press","avg_frame_time","center_x","center_y","correct_response","correct","identity","Image","word","condition","task_id","screen_id","time_stamp","version_attrib","version_target","IAT","RT","varname","summary","version_attrib2","version_target2","question_order","correct_answer","trap1_item"
"1195","
   <p><div style = ""color: white;font-size:25px;"">您好，欢迎参加本次实验。</div> </p>
   <p><div style = ""color: white;font-size:25px;"">为充分保障您的权利，请确保您已经知晓并同意《参与实验同意书》以及《数据公开知情同意书》。</div></p>
   <p><div style = ""color: white;font-size:25px;"">如果您未见过上述内容，请咨询实验员。</div></p>
   <p><div style = ""color: white;font-size:25px;"">如果您选择继续实验，则表示您已经清楚两份知情同意书的内容并同意。</div></p>
   <p><div style = ""color: pink;font-size:30px;"">请确保您记得day0的实验编号，您将在本次实验输入该编号，若您忘记，请咨询实验员后作答。</div></p>
   <p><div style = ""color: lightblue;font-size:25px;"">请您尽可能认真地作答，我们将依据您在各问卷和按键任务中的作答质量发放报酬。</div></p>
   <p> <div style = ""color: green;font-size:25px;""><按空格键至下页></div> </p>
   "," ","html-keyboard-response","0","1196","0.0-0.0","4","4","4","4","4","4","4","4","4","4","5","5","5","5","5","5","5","5","5","5","1","1","1","1","1","1","1","1","1","1","0","1","1","0","0","0","0","0","1","1","0","1","0","1","5","2","1","1","2","5","1","2","1","4","1","598865314549071872","周","540","","","","","","","","","","","","","","","","","","","","","","","","","","","","","","","","","","","","","","","","","",""
"","","","call-function","1","1197","0.0-1.0-0.0","4","4","4","4","4","4","4","4","4","4","5","5","5","5","5","5","5","5","5","5","1","1","1","1","1","1","1","1","1","1","0","1","1","0","0","0","0","0","1","1","0","1","0","1","5","2","1","1","2","5","1","2","1","4","1","598865314549071872","周","540","","","","","","","","","","","","","","","","","","","","","","","","","","","","","","","","","","","","","","","","","",""
"17979","","{""friend_name"":""周"",""ParticipantID"":""540""}","survey-html-form","2","19176","0.0-1.0-1.0","4","4","4","4","4","4","4","4","4","4","5","5","5","5","5","5","5","5","5","5","1","1","1","1","1","1","1","1","1","1","0","1","1","0","0","0","0","0","1","1","0","1","0","1","5","2","1","1","2","5","1","2","1","4","1","598865314549071872","周","540","","","","","","","","","","","","","","","","","","","","","","","","","","","","","","","","","","","","","","","","","",""
"","","","fullscreen","3","20158","0.0-2.0","4","4","4","4","4","4","4","4","4","4","5","5","5","5","5","5","5","5","5","5","1","1","1","1","1","1","1","1","1","1","0","1","1","0","0","0","0","0","1","1","0","1","0","1","5","2","1","1","2","5","1","2","1","4","1","598865314549071872","周","540","","true","{}","","","","","","","","","","","","","","","","","","","","","","","","","","","","","","","","","","","","","","",""
"19808.399999976158","","{""Q01"":""4"",""Q02"":""4"",""Q03"":""4"",""Q04"":""4"",""Q05"":""4"",""Q06"":""4"",""Q07"":""4"",""Q08"":""4"",""Q09"":""4"",""Q10"":""4""}","survey-template","4","39968","0.0-3.0","4","4","4","4","4","4","4","4","4","4","5","5","5","5","5","5","5","5","5","5","1","1","1","1","1","1","1","1","1","1","0","1","1","0","0","0","0","0","1","1","0","1","0","1","5","2","1","1","2","5","1","2","1","4","1","598865314549071872","周","540","","","","{""Q01"":""4"",""Q02"":""4"",""Q03"":""4"",""Q04"":""4"",""Q05"":""4"",""Q06"":""4"",""Q07"":""4"",""Q08"":""4"",""Q09"":""4"",""Q10"":""4""}","[0,1,2,3,4,5,6,7,8,9]","[""Q01"",""Q02"",""Q03"",""Q04"",""Q05"",""Q06"",""Q07"",""Q08"",""Q09"",""Q10""]","[3903.5,4455.899999976158,5369.599999904633,6399.599999904633,7495.699999928474,8207.599999904633,9745.099999904633,11096.099999904633,11488,12063.699999928474]","[]","[3615.399999976158,3903.5,4455.899999976158,5369.599999904633,6399.599999904633,7495.699999928474,8207.599999904633,9745.099999904633,11096.099999904633,11488,11832.799999952316,12063.699999928474,19807.599999904633]","0.5","0.5555555555555556","0","","","","","","","","","","","","","","","","","","","","","","","","","","","","","",""
"67693.60000002384","","{""Q01"":""5"",""Q02"":""5"",""Q03"":""5"",""Q04"":""5"",""Q05"":""5"",""Q06"":""5"",""Q07"":""5"",""Q08"":""5"",""Q09"":""5"",""Q10"":""5""}","survey-template","5","107665","0.0-4.0","4","4","4","4","4","4","4","4","4","4","5","5","5","5","5","5","5","5","5","5","1","1","1","1","1","1","1","1","1","1","0","1","1","0","0","0","0","0","1","1","0","1","0","1","5","2","1","1","2","5","1","2","1","4","1","598865314549071872","周","540","","","","{""Q01"":""5"",""Q02"":""5"",""Q03"":""5"",""Q04"":""5"",""Q05"":""5"",""Q06"":""5"",""Q07"":""5"",""Q08"":""5"",""Q09"":""5"",""Q10"":""5""}","[0,1,2,3,4,5,6,7,8,9]","[""Q01"",""Q02"",""Q03"",""Q04"",""Q05"",""Q06"",""Q07"",""Q08"",""Q08"",""Q09"",""Q10""]","[1564.8999999761581,2532.899999976158,3716.399999976158,4540.700000047684,6516.899999976158,7300.799999952316,8580.399999976158,9284.299999952316,9644.399999976158,12108.5,13361.100000023842]","[]","[1564.8999999761581,2532.899999976158,3716.399999976158,4540.700000047684,5461.5,6516.899999976158,7300.799999952316,8580.399999976158,9076.200000047684,9284.299999952316,9644.399999976158,11572.399999976158,12108.5,13361.100000023842,67692.70000004768]","0.6","0.7777777777777778","0","","","","","","","","","","","","","","","","","","","","","","","","","","","","","",""
"","","","preload","6","108013","0.0-5.0","4","4","4","4","4","4","4","4","4","4","5","5","5","5","5","5","5","5","5","5","1","1","1","1","1","1","1","1","1","1","0","1","1","0","0","0","0","0","1","1","0","1","0","1","5","2","1","1","2","5","1","2","1","4","1","598865314549071872","周","540","","true","","","","","","","","","","","false","[]","[]","[]","","","","","","","","","","","","","","","","","","","","","","","","","",""
"1419","","","instructions","7","109432","0.0-6.0","4","4","4","4","4","4","4","4","4","4","5","5","5","5","5","5","5","5","5","5","1","1","1","1","1","1","1","1","1","1","0","1","1","0","0","0","0","0","1","1","0","1","0","1","5","2","1","1","2","5","1","2","1","4","1","598865314549071872","周","540","","","","","","","","","","","","","","","","","[{""page_index"":0,""viewing_time"":1419}]","","","","","","","","","","","","","","","","","","","","","","","","",""
"46703","","","instructions","8","156136","0.0-7.0-0.0-0.0","4","4","4","4","4","4","4","4","4","4","5","5","5","5","5","5","5","5","5","5","1","1","1","1","1","1","1","1","1","1","0","1","1","0","0","0","0","0","1","1","0","1","0","1","5","2","1","1","2","5","1","2","1","4","1","598865314549071872","周","540","","","","","","","","","","","","","","","","","[{""page_index"":0,""viewing_time"":44430},{""page_index"":1,""viewing_time"":1576},{""page_index"":2,""viewing_time"":696}]","","","","","","","","","","","","","","","","","","","","","","","","",""
"561","","f","psychophysics","9","157700","0.0-7.0-0.0-1.0-0.0-0.0","4","4","4","4","4","4","4","4","4","4","5","5","5","5","5","5","5","5","5","5","1","1","1","1","1","1","1","1","1","1","0","1","1","0","0","0","0","0","1","1","0","1","0","1","5","2","1","1","2","5","1","2","1","4","1","598865314549071872","周","540","","","","match","","","","","","","","","","","","","","key","f","16.65376344086009","768","428","f","true","match","img/triangle.png","三角","三角","ALT1_1","prac_ALT1_1","","","","","","","","","","","",""
"null","<span style='color:GreenYellow; font-size: 70px;'>正确! </span>","null","html-keyboard-response","10","158201","0.0-7.0-0.0-1.0-0.0-1.0","4","4","4","4","4","4","4","4","4","4","5","5","5","5","5","5","5","5","5","5","1","1","1","1","1","1","1","1","1","1","0","1","1","0","0","0","0","0","1","1","0","1","0","1","5","2","1","1","2","5","1","2","1","4","1","598865314549071872","周","540","","","","","","","","","","","","","","","","","","","","","","","","","","","","","","feedback_test","","","","","","","","","","","",""
"522","","f","psychophysics","11","159724","0.0-7.0-0.0-1.0-0.0-0.1","4","4","4","4","4","4","4","4","4","4","5","5","5","5","5","5","5","5","5","5","1","1","1","1","1","1","1","1","1","1","0","1","1","0","0","0","0","0","1","1","0","1","0","1","5","2","1","1","2","5","1","2","1","4","1","598865314549071872","周","540","","","","match","","","","","","","","","","","","","","key","f","16.651648351648223","768","428","f","true","match","img/triangle.png","三角","三角","ALT1_1","prac_ALT1_1","","","","","","","","","","","",""
"null","<span style='color:GreenYellow; font-size: 70px;'>正确! </span>","null","html-keyboard-response","12","160227","0.0-7.0-0.0-1.0-0.0-1.1","4","4","4","4","4","4","4","4","4","4","5","5","5","5","5","5","5","5","5","5","1","1","1","1","1","1","1","1","1","1","0","1","1","0","0","0","0","0","1","1","0","1","0","1","5","2","1","1","2","5","1","2","1","4","1","598865314549071872","周","540","","","","","","","","","","","","","","","","","","","","","","","","","","","","","","feedback_test","","","","","","","","","","","",""
"620","","j","psychophysics","13","161849","0.0-7.0-0.0-1.0-0.0-0.2","4","4","4","4","4","4","4","4","4","4","5","5","5","5","5","5","5","5","5","5","1","1","1","1","1","1","1","1","1","1","0","1","1","0","0","0","0","0","1","1","0","1","0","1","5","2","1","1","2","5","1","2","1","4","1","598865314549071872","周","540","","","","nonmatch","","","","","","","","","","","","","","key","j","16.651041666666668","768","428","j","true","nonmatch","img/square.png","五边","方形","ALT1_1","prac_ALT1_1","","","","","","","","","","","",""
"null","<span style='color:GreenYellow; font-size: 70px;'>正确! </span>","null","html-keyboard-response","14","162351","0.0-7.0-0.0-1.0-0.0-1.2","4","4","4","4","4","4","4","4","4","4","5","5","5","5","5","5","5","5","5","5","1","1","1","1","1","1","1","1","1","1","0","1","1","0","0","0","0","0","1","1","0","1","0","1","5","2","1","1","2","5","1","2","1","4","1","598865314549071872","周","540","","","","","","","","","","","","","","","","","","","","","","","","","","","","","","feedback_test","","","","","","","","","","","",""
"626","","j","psychophysics","15","163979","0.0-7.0-0.0-1.0-0.0-0.3","4","4","4","4","4","4","4","4","4","4","5","5","5","5","5","5","5","5","5","5","1","1","1","1","1","1","1","1","1","1","0","1","1","0","0","0","0","0","1","1","0","1","0","1","5","2","1","1","2","5","1","2","1","4","1","598865314549071872","周","540","","","","nonmatch","","","","","","","","","","","","","","key","j","16.652577319587508","768","428","j","true","nonmatch","img/triangle.png","五边","三角","ALT1_1","prac_ALT1_1","","","","","","","","","","","",""
"null","<span style='color:GreenYellow; font-size: 70px;'>正确! </span>","null","html-keyboard-response","16","164480","0.0-7.0-0.0-1.0-0.0-1.3","4","4","4","4","4","4","4","4","4","4","5","5","5","5","5","5","5","5","5","5","1","1","1","1","1","1","1","1","1","1","0","1","1","0","0","0","0","0","1","1","0","1","0","1","5","2","1","1","2","5","1","2","1","4","1","598865314549071872","周","540","","","","","","","","","","","","","","","","","","","","","","","","","","","","","","feedback_test","","","","","","","","","","","",""
"701","","j","psychophysics","17","166183","0.0-7.0-0.0-1.0-0.0-0.4","4","4","4","4","4","4","4","4","4","4","5","5","5","5","5","5","5","5","5","5","1","1","1","1","1","1","1","1","1","1","0","1","1","0","0","0","0","0","1","1","0","1","0","1","5","2","1","1","2","5","1","2","1","4","1","598865314549071872","周","540","","","","nonmatch","","","","","","","","","","","","","","key","j","16.652475247524695","768","428","j","true","nonmatch","img/square.png","圆形","方形","ALT1_1","prac_ALT1_1","","","","","","","","","","","",""
"null","<span style='color:GreenYellow; font-size: 70px;'>正确! </span>","null","html-keyboard-response","18","166684","0.0-7.0-0.0-1.0-0.0-1.4","4","4","4","4","4","4","4","4","4","4","5","5","5","5","5","5","5","5","5","5","1","1","1","1","1","1","1","1","1","1","0","1","1","0","0","0","0","0","1","1","0","1","0","1","5","2","1","1","2","5","1","2","1","4","1","598865314549071872","周","540","","","","","","","","","","","","","","","","","","","","","","","","","","","","","","feedback_test","","","","","","","","","","","",""
"733","","f","psychophysics","19","168418","0.0-7.0-0.0-1.0-0.0-0.5","4","4","4","4","4","4","4","4","4","4","5","5","5","5","5","5","5","5","5","5","1","1","1","1","1","1","1","1","1","1","0","1","1","0","0","0","0","0","1","1","0","1","0","1","5","2","1","1","2","5","1","2","1","4","1","598865314549071872","周","540","","","","match","","","","","","","","","","","","","","key","f","16.647572815534094","768","428","f","true","match","img/pentagon.png","五边","五边","ALT1_1","prac_ALT1_1","","","","","","","","","","","",""
"null","<span style='color:GreenYellow; font-size: 70px;'>正确! </span>","null","html-keyboard-response","20","168918","0.0-7.0-0.0-1.0-0.0-1.5","4","4","4","4","4","4","4","4","4","4","5","5","5","5","5","5","5","5","5","5","1","1","1","1","1","1","1","1","1","1","0","1","1","0","0","0","0","0","1","1","0","1","0","1","5","2","1","1","2","5","1","2","1","4","1","598865314549071872","周","540","","","","","","","","","","","","","","","","","","","","","","","","","","","","","","feedback_test","","","","","","","","","","","",""
"582","","j","psychophysics","21","170502","0.0-7.0-0.0-1.0-0.0-0.6","4","4","4","4","4","4","4","4","4","4","5","5","5","5","5","5","5","5","5","5","1","1","1","1","1","1","1","1","1","1","0","1","1","0","0","0","0","0","1","1","0","1","0","1","5","2","1","1","2","5","1","2","1","4","1","598865314549071872","周","540","","","","nonmatch","","","","","","","","","","","","","","key","j","16.651063829787358","768","428","j","true","nonmatch","img/square.png","三角","方形","ALT1_1","prac_ALT1_1","","","","","","","","","","","",""
"null","<span style='color:GreenYellow; font-size: 70px;'>正确! </span>","null","html-keyboard-response","22","171004","0.0-7.0-0.0-1.0-0.0-1.6","4","4","4","4","4","4","4","4","4","4","5","5","5","5","5","5","5","5","5","5","1","1","1","1","1","1","1","1","1","1","0","1","1","0","0","0","0","0","1","1","0","1","0","1","5","2","1","1","2","5","1","2","1","4","1","598865314549071872","周","540","","","","","","","","","","","","","","","","","","","","","","","","","","","","","","feedback_test","","","","","","","","","","","",""
"708","","f","psychophysics","23","172714","0.0-7.0-0.0-1.0-0.0-0.7","4","4","4","4","4","4","4","4","4","4","5","5","5","5","5","5","5","5","5","5","1","1","1","1","1","1","1","1","1","1","0","1","1","0","0","0","0","0","1","1","0","1","0","1","5","2","1","1","2","5","1","2","1","4","1","598865314549071872","周","540","","","","match","","","","","","","","","","","","","","key","f","16.649019607842966","768","428","f","true","match","img/square.png","方形","方形","ALT1_1","prac_ALT1_1","","","","","","","","","","","",""
"null","<span style='color:GreenYellow; font-size: 70px;'>正确! </span>","null","html-keyboard-response","24","173215","0.0-7.0-0.0-1.0-0.0-1.7","4","4","4","4","4","4","4","4","4","4","5","5","5","5","5","5","5","5","5","5","1","1","1","1","1","1","1","1","1","1","0","1","1","0","0","0","0","0","1","1","0","1","0","1","5","2","1","1","2","5","1","2","1","4","1","598865314549071872","周","540","","","","","","","","","","","","","","","","","","","","","","","","","","","","","","feedback_test","","","","","","","","","","","",""
"590","","j","psychophysics","25","174807","0.0-7.0-0.0-1.0-0.0-0.8","4","4","4","4","4","4","4","4","4","4","5","5","5","5","5","5","5","5","5","5","1","1","1","1","1","1","1","1","1","1","0","1","1","0","0","0","0","0","1","1","0","1","0","1","5","2","1","1","2","5","1","2","1","4","1","598865314549071872","周","540","","","","nonmatch","","","","","","","","","","","","","","key","j","16.651063829787358","768","428","j","true","nonmatch","img/pentagon.png","三角","五边","ALT1_1","prac_ALT1_1","","","","","","","","","","","",""
"null","<span style='color:GreenYellow; font-size: 70px;'>正确! </span>","null","html-keyboard-response","26","175308","0.0-7.0-0.0-1.0-0.0-1.8","4","4","4","4","4","4","4","4","4","4","5","5","5","5","5","5","5","5","5","5","1","1","1","1","1","1","1","1","1","1","0","1","1","0","0","0","0","0","1","1","0","1","0","1","5","2","1","1","2","5","1","2","1","4","1","598865314549071872","周","540","","","","","","","","","","","","","","","","","","","","","","","","","","","","","","feedback_test","","","","","","","","","","","",""
"597","","j","psychophysics","27","176906","0.0-7.0-0.0-1.0-0.0-0.9","4","4","4","4","4","4","4","4","4","4","5","5","5","5","5","5","5","5","5","5","1","1","1","1","1","1","1","1","1","1","0","1","1","0","0","0","0","0","1","1","0","1","0","1","5","2","1","1","2","5","1","2","1","4","1","598865314549071872","周","540","","","","nonmatch","","","","","","","","","","","","","","key","j","16.636170212766142","768","428","j","true","nonmatch","img/circle.png","三角","圆形","ALT1_1","prac_ALT1_1","","","","","","","","","","","",""
"null","<span style='color:GreenYellow; font-size: 70px;'>正确! </span>","null","html-keyboard-response","28","177407","0.0-7.0-0.0-1.0-0.0-1.9","4","4","4","4","4","4","4","4","4","4","5","5","5","5","5","5","5","5","5","5","1","1","1","1","1","1","1","1","1","1","0","1","1","0","0","0","0","0","1","1","0","1","0","1","5","2","1","1","2","5","1","2","1","4","1","598865314549071872","周","540","","","","","","","","","","","","","","","","","","","","","","","","","","","","","","feedback_test","","","","","","","","","","","",""
"599","","f","psychophysics","29","179007","0.0-7.0-0.0-1.0-0.0-0.10","4","4","4","4","4","4","4","4","4","4","5","5","5","5","5","5","5","5","5","5","1","1","1","1","1","1","1","1","1","1","0","1","1","0","0","0","0","0","1","1","0","1","0","1","5","2","1","1","2","5","1","2","1","4","1","598865314549071872","周","540","","","","match","","","","","","","","","","","","","","key","f","16.65368421052638","768","428","f","true","match","img/circle.png","圆形","圆形","ALT1_1","prac_ALT1_1","","","","","","","","","","","",""
"null","<span style='color:GreenYellow; font-size: 70px;'>正确! </span>","null","html-keyboard-response","30","179509","0.0-7.0-0.0-1.0-0.0-1.10","4","4","4","4","4","4","4","4","4","4","5","5","5","5","5","5","5","5","5","5","1","1","1","1","1","1","1","1","1","1","0","1","1","0","0","0","0","0","1","1","0","1","0","1","5","2","1","1","2","5","1","2","1","4","1","598865314549071872","周","540","","","","","","","","","","","","","","","","","","","","","","","","","","","","","","feedback_test","","","","","","","","","","","",""
"571","","j","psychophysics","31","181081","0.0-7.0-0.0-1.0-0.0-0.11","4","4","4","4","4","4","4","4","4","4","5","5","5","5","5","5","5","5","5","5","1","1","1","1","1","1","1","1","1","1","0","1","1","0","0","0","0","0","1","1","0","1","0","1","5","2","1","1","2","5","1","2","1","4","1","598865314549071872","周","540","","","","nonmatch","","","","","","","","","","","","","","key","j","16.651612903225868","768","428","j","true","nonmatch","img/circle.png","方形","圆形","ALT1_1","prac_ALT1_1","","","","","","","","","","","",""
"null","<span style='color:GreenYellow; font-size: 70px;'>正确! </span>","null","html-keyboard-response","32","181582","0.0-7.0-0.0-1.0-0.0-1.11","4","4","4","4","4","4","4","4","4","4","5","5","5","5","5","5","5","5","5","5","1","1","1","1","1","1","1","1","1","1","0","1","1","0","0","0","0","0","1","1","0","1","0","1","5","2","1","1","2","5","1","2","1","4","1","598865314549071872","周","540","","","","","","","","","","","","","","","","","","","","","","","","","","","","","","feedback_test","","","","","","","","","","","",""
"527","","j","psychophysics","33","183111","0.0-7.0-0.0-1.0-0.0-0.12","4","4","4","4","4","4","4","4","4","4","5","5","5","5","5","5","5","5","5","5","1","1","1","1","1","1","1","1","1","1","0","1","1","0","0","0","0","0","1","1","0","1","0","1","5","2","1","1","2","5","1","2","1","4","1","598865314549071872","周","540","","","","nonmatch","","","","","","","","","","","","","","key","j","16.65274725274719","768","428","j","true","nonmatch","img/pentagon.png","方形","五边","ALT1_1","prac_ALT1_1","","","","","","","","","","","",""
"null","<span style='color:GreenYellow; font-size: 70px;'>正确! </span>","null","html-keyboard-response","34","183613","0.0-7.0-0.0-1.0-0.0-1.12","4","4","4","4","4","4","4","4","4","4","5","5","5","5","5","5","5","5","5","5","1","1","1","1","1","1","1","1","1","1","0","1","1","0","0","0","0","0","1","1","0","1","0","1","5","2","1","1","2","5","1","2","1","4","1","598865314549071872","周","540","","","","","","","","","","","","","","","","","","","","","","","","","","","","","","feedback_test","","","","","","","","","","","",""
"531","","j","psychophysics","35","185146","0.0-7.0-0.0-1.0-0.0-0.13","4","4","4","4","4","4","4","4","4","4","5","5","5","5","5","5","5","5","5","5","1","1","1","1","1","1","1","1","1","1","0","1","1","0","0","0","0","0","1","1","0","1","0","1","5","2","1","1","2","5","1","2","1","4","1","598865314549071872","周","540","","","","nonmatch","","","","","","","","","","","","","","key","j","16.65054945054926","768","428","j","true","nonmatch","img/circle.png","五边","圆形","ALT1_1","prac_ALT1_1","","","","","","","","","","","",""
"null","<span style='color:GreenYellow; font-size: 70px;'>正确! </span>","null","html-keyboard-response","36","185648","0.0-7.0-0.0-1.0-0.0-1.13","4","4","4","4","4","4","4","4","4","4","5","5","5","5","5","5","5","5","5","5","1","1","1","1","1","1","1","1","1","1","0","1","1","0","0","0","0","0","1","1","0","1","0","1","5","2","1","1","2","5","1","2","1","4","1","598865314549071872","周","540","","","","","","","","","","","","","","","","","","","","","","","","","","","","","","feedback_test","","","","","","","","","","","",""
"681","","j","psychophysics","37","187331","0.0-7.0-0.0-1.0-0.0-0.14","4","4","4","4","4","4","4","4","4","4","5","5","5","5","5","5","5","5","5","5","1","1","1","1","1","1","1","1","1","1","0","1","1","0","0","0","0","0","1","1","0","1","0","1","5","2","1","1","2","5","1","2","1","4","1","598865314549071872","周","540","","","","nonmatch","","","","","","","","","","","","","","key","j","16.649494949495125","768","428","j","true","nonmatch","img/pentagon.png","圆形","五边","ALT1_1","prac_ALT1_1","","","","","","","","","","","",""
"null","<span style='color:GreenYellow; font-size: 70px;'>正确! </span>","null","html-keyboard-response","38","187832","0.0-7.0-0.0-1.0-0.0-1.14","4","4","4","4","4","4","4","4","4","4","5","5","5","5","5","5","5","5","5","5","1","1","1","1","1","1","1","1","1","1","0","1","1","0","0","0","0","0","1","1","0","1","0","1","5","2","1","1","2","5","1","2","1","4","1","598865314549071872","周","540","","","","","","","","","","","","","","","","","","","","","","","","","","","","","","feedback_test","","","","","","","","","","","",""
"767","","f","psychophysics","39","189600","0.0-7.0-0.0-1.0-0.0-0.15","4","4","4","4","4","4","4","4","4","4","5","5","5","5","5","5","5","5","5","5","1","1","1","1","1","1","1","1","1","1","0","1","1","0","0","0","0","0","1","1","0","1","0","1","5","2","1","1","2","5","1","2","1","4","1","598865314549071872","周","540","","","","match","","","","","","","","","","","","","","key","f","16.649523809523643","768","428","f","true","match","img/square.png","方形","方形","ALT1_1","prac_ALT1_1","","","","","","","","","","","",""
"null","<span style='color:GreenYellow; font-size: 70px;'>正确! </span>","null","html-keyboard-response","40","190101","0.0-7.0-0.0-1.0-0.0-1.15","4","4","4","4","4","4","4","4","4","4","5","5","5","5","5","5","5","5","5","5","1","1","1","1","1","1","1","1","1","1","0","1","1","0","0","0","0","0","1","1","0","1","0","1","5","2","1","1","2","5","1","2","1","4","1","598865314549071872","周","540","","","","","","","","","","","","","","","","","","","","","","","","","","","","","","feedback_test","","","","","","","","","","","",""
"544","","f","psychophysics","41","191645","0.0-7.0-0.0-1.0-0.0-0.16","4","4","4","4","4","4","4","4","4","4","5","5","5","5","5","5","5","5","5","5","1","1","1","1","1","1","1","1","1","1","0","1","1","0","0","0","0","0","1","1","0","1","0","1","5","2","1","1","2","5","1","2","1","4","1","598865314549071872","周","540","","","","match","","","","","","","","","","","","","","key","f","16.649999999999874","768","428","f","true","match","img/triangle.png","三角","三角","ALT1_1","prac_ALT1_1","","","","","","","","","","","",""
"null","<span style='color:GreenYellow; font-size: 70px;'>正确! </span>","null","html-keyboard-response","42","192147","0.0-7.0-0.0-1.0-0.0-1.16","4","4","4","4","4","4","4","4","4","4","5","5","5","5","5","5","5","5","5","5","1","1","1","1","1","1","1","1","1","1","0","1","1","0","0","0","0","0","1","1","0","1","0","1","5","2","1","1","2","5","1","2","1","4","1","598865314549071872","周","540","","","","","","","","","","","","","","","","","","","","","","","","","","","","","","feedback_test","","","","","","","","","","","",""
"672","","f","psychophysics","43","193821","0.0-7.0-0.0-1.0-0.0-0.17","4","4","4","4","4","4","4","4","4","4","5","5","5","5","5","5","5","5","5","5","1","1","1","1","1","1","1","1","1","1","0","1","1","0","0","0","0","0","1","1","0","1","0","1","5","2","1","1","2","5","1","2","1","4","1","598865314549071872","周","540","","","","match","","","","","","","","","","","","","","key","f","16.65454545454563","768","428","f","true","match","img/pentagon.png","五边","五边","ALT1_1","prac_ALT1_1","","","","","","","","","","","",""
"null","<span style='color:GreenYellow; font-size: 70px;'>正确! </span>","null","html-keyboard-response","44","194321","0.0-7.0-0.0-1.0-0.0-1.17","4","4","4","4","4","4","4","4","4","4","5","5","5","5","5","5","5","5","5","5","1","1","1","1","1","1","1","1","1","1","0","1","1","0","0","0","0","0","1","1","0","1","0","1","5","2","1","1","2","5","1","2","1","4","1","598865314549071872","周","540","","","","","","","","","","","","","","","","","","","","","","","","","","","","","","feedback_test","","","","","","","","","","","",""
"567","","j","psychophysics","45","195889","0.0-7.0-0.0-1.0-0.0-0.18","4","4","4","4","4","4","4","4","4","4","5","5","5","5","5","5","5","5","5","5","1","1","1","1","1","1","1","1","1","1","0","1","1","0","0","0","0","0","1","1","0","1","0","1","5","2","1","1","2","5","1","2","1","4","1","598865314549071872","周","540","","","","nonmatch","","","","","","","","","","","","","","key","j","16.652688172043135","768","428","j","true","nonmatch","img/triangle.png","圆形","三角","ALT1_1","prac_ALT1_1","","","","","","","","","","","",""
"null","<span style='color:GreenYellow; font-size: 70px;'>正确! </span>","null","html-keyboard-response","46","196391","0.0-7.0-0.0-1.0-0.0-1.18","4","4","4","4","4","4","4","4","4","4","5","5","5","5","5","5","5","5","5","5","1","1","1","1","1","1","1","1","1","1","0","1","1","0","0","0","0","0","1","1","0","1","0","1","5","2","1","1","2","5","1","2","1","4","1","598865314549071872","周","540","","","","","","","","","","","","","","","","","","","","","","","","","","","","","","feedback_test","","","","","","","","","","","",""
"567","","f","psychophysics","47","197959","0.0-7.0-0.0-1.0-0.0-0.19","4","4","4","4","4","4","4","4","4","4","5","5","5","5","5","5","5","5","5","5","1","1","1","1","1","1","1","1","1","1","0","1","1","0","0","0","0","0","1","1","0","1","0","1","5","2","1","1","2","5","1","2","1","4","1","598865314549071872","周","540","","","","match","","","","","","","","","","","","","","key","f","16.653763440860402","768","428","f","true","match","img/circle.png","圆形","圆形","ALT1_1","prac_ALT1_1","","","","","","","","","","","",""
"null","<span style='color:GreenYellow; font-size: 70px;'>正确! </span>","null","html-keyboard-response","48","198460","0.0-7.0-0.0-1.0-0.0-1.19","4","4","4","4","4","4","4","4","4","4","5","5","5","5","5","5","5","5","5","5","1","1","1","1","1","1","1","1","1","1","0","1","1","0","0","0","0","0","1","1","0","1","0","1","5","2","1","1","2","5","1","2","1","4","1","598865314549071872","周","540","","","","","","","","","","","","","","","","","","","","","","","","","","","","","","feedback_test","","","","","","","","","","","",""
"677","","f","psychophysics","49","200139","0.0-7.0-0.0-1.0-0.0-0.20","4","4","4","4","4","4","4","4","4","4","5","5","5","5","5","5","5","5","5","5","1","1","1","1","1","1","1","1","1","1","0","1","1","0","0","0","0","0","1","1","0","1","0","1","5","2","1","1","2","5","1","2","1","4","1","598865314549071872","周","540","","","","match","","","","","","","","","","","","","","key","f","16.65","768","428","f","true","match","img/square.png","方形","方形","ALT1_1","prac_ALT1_1","","","","","","","","","","","",""
"null","<span style='color:GreenYellow; font-size: 70px;'>正确! </span>","null","html-keyboard-response","50","200640","0.0-7.0-0.0-1.0-0.0-1.20","4","4","4","4","4","4","4","4","4","4","5","5","5","5","5","5","5","5","5","5","1","1","1","1","1","1","1","1","1","1","0","1","1","0","0","0","0","0","1","1","0","1","0","1","5","2","1","1","2","5","1","2","1","4","1","598865314549071872","周","540","","","","","","","","","","","","","","","","","","","","","","","","","","","","","","feedback_test","","","","","","","","","","","",""
"453","","f","psychophysics","51","202093","0.0-7.0-0.0-1.0-0.0-0.21","4","4","4","4","4","4","4","4","4","4","5","5","5","5","5","5","5","5","5","5","1","1","1","1","1","1","1","1","1","1","0","1","1","0","0","0","0","0","1","1","0","1","0","1","5","2","1","1","2","5","1","2","1","4","1","598865314549071872","周","540","","","","match","","","","","","","","","","","","","","key","f","16.6453488372093","768","428","f","true","match","img/pentagon.png","五边","五边","ALT1_1","prac_ALT1_1","","","","","","","","","","","",""
"null","<span style='color:GreenYellow; font-size: 70px;'>正确! </span>","null","html-keyboard-response","52","202594","0.0-7.0-0.0-1.0-0.0-1.21","4","4","4","4","4","4","4","4","4","4","5","5","5","5","5","5","5","5","5","5","1","1","1","1","1","1","1","1","1","1","0","1","1","0","0","0","0","0","1","1","0","1","0","1","5","2","1","1","2","5","1","2","1","4","1","598865314549071872","周","540","","","","","","","","","","","","","","","","","","","","","","","","","","","","","","feedback_test","","","","","","","","","","","",""
"569","","f","psychophysics","53","204165","0.0-7.0-0.0-1.0-0.0-0.22","4","4","4","4","4","4","4","4","4","4","5","5","5","5","5","5","5","5","5","5","1","1","1","1","1","1","1","1","1","1","0","1","1","0","0","0","0","0","1","1","0","1","0","1","5","2","1","1","2","5","1","2","1","4","1","598865314549071872","周","540","","","","match","","","","","","","","","","","","","","key","f","16.655913978494624","768","428","j","false","nonmatch","img/triangle.png","方形","三角","ALT1_1","prac_ALT1_1","","","","","","","","","","","",""
"null","<span style='color:red; font-size: 70px;'>错误! </span>","null","html-keyboard-response","54","204666","0.0-7.0-0.0-1.0-0.0-1.22","4","4","4","4","4","4","4","4","4","4","5","5","5","5","5","5","5","5","5","5","1","1","1","1","1","1","1","1","1","1","0","1","1","0","0","0","0","0","1","1","0","1","0","1","5","2","1","1","2","5","1","2","1","4","1","598865314549071872","周","540","","","","","","","","","","","","","","","","","","","","","","","","","","","","","","feedback_test","","","","","","","","","","","",""
"601","","f","psychophysics","55","206268","0.0-7.0-0.0-1.0-0.0-0.23","4","4","4","4","4","4","4","4","4","4","5","5","5","5","5","5","5","5","5","5","1","1","1","1","1","1","1","1","1","1","0","1","1","0","0","0","0","0","1","1","0","1","0","1","5","2","1","1","2","5","1","2","1","4","1","598865314549071872","周","540","","","","match","","","","","","","","","","","","","","key","f","16.655789473684393","768","428","f","true","match","img/circle.png","圆形","圆形","ALT1_1","prac_ALT1_1","","","","","","","","","","","",""
"null","<span style='color:GreenYellow; font-size: 70px;'>正确! </span>","null","html-keyboard-response","56","206770","0.0-7.0-0.0-1.0-0.0-1.23","4","4","4","4","4","4","4","4","4","4","5","5","5","5","5","5","5","5","5","5","1","1","1","1","1","1","1","1","1","1","0","1","1","0","0","0","0","0","1","1","0","1","0","1","5","2","1","1","2","5","1","2","1","4","1","598865314549071872","周","540","","","","","","","","","","","","","","","","","","","","","","","","","","","","","","feedback_test","","","","","","","","","","","",""
"563","","j","psychophysics","57","208333","0.0-7.0-0.0-1.0-0.0-0.24","4","4","4","4","4","4","4","4","4","4","5","5","5","5","5","5","5","5","5","5","1","1","1","1","1","1","1","1","1","1","0","1","1","0","0","0","0","0","1","1","0","1","0","1","5","2","1","1","2","5","1","2","1","4","1","598865314549071872","周","540","","","","nonmatch","","","","","","","","","","","","","","key","j","16.647311827957115","768","428","j","true","nonmatch","img/triangle.png","方形","三角","ALT1_1","prac_ALT1_1","","","","","","","","","","","",""
"null","<span style='color:GreenYellow; font-size: 70px;'>正确! </span>","null","html-keyboard-response","58","208834","0.0-7.0-0.0-1.0-0.0-1.24","4","4","4","4","4","4","4","4","4","4","5","5","5","5","5","5","5","5","5","5","1","1","1","1","1","1","1","1","1","1","0","1","1","0","0","0","0","0","1","1","0","1","0","1","5","2","1","1","2","5","1","2","1","4","1","598865314549071872","周","540","","","","","","","","","","","","","","","","","","","","","","","","","","","","","","feedback_test","","","","","","","","","","","",""
"632","","f","psychophysics","59","210468","0.0-7.0-0.0-1.0-0.0-0.25","4","4","4","4","4","4","4","4","4","4","5","5","5","5","5","5","5","5","5","5","1","1","1","1","1","1","1","1","1","1","0","1","1","0","0","0","0","0","1","1","0","1","0","1","5","2","1","1","2","5","1","2","1","4","1","598865314549071872","周","540","","","","match","","","","","","","","","","","","","","key","f","16.650515463917287","768","428","f","true","match","img/square.png","方形","方形","ALT1_1","prac_ALT1_1","","","","","","","","","","","",""
"null","<span style='color:GreenYellow; font-size: 70px;'>正确! </span>","null","html-keyboard-response","60","210968","0.0-7.0-0.0-1.0-0.0-1.25","4","4","4","4","4","4","4","4","4","4","5","5","5","5","5","5","5","5","5","5","1","1","1","1","1","1","1","1","1","1","0","1","1","0","0","0","0","0","1","1","0","1","0","1","5","2","1","1","2","5","1","2","1","4","1","598865314549071872","周","540","","","","","","","","","","","","","","","","","","","","","","","","","","","","","","feedback_test","","","","","","","","","","","",""
"547","","j","psychophysics","61","212517","0.0-7.0-0.0-1.0-0.0-0.26","4","4","4","4","4","4","4","4","4","4","5","5","5","5","5","5","5","5","5","5","1","1","1","1","1","1","1","1","1","1","0","1","1","0","0","0","0","0","1","1","0","1","0","1","5","2","1","1","2","5","1","2","1","4","1","598865314549071872","周","540","","","","nonmatch","","","","","","","","","","","","","","key","j","16.647826086956584","768","428","j","true","nonmatch","img/triangle.png","五边","三角","ALT1_1","prac_ALT1_1","","","","","","","","","","","",""
"null","<span style='color:GreenYellow; font-size: 70px;'>正确! </span>","null","html-keyboard-response","62","213019","0.0-7.0-0.0-1.0-0.0-1.26","4","4","4","4","4","4","4","4","4","4","5","5","5","5","5","5","5","5","5","5","1","1","1","1","1","1","1","1","1","1","0","1","1","0","0","0","0","0","1","1","0","1","0","1","5","2","1","1","2","5","1","2","1","4","1","598865314549071872","周","540","","","","","","","","","","","","","","","","","","","","","","","","","","","","","","feedback_test","","","","","","","","","","","",""
"751","","j","psychophysics","63","214771","0.0-7.0-0.0-1.0-0.0-0.27","4","4","4","4","4","4","4","4","4","4","5","5","5","5","5","5","5","5","5","5","1","1","1","1","1","1","1","1","1","1","0","1","1","0","0","0","0","0","1","1","0","1","0","1","5","2","1","1","2","5","1","2","1","4","1","598865314549071872","周","540","","","","nonmatch","","","","","","","","","","","","","","key","j","16.653846153846153","768","428","f","false","match","img/pentagon.png","五边","五边","ALT1_1","prac_ALT1_1","","","","","","","","","","","",""
"null","<span style='color:red; font-size: 70px;'>错误! </span>","null","html-keyboard-response","64","215273","0.0-7.0-0.0-1.0-0.0-1.27","4","4","4","4","4","4","4","4","4","4","5","5","5","5","5","5","5","5","5","5","1","1","1","1","1","1","1","1","1","1","0","1","1","0","0","0","0","0","1","1","0","1","0","1","5","2","1","1","2","5","1","2","1","4","1","598865314549071872","周","540","","","","","","","","","","","","","","","","","","","","","","","","","","","","","","feedback_test","","","","","","","","","","","",""
"748","","f","psychophysics","65","217022","0.0-7.0-0.0-1.0-0.0-0.28","4","4","4","4","4","4","4","4","4","4","5","5","5","5","5","5","5","5","5","5","1","1","1","1","1","1","1","1","1","1","0","1","1","0","0","0","0","0","1","1","0","1","0","1","5","2","1","1","2","5","1","2","1","4","1","598865314549071872","周","540","","","","match","","","","","","","","","","","","","","key","f","16.648076923076868","768","428","f","true","match","img/pentagon.png","五边","五边","ALT1_1","prac_ALT1_1","","","","","","","","","","","",""
"null","<span style='color:GreenYellow; font-size: 70px;'>正确! </span>","null","html-keyboard-response","66","217523","0.0-7.0-0.0-1.0-0.0-1.28","4","4","4","4","4","4","4","4","4","4","5","5","5","5","5","5","5","5","5","5","1","1","1","1","1","1","1","1","1","1","0","1","1","0","0","0","0","0","1","1","0","1","0","1","5","2","1","1","2","5","1","2","1","4","1","598865314549071872","周","540","","","","","","","","","","","","","","","","","","","","","","","","","","","","","","feedback_test","","","","","","","","","","","",""
"951","","j","psychophysics","67","219475","0.0-7.0-0.0-1.0-0.0-0.29","4","4","4","4","4","4","4","4","4","4","5","5","5","5","5","5","5","5","5","5","1","1","1","1","1","1","1","1","1","1","0","1","1","0","0","0","0","0","1","1","0","1","0","1","5","2","1","1","2","5","1","2","1","4","1","598865314549071872","周","540","","","","nonmatch","","","","","","","","","","","","","","key","j","16.65344827586197","768","428","j","true","nonmatch","img/square.png","五边","方形","ALT1_1","prac_ALT1_1","","","","","","","","","","","",""
"null","<span style='color:GreenYellow; font-size: 70px;'>正确! </span>","null","html-keyboard-response","68","219976","0.0-7.0-0.0-1.0-0.0-1.29","4","4","4","4","4","4","4","4","4","4","5","5","5","5","5","5","5","5","5","5","1","1","1","1","1","1","1","1","1","1","0","1","1","0","0","0","0","0","1","1","0","1","0","1","5","2","1","1","2","5","1","2","1","4","1","598865314549071872","周","540","","","","","","","","","","","","","","","","","","","","","","","","","","","","","","feedback_test","","","","","","","","","","","",""
"597","","f","psychophysics","69","221574","0.0-7.0-0.0-1.0-0.0-0.30","4","4","4","4","4","4","4","4","4","4","5","5","5","5","5","5","5","5","5","5","1","1","1","1","1","1","1","1","1","1","0","1","1","0","0","0","0","0","1","1","0","1","0","1","5","2","1","1","2","5","1","2","1","4","1","598865314549071872","周","540","","","","match","","","","","","","","","","","","","","key","f","16.647368421052633","768","428","f","true","match","img/circle.png","圆形","圆形","ALT1_1","prac_ALT1_1","","","","","","","","","","","",""
"null","<span style='color:GreenYellow; font-size: 70px;'>正确! </span>","null","html-keyboard-response","70","222075","0.0-7.0-0.0-1.0-0.0-1.30","4","4","4","4","4","4","4","4","4","4","5","5","5","5","5","5","5","5","5","5","1","1","1","1","1","1","1","1","1","1","0","1","1","0","0","0","0","0","1","1","0","1","0","1","5","2","1","1","2","5","1","2","1","4","1","598865314549071872","周","540","","","","","","","","","","","","","","","","","","","","","","","","","","","","","","feedback_test","","","","","","","","","","","",""
"618","","f","psychophysics","71","223695","0.0-7.0-0.0-1.0-0.0-0.31","4","4","4","4","4","4","4","4","4","4","5","5","5","5","5","5","5","5","5","5","1","1","1","1","1","1","1","1","1","1","0","1","1","0","0","0","0","0","1","1","0","1","0","1","5","2","1","1","2","5","1","2","1","4","1","598865314549071872","周","540","","","","match","","","","","","","","","","","","","","key","f","16.655208333333576","768","428","f","true","match","img/circle.png","圆形","圆形","ALT1_1","prac_ALT1_1","","","","","","","","","","","",""
"null","<span style='color:GreenYellow; font-size: 70px;'>正确! </span>","null","html-keyboard-response","72","224196","0.0-7.0-0.0-1.0-0.0-1.31","4","4","4","4","4","4","4","4","4","4","5","5","5","5","5","5","5","5","5","5","1","1","1","1","1","1","1","1","1","1","0","1","1","0","0","0","0","0","1","1","0","1","0","1","5","2","1","1","2","5","1","2","1","4","1","598865314549071872","周","540","","","","","","","","","","","","","","","","","","","","","","","","","","","","","","feedback_test","","","","","","","","","","","",""
"638","","j","psychophysics","73","225834","0.0-7.0-0.0-1.0-0.0-0.32","4","4","4","4","4","4","4","4","4","4","5","5","5","5","5","5","5","5","5","5","1","1","1","1","1","1","1","1","1","1","0","1","1","0","0","0","0","0","1","1","0","1","0","1","5","2","1","1","2","5","1","2","1","4","1","598865314549071872","周","540","","","","nonmatch","","","","","","","","","","","","","","key","j","16.652577319587508","768","428","j","true","nonmatch","img/circle.png","五边","圆形","ALT1_1","prac_ALT1_1","","","","","","","","","","","",""
"null","<span style='color:GreenYellow; font-size: 70px;'>正确! </span>","null","html-keyboard-response","74","226335","0.0-7.0-0.0-1.0-0.0-1.32","4","4","4","4","4","4","4","4","4","4","5","5","5","5","5","5","5","5","5","5","1","1","1","1","1","1","1","1","1","1","0","1","1","0","0","0","0","0","1","1","0","1","0","1","5","2","1","1","2","5","1","2","1","4","1","598865314549071872","周","540","","","","","","","","","","","","","","","","","","","","","","","","","","","","","","feedback_test","","","","","","","","","","","",""
"609","","f","psychophysics","75","227946","0.0-7.0-0.0-1.0-0.0-0.33","4","4","4","4","4","4","4","4","4","4","5","5","5","5","5","5","5","5","5","5","1","1","1","1","1","1","1","1","1","1","0","1","1","0","0","0","0","0","1","1","0","1","0","1","5","2","1","1","2","5","1","2","1","4","1","598865314549071872","周","540","","","","match","","","","","","","","","","","","","","key","f","16.652083333333394","768","428","f","true","match","img/pentagon.png","五边","五边","ALT1_1","prac_ALT1_1","","","","","","","","","","","",""
"null","<span style='color:GreenYellow; font-size: 70px;'>正确! </span>","null","html-keyboard-response","76","228448","0.0-7.0-0.0-1.0-0.0-1.33","4","4","4","4","4","4","4","4","4","4","5","5","5","5","5","5","5","5","5","5","1","1","1","1","1","1","1","1","1","1","0","1","1","0","0","0","0","0","1","1","0","1","0","1","5","2","1","1","2","5","1","2","1","4","1","598865314549071872","周","540","","","","","","","","","","","","","","","","","","","","","","","","","","","","","","feedback_test","","","","","","","","","","","",""
"629","","j","psychophysics","77","230079","0.0-7.0-0.0-1.0-0.0-0.34","4","4","4","4","4","4","4","4","4","4","5","5","5","5","5","5","5","5","5","5","1","1","1","1","1","1","1","1","1","1","0","1","1","0","0","0","0","0","1","1","0","1","0","1","5","2","1","1","2","5","1","2","1","4","1","598865314549071872","周","540","","","","nonmatch","","","","","","","","","","","","","","key","j","16.649484536082475","768","428","j","true","nonmatch","img/square.png","三角","方形","ALT1_1","prac_ALT1_1","","","","","","","","","","","",""
"null","<span style='color:GreenYellow; font-size: 70px;'>正确! </span>","null","html-keyboard-response","78","230579","0.0-7.0-0.0-1.0-0.0-1.34","4","4","4","4","4","4","4","4","4","4","5","5","5","5","5","5","5","5","5","5","1","1","1","1","1","1","1","1","1","1","0","1","1","0","0","0","0","0","1","1","0","1","0","1","5","2","1","1","2","5","1","2","1","4","1","598865314549071872","周","540","","","","","","","","","","","","","","","","","","","","","","","","","","","","","","feedback_test","","","","","","","","","","","",""
"552","","f","psychophysics","79","232133","0.0-7.0-0.0-1.0-0.0-0.35","4","4","4","4","4","4","4","4","4","4","5","5","5","5","5","5","5","5","5","5","1","1","1","1","1","1","1","1","1","1","0","1","1","0","0","0","0","0","1","1","0","1","0","1","5","2","1","1","2","5","1","2","1","4","1","598865314549071872","周","540","","","","match","","","","","","","","","","","","","","key","f","16.651086956521677","768","428","f","true","match","img/triangle.png","三角","三角","ALT1_1","prac_ALT1_1","","","","","","","","","","","",""
"null","<span style='color:GreenYellow; font-size: 70px;'>正确! </span>","null","html-keyboard-response","80","232634","0.0-7.0-0.0-1.0-0.0-1.35","4","4","4","4","4","4","4","4","4","4","5","5","5","5","5","5","5","5","5","5","1","1","1","1","1","1","1","1","1","1","0","1","1","0","0","0","0","0","1","1","0","1","0","1","5","2","1","1","2","5","1","2","1","4","1","598865314549071872","周","540","","","","","","","","","","","","","","","","","","","","","","","","","","","","","","feedback_test","","","","","","","","","","","",""
"498","","j","psychophysics","81","234134","0.0-7.0-0.0-1.0-0.0-0.36","4","4","4","4","4","4","4","4","4","4","5","5","5","5","5","5","5","5","5","5","1","1","1","1","1","1","1","1","1","1","0","1","1","0","0","0","0","0","1","1","0","1","0","1","5","2","1","1","2","5","1","2","1","4","1","598865314549071872","周","540","","","","nonmatch","","","","","","","","","","","","","","key","j","16.65280898876411","768","428","j","true","nonmatch","img/circle.png","方形","圆形","ALT1_1","prac_ALT1_1","","","","","","","","","","","",""
"null","<span style='color:GreenYellow; font-size: 70px;'>正确! </span>","null","html-keyboard-response","82","234635","0.0-7.0-0.0-1.0-0.0-1.36","4","4","4","4","4","4","4","4","4","4","5","5","5","5","5","5","5","5","5","5","1","1","1","1","1","1","1","1","1","1","0","1","1","0","0","0","0","0","1","1","0","1","0","1","5","2","1","1","2","5","1","2","1","4","1","598865314549071872","周","540","","","","","","","","","","","","","","","","","","","","","","","","","","","","","","feedback_test","","","","","","","","","","","",""
"533","","j","psychophysics","83","236169","0.0-7.0-0.0-1.0-0.0-0.37","4","4","4","4","4","4","4","4","4","4","5","5","5","5","5","5","5","5","5","5","1","1","1","1","1","1","1","1","1","1","0","1","1","0","0","0","0","0","1","1","0","1","0","1","5","2","1","1","2","5","1","2","1","4","1","598865314549071872","周","540","","","","nonmatch","","","","","","","","","","","","","","key","j","16.651111111111177","768","428","j","true","nonmatch","img/pentagon.png","三角","五边","ALT1_1","prac_ALT1_1","","","","","","","","","","","",""
"null","<span style='color:GreenYellow; font-size: 70px;'>正确! </span>","null","html-keyboard-response","84","236669","0.0-7.0-0.0-1.0-0.0-1.37","4","4","4","4","4","4","4","4","4","4","5","5","5","5","5","5","5","5","5","5","1","1","1","1","1","1","1","1","1","1","0","1","1","0","0","0","0","0","1","1","0","1","0","1","5","2","1","1","2","5","1","2","1","4","1","598865314549071872","周","540","","","","","","","","","","","","","","","","","","","","","","","","","","","","","","feedback_test","","","","","","","","","","","",""
"641","","f","psychophysics","85","238313","0.0-7.0-0.0-1.0-0.0-0.38","4","4","4","4","4","4","4","4","4","4","5","5","5","5","5","5","5","5","5","5","1","1","1","1","1","1","1","1","1","1","0","1","1","0","0","0","0","0","1","1","0","1","0","1","5","2","1","1","2","5","1","2","1","4","1","598865314549071872","周","540","","","","match","","","","","","","","","","","","","","key","f","16.652577319587508","768","428","f","true","match","img/square.png","方形","方形","ALT1_1","prac_ALT1_1","","","","","","","","","","","",""
"null","<span style='color:GreenYellow; font-size: 70px;'>正确! </span>","null","html-keyboard-response","86","238815","0.0-7.0-0.0-1.0-0.0-1.38","4","4","4","4","4","4","4","4","4","4","5","5","5","5","5","5","5","5","5","5","1","1","1","1","1","1","1","1","1","1","0","1","1","0","0","0","0","0","1","1","0","1","0","1","5","2","1","1","2","5","1","2","1","4","1","598865314549071872","周","540","","","","","","","","","","","","","","","","","","","","","","","","","","","","","","feedback_test","","","","","","","","","","","",""
"612","","f","psychophysics","87","240427","0.0-7.0-0.0-1.0-0.0-0.39","4","4","4","4","4","4","4","4","4","4","5","5","5","5","5","5","5","5","5","5","1","1","1","1","1","1","1","1","1","1","0","1","1","0","0","0","0","0","1","1","0","1","0","1","5","2","1","1","2","5","1","2","1","4","1","598865314549071872","周","540","","","","match","","","","","","","","","","","","","","key","f","16.651041666666668","768","428","f","true","match","img/triangle.png","三角","三角","ALT1_1","prac_ALT1_1","","","","","","","","","","","",""
"null","<span style='color:GreenYellow; font-size: 70px;'>正确! </span>","null","html-keyboard-response","88","240928","0.0-7.0-0.0-1.0-0.0-1.39","4","4","4","4","4","4","4","4","4","4","5","5","5","5","5","5","5","5","5","5","1","1","1","1","1","1","1","1","1","1","0","1","1","0","0","0","0","0","1","1","0","1","0","1","5","2","1","1","2","5","1","2","1","4","1","598865314549071872","周","540","","","","","","","","","","","","","","","","","","","","","","","","","","","","","","feedback_test","","","","","","","","","","","",""
"509","","j","psychophysics","89","242437","0.0-7.0-0.0-1.0-0.0-0.40","4","4","4","4","4","4","4","4","4","4","5","5","5","5","5","5","5","5","5","5","1","1","1","1","1","1","1","1","1","1","0","1","1","0","0","0","0","0","1","1","0","1","0","1","5","2","1","1","2","5","1","2","1","4","1","598865314549071872","周","540","","","","nonmatch","","","","","","","","","","","","","","key","j","16.652222222222353","768","428","j","true","nonmatch","img/triangle.png","圆形","三角","ALT1_1","prac_ALT1_1","","","","","","","","","","","",""
"null","<span style='color:GreenYellow; font-size: 70px;'>正确! </span>","null","html-keyboard-response","90","242938","0.0-7.0-0.0-1.0-0.0-1.40","4","4","4","4","4","4","4","4","4","4","5","5","5","5","5","5","5","5","5","5","1","1","1","1","1","1","1","1","1","1","0","1","1","0","0","0","0","0","1","1","0","1","0","1","5","2","1","1","2","5","1","2","1","4","1","598865314549071872","周","540","","","","","","","","","","","","","","","","","","","","","","","","","","","","","","feedback_test","","","","","","","","","","","",""
"577","","j","psychophysics","91","244517","0.0-7.0-0.0-1.0-0.0-0.41","4","4","4","4","4","4","4","4","4","4","5","5","5","5","5","5","5","5","5","5","1","1","1","1","1","1","1","1","1","1","0","1","1","0","0","0","0","0","1","1","0","1","0","1","5","2","1","1","2","5","1","2","1","4","1","598865314549071872","周","540","","","","nonmatch","","","","","","","","","","","","","","key","j","16.65319148936164","768","428","j","true","nonmatch","img/square.png","圆形","方形","ALT1_1","prac_ALT1_1","","","","","","","","","","","",""
"null","<span style='color:GreenYellow; font-size: 70px;'>正确! </span>","null","html-keyboard-response","92","245018","0.0-7.0-0.0-1.0-0.0-1.41","4","4","4","4","4","4","4","4","4","4","5","5","5","5","5","5","5","5","5","5","1","1","1","1","1","1","1","1","1","1","0","1","1","0","0","0","0","0","1","1","0","1","0","1","5","2","1","1","2","5","1","2","1","4","1","598865314549071872","周","540","","","","","","","","","","","","","","","","","","","","","","","","","","","","","","feedback_test","","","","","","","","","","","",""
"528","","j","psychophysics","93","246547","0.0-7.0-0.0-1.0-0.0-0.42","4","4","4","4","4","4","4","4","4","4","5","5","5","5","5","5","5","5","5","5","1","1","1","1","1","1","1","1","1","1","0","1","1","0","0","0","0","0","1","1","0","1","0","1","5","2","1","1","2","5","1","2","1","4","1","598865314549071872","周","540","","","","nonmatch","","","","","","","","","","","","","","key","j","16.65054945054926","768","428","j","true","nonmatch","img/pentagon.png","方形","五边","ALT1_1","prac_ALT1_1","","","","","","","","","","","",""
"null","<span style='color:GreenYellow; font-size: 70px;'>正确! </span>","null","html-keyboard-response","94","247047","0.0-7.0-0.0-1.0-0.0-1.42","4","4","4","4","4","4","4","4","4","4","5","5","5","5","5","5","5","5","5","5","1","1","1","1","1","1","1","1","1","1","0","1","1","0","0","0","0","0","1","1","0","1","0","1","5","2","1","1","2","5","1","2","1","4","1","598865314549071872","周","540","","","","","","","","","","","","","","","","","","","","","","","","","","","","","","feedback_test","","","","","","","","","","","",""
"544","","f","psychophysics","95","248592","0.0-7.0-0.0-1.0-0.0-0.43","4","4","4","4","4","4","4","4","4","4","5","5","5","5","5","5","5","5","5","5","1","1","1","1","1","1","1","1","1","1","0","1","1","0","0","0","0","0","1","1","0","1","0","1","5","2","1","1","2","5","1","2","1","4","1","598865314549071872","周","540","","","","match","","","","","","","","","","","","","","key","f","16.647826086956584","768","428","f","true","match","img/square.png","方形","方形","ALT1_1","prac_ALT1_1","","","","","","","","","","","",""
"null","<span style='color:GreenYellow; font-size: 70px;'>正确! </span>","null","html-keyboard-response","96","249093","0.0-7.0-0.0-1.0-0.0-1.43","4","4","4","4","4","4","4","4","4","4","5","5","5","5","5","5","5","5","5","5","1","1","1","1","1","1","1","1","1","1","0","1","1","0","0","0","0","0","1","1","0","1","0","1","5","2","1","1","2","5","1","2","1","4","1","598865314549071872","周","540","","","","","","","","","","","","","","","","","","","","","","","","","","","","","","feedback_test","","","","","","","","","","","",""
"526","","f","psychophysics","97","250622","0.0-7.0-0.0-1.0-0.0-0.44","4","4","4","4","4","4","4","4","4","4","5","5","5","5","5","5","5","5","5","5","1","1","1","1","1","1","1","1","1","1","0","1","1","0","0","0","0","0","1","1","0","1","0","1","5","2","1","1","2","5","1","2","1","4","1","598865314549071872","周","540","","","","match","","","","","","","","","","","","","","key","f","16.652222222222353","768","428","f","true","match","img/triangle.png","三角","三角","ALT1_1","prac_ALT1_1","","","","","","","","","","","",""
"null","<span style='color:GreenYellow; font-size: 70px;'>正确! </span>","null","html-keyboard-response","98","251124","0.0-7.0-0.0-1.0-0.0-1.44","4","4","4","4","4","4","4","4","4","4","5","5","5","5","5","5","5","5","5","5","1","1","1","1","1","1","1","1","1","1","0","1","1","0","0","0","0","0","1","1","0","1","0","1","5","2","1","1","2","5","1","2","1","4","1","598865314549071872","周","540","","","","","","","","","","","","","","","","","","","","","","","","","","","","","","feedback_test","","","","","","","","","","","",""
"486","","j","psychophysics","99","252612","0.0-7.0-0.0-1.0-0.0-0.45","4","4","4","4","4","4","4","4","4","4","5","5","5","5","5","5","5","5","5","5","1","1","1","1","1","1","1","1","1","1","0","1","1","0","0","0","0","0","1","1","0","1","0","1","5","2","1","1","2","5","1","2","1","4","1","598865314549071872","周","540","","","","nonmatch","","","","","","","","","","","","","","key","j","16.65113636363623","768","428","j","true","nonmatch","img/circle.png","三角","圆形","ALT1_1","prac_ALT1_1","","","","","","","","","","","",""
"null","<span style='color:GreenYellow; font-size: 70px;'>正确! </span>","null","html-keyboard-response","100","253112","0.0-7.0-0.0-1.0-0.0-1.45","4","4","4","4","4","4","4","4","4","4","5","5","5","5","5","5","5","5","5","5","1","1","1","1","1","1","1","1","1","1","0","1","1","0","0","0","0","0","1","1","0","1","0","1","5","2","1","1","2","5","1","2","1","4","1","598865314549071872","周","540","","","","","","","","","","","","","","","","","","","","","","","","","","","","","","feedback_test","","","","","","","","","","","",""
"736","","j","psychophysics","101","254851","0.0-7.0-0.0-1.0-0.0-0.46","4","4","4","4","4","4","4","4","4","4","5","5","5","5","5","5","5","5","5","5","1","1","1","1","1","1","1","1","1","1","0","1","1","0","0","0","0","0","1","1","0","1","0","1","5","2","1","1","2","5","1","2","1","4","1","598865314549071872","周","540","","","","nonmatch","","","","","","","","","","","","","","key","j","16.656310679611707","768","428","j","true","nonmatch","img/pentagon.png","圆形","五边","ALT1_1","prac_ALT1_1","","","","","","","","","","","",""
"null","<span style='color:GreenYellow; font-size: 70px;'>正确! </span>","null","html-keyboard-response","102","255352","0.0-7.0-0.0-1.0-0.0-1.46","4","4","4","4","4","4","4","4","4","4","5","5","5","5","5","5","5","5","5","5","1","1","1","1","1","1","1","1","1","1","0","1","1","0","0","0","0","0","1","1","0","1","0","1","5","2","1","1","2","5","1","2","1","4","1","598865314549071872","周","540","","","","","","","","","","","","","","","","","","","","","","","","","","","","","","feedback_test","","","","","","","","","","","",""
"637","","f","psychophysics","103","256991","0.0-7.0-0.0-1.0-0.0-0.47","4","4","4","4","4","4","4","4","4","4","5","5","5","5","5","5","5","5","5","5","1","1","1","1","1","1","1","1","1","1","0","1","1","0","0","0","0","0","1","1","0","1","0","1","5","2","1","1","2","5","1","2","1","4","1","598865314549071872","周","540","","","","match","","","","","","","","","","","","","","key","f","16.651546391752397","768","428","f","true","match","img/circle.png","圆形","圆形","ALT1_1","prac_ALT1_1","","","","","","","","","","","",""
"null","<span style='color:GreenYellow; font-size: 70px;'>正确! </span>","null","html-keyboard-response","104","257492","0.0-7.0-0.0-1.0-0.0-1.47","4","4","4","4","4","4","4","4","4","4","5","5","5","5","5","5","5","5","5","5","1","1","1","1","1","1","1","1","1","1","0","1","1","0","0","0","0","0","1","1","0","1","0","1","5","2","1","1","2","5","1","2","1","4","1","598865314549071872","周","540","","","","","","","","","","","","","","","","","","","","","","","","","","","","","","feedback_test","","","","","","","","","","","",""
"1194","<style>.context{color:white; font-size: 35px; line-height:40px}</style>                            <div><p class='context'>您正确回答了96% 的试次。</p><p class='context'>您的平均反应时为607毫秒。</p><p class='context'>恭喜您完成练习。按空格键进入正式实验。</p><p class='footer' style='font-size: 35px; line-height:40px;'>请在进入正式实验之前将您的<span style='color: lightgreen;'>食指</span>放在电脑键盘的相应键位上进行按键。</p>"," ","html-keyboard-response","105","258687","0.0-7.0-0.0-2.0","4","4","4","4","4","4","4","4","4","4","5","5","5","5","5","5","5","5","5","5","1","1","1","1","1","1","1","1","1","1","0","1","1","0","0","0","0","0","1","1","0","1","0","1","5","2","1","1","2","5","1","2","1","4","1","598865314549071872","周","540","","","","","","","","","","","","","","","","","","","","","","","","","","","","","","","","","","","","","","","","","",""
"1120","
    <p style='color: white; font-size: 22px'>请您将手指放在按键上，准备进入正式的匹配任务。</p>
    <p> <div style = ""color: green""><按空格键进入下一阶段的匹配任务></div></p>
    "," ","html-keyboard-response","106","259809","0.0-7.0-0.0-3.0","4","4","4","4","4","4","4","4","4","4","5","5","5","5","5","5","5","5","5","5","1","1","1","1","1","1","1","1","1","1","0","1","1","0","0","0","0","0","1","1","0","1","0","1","5","2","1","1","2","5","1","2","1","4","1","598865314549071872","周","540","","","","","","","","","","","","","","","","","","","","","","","","","","","","","","","","","","","","","","","","","",""
"630","","f","psychophysics","107","261440","0.0-7.0-0.0-4.0-0.0-0.0","4","4","4","4","4","4","4","4","4","4","5","5","5","5","5","5","5","5","5","5","1","1","1","1","1","1","1","1","1","1","0","1","1","0","0","0","0","0","1","1","0","1","0","1","5","2","1","1","2","5","1","2","1","4","1","598865314549071872","周","540","","","","match","","","","","","","","","","","","","","key","f","16.652577319587508","768","428","f","true","match","img/pentagon.png","五边","五边","ALT1","formal_ALT1_1","","","","","","","","","","","",""
"null","<span style='color:GreenYellow; font-size: 70px;'>正确! </span>","null","html-keyboard-response","108","261941","0.0-7.0-0.0-4.0-0.0-1.0","4","4","4","4","4","4","4","4","4","4","5","5","5","5","5","5","5","5","5","5","1","1","1","1","1","1","1","1","1","1","0","1","1","0","0","0","0","0","1","1","0","1","0","1","5","2","1","1","2","5","1","2","1","4","1","598865314549071872","周","540","","","","","","","","","","","","","","","","","","","","","","","","","","","","","","feedback_test","","","","","","","","","","","",""
"593","","f","psychophysics","109","263535","0.0-7.0-0.0-4.0-0.0-0.1","4","4","4","4","4","4","4","4","4","4","5","5","5","5","5","5","5","5","5","5","1","1","1","1","1","1","1","1","1","1","0","1","1","0","0","0","0","0","1","1","0","1","0","1","5","2","1","1","2","5","1","2","1","4","1","598865314549071872","周","540","","","","match","","","","","","","","","","","","","","key","f","16.644210526315298","768","428","f","true","match","img/square.png","方形","方形","ALT1","formal_ALT1_1","","","","","","","","","","","",""
"null","<span style='color:GreenYellow; font-size: 70px;'>正确! </span>","null","html-keyboard-response","110","264036","0.0-7.0-0.0-4.0-0.0-1.1","4","4","4","4","4","4","4","4","4","4","5","5","5","5","5","5","5","5","5","5","1","1","1","1","1","1","1","1","1","1","0","1","1","0","0","0","0","0","1","1","0","1","0","1","5","2","1","1","2","5","1","2","1","4","1","598865314549071872","周","540","","","","","","","","","","","","","","","","","","","","","","","","","","","","","","feedback_test","","","","","","","","","","","",""
"527","","f","psychophysics","111","265564","0.0-7.0-0.0-4.0-0.0-0.2","4","4","4","4","4","4","4","4","4","4","5","5","5","5","5","5","5","5","5","5","1","1","1","1","1","1","1","1","1","1","0","1","1","0","0","0","0","0","1","1","0","1","0","1","5","2","1","1","2","5","1","2","1","4","1","598865314549071872","周","540","","","","match","","","","","","","","","","","","","","key","f","16.656043956044083","768","428","f","true","match","img/circle.png","圆形","圆形","ALT1","formal_ALT1_1","","","","","","","","","","","",""
"null","<span style='color:GreenYellow; font-size: 70px;'>正确! </span>","null","html-keyboard-response","112","266065","0.0-7.0-0.0-4.0-0.0-1.2","4","4","4","4","4","4","4","4","4","4","5","5","5","5","5","5","5","5","5","5","1","1","1","1","1","1","1","1","1","1","0","1","1","0","0","0","0","0","1","1","0","1","0","1","5","2","1","1","2","5","1","2","1","4","1","598865314549071872","周","540","","","","","","","","","","","","","","","","","","","","","","","","","","","","","","feedback_test","","","","","","","","","","","",""
"552","","j","psychophysics","113","267619","0.0-7.0-0.0-4.0-0.0-0.3","4","4","4","4","4","4","4","4","4","4","5","5","5","5","5","5","5","5","5","5","1","1","1","1","1","1","1","1","1","1","0","1","1","0","0","0","0","0","1","1","0","1","0","1","5","2","1","1","2","5","1","2","1","4","1","598865314549071872","周","540","","","","nonmatch","","","","","","","","","","","","","","key","j","16.654347826087083","768","428","j","true","nonmatch","img/triangle.png","圆形","三角","ALT1","formal_ALT1_1","","","","","","","","","","","",""
"null","<span style='color:GreenYellow; font-size: 70px;'>正确! </span>","null","html-keyboard-response","114","268122","0.0-7.0-0.0-4.0-0.0-1.3","4","4","4","4","4","4","4","4","4","4","5","5","5","5","5","5","5","5","5","5","1","1","1","1","1","1","1","1","1","1","0","1","1","0","0","0","0","0","1","1","0","1","0","1","5","2","1","1","2","5","1","2","1","4","1","598865314549071872","周","540","","","","","","","","","","","","","","","","","","","","","","","","","","","","","","feedback_test","","","","","","","","","","","",""
"582","","j","psychophysics","115","269705","0.0-7.0-0.0-4.0-0.0-0.4","4","4","4","4","4","4","4","4","4","4","5","5","5","5","5","5","5","5","5","5","1","1","1","1","1","1","1","1","1","1","0","1","1","0","0","0","0","0","1","1","0","1","0","1","5","2","1","1","2","5","1","2","1","4","1","598865314549071872","周","540","","","","nonmatch","","","","","","","","","","","","","","key","j","16.648936170212767","768","428","j","true","nonmatch","img/circle.png","五边","圆形","ALT1","formal_ALT1_1","","","","","","","","","","","",""
"null","<span style='color:GreenYellow; font-size: 70px;'>正确! </span>","null","html-keyboard-response","116","270206","0.0-7.0-0.0-4.0-0.0-1.4","4","4","4","4","4","4","4","4","4","4","5","5","5","5","5","5","5","5","5","5","1","1","1","1","1","1","1","1","1","1","0","1","1","0","0","0","0","0","1","1","0","1","0","1","5","2","1","1","2","5","1","2","1","4","1","598865314549071872","周","540","","","","","","","","","","","","","","","","","","","","","","","","","","","","","","feedback_test","","","","","","","","","","","",""
"597","","f","psychophysics","117","271804","0.0-7.0-0.0-4.0-0.0-0.5","4","4","4","4","4","4","4","4","4","4","5","5","5","5","5","5","5","5","5","5","1","1","1","1","1","1","1","1","1","1","0","1","1","0","0","0","0","0","1","1","0","1","0","1","5","2","1","1","2","5","1","2","1","4","1","598865314549071872","周","540","","","","match","","","","","","","","","","","","","","key","f","16.65052631578935","768","428","f","true","match","img/square.png","方形","方形","ALT1","formal_ALT1_1","","","","","","","","","","","",""
"null","<span style='color:GreenYellow; font-size: 70px;'>正确! </span>","null","html-keyboard-response","118","272306","0.0-7.0-0.0-4.0-0.0-1.5","4","4","4","4","4","4","4","4","4","4","5","5","5","5","5","5","5","5","5","5","1","1","1","1","1","1","1","1","1","1","0","1","1","0","0","0","0","0","1","1","0","1","0","1","5","2","1","1","2","5","1","2","1","4","1","598865314549071872","周","540","","","","","","","","","","","","","","","","","","","","","","","","","","","","","","feedback_test","","","","","","","","","","","",""
"901","","j","psychophysics","119","274209","0.0-7.0-0.0-4.0-0.0-0.6","4","4","4","4","4","4","4","4","4","4","5","5","5","5","5","5","5","5","5","5","1","1","1","1","1","1","1","1","1","1","0","1","1","0","0","0","0","0","1","1","0","1","0","1","5","2","1","1","2","5","1","2","1","4","1","598865314549071872","周","540","","","","nonmatch","","","","","","","","","","","","","","key","j","16.65132743362811","768","428","j","true","nonmatch","img/triangle.png","方形","三角","ALT1","formal_ALT1_1","","","","","","","","","","","",""
"null","<span style='color:GreenYellow; font-size: 70px;'>正确! </span>","null","html-keyboard-response","120","274709","0.0-7.0-0.0-4.0-0.0-1.6","4","4","4","4","4","4","4","4","4","4","5","5","5","5","5","5","5","5","5","5","1","1","1","1","1","1","1","1","1","1","0","1","1","0","0","0","0","0","1","1","0","1","0","1","5","2","1","1","2","5","1","2","1","4","1","598865314549071872","周","540","","","","","","","","","","","","","","","","","","","","","","","","","","","","","","feedback_test","","","","","","","","","","","",""
"631","","f","psychophysics","121","276343","0.0-7.0-0.0-4.0-0.0-0.7","4","4","4","4","4","4","4","4","4","4","5","5","5","5","5","5","5","5","5","5","1","1","1","1","1","1","1","1","1","1","0","1","1","0","0","0","0","0","1","1","0","1","0","1","5","2","1","1","2","5","1","2","1","4","1","598865314549071872","周","540","","","","match","","","","","","","","","","","","","","key","f","16.651546391752696","768","428","f","true","match","img/pentagon.png","五边","五边","ALT1","formal_ALT1_1","","","","","","","","","","","",""
"null","<span style='color:GreenYellow; font-size: 70px;'>正确! </span>","null","html-keyboard-response","122","276845","0.0-7.0-0.0-4.0-0.0-1.7","4","4","4","4","4","4","4","4","4","4","5","5","5","5","5","5","5","5","5","5","1","1","1","1","1","1","1","1","1","1","0","1","1","0","0","0","0","0","1","1","0","1","0","1","5","2","1","1","2","5","1","2","1","4","1","598865314549071872","周","540","","","","","","","","","","","","","","","","","","","","","","","","","","","","","","feedback_test","","","","","","","","","","","",""
"561","","j","psychophysics","123","278407","0.0-7.0-0.0-4.0-0.0-0.8","4","4","4","4","4","4","4","4","4","4","5","5","5","5","5","5","5","5","5","5","1","1","1","1","1","1","1","1","1","1","0","1","1","0","0","0","0","0","1","1","0","1","0","1","5","2","1","1","2","5","1","2","1","4","1","598865314549071872","周","540","","","","nonmatch","","","","","","","","","","","","","","key","j","16.655913978494624","768","428","j","true","nonmatch","img/circle.png","三角","圆形","ALT1","formal_ALT1_1","","","","","","","","","","","",""
"null","<span style='color:GreenYellow; font-size: 70px;'>正确! </span>","null","html-keyboard-response","124","278908","0.0-7.0-0.0-4.0-0.0-1.8","4","4","4","4","4","4","4","4","4","4","5","5","5","5","5","5","5","5","5","5","1","1","1","1","1","1","1","1","1","1","0","1","1","0","0","0","0","0","1","1","0","1","0","1","5","2","1","1","2","5","1","2","1","4","1","598865314549071872","周","540","","","","","","","","","","","","","","","","","","","","","","","","","","","","","","feedback_test","","","","","","","","","","","",""
"652","","j","psychophysics","125","280562","0.0-7.0-0.0-4.0-0.0-0.9","4","4","4","4","4","4","4","4","4","4","5","5","5","5","5","5","5","5","5","5","1","1","1","1","1","1","1","1","1","1","0","1","1","0","0","0","0","0","1","1","0","1","0","1","5","2","1","1","2","5","1","2","1","4","1","598865314549071872","周","540","","","","nonmatch","","","","","","","","","","","","","","key","j","16.652525252525606","768","428","j","true","nonmatch","img/pentagon.png","圆形","五边","ALT1","formal_ALT1_1","","","","","","","","","","","",""
"null","<span style='color:GreenYellow; font-size: 70px;'>正确! </span>","null","html-keyboard-response","126","281063","0.0-7.0-0.0-4.0-0.0-1.9","4","4","4","4","4","4","4","4","4","4","5","5","5","5","5","5","5","5","5","5","1","1","1","1","1","1","1","1","1","1","0","1","1","0","0","0","0","0","1","1","0","1","0","1","5","2","1","1","2","5","1","2","1","4","1","598865314549071872","周","540","","","","","","","","","","","","","","","","","","","","","","","","","","","","","","feedback_test","","","","","","","","","","","",""
"662","","f","psychophysics","127","282727","0.0-7.0-0.0-4.0-0.0-0.10","4","4","4","4","4","4","4","4","4","4","5","5","5","5","5","5","5","5","5","5","1","1","1","1","1","1","1","1","1","1","0","1","1","0","0","0","0","0","1","1","0","1","0","1","5","2","1","1","2","5","1","2","1","4","1","598865314549071872","周","540","","","","match","","","","","","","","","","","","","","key","f","16.64747474747451","768","428","f","true","match","img/pentagon.png","五边","五边","ALT1","formal_ALT1_1","","","","","","","","","","","",""
"null","<span style='color:GreenYellow; font-size: 70px;'>正确! </span>","null","html-keyboard-response","128","283228","0.0-7.0-0.0-4.0-0.0-1.10","4","4","4","4","4","4","4","4","4","4","5","5","5","5","5","5","5","5","5","5","1","1","1","1","1","1","1","1","1","1","0","1","1","0","0","0","0","0","1","1","0","1","0","1","5","2","1","1","2","5","1","2","1","4","1","598865314549071872","周","540","","","","","","","","","","","","","","","","","","","","","","","","","","","","","","feedback_test","","","","","","","","","","","",""
"541","","f","psychophysics","129","284772","0.0-7.0-0.0-4.0-0.0-0.11","4","4","4","4","4","4","4","4","4","4","5","5","5","5","5","5","5","5","5","5","1","1","1","1","1","1","1","1","1","1","0","1","1","0","0","0","0","0","1","1","0","1","0","1","5","2","1","1","2","5","1","2","1","4","1","598865314549071872","周","540","","","","match","","","","","","","","","","","","","","key","f","16.65054945054958","768","428","f","true","match","img/triangle.png","三角","三角","ALT1","formal_ALT1_1","","","","","","","","","","","",""
"null","<span style='color:GreenYellow; font-size: 70px;'>正确! </span>","null","html-keyboard-response","130","285272","0.0-7.0-0.0-4.0-0.0-1.11","4","4","4","4","4","4","4","4","4","4","5","5","5","5","5","5","5","5","5","5","1","1","1","1","1","1","1","1","1","1","0","1","1","0","0","0","0","0","1","1","0","1","0","1","5","2","1","1","2","5","1","2","1","4","1","598865314549071872","周","540","","","","","","","","","","","","","","","","","","","","","","","","","","","","","","feedback_test","","","","","","","","","","","",""
"584","","j","psychophysics","131","286857","0.0-7.0-0.0-4.0-0.0-0.12","4","4","4","4","4","4","4","4","4","4","5","5","5","5","5","5","5","5","5","5","1","1","1","1","1","1","1","1","1","1","0","1","1","0","0","0","0","0","1","1","0","1","0","1","5","2","1","1","2","5","1","2","1","4","1","598865314549071872","周","540","","","","nonmatch","","","","","","","","","","","","","","key","j","16.646808510638174","768","428","j","true","nonmatch","img/circle.png","方形","圆形","ALT1","formal_ALT1_1","","","","","","","","","","","",""
"null","<span style='color:GreenYellow; font-size: 70px;'>正确! </span>","null","html-keyboard-response","132","287357","0.0-7.0-0.0-4.0-0.0-1.12","4","4","4","4","4","4","4","4","4","4","5","5","5","5","5","5","5","5","5","5","1","1","1","1","1","1","1","1","1","1","0","1","1","0","0","0","0","0","1","1","0","1","0","1","5","2","1","1","2","5","1","2","1","4","1","598865314549071872","周","540","","","","","","","","","","","","","","","","","","","","","","","","","","","","","","feedback_test","","","","","","","","","","","",""
"492","","f","psychophysics","133","288852","0.0-7.0-0.0-4.0-0.0-0.13","4","4","4","4","4","4","4","4","4","4","5","5","5","5","5","5","5","5","5","5","1","1","1","1","1","1","1","1","1","1","0","1","1","0","0","0","0","0","1","1","0","1","0","1","5","2","1","1","2","5","1","2","1","4","1","598865314549071872","周","540","","","","match","","","","","","","","","","","","","","key","f","16.644318181818313","768","428","f","true","match","img/triangle.png","三角","三角","ALT1","formal_ALT1_1","","","","","","","","","","","",""
"null","<span style='color:GreenYellow; font-size: 70px;'>正确! </span>","null","html-keyboard-response","134","289353","0.0-7.0-0.0-4.0-0.0-1.13","4","4","4","4","4","4","4","4","4","4","5","5","5","5","5","5","5","5","5","5","1","1","1","1","1","1","1","1","1","1","0","1","1","0","0","0","0","0","1","1","0","1","0","1","5","2","1","1","2","5","1","2","1","4","1","598865314549071872","周","540","","","","","","","","","","","","","","","","","","","","","","","","","","","","","","feedback_test","","","","","","","","","","","",""
"517","","j","psychophysics","135","290871","0.0-7.0-0.0-4.0-0.0-0.14","4","4","4","4","4","4","4","4","4","4","5","5","5","5","5","5","5","5","5","5","1","1","1","1","1","1","1","1","1","1","0","1","1","0","0","0","0","0","1","1","0","1","0","1","5","2","1","1","2","5","1","2","1","4","1","598865314549071872","周","540","","","","nonmatch","","","","","","","","","","","","","","key","j","16.6488888888885","768","428","j","true","nonmatch","img/square.png","圆形","方形","ALT1","formal_ALT1_1","","","","","","","","","","","",""
"null","<span style='color:GreenYellow; font-size: 70px;'>正确! </span>","null","html-keyboard-response","136","291373","0.0-7.0-0.0-4.0-0.0-1.14","4","4","4","4","4","4","4","4","4","4","5","5","5","5","5","5","5","5","5","5","1","1","1","1","1","1","1","1","1","1","0","1","1","0","0","0","0","0","1","1","0","1","0","1","5","2","1","1","2","5","1","2","1","4","1","598865314549071872","周","540","","","","","","","","","","","","","","","","","","","","","","","","","","","","","","feedback_test","","","","","","","","","","","",""
"517","","j","psychophysics","137","292891","0.0-7.0-0.0-4.0-0.0-0.15","4","4","4","4","4","4","4","4","4","4","5","5","5","5","5","5","5","5","5","5","1","1","1","1","1","1","1","1","1","1","0","1","1","0","0","0","0","0","1","1","0","1","0","1","5","2","1","1","2","5","1","2","1","4","1","598865314549071872","周","540","","","","nonmatch","","","","","","","","","","","","","","key","j","16.645555555555298","768","428","j","true","nonmatch","img/square.png","五边","方形","ALT1","formal_ALT1_1","","","","","","","","","","","",""
"null","<span style='color:GreenYellow; font-size: 70px;'>正确! </span>","null","html-keyboard-response","138","293393","0.0-7.0-0.0-4.0-0.0-1.15","4","4","4","4","4","4","4","4","4","4","5","5","5","5","5","5","5","5","5","5","1","1","1","1","1","1","1","1","1","1","0","1","1","0","0","0","0","0","1","1","0","1","0","1","5","2","1","1","2","5","1","2","1","4","1","598865314549071872","周","540","","","","","","","","","","","","","","","","","","","","","","","","","","","","","","feedback_test","","","","","","","","","","","",""
"481","","j","psychophysics","139","294876","0.0-7.0-0.0-4.0-0.0-0.16","4","4","4","4","4","4","4","4","4","4","5","5","5","5","5","5","5","5","5","5","1","1","1","1","1","1","1","1","1","1","0","1","1","0","0","0","0","0","1","1","0","1","0","1","5","2","1","1","2","5","1","2","1","4","1","598865314549071872","周","540","","","","nonmatch","","","","","","","","","","","","","","key","j","16.65113636363623","768","428","j","true","nonmatch","img/square.png","三角","方形","ALT1","formal_ALT1_1","","","","","","","","","","","",""
"null","<span style='color:GreenYellow; font-size: 70px;'>正确! </span>","null","html-keyboard-response","140","295378","0.0-7.0-0.0-4.0-0.0-1.16","4","4","4","4","4","4","4","4","4","4","5","5","5","5","5","5","5","5","5","5","1","1","1","1","1","1","1","1","1","1","0","1","1","0","0","0","0","0","1","1","0","1","0","1","5","2","1","1","2","5","1","2","1","4","1","598865314549071872","周","540","","","","","","","","","","","","","","","","","","","","","","","","","","","","","","feedback_test","","","","","","","","","","","",""
"452","","f","psychophysics","141","296832","0.0-7.0-0.0-4.0-0.0-0.17","4","4","4","4","4","4","4","4","4","4","5","5","5","5","5","5","5","5","5","5","1","1","1","1","1","1","1","1","1","1","0","1","1","0","0","0","0","0","1","1","0","1","0","1","5","2","1","1","2","5","1","2","1","4","1","598865314549071872","周","540","","","","match","","","","","","","","","","","","","","key","f","16.647126436781477","768","428","f","true","match","img/triangle.png","三角","三角","ALT1","formal_ALT1_1","","","","","","","","","","","",""
"null","<span style='color:GreenYellow; font-size: 70px;'>正确! </span>","null","html-keyboard-response","142","297333","0.0-7.0-0.0-4.0-0.0-1.17","4","4","4","4","4","4","4","4","4","4","5","5","5","5","5","5","5","5","5","5","1","1","1","1","1","1","1","1","1","1","0","1","1","0","0","0","0","0","1","1","0","1","0","1","5","2","1","1","2","5","1","2","1","4","1","598865314549071872","周","540","","","","","","","","","","","","","","","","","","","","","","","","","","","","","","feedback_test","","","","","","","","","","","",""
"592","","j","psychophysics","143","298927","0.0-7.0-0.0-4.0-0.0-0.18","4","4","4","4","4","4","4","4","4","4","5","5","5","5","5","5","5","5","5","5","1","1","1","1","1","1","1","1","1","1","0","1","1","0","0","0","0","0","1","1","0","1","0","1","5","2","1","1","2","5","1","2","1","4","1","598865314549071872","周","540","","","","nonmatch","","","","","","","","","","","","","","key","j","16.654255319148938","768","428","f","false","match","img/circle.png","圆形","圆形","ALT1","formal_ALT1_1","","","","","","","","","","","",""
"null","<span style='color:red; font-size: 70px;'>错误! </span>","null","html-keyboard-response","144","299428","0.0-7.0-0.0-4.0-0.0-1.18","4","4","4","4","4","4","4","4","4","4","5","5","5","5","5","5","5","5","5","5","1","1","1","1","1","1","1","1","1","1","0","1","1","0","0","0","0","0","1","1","0","1","0","1","5","2","1","1","2","5","1","2","1","4","1","598865314549071872","周","540","","","","","","","","","","","","","","","","","","","","","","","","","","","","","","feedback_test","","","","","","","","","","","",""
"543","","j","psychophysics","145","300972","0.0-7.0-0.0-4.0-0.0-0.19","4","4","4","4","4","4","4","4","4","4","5","5","5","5","5","5","5","5","5","5","1","1","1","1","1","1","1","1","1","1","0","1","1","0","0","0","0","0","1","1","0","1","0","1","5","2","1","1","2","5","1","2","1","4","1","598865314549071872","周","540","","","","nonmatch","","","","","","","","","","","","","","key","j","16.651648351648223","768","428","j","true","nonmatch","img/pentagon.png","方形","五边","ALT1","formal_ALT1_1","","","","","","","","","","","",""
"null","<span style='color:GreenYellow; font-size: 70px;'>正确! </span>","null","html-keyboard-response","146","301473","0.0-7.0-0.0-4.0-0.0-1.19","4","4","4","4","4","4","4","4","4","4","5","5","5","5","5","5","5","5","5","5","1","1","1","1","1","1","1","1","1","1","0","1","1","0","0","0","0","0","1","1","0","1","0","1","5","2","1","1","2","5","1","2","1","4","1","598865314549071872","周","540","","","","","","","","","","","","","","","","","","","","","","","","","","","","","","feedback_test","","","","","","","","","","","",""
"538","","f","psychophysics","147","303011","0.0-7.0-0.0-4.0-0.0-0.20","4","4","4","4","4","4","4","4","4","4","5","5","5","5","5","5","5","5","5","5","1","1","1","1","1","1","1","1","1","1","0","1","1","0","0","0","0","0","1","1","0","1","0","1","5","2","1","1","2","5","1","2","1","4","1","598865314549071872","周","540","","","","match","","","","","","","","","","","","","","key","f","16.63626373626399","768","428","f","true","match","img/circle.png","圆形","圆形","ALT1","formal_ALT1_1","","","","","","","","","","","",""
"null","<span style='color:GreenYellow; font-size: 70px;'>正确! </span>","null","html-keyboard-response","148","303512","0.0-7.0-0.0-4.0-0.0-1.20","4","4","4","4","4","4","4","4","4","4","5","5","5","5","5","5","5","5","5","5","1","1","1","1","1","1","1","1","1","1","0","1","1","0","0","0","0","0","1","1","0","1","0","1","5","2","1","1","2","5","1","2","1","4","1","598865314549071872","周","540","","","","","","","","","","","","","","","","","","","","","","","","","","","","","","feedback_test","","","","","","","","","","","",""
"548","","j","psychophysics","149","305061","0.0-7.0-0.0-4.0-0.0-0.21","4","4","4","4","4","4","4","4","4","4","5","5","5","5","5","5","5","5","5","5","1","1","1","1","1","1","1","1","1","1","0","1","1","0","0","0","0","0","1","1","0","1","0","1","5","2","1","1","2","5","1","2","1","4","1","598865314549071872","周","540","","","","nonmatch","","","","","","","","","","","","","","key","j","16.649999999999874","768","428","j","true","nonmatch","img/pentagon.png","三角","五边","ALT1","formal_ALT1_1","","","","","","","","","","","",""
"null","<span style='color:GreenYellow; font-size: 70px;'>正确! </span>","null","html-keyboard-response","150","305563","0.0-7.0-0.0-4.0-0.0-1.21","4","4","4","4","4","4","4","4","4","4","5","5","5","5","5","5","5","5","5","5","1","1","1","1","1","1","1","1","1","1","0","1","1","0","0","0","0","0","1","1","0","1","0","1","5","2","1","1","2","5","1","2","1","4","1","598865314549071872","周","540","","","","","","","","","","","","","","","","","","","","","","","","","","","","","","feedback_test","","","","","","","","","","","",""
"576","","j","psychophysics","151","307140","0.0-7.0-0.0-4.0-0.0-0.22","4","4","4","4","4","4","4","4","4","4","5","5","5","5","5","5","5","5","5","5","1","1","1","1","1","1","1","1","1","1","0","1","1","0","0","0","0","0","1","1","0","1","0","1","5","2","1","1","2","5","1","2","1","4","1","598865314549071872","周","540","","","","nonmatch","","","","","","","","","","","","","","key","j","16.646808510638174","768","428","j","true","nonmatch","img/triangle.png","五边","三角","ALT1","formal_ALT1_1","","","","","","","","","","","",""
"null","<span style='color:GreenYellow; font-size: 70px;'>正确! </span>","null","html-keyboard-response","152","307643","0.0-7.0-0.0-4.0-0.0-1.22","4","4","4","4","4","4","4","4","4","4","5","5","5","5","5","5","5","5","5","5","1","1","1","1","1","1","1","1","1","1","0","1","1","0","0","0","0","0","1","1","0","1","0","1","5","2","1","1","2","5","1","2","1","4","1","598865314549071872","周","540","","","","","","","","","","","","","","","","","","","","","","","","","","","","","","feedback_test","","","","","","","","","","","",""
"715","","f","psychophysics","153","309360","0.0-7.0-0.0-4.0-0.0-0.23","4","4","4","4","4","4","4","4","4","4","5","5","5","5","5","5","5","5","5","5","1","1","1","1","1","1","1","1","1","1","0","1","1","0","0","0","0","0","1","1","0","1","0","1","5","2","1","1","2","5","1","2","1","4","1","598865314549071872","周","540","","","","match","","","","","","","","","","","","","","key","f","16.6549019607842","768","428","f","true","match","img/square.png","方形","方形","ALT1","formal_ALT1_1","","","","","","","","","","","",""
"null","<span style='color:GreenYellow; font-size: 70px;'>正确! </span>","null","html-keyboard-response","154","309863","0.0-7.0-0.0-4.0-0.0-1.23","4","4","4","4","4","4","4","4","4","4","5","5","5","5","5","5","5","5","5","5","1","1","1","1","1","1","1","1","1","1","0","1","1","0","0","0","0","0","1","1","0","1","0","1","5","2","1","1","2","5","1","2","1","4","1","598865314549071872","周","540","","","","","","","","","","","","","","","","","","","","","","","","","","","","","","feedback_test","","","","","","","","","","","",""
"484","","f","psychophysics","155","311350","0.0-7.0-0.0-4.0-0.0-0.24","4","4","4","4","4","4","4","4","4","4","5","5","5","5","5","5","5","5","5","5","1","1","1","1","1","1","1","1","1","1","0","1","1","0","0","0","0","0","1","1","0","1","0","1","5","2","1","1","2","5","1","2","1","4","1","598865314549071872","周","540","","","","match","","","","","","","","","","","","","","key","f","16.646067415730336","768","428","f","true","match","img/triangle.png","三角","三角","ALT1","formal_ALT1_1","","","","","","","","","","","",""
"null","<span style='color:GreenYellow; font-size: 70px;'>正确! </span>","null","html-keyboard-response","156","311852","0.0-7.0-0.0-4.0-0.0-1.24","4","4","4","4","4","4","4","4","4","4","5","5","5","5","5","5","5","5","5","5","1","1","1","1","1","1","1","1","1","1","0","1","1","0","0","0","0","0","1","1","0","1","0","1","5","2","1","1","2","5","1","2","1","4","1","598865314549071872","周","540","","","","","","","","","","","","","","","","","","","","","","","","","","","","","","feedback_test","","","","","","","","","","","",""
"597","","j","psychophysics","157","313451","0.0-7.0-0.0-4.0-0.0-0.25","4","4","4","4","4","4","4","4","4","4","5","5","5","5","5","5","5","5","5","5","1","1","1","1","1","1","1","1","1","1","0","1","1","0","0","0","0","0","1","1","0","1","0","1","5","2","1","1","2","5","1","2","1","4","1","598865314549071872","周","540","","","","nonmatch","","","","","","","","","","","","","","key","j","16.65052631578935","768","428","j","true","nonmatch","img/pentagon.png","三角","五边","ALT1","formal_ALT1_1","","","","","","","","","","","",""
"null","<span style='color:GreenYellow; font-size: 70px;'>正确! </span>","null","html-keyboard-response","158","313951","0.0-7.0-0.0-4.0-0.0-1.25","4","4","4","4","4","4","4","4","4","4","5","5","5","5","5","5","5","5","5","5","1","1","1","1","1","1","1","1","1","1","0","1","1","0","0","0","0","0","1","1","0","1","0","1","5","2","1","1","2","5","1","2","1","4","1","598865314549071872","周","540","","","","","","","","","","","","","","","","","","","","","","","","","","","","","","feedback_test","","","","","","","","","","","",""
"652","","j","psychophysics","159","315606","0.0-7.0-0.0-4.0-0.0-0.26","4","4","4","4","4","4","4","4","4","4","5","5","5","5","5","5","5","5","5","5","1","1","1","1","1","1","1","1","1","1","0","1","1","0","0","0","0","0","1","1","0","1","0","1","5","2","1","1","2","5","1","2","1","4","1","598865314549071872","周","540","","","","nonmatch","","","","","","","","","","","","","","key","j","16.647959183673468","768","428","j","true","nonmatch","img/pentagon.png","圆形","五边","ALT1","formal_ALT1_1","","","","","","","","","","","",""
"null","<span style='color:GreenYellow; font-size: 70px;'>正确! </span>","null","html-keyboard-response","160","316106","0.0-7.0-0.0-4.0-0.0-1.26","4","4","4","4","4","4","4","4","4","4","5","5","5","5","5","5","5","5","5","5","1","1","1","1","1","1","1","1","1","1","0","1","1","0","0","0","0","0","1","1","0","1","0","1","5","2","1","1","2","5","1","2","1","4","1","598865314549071872","周","540","","","","","","","","","","","","","","","","","","","","","","","","","","","","","","feedback_test","","","","","","","","","","","",""
"596","","f","psychophysics","161","317704","0.0-7.0-0.0-4.0-0.0-0.27","4","4","4","4","4","4","4","4","4","4","5","5","5","5","5","5","5","5","5","5","1","1","1","1","1","1","1","1","1","1","0","1","1","0","0","0","0","0","1","1","0","1","0","1","5","2","1","1","2","5","1","2","1","4","1","598865314549071872","周","540","","","","match","","","","","","","","","","","","","","key","f","16.650526315789964","768","428","f","true","match","img/pentagon.png","五边","五边","ALT1","formal_ALT1_1","","","","","","","","","","","",""
"null","<span style='color:GreenYellow; font-size: 70px;'>正确! </span>","null","html-keyboard-response","162","318206","0.0-7.0-0.0-4.0-0.0-1.27","4","4","4","4","4","4","4","4","4","4","5","5","5","5","5","5","5","5","5","5","1","1","1","1","1","1","1","1","1","1","0","1","1","0","0","0","0","0","1","1","0","1","0","1","5","2","1","1","2","5","1","2","1","4","1","598865314549071872","周","540","","","","","","","","","","","","","","","","","","","","","","","","","","","","","","feedback_test","","","","","","","","","","","",""
"592","","j","psychophysics","163","319799","0.0-7.0-0.0-4.0-0.0-0.28","4","4","4","4","4","4","4","4","4","4","5","5","5","5","5","5","5","5","5","5","1","1","1","1","1","1","1","1","1","1","0","1","1","0","0","0","0","0","1","1","0","1","0","1","5","2","1","1","2","5","1","2","1","4","1","598865314549071872","周","540","","","","nonmatch","","","","","","","","","","","","","","key","j","16.647368421052633","768","428","j","true","nonmatch","img/triangle.png","圆形","三角","ALT1","formal_ALT1_1","","","","","","","","","","","",""
"null","<span style='color:GreenYellow; font-size: 70px;'>正确! </span>","null","html-keyboard-response","164","320301","0.0-7.0-0.0-4.0-0.0-1.28","4","4","4","4","4","4","4","4","4","4","5","5","5","5","5","5","5","5","5","5","1","1","1","1","1","1","1","1","1","1","0","1","1","0","0","0","0","0","1","1","0","1","0","1","5","2","1","1","2","5","1","2","1","4","1","598865314549071872","周","540","","","","","","","","","","","","","","","","","","","","","","","","","","","","","","feedback_test","","","","","","","","","","","",""
"531","","j","psychophysics","165","321834","0.0-7.0-0.0-4.0-0.0-0.29","4","4","4","4","4","4","4","4","4","4","5","5","5","5","5","5","5","5","5","5","1","1","1","1","1","1","1","1","1","1","0","1","1","0","0","0","0","0","1","1","0","1","0","1","5","2","1","1","2","5","1","2","1","4","1","598865314549071872","周","540","","","","nonmatch","","","","","","","","","","","","","","key","j","16.651648351648863","768","428","j","true","nonmatch","img/circle.png","五边","圆形","ALT1","formal_ALT1_1","","","","","","","","","","","",""
"null","<span style='color:GreenYellow; font-size: 70px;'>正确! </span>","null","html-keyboard-response","166","322335","0.0-7.0-0.0-4.0-0.0-1.29","4","4","4","4","4","4","4","4","4","4","5","5","5","5","5","5","5","5","5","5","1","1","1","1","1","1","1","1","1","1","0","1","1","0","0","0","0","0","1","1","0","1","0","1","5","2","1","1","2","5","1","2","1","4","1","598865314549071872","周","540","","","","","","","","","","","","","","","","","","","","","","","","","","","","","","feedback_test","","","","","","","","","","","",""
"677","","f","psychophysics","167","324014","0.0-7.0-0.0-4.0-0.0-0.30","4","4","4","4","4","4","4","4","4","4","5","5","5","5","5","5","5","5","5","5","1","1","1","1","1","1","1","1","1","1","0","1","1","0","0","0","0","0","1","1","0","1","0","1","5","2","1","1","2","5","1","2","1","4","1","598865314549071872","周","540","","","","match","","","","","","","","","","","","","","key","f","16.651000000000348","768","428","f","true","match","img/circle.png","圆形","圆形","ALT1","formal_ALT1_1","","","","","","","","","","","",""
"null","<span style='color:GreenYellow; font-size: 70px;'>正确! </span>","null","html-keyboard-response","168","324516","0.0-7.0-0.0-4.0-0.0-1.30","4","4","4","4","4","4","4","4","4","4","5","5","5","5","5","5","5","5","5","5","1","1","1","1","1","1","1","1","1","1","0","1","1","0","0","0","0","0","1","1","0","1","0","1","5","2","1","1","2","5","1","2","1","4","1","598865314549071872","周","540","","","","","","","","","","","","","","","","","","","","","","","","","","","","","","feedback_test","","","","","","","","","","","",""
"561","","f","psychophysics","169","326079","0.0-7.0-0.0-4.0-0.0-0.31","4","4","4","4","4","4","4","4","4","4","5","5","5","5","5","5","5","5","5","5","1","1","1","1","1","1","1","1","1","1","0","1","1","0","0","0","0","0","1","1","0","1","0","1","5","2","1","1","2","5","1","2","1","4","1","598865314549071872","周","540","","","","match","","","","","","","","","","","","","","key","f","16.652688172043135","768","428","f","true","match","img/pentagon.png","五边","五边","ALT1","formal_ALT1_1","","","","","","","","","","","",""
"null","<span style='color:GreenYellow; font-size: 70px;'>正确! </span>","null","html-keyboard-response","170","326580","0.0-7.0-0.0-4.0-0.0-1.31","4","4","4","4","4","4","4","4","4","4","5","5","5","5","5","5","5","5","5","5","1","1","1","1","1","1","1","1","1","1","0","1","1","0","0","0","0","0","1","1","0","1","0","1","5","2","1","1","2","5","1","2","1","4","1","598865314549071872","周","540","","","","","","","","","","","","","","","","","","","","","","","","","","","","","","feedback_test","","","","","","","","","","","",""
"487","","j","psychophysics","171","328068","0.0-7.0-0.0-4.0-0.0-0.32","4","4","4","4","4","4","4","4","4","4","5","5","5","5","5","5","5","5","5","5","1","1","1","1","1","1","1","1","1","1","0","1","1","0","0","0","0","0","1","1","0","1","0","1","5","2","1","1","2","5","1","2","1","4","1","598865314549071872","周","540","","","","nonmatch","","","","","","","","","","","","","","key","j","16.651685393258425","768","428","j","true","nonmatch","img/triangle.png","方形","三角","ALT1","formal_ALT1_1","","","","","","","","","","","",""
"null","<span style='color:GreenYellow; font-size: 70px;'>正确! </span>","null","html-keyboard-response","172","328569","0.0-7.0-0.0-4.0-0.0-1.32","4","4","4","4","4","4","4","4","4","4","5","5","5","5","5","5","5","5","5","5","1","1","1","1","1","1","1","1","1","1","0","1","1","0","0","0","0","0","1","1","0","1","0","1","5","2","1","1","2","5","1","2","1","4","1","598865314549071872","周","540","","","","","","","","","","","","","","","","","","","","","","","","","","","","","","feedback_test","","","","","","","","","","","",""
"513","","j","psychophysics","173","330083","0.0-7.0-0.0-4.0-0.0-0.33","4","4","4","4","4","4","4","4","4","4","5","5","5","5","5","5","5","5","5","5","1","1","1","1","1","1","1","1","1","1","0","1","1","0","0","0","0","0","1","1","0","1","0","1","5","2","1","1","2","5","1","2","1","4","1","598865314549071872","周","540","","","","nonmatch","","","","","","","","","","","","","","key","j","16.6511111111115","768","428","j","true","nonmatch","img/circle.png","三角","圆形","ALT1","formal_ALT1_1","","","","","","","","","","","",""
"null","<span style='color:GreenYellow; font-size: 70px;'>正确! </span>","null","html-keyboard-response","174","330585","0.0-7.0-0.0-4.0-0.0-1.33","4","4","4","4","4","4","4","4","4","4","5","5","5","5","5","5","5","5","5","5","1","1","1","1","1","1","1","1","1","1","0","1","1","0","0","0","0","0","1","1","0","1","0","1","5","2","1","1","2","5","1","2","1","4","1","598865314549071872","周","540","","","","","","","","","","","","","","","","","","","","","","","","","","","","","","feedback_test","","","","","","","","","","","",""
"522","","f","psychophysics","175","332108","0.0-7.0-0.0-4.0-0.0-0.34","4","4","4","4","4","4","4","4","4","4","5","5","5","5","5","5","5","5","5","5","1","1","1","1","1","1","1","1","1","1","0","1","1","0","0","0","0","0","1","1","0","1","0","1","5","2","1","1","2","5","1","2","1","4","1","598865314549071872","周","540","","","","match","","","","","","","","","","","","","","key","f","16.64666666666615","768","428","f","true","match","img/triangle.png","三角","三角","ALT1","formal_ALT1_1","","","","","","","","","","","",""
"null","<span style='color:GreenYellow; font-size: 70px;'>正确! </span>","null","html-keyboard-response","176","332609","0.0-7.0-0.0-4.0-0.0-1.34","4","4","4","4","4","4","4","4","4","4","5","5","5","5","5","5","5","5","5","5","1","1","1","1","1","1","1","1","1","1","0","1","1","0","0","0","0","0","1","1","0","1","0","1","5","2","1","1","2","5","1","2","1","4","1","598865314549071872","周","540","","","","","","","","","","","","","","","","","","","","","","","","","","","","","","feedback_test","","","","","","","","","","","",""
"508","","f","psychophysics","177","334120","0.0-7.0-0.0-4.0-0.0-0.35","4","4","4","4","4","4","4","4","4","4","5","5","5","5","5","5","5","5","5","5","1","1","1","1","1","1","1","1","1","1","0","1","1","0","0","0","0","0","1","1","0","1","0","1","5","2","1","1","2","5","1","2","1","4","1","598865314549071872","周","540","","","","match","","","","","","","","","","","","","","key","f","16.652222222222353","768","428","f","true","match","img/circle.png","圆形","圆形","ALT1","formal_ALT1_1","","","","","","","","","","","",""
"null","<span style='color:GreenYellow; font-size: 70px;'>正确! </span>","null","html-keyboard-response","178","334621","0.0-7.0-0.0-4.0-0.0-1.35","4","4","4","4","4","4","4","4","4","4","5","5","5","5","5","5","5","5","5","5","1","1","1","1","1","1","1","1","1","1","0","1","1","0","0","0","0","0","1","1","0","1","0","1","5","2","1","1","2","5","1","2","1","4","1","598865314549071872","周","540","","","","","","","","","","","","","","","","","","","","","","","","","","","","","","feedback_test","","","","","","","","","","","",""
"576","","f","psychophysics","179","336199","0.0-7.0-0.0-4.0-0.0-0.36","4","4","4","4","4","4","4","4","4","4","5","5","5","5","5","5","5","5","5","5","1","1","1","1","1","1","1","1","1","1","0","1","1","0","0","0","0","0","1","1","0","1","0","1","5","2","1","1","2","5","1","2","1","4","1","598865314549071872","周","540","","","","match","","","","","","","","","","","","","","key","f","16.65319148936195","768","428","f","true","match","img/pentagon.png","五边","五边","ALT1","formal_ALT1_1","","","","","","","","","","","",""
"null","<span style='color:GreenYellow; font-size: 70px;'>正确! </span>","null","html-keyboard-response","180","336699","0.0-7.0-0.0-4.0-0.0-1.36","4","4","4","4","4","4","4","4","4","4","5","5","5","5","5","5","5","5","5","5","1","1","1","1","1","1","1","1","1","1","0","1","1","0","0","0","0","0","1","1","0","1","0","1","5","2","1","1","2","5","1","2","1","4","1","598865314549071872","周","540","","","","","","","","","","","","","","","","","","","","","","","","","","","","","","feedback_test","","","","","","","","","","","",""
"518","","j","psychophysics","181","338219","0.0-7.0-0.0-4.0-0.0-0.37","4","4","4","4","4","4","4","4","4","4","5","5","5","5","5","5","5","5","5","5","1","1","1","1","1","1","1","1","1","1","0","1","1","0","0","0","0","0","1","1","0","1","0","1","5","2","1","1","2","5","1","2","1","4","1","598865314549071872","周","540","","","","nonmatch","","","","","","","","","","","","","","key","j","16.651111111110854","768","428","j","true","nonmatch","img/pentagon.png","方形","五边","ALT1","formal_ALT1_1","","","","","","","","","","","",""
