"rt","stimulus","response","trial_type","trial_index","time_elapsed","internal_node_id","ses_1","ses_2","ses_3","ses_4","ses_5","ses_6","ses_7","ses_8","ses_9","ses_10","coreself_1","coreself_2","coreself_3","coreself_4","coreself_5","coreself_6","coreself_7","coreself_8","coreself_9","coreself_10","SGPS_1","SGPS_2","SGPS_3","SGPS_4","SGPS_5","SGPS_6","SGPS_7","SGPS_8","SGPS_9","NPI1","NPI2","NPI3","NPI4","NPI5","NPI6","NPI7","NPI8","NPI9","NPI10","NPI11","NPI12","NPI13","NPI14","NPI15","hsns_1","hsns_2","hsns_3","hsns_4","hsns_5","trap1","hsns_6","hsns_7","hsns_8","hsns_9","hsns_10","subj_idx","friend_name","ParticipantID","value","success","user_agent","responses","item_order","radio_event_ids","radio_event_times","key_event_times","mouse_event_times","straightlining","zigzagging","honeypot","timeout","failed_images","failed_audio","failed_video","version_attrib","version_target","correct","IAT","screen_id","task_id","RT","condition","word","varname","summary","version_attrib2","version_target2","time_stamp","view_history","response_type","key_press","avg_frame_time","center_x","center_y","correct_response","identity","Image","question_order","correct_answer","trap1_item"
"11221","
   <p><div style = ""color: white;font-size:25px;"">您好，欢迎参加本次实验。</div> </p>
   <p><div style = ""color: white;font-size:25px;"">为充分保障您的权利，请确保您已经知晓并同意《参与实验同意书》以及《数据公开知情同意书》。</div></p>
   <p><div style = ""color: white;font-size:25px;"">如果您未见过上述内容，请咨询实验员。</div></p>
   <p><div style = ""color: white;font-size:25px;"">如果您选择继续实验，则表示您已经清楚两份知情同意书的内容并同意。</div></p>
   <p><div style = ""color: pink;font-size:30px;"">请确保您记得day0的实验编号，您将在本次实验输入该编号，若您忘记，请咨询实验员后作答。</div></p>
   <p><div style = ""color: lightblue;font-size:25px;"">请您尽可能认真地作答，我们将依据您在各问卷和按键任务中的作答质量发放报酬。</div></p>
   <p> <div style = ""color: green;font-size:25px;""><按空格键至下页></div> </p>
   "," ","html-keyboard-response","0","11223","0.0-0.0","3","3","3","3","3","3","2","3","4","4","3","2","2","3","2","2","2","2","3","4","4","5","4","4","2","3","3","2","4","1","0","1","1","0","0","1","1","1","1","1","0","1","0","1","3","5","4","4","5","1","3","4","4","3","4","798586383785664514","李","599","","","","","","","","","","","","","","","","","","","","","","","","","","","","","","","","","","","","","","","","","",""
"","","","call-function","1","11223","0.0-1.0-0.0","3","3","3","3","3","3","2","3","4","4","3","2","2","3","2","2","2","2","3","4","4","5","4","4","2","3","3","2","4","1","0","1","1","0","0","1","1","1","1","1","0","1","0","1","3","5","4","4","5","1","3","4","4","3","4","798586383785664514","李","599","","","","","","","","","","","","","","","","","","","","","","","","","","","","","","","","","","","","","","","","","",""
"56341","","{""friend_name"":""李"",""ParticipantID"":""599""}","survey-html-form","2","67570","0.0-1.0-1.0","3","3","3","3","3","3","2","3","4","4","3","2","2","3","2","2","2","2","3","4","4","5","4","4","2","3","3","2","4","1","0","1","1","0","0","1","1","1","1","1","0","1","0","1","3","5","4","4","5","1","3","4","4","3","4","798586383785664514","李","599","","","","","","","","","","","","","","","","","","","","","","","","","","","","","","","","","","","","","","","","","",""
"","","","fullscreen","3","84334","0.0-2.0","3","3","3","3","3","3","2","3","4","4","3","2","2","3","2","2","2","2","3","4","4","5","4","4","2","3","3","2","4","1","0","1","1","0","0","1","1","1","1","1","0","1","0","1","3","5","4","4","5","1","3","4","4","3","4","798586383785664514","李","599","","true","{}","","","","","","","","","","","","","","","","","","","","","","","","","","","","","","","","","","","","","","",""
"32456.70000001788","","{""Q01"":""3"",""Q02"":""3"",""Q03"":""3"",""Q04"":""3"",""Q05"":""3"",""Q06"":""3"",""Q07"":""2"",""Q08"":""3"",""Q09"":""4"",""Q10"":""4""}","survey-template","4","116793","0.0-3.0","3","3","3","3","3","3","2","3","4","4","3","2","2","3","2","2","2","2","3","4","4","5","4","4","2","3","3","2","4","1","0","1","1","0","0","1","1","1","1","1","0","1","0","1","3","5","4","4","5","1","3","4","4","3","4","798586383785664514","李","599","","","","{""Q01"":""3"",""Q02"":""3"",""Q03"":""3"",""Q04"":""3"",""Q05"":""3"",""Q06"":""3"",""Q07"":""2"",""Q08"":""3"",""Q09"":""4"",""Q10"":""4""}","[0,1,2,3,4,5,6,7,8,9]","[""Q01"",""Q02"",""Q03"",""Q04"",""Q05"",""Q06"",""Q07"",""Q08"",""Q09"",""Q10""]","[6500.200000017881,7644.600000023842,8736.800000011921,10550.90000000596,19962.100000023842,22313.40000000596,24032.5,24959.90000000596,31046.30000001192,31457.100000023842]","[]","[6500.200000017881,7644.600000023842,8736.800000011921,9789.800000011921,10550.90000000596,19962.100000023842,22313.40000000596,24032.5,24959.90000000596,31046.30000001192,31457.100000023842,32455.90000000596]","0.4","0.6666666666666666","0","","","","","","","","","","","","","","","","","","","","","","","","","","","","","",""
"29060","","{""Q01"":""3"",""Q02"":""2"",""Q03"":""2"",""Q04"":""3"",""Q05"":""2"",""Q06"":""2"",""Q07"":""2"",""Q08"":""2"",""Q09"":""3"",""Q10"":""4""}","survey-template","5","145856","0.0-4.0","3","3","3","3","3","3","2","3","4","4","3","2","2","3","2","2","2","2","3","4","4","5","4","4","2","3","3","2","4","1","0","1","1","0","0","1","1","1","1","1","0","1","0","1","3","5","4","4","5","1","3","4","4","3","4","798586383785664514","李","599","","","","{""Q01"":""3"",""Q02"":""2"",""Q03"":""2"",""Q04"":""3"",""Q05"":""2"",""Q06"":""2"",""Q07"":""2"",""Q08"":""2"",""Q09"":""3"",""Q10"":""4""}","[0,1,2,3,4,5,6,7,8,9]","[""Q01"",""Q02"",""Q03"",""Q04"",""Q05"",""Q06"",""Q06"",""Q05"",""Q06"",""Q07"",""Q08"",""Q09"",""Q10""]","[3318.0999999940395,4134.5999999940395,8883.90000000596,9660.199999988079,12358.59999999404,14484.09999999404,15325.199999988079,20569.69999998808,23474.69999998808,24391.19999998808,25632.69999998808,26929.80000001192,28239.30000001192]","[]","[3318.0999999940395,4134.5999999940395,8883.90000000596,9660.199999988079,12358.59999999404,14484.09999999404,15325.199999988079,20569.69999998808,21883.59999999404,23474.69999998808,24391.19999998808,25632.69999998808,26929.80000001192,28239.30000001192,29059.30000001192]","0.5","0.5555555555555556","0","","","","","","","","","","","","","","","","","","","","","","","","","","","","","",""
"","","","preload","6","146111","0.0-5.0","3","3","3","3","3","3","2","3","4","4","3","2","2","3","2","2","2","2","3","4","4","5","4","4","2","3","3","2","4","1","0","1","1","0","0","1","1","1","1","1","0","1","0","1","3","5","4","4","5","1","3","4","4","3","4","798586383785664514","李","599","","true","","","","","","","","","","","false","[]","[]","[]","","","","","","","","","","","","","","","","","","","","","","","","","",""
"18310","
    <h3>词语分类任务</h3>
    <p>在接下来的任务中，你需要对一系列词语进行分类。</p>
    <p>请先熟悉这些词语，这有利于你完成接下来的任务。</p>
    <table align=""center"" border=1 cellpadding=3 cellspacing=0>
    <tr> <th>类别</th> <th>词语</th> </tr>
    <tr> <td>&emsp;积极&emsp;</td> <td>&emsp;能干、全能、全才、高效、精干、天才&emsp;</td> </tr>
    <tr> <td>&emsp;消极&emsp;</td> <td>&emsp;无能、低能、废物、拙笨、愚钝、蠢笨&emsp;</td> </tr>
    <tr> <td>&emsp;自我&emsp;</td> <td>&emsp;我、我的、自己、自己的、本人、本人的&emsp;</td> </tr>
    <tr> <td>&emsp;他人&emsp;</td> <td>&emsp;他、他的、别人、别人的、他人、他人的&emsp;</td> </tr>
    </table><br/>","0","html-button-response","7","164423","0.0-6.0-0.0-0.0","3","3","3","3","3","3","2","3","4","4","3","2","2","3","2","2","2","2","3","4","4","5","4","4","2","3","3","2","4","1","0","1","1","0","0","1","1","1","1","1","0","1","0","1","3","5","4","4","5","1","3","4","4","3","4","798586383785664514","李","599","","","","","","","","","","","","","","","","","2","1","","","","","","","","","","","","","","","","","","","","","","","",""
"18295","
    <div class=""tag-bottom"">
    <p> —— 任务1：对“自我”词和“他人”词分类 ——<p/>
    不同词语会出现在屏幕中央，类别标签将始终显示在屏幕上方<p/>   
    <span style=""color:#FFD866""><b>请根据上方标签的提示，尽可能正确并且快速地做出按键反应</b></span><p/>
    当按键错误时屏幕中会出现<span style=""color:red""> X </span>，需要按另一个键纠正才能继续<br/><p/>
    请把双手食指分别放在键盘的“E”键和“I”键上<p/>
    按<空格键>开始
    </p></div>"," ","html-keyboard-response","8","182721","0.0-6.0-0.0-1.0","3","3","3","3","3","3","2","3","4","4","3","2","2","3","2","2","2","2","3","4","4","5","4","4","2","3","3","2","4","1","0","1","1","0","0","1","1","1","1","1","0","1","0","1","3","5","4","4","5","1","3","4","4","3","4","798586383785664514","李","599","","","","","","","","","","","","","","","","","","","","","","","","","","","","","","","","","","","","","","","","","",""
"null","","null","html-keyboard-response","9","182971","0.0-6.0-0.0-2.0-0.0","3","3","3","3","3","3","2","3","4","4","3","2","2","3","2","2","2","2","3","4","4","5","4","4","2","3","3","2","4","1","0","1","1","0","0","1","1","1","1","1","0","1","0","1","3","5","4","4","5","1","3","4","4","3","4","798586383785664514","李","599","","","","","","","","","","","","","","","","","","","","","","","","","","","","","","","","","","","","","","","","","",""
"814","<p style=""color:rgb(150, 250, 100); font-size: 35px;"">我的</p>","e","categorize-html","10","183787","0.0-6.0-0.0-2.0-1.0","3","3","3","3","3","3","2","3","4","4","3","2","2","3","2","2","2","2","3","4","4","5","4","4","2","3","3","2","4","1","0","1","1","0","0","1","1","1","1","1","0","1","0","1","3","5","4","4","5","1","3","4","4","3","4","798586383785664514","李","599","","","","","","","","","","","","","","","","","","","true","1","1","ability","814","self","我的","","","","","","","","","","","","","","","","",""
"null","","null","html-keyboard-response","11","184038","0.0-6.0-0.0-2.0-0.1","3","3","3","3","3","3","2","3","4","4","3","2","2","3","2","2","2","2","3","4","4","5","4","4","2","3","3","2","4","1","0","1","1","0","0","1","1","1","1","1","0","1","0","1","3","5","4","4","5","1","3","4","4","3","4","798586383785664514","李","599","","","","","","","","","","","","","","","","","","","","","","","","","","","","","","","","","","","","","","","","","",""
"561","<p style=""color:rgb(150, 250, 100); font-size: 35px;"">他人的</p>","i","categorize-html","12","184601","0.0-6.0-0.0-2.0-1.1","3","3","3","3","3","3","2","3","4","4","3","2","2","3","2","2","2","2","3","4","4","5","4","4","2","3","3","2","4","1","0","1","1","0","0","1","1","1","1","1","0","1","0","1","3","5","4","4","5","1","3","4","4","3","4","798586383785664514","李","599","","","","","","","","","","","","","","","","","","","true","1","1","ability","561","other","他人的","","","","","","","","","","","","","","","","",""
"null","","null","html-keyboard-response","13","184853","0.0-6.0-0.0-2.0-0.2","3","3","3","3","3","3","2","3","4","4","3","2","2","3","2","2","2","2","3","4","4","5","4","4","2","3","3","2","4","1","0","1","1","0","0","1","1","1","1","1","0","1","0","1","3","5","4","4","5","1","3","4","4","3","4","798586383785664514","李","599","","","","","","","","","","","","","","","","","","","","","","","","","","","","","","","","","","","","","","","","","",""
"573","<p style=""color:rgb(150, 250, 100); font-size: 35px;"">他</p>","i","categorize-html","14","185427","0.0-6.0-0.0-2.0-1.2","3","3","3","3","3","3","2","3","4","4","3","2","2","3","2","2","2","2","3","4","4","5","4","4","2","3","3","2","4","1","0","1","1","0","0","1","1","1","1","1","0","1","0","1","3","5","4","4","5","1","3","4","4","3","4","798586383785664514","李","599","","","","","","","","","","","","","","","","","","","true","1","1","ability","573","other","他","","","","","","","","","","","","","","","","",""
"null","","null","html-keyboard-response","15","185677","0.0-6.0-0.0-2.0-0.3","3","3","3","3","3","3","2","3","4","4","3","2","2","3","2","2","2","2","3","4","4","5","4","4","2","3","3","2","4","1","0","1","1","0","0","1","1","1","1","1","0","1","0","1","3","5","4","4","5","1","3","4","4","3","4","798586383785664514","李","599","","","","","","","","","","","","","","","","","","","","","","","","","","","","","","","","","","","","","","","","","",""
"482","<p style=""color:rgb(150, 250, 100); font-size: 35px;"">自己的</p>","e","categorize-html","16","186160","0.0-6.0-0.0-2.0-1.3","3","3","3","3","3","3","2","3","4","4","3","2","2","3","2","2","2","2","3","4","4","5","4","4","2","3","3","2","4","1","0","1","1","0","0","1","1","1","1","1","0","1","0","1","3","5","4","4","5","1","3","4","4","3","4","798586383785664514","李","599","","","","","","","","","","","","","","","","","","","true","1","1","ability","482","self","自己的","","","","","","","","","","","","","","","","",""
"null","","null","html-keyboard-response","17","186411","0.0-6.0-0.0-2.0-0.4","3","3","3","3","3","3","2","3","4","4","3","2","2","3","2","2","2","2","3","4","4","5","4","4","2","3","3","2","4","1","0","1","1","0","0","1","1","1","1","1","0","1","0","1","3","5","4","4","5","1","3","4","4","3","4","798586383785664514","李","599","","","","","","","","","","","","","","","","","","","","","","","","","","","","","","","","","","","","","","","","","",""
"450","<p style=""color:rgb(150, 250, 100); font-size: 35px;"">自己</p>","e","categorize-html","18","186862","0.0-6.0-0.0-2.0-1.4","3","3","3","3","3","3","2","3","4","4","3","2","2","3","2","2","2","2","3","4","4","5","4","4","2","3","3","2","4","1","0","1","1","0","0","1","1","1","1","1","0","1","0","1","3","5","4","4","5","1","3","4","4","3","4","798586383785664514","李","599","","","","","","","","","","","","","","","","","","","true","1","1","ability","450","self","自己","","","","","","","","","","","","","","","","",""
"null","","null","html-keyboard-response","19","187113","0.0-6.0-0.0-2.0-0.5","3","3","3","3","3","3","2","3","4","4","3","2","2","3","2","2","2","2","3","4","4","5","4","4","2","3","3","2","4","1","0","1","1","0","0","1","1","1","1","1","0","1","0","1","3","5","4","4","5","1","3","4","4","3","4","798586383785664514","李","599","","","","","","","","","","","","","","","","","","","","","","","","","","","","","","","","","","","","","","","","","",""
"437","<p style=""color:rgb(150, 250, 100); font-size: 35px;"">别人的</p>","i","categorize-html","20","187551","0.0-6.0-0.0-2.0-1.5","3","3","3","3","3","3","2","3","4","4","3","2","2","3","2","2","2","2","3","4","4","5","4","4","2","3","3","2","4","1","0","1","1","0","0","1","1","1","1","1","0","1","0","1","3","5","4","4","5","1","3","4","4","3","4","798586383785664514","李","599","","","","","","","","","","","","","","","","","","","true","1","1","ability","437","other","别人的","","","","","","","","","","","","","","","","",""
"null","","null","html-keyboard-response","21","187815","0.0-6.0-0.0-2.0-0.6","3","3","3","3","3","3","2","3","4","4","3","2","2","3","2","2","2","2","3","4","4","5","4","4","2","3","3","2","4","1","0","1","1","0","0","1","1","1","1","1","0","1","0","1","3","5","4","4","5","1","3","4","4","3","4","798586383785664514","李","599","","","","","","","","","","","","","","","","","","","","","","","","","","","","","","","","","","","","","","","","","",""
"515","<p style=""color:rgb(150, 250, 100); font-size: 35px;"">本人的</p>","e","categorize-html","22","188331","0.0-6.0-0.0-2.0-1.6","3","3","3","3","3","3","2","3","4","4","3","2","2","3","2","2","2","2","3","4","4","5","4","4","2","3","3","2","4","1","0","1","1","0","0","1","1","1","1","1","0","1","0","1","3","5","4","4","5","1","3","4","4","3","4","798586383785664514","李","599","","","","","","","","","","","","","","","","","","","true","1","1","ability","515","self","本人的","","","","","","","","","","","","","","","","",""
"null","","null","html-keyboard-response","23","188583","0.0-6.0-0.0-2.0-0.7","3","3","3","3","3","3","2","3","4","4","3","2","2","3","2","2","2","2","3","4","4","5","4","4","2","3","3","2","4","1","0","1","1","0","0","1","1","1","1","1","0","1","0","1","3","5","4","4","5","1","3","4","4","3","4","798586383785664514","李","599","","","","","","","","","","","","","","","","","","","","","","","","","","","","","","","","","","","","","","","","","",""
"489","<p style=""color:rgb(150, 250, 100); font-size: 35px;"">他人</p>","i","categorize-html","24","189073","0.0-6.0-0.0-2.0-1.7","3","3","3","3","3","3","2","3","4","4","3","2","2","3","2","2","2","2","3","4","4","5","4","4","2","3","3","2","4","1","0","1","1","0","0","1","1","1","1","1","0","1","0","1","3","5","4","4","5","1","3","4","4","3","4","798586383785664514","李","599","","","","","","","","","","","","","","","","","","","true","1","1","ability","489","other","他人","","","","","","","","","","","","","","","","",""
"null","","null","html-keyboard-response","25","189324","0.0-6.0-0.0-2.0-0.8","3","3","3","3","3","3","2","3","4","4","3","2","2","3","2","2","2","2","3","4","4","5","4","4","2","3","3","2","4","1","0","1","1","0","0","1","1","1","1","1","0","1","0","1","3","5","4","4","5","1","3","4","4","3","4","798586383785664514","李","599","","","","","","","","","","","","","","","","","","","","","","","","","","","","","","","","","","","","","","","","","",""
"407","<p style=""color:rgb(150, 250, 100); font-size: 35px;"">本人</p>","e","categorize-html","26","189733","0.0-6.0-0.0-2.0-1.8","3","3","3","3","3","3","2","3","4","4","3","2","2","3","2","2","2","2","3","4","4","5","4","4","2","3","3","2","4","1","0","1","1","0","0","1","1","1","1","1","0","1","0","1","3","5","4","4","5","1","3","4","4","3","4","798586383785664514","李","599","","","","","","","","","","","","","","","","","","","true","1","1","ability","407","self","本人","","","","","","","","","","","","","","","","",""
"null","","null","html-keyboard-response","27","189985","0.0-6.0-0.0-2.0-0.9","3","3","3","3","3","3","2","3","4","4","3","2","2","3","2","2","2","2","3","4","4","5","4","4","2","3","3","2","4","1","0","1","1","0","0","1","1","1","1","1","0","1","0","1","3","5","4","4","5","1","3","4","4","3","4","798586383785664514","李","599","","","","","","","","","","","","","","","","","","","","","","","","","","","","","","","","","","","","","","","","","",""
"493","<p style=""color:rgb(150, 250, 100); font-size: 35px;"">他的</p>","i","categorize-html","28","190479","0.0-6.0-0.0-2.0-1.9","3","3","3","3","3","3","2","3","4","4","3","2","2","3","2","2","2","2","3","4","4","5","4","4","2","3","3","2","4","1","0","1","1","0","0","1","1","1","1","1","0","1","0","1","3","5","4","4","5","1","3","4","4","3","4","798586383785664514","李","599","","","","","","","","","","","","","","","","","","","true","1","1","ability","493","other","他的","","","","","","","","","","","","","","","","",""
"null","","null","html-keyboard-response","29","190730","0.0-6.0-0.0-2.0-0.10","3","3","3","3","3","3","2","3","4","4","3","2","2","3","2","2","2","2","3","4","4","5","4","4","2","3","3","2","4","1","0","1","1","0","0","1","1","1","1","1","0","1","0","1","3","5","4","4","5","1","3","4","4","3","4","798586383785664514","李","599","","","","","","","","","","","","","","","","","","","","","","","","","","","","","","","","","","","","","","","","","",""
"390","<p style=""color:rgb(150, 250, 100); font-size: 35px;"">我</p>","e","categorize-html","30","191120","0.0-6.0-0.0-2.0-1.10","3","3","3","3","3","3","2","3","4","4","3","2","2","3","2","2","2","2","3","4","4","5","4","4","2","3","3","2","4","1","0","1","1","0","0","1","1","1","1","1","0","1","0","1","3","5","4","4","5","1","3","4","4","3","4","798586383785664514","李","599","","","","","","","","","","","","","","","","","","","true","1","1","ability","390","self","我","","","","","","","","","","","","","","","","",""
"null","","null","html-keyboard-response","31","191371","0.0-6.0-0.0-2.0-0.11","3","3","3","3","3","3","2","3","4","4","3","2","2","3","2","2","2","2","3","4","4","5","4","4","2","3","3","2","4","1","0","1","1","0","0","1","1","1","1","1","0","1","0","1","3","5","4","4","5","1","3","4","4","3","4","798586383785664514","李","599","","","","","","","","","","","","","","","","","","","","","","","","","","","","","","","","","","","","","","","","","",""
"449","<p style=""color:rgb(150, 250, 100); font-size: 35px;"">别人</p>","i","categorize-html","32","191821","0.0-6.0-0.0-2.0-1.11","3","3","3","3","3","3","2","3","4","4","3","2","2","3","2","2","2","2","3","4","4","5","4","4","2","3","3","2","4","1","0","1","1","0","0","1","1","1","1","1","0","1","0","1","3","5","4","4","5","1","3","4","4","3","4","798586383785664514","李","599","","","","","","","","","","","","","","","","","","","true","1","1","ability","449","other","别人","","","","","","","","","","","","","","","","",""
"4403","
    <div class=""tag-bottom""><p>
    —— 任务2：对“消极”词和“积极”词分类 ——<p/>   
    <span style=""color:#78DCE8""><b>注意上方，类别标签和需要分类的词语都已经改变</b></span><p/>
    <span style=""color:#FFD866""><b>请根据上方标签的提示，尽可能正确并且快速地做出按键反应</b></span><p/>
    当按键错误时屏幕中会出现<span style=""color:red""> X </span>，需要按另一个键纠正才能继续<br/><p/>
    请把双手食指分别放在键盘的“E”键和“I”键上<p/>
    按<空格键>开始
    </p></div>"," ","html-keyboard-response","33","196225","0.0-6.0-0.0-3.0","3","3","3","3","3","3","2","3","4","4","3","2","2","3","2","2","2","2","3","4","4","5","4","4","2","3","3","2","4","1","0","1","1","0","0","1","1","1","1","1","0","1","0","1","3","5","4","4","5","1","3","4","4","3","4","798586383785664514","李","599","","","","","","","","","","","","","","","","","","","","","","","","","","","","","","","","","","","","","","","","","",""
"null","","null","html-keyboard-response","34","196476","0.0-6.0-0.0-4.0-0.0","3","3","3","3","3","3","2","3","4","4","3","2","2","3","2","2","2","2","3","4","4","5","4","4","2","3","3","2","4","1","0","1","1","0","0","1","1","1","1","1","0","1","0","1","3","5","4","4","5","1","3","4","4","3","4","798586383785664514","李","599","","","","","","","","","","","","","","","","","","","","","","","","","","","","","","","","","","","","","","","","","",""
"1167","<p style=""color:white; font-size: 35px;"">天才</p>","i","categorize-html","35","197645","0.0-6.0-0.0-4.0-1.0","3","3","3","3","3","3","2","3","4","4","3","2","2","3","2","2","2","2","3","4","4","5","4","4","2","3","3","2","4","1","0","1","1","0","0","1","1","1","1","1","0","1","0","1","3","5","4","4","5","1","3","4","4","3","4","798586383785664514","李","599","","","","","","","","","","","","","","","","","","","true","2","2","ability","1167","positive","天才","","","","","","","","","","","","","","","","",""
"null","","null","html-keyboard-response","36","197896","0.0-6.0-0.0-4.0-0.1","3","3","3","3","3","3","2","3","4","4","3","2","2","3","2","2","2","2","3","4","4","5","4","4","2","3","3","2","4","1","0","1","1","0","0","1","1","1","1","1","0","1","0","1","3","5","4","4","5","1","3","4","4","3","4","798586383785664514","李","599","","","","","","","","","","","","","","","","","","","","","","","","","","","","","","","","","","","","","","","","","",""
"560","<p style=""color:white; font-size: 35px;"">全能</p>","i","categorize-html","37","198458","0.0-6.0-0.0-4.0-1.1","3","3","3","3","3","3","2","3","4","4","3","2","2","3","2","2","2","2","3","4","4","5","4","4","2","3","3","2","4","1","0","1","1","0","0","1","1","1","1","1","0","1","0","1","3","5","4","4","5","1","3","4","4","3","4","798586383785664514","李","599","","","","","","","","","","","","","","","","","","","true","2","2","ability","560","positive","全能","","","","","","","","","","","","","","","","",""
"null","","null","html-keyboard-response","38","198709","0.0-6.0-0.0-4.0-0.2","3","3","3","3","3","3","2","3","4","4","3","2","2","3","2","2","2","2","3","4","4","5","4","4","2","3","3","2","4","1","0","1","1","0","0","1","1","1","1","1","0","1","0","1","3","5","4","4","5","1","3","4","4","3","4","798586383785664514","李","599","","","","","","","","","","","","","","","","","","","","","","","","","","","","","","","","","","","","","","","","","",""
"469","<p style=""color:white; font-size: 35px;"">低能</p>","e","categorize-html","39","199179","0.0-6.0-0.0-4.0-1.2","3","3","3","3","3","3","2","3","4","4","3","2","2","3","2","2","2","2","3","4","4","5","4","4","2","3","3","2","4","1","0","1","1","0","0","1","1","1","1","1","0","1","0","1","3","5","4","4","5","1","3","4","4","3","4","798586383785664514","李","599","","","","","","","","","","","","","","","","","","","true","2","2","ability","469","negative","低能","","","","","","","","","","","","","","","","",""
"null","","null","html-keyboard-response","40","199430","0.0-6.0-0.0-4.0-0.3","3","3","3","3","3","3","2","3","4","4","3","2","2","3","2","2","2","2","3","4","4","5","4","4","2","3","3","2","4","1","0","1","1","0","0","1","1","1","1","1","0","1","0","1","3","5","4","4","5","1","3","4","4","3","4","798586383785664514","李","599","","","","","","","","","","","","","","","","","","","","","","","","","","","","","","","","","","","","","","","","","",""
"665","<p style=""color:white; font-size: 35px;"">精干</p>","i","categorize-html","41","200096","0.0-6.0-0.0-4.0-1.3","3","3","3","3","3","3","2","3","4","4","3","2","2","3","2","2","2","2","3","4","4","5","4","4","2","3","3","2","4","1","0","1","1","0","0","1","1","1","1","1","0","1","0","1","3","5","4","4","5","1","3","4","4","3","4","798586383785664514","李","599","","","","","","","","","","","","","","","","","","","true","2","2","ability","665","positive","精干","","","","","","","","","","","","","","","","",""
"null","","null","html-keyboard-response","42","200346","0.0-6.0-0.0-4.0-0.4","3","3","3","3","3","3","2","3","4","4","3","2","2","3","2","2","2","2","3","4","4","5","4","4","2","3","3","2","4","1","0","1","1","0","0","1","1","1","1","1","0","1","0","1","3","5","4","4","5","1","3","4","4","3","4","798586383785664514","李","599","","","","","","","","","","","","","","","","","","","","","","","","","","","","","","","","","","","","","","","","","",""
"657","<p style=""color:white; font-size: 35px;"">蠢笨</p>","e","categorize-html","43","201005","0.0-6.0-0.0-4.0-1.4","3","3","3","3","3","3","2","3","4","4","3","2","2","3","2","2","2","2","3","4","4","5","4","4","2","3","3","2","4","1","0","1","1","0","0","1","1","1","1","1","0","1","0","1","3","5","4","4","5","1","3","4","4","3","4","798586383785664514","李","599","","","","","","","","","","","","","","","","","","","true","2","2","ability","657","negative","蠢笨","","","","","","","","","","","","","","","","",""
"null","","null","html-keyboard-response","44","201257","0.0-6.0-0.0-4.0-0.5","3","3","3","3","3","3","2","3","4","4","3","2","2","3","2","2","2","2","3","4","4","5","4","4","2","3","3","2","4","1","0","1","1","0","0","1","1","1","1","1","0","1","0","1","3","5","4","4","5","1","3","4","4","3","4","798586383785664514","李","599","","","","","","","","","","","","","","","","","","","","","","","","","","","","","","","","","","","","","","","","","",""
"697","<p style=""color:white; font-size: 35px;"">无能</p>","e","categorize-html","45","201955","0.0-6.0-0.0-4.0-1.5","3","3","3","3","3","3","2","3","4","4","3","2","2","3","2","2","2","2","3","4","4","5","4","4","2","3","3","2","4","1","0","1","1","0","0","1","1","1","1","1","0","1","0","1","3","5","4","4","5","1","3","4","4","3","4","798586383785664514","李","599","","","","","","","","","","","","","","","","","","","true","2","2","ability","697","negative","无能","","","","","","","","","","","","","","","","",""
"null","","null","html-keyboard-response","46","202206","0.0-6.0-0.0-4.0-0.6","3","3","3","3","3","3","2","3","4","4","3","2","2","3","2","2","2","2","3","4","4","5","4","4","2","3","3","2","4","1","0","1","1","0","0","1","1","1","1","1","0","1","0","1","3","5","4","4","5","1","3","4","4","3","4","798586383785664514","李","599","","","","","","","","","","","","","","","","","","","","","","","","","","","","","","","","","","","","","","","","","",""
"648","<p style=""color:white; font-size: 35px;"">能干</p>","i","categorize-html","47","202855","0.0-6.0-0.0-4.0-1.6","3","3","3","3","3","3","2","3","4","4","3","2","2","3","2","2","2","2","3","4","4","5","4","4","2","3","3","2","4","1","0","1","1","0","0","1","1","1","1","1","0","1","0","1","3","5","4","4","5","1","3","4","4","3","4","798586383785664514","李","599","","","","","","","","","","","","","","","","","","","true","2","2","ability","648","positive","能干","","","","","","","","","","","","","","","","",""
"null","","null","html-keyboard-response","48","203107","0.0-6.0-0.0-4.0-0.7","3","3","3","3","3","3","2","3","4","4","3","2","2","3","2","2","2","2","3","4","4","5","4","4","2","3","3","2","4","1","0","1","1","0","0","1","1","1","1","1","0","1","0","1","3","5","4","4","5","1","3","4","4","3","4","798586383785664514","李","599","","","","","","","","","","","","","","","","","","","","","","","","","","","","","","","","","","","","","","","","","",""
"861","<p style=""color:white; font-size: 35px;"">拙笨</p>","e","categorize-html","49","203968","0.0-6.0-0.0-4.0-1.7","3","3","3","3","3","3","2","3","4","4","3","2","2","3","2","2","2","2","3","4","4","5","4","4","2","3","3","2","4","1","0","1","1","0","0","1","1","1","1","1","0","1","0","1","3","5","4","4","5","1","3","4","4","3","4","798586383785664514","李","599","","","","","","","","","","","","","","","","","","","true","2","2","ability","861","negative","拙笨","","","","","","","","","","","","","","","","",""
"null","","null","html-keyboard-response","50","204219","0.0-6.0-0.0-4.0-0.8","3","3","3","3","3","3","2","3","4","4","3","2","2","3","2","2","2","2","3","4","4","5","4","4","2","3","3","2","4","1","0","1","1","0","0","1","1","1","1","1","0","1","0","1","3","5","4","4","5","1","3","4","4","3","4","798586383785664514","李","599","","","","","","","","","","","","","","","","","","","","","","","","","","","","","","","","","","","","","","","","","",""
"1526","<p style=""color:white; font-size: 35px;"">全才</p>","i","categorize-html","51","205746","0.0-6.0-0.0-4.0-1.8","3","3","3","3","3","3","2","3","4","4","3","2","2","3","2","2","2","2","3","4","4","5","4","4","2","3","3","2","4","1","0","1","1","0","0","1","1","1","1","1","0","1","0","1","3","5","4","4","5","1","3","4","4","3","4","798586383785664514","李","599","","","","","","","","","","","","","","","","","","","true","2","2","ability","1526","positive","全才","","","","","","","","","","","","","","","","",""
"null","","null","html-keyboard-response","52","205998","0.0-6.0-0.0-4.0-0.9","3","3","3","3","3","3","2","3","4","4","3","2","2","3","2","2","2","2","3","4","4","5","4","4","2","3","3","2","4","1","0","1","1","0","0","1","1","1","1","1","0","1","0","1","3","5","4","4","5","1","3","4","4","3","4","798586383785664514","李","599","","","","","","","","","","","","","","","","","","","","","","","","","","","","","","","","","","","","","","","","","",""
"1726","<p style=""color:white; font-size: 35px;"">高效</p>","i","categorize-html","53","207726","0.0-6.0-0.0-4.0-1.9","3","3","3","3","3","3","2","3","4","4","3","2","2","3","2","2","2","2","3","4","4","5","4","4","2","3","3","2","4","1","0","1","1","0","0","1","1","1","1","1","0","1","0","1","3","5","4","4","5","1","3","4","4","3","4","798586383785664514","李","599","","","","","","","","","","","","","","","","","","","true","2","2","ability","1726","positive","高效","","","","","","","","","","","","","","","","",""
"null","","null","html-keyboard-response","54","207976","0.0-6.0-0.0-4.0-0.10","3","3","3","3","3","3","2","3","4","4","3","2","2","3","2","2","2","2","3","4","4","5","4","4","2","3","3","2","4","1","0","1","1","0","0","1","1","1","1","1","0","1","0","1","3","5","4","4","5","1","3","4","4","3","4","798586383785664514","李","599","","","","","","","","","","","","","","","","","","","","","","","","","","","","","","","","","","","","","","","","","",""
"950","<p style=""color:white; font-size: 35px;"">愚钝</p>","e","categorize-html","55","208927","0.0-6.0-0.0-4.0-1.10","3","3","3","3","3","3","2","3","4","4","3","2","2","3","2","2","2","2","3","4","4","5","4","4","2","3","3","2","4","1","0","1","1","0","0","1","1","1","1","1","0","1","0","1","3","5","4","4","5","1","3","4","4","3","4","798586383785664514","李","599","","","","","","","","","","","","","","","","","","","true","2","2","ability","950","negative","愚钝","","","","","","","","","","","","","","","","",""
"null","","null","html-keyboard-response","56","209178","0.0-6.0-0.0-4.0-0.11","3","3","3","3","3","3","2","3","4","4","3","2","2","3","2","2","2","2","3","4","4","5","4","4","2","3","3","2","4","1","0","1","1","0","0","1","1","1","1","1","0","1","0","1","3","5","4","4","5","1","3","4","4","3","4","798586383785664514","李","599","","","","","","","","","","","","","","","","","","","","","","","","","","","","","","","","","","","","","","","","","",""
"606","<p style=""color:white; font-size: 35px;"">废物</p>","e","categorize-html","57","209784","0.0-6.0-0.0-4.0-1.11","3","3","3","3","3","3","2","3","4","4","3","2","2","3","2","2","2","2","3","4","4","5","4","4","2","3","3","2","4","1","0","1","1","0","0","1","1","1","1","1","0","1","0","1","3","5","4","4","5","1","3","4","4","3","4","798586383785664514","李","599","","","","","","","","","","","","","","","","","","","true","2","2","ability","606","negative","废物","","","","","","","","","","","","","","","","",""
"8292","
    <div class=""tag-bottom""><p>
    —— 任务3：对“自我/消极”词和“他人/积极”词分类 ——<p/>
    <span style=""color:#78DCE8""><b>注意上方，之前的四类词语将混合在一起交替呈现</b></span><p/>
    <span style=""color:#FFD866""><b>请根据上方标签的提示，尽可能正确并且快速地做出按键反应</b></span><p/>
    当按键错误时屏幕中会出现<span style=""color:red""> X </span>，需要按另一个键纠正才能继续<br/><p/>
    请把双手食指分别放在键盘的“E”键和“I”键上<p/>
    按<空格键>开始
    </p></div>"," ","html-keyboard-response","58","218076","0.0-6.0-0.0-5.0","3","3","3","3","3","3","2","3","4","4","3","2","2","3","2","2","2","2","3","4","4","5","4","4","2","3","3","2","4","1","0","1","1","0","0","1","1","1","1","1","0","1","0","1","3","5","4","4","5","1","3","4","4","3","4","798586383785664514","李","599","","","","","","","","","","","","","","","","","","","","","","","","","","","","","","","","","","","","","","","","","",""
"null","","null","html-keyboard-response","59","218327","0.0-6.0-0.0-6.0-0.0","3","3","3","3","3","3","2","3","4","4","3","2","2","3","2","2","2","2","3","4","4","5","4","4","2","3","3","2","4","1","0","1","1","0","0","1","1","1","1","1","0","1","0","1","3","5","4","4","5","1","3","4","4","3","4","798586383785664514","李","599","","","","","","","","","","","","","","","","","","","","","","","","","","","","","","","","","","","","","","","","","",""
"1060","<p style=""color:rgb(150, 250, 100); font-size: 35px;"">别人</p>","i","categorize-html","60","219389","0.0-6.0-0.0-6.0-1.0","3","3","3","3","3","3","2","3","4","4","3","2","2","3","2","2","2","2","3","4","4","5","4","4","2","3","3","2","4","1","0","1","1","0","0","1","1","1","1","1","0","1","0","1","3","5","4","4","5","1","3","4","4","3","4","798586383785664514","李","599","","","","","","","","","","","","","","","","","","","true","3","3","ability","1060","other","别人","","","","","","","","","","","","","","","","",""
"null","","null","html-keyboard-response","61","219639","0.0-6.0-0.0-6.0-0.1","3","3","3","3","3","3","2","3","4","4","3","2","2","3","2","2","2","2","3","4","4","5","4","4","2","3","3","2","4","1","0","1","1","0","0","1","1","1","1","1","0","1","0","1","3","5","4","4","5","1","3","4","4","3","4","798586383785664514","李","599","","","","","","","","","","","","","","","","","","","","","","","","","","","","","","","","","","","","","","","","","",""
"1134","<p style=""color:white; font-size: 35px;"">愚钝</p>","e","categorize-html","62","220775","0.0-6.0-0.0-6.0-1.1","3","3","3","3","3","3","2","3","4","4","3","2","2","3","2","2","2","2","3","4","4","5","4","4","2","3","3","2","4","1","0","1","1","0","0","1","1","1","1","1","0","1","0","1","3","5","4","4","5","1","3","4","4","3","4","798586383785664514","李","599","","","","","","","","","","","","","","","","","","","true","3","3","ability","1134","negative","愚钝","","","","","","","","","","","","","","","","",""
"null","","null","html-keyboard-response","63","221026","0.0-6.0-0.0-6.0-0.2","3","3","3","3","3","3","2","3","4","4","3","2","2","3","2","2","2","2","3","4","4","5","4","4","2","3","3","2","4","1","0","1","1","0","0","1","1","1","1","1","0","1","0","1","3","5","4","4","5","1","3","4","4","3","4","798586383785664514","李","599","","","","","","","","","","","","","","","","","","","","","","","","","","","","","","","","","","","","","","","","","",""
"555","<p style=""color:rgb(150, 250, 100); font-size: 35px;"">本人</p>","e","categorize-html","64","221583","0.0-6.0-0.0-6.0-1.2","3","3","3","3","3","3","2","3","4","4","3","2","2","3","2","2","2","2","3","4","4","5","4","4","2","3","3","2","4","1","0","1","1","0","0","1","1","1","1","1","0","1","0","1","3","5","4","4","5","1","3","4","4","3","4","798586383785664514","李","599","","","","","","","","","","","","","","","","","","","true","3","3","ability","555","self","本人","","","","","","","","","","","","","","","","",""
"null","","null","html-keyboard-response","65","221833","0.0-6.0-0.0-6.0-0.3","3","3","3","3","3","3","2","3","4","4","3","2","2","3","2","2","2","2","3","4","4","5","4","4","2","3","3","2","4","1","0","1","1","0","0","1","1","1","1","1","0","1","0","1","3","5","4","4","5","1","3","4","4","3","4","798586383785664514","李","599","","","","","","","","","","","","","","","","","","","","","","","","","","","","","","","","","","","","","","","","","",""
"617","<p style=""color:white; font-size: 35px;"">全能</p>","i","categorize-html","66","222452","0.0-6.0-0.0-6.0-1.3","3","3","3","3","3","3","2","3","4","4","3","2","2","3","2","2","2","2","3","4","4","5","4","4","2","3","3","2","4","1","0","1","1","0","0","1","1","1","1","1","0","1","0","1","3","5","4","4","5","1","3","4","4","3","4","798586383785664514","李","599","","","","","","","","","","","","","","","","","","","true","3","3","ability","617","positive","全能","","","","","","","","","","","","","","","","",""
"null","","null","html-keyboard-response","67","222702","0.0-6.0-0.0-6.0-0.4","3","3","3","3","3","3","2","3","4","4","3","2","2","3","2","2","2","2","3","4","4","5","4","4","2","3","3","2","4","1","0","1","1","0","0","1","1","1","1","1","0","1","0","1","3","5","4","4","5","1","3","4","4","3","4","798586383785664514","李","599","","","","","","","","","","","","","","","","","","","","","","","","","","","","","","","","","","","","","","","","","",""
"597","<p style=""color:rgb(150, 250, 100); font-size: 35px;"">他的</p>","i","categorize-html","68","223301","0.0-6.0-0.0-6.0-1.4","3","3","3","3","3","3","2","3","4","4","3","2","2","3","2","2","2","2","3","4","4","5","4","4","2","3","3","2","4","1","0","1","1","0","0","1","1","1","1","1","0","1","0","1","3","5","4","4","5","1","3","4","4","3","4","798586383785664514","李","599","","","","","","","","","","","","","","","","","","","true","3","3","ability","597","other","他的","","","","","","","","","","","","","","","","",""
"null","","null","html-keyboard-response","69","223551","0.0-6.0-0.0-6.0-0.5","3","3","3","3","3","3","2","3","4","4","3","2","2","3","2","2","2","2","3","4","4","5","4","4","2","3","3","2","4","1","0","1","1","0","0","1","1","1","1","1","0","1","0","1","3","5","4","4","5","1","3","4","4","3","4","798586383785664514","李","599","","","","","","","","","","","","","","","","","","","","","","","","","","","","","","","","","","","","","","","","","",""
"505","<p style=""color:white; font-size: 35px;"">拙笨</p>","e","categorize-html","70","224058","0.0-6.0-0.0-6.0-1.5","3","3","3","3","3","3","2","3","4","4","3","2","2","3","2","2","2","2","3","4","4","5","4","4","2","3","3","2","4","1","0","1","1","0","0","1","1","1","1","1","0","1","0","1","3","5","4","4","5","1","3","4","4","3","4","798586383785664514","李","599","","","","","","","","","","","","","","","","","","","true","3","3","ability","505","negative","拙笨","","","","","","","","","","","","","","","","",""
"null","","null","html-keyboard-response","71","224310","0.0-6.0-0.0-6.0-0.6","3","3","3","3","3","3","2","3","4","4","3","2","2","3","2","2","2","2","3","4","4","5","4","4","2","3","3","2","4","1","0","1","1","0","0","1","1","1","1","1","0","1","0","1","3","5","4","4","5","1","3","4","4","3","4","798586383785664514","李","599","","","","","","","","","","","","","","","","","","","","","","","","","","","","","","","","","","","","","","","","","",""
"642","<p style=""color:rgb(150, 250, 100); font-size: 35px;"">我的</p>","e","categorize-html","72","224953","0.0-6.0-0.0-6.0-1.6","3","3","3","3","3","3","2","3","4","4","3","2","2","3","2","2","2","2","3","4","4","5","4","4","2","3","3","2","4","1","0","1","1","0","0","1","1","1","1","1","0","1","0","1","3","5","4","4","5","1","3","4","4","3","4","798586383785664514","李","599","","","","","","","","","","","","","","","","","","","true","3","3","ability","642","self","我的","","","","","","","","","","","","","","","","",""
"null","","null","html-keyboard-response","73","225204","0.0-6.0-0.0-6.0-0.7","3","3","3","3","3","3","2","3","4","4","3","2","2","3","2","2","2","2","3","4","4","5","4","4","2","3","3","2","4","1","0","1","1","0","0","1","1","1","1","1","0","1","0","1","3","5","4","4","5","1","3","4","4","3","4","798586383785664514","李","599","","","","","","","","","","","","","","","","","","","","","","","","","","","","","","","","","","","","","","","","","",""
"524","<p style=""color:white; font-size: 35px;"">高效</p>","i","categorize-html","74","225729","0.0-6.0-0.0-6.0-1.7","3","3","3","3","3","3","2","3","4","4","3","2","2","3","2","2","2","2","3","4","4","5","4","4","2","3","3","2","4","1","0","1","1","0","0","1","1","1","1","1","0","1","0","1","3","5","4","4","5","1","3","4","4","3","4","798586383785664514","李","599","","","","","","","","","","","","","","","","","","","true","3","3","ability","524","positive","高效","","","","","","","","","","","","","","","","",""
"null","","null","html-keyboard-response","75","225980","0.0-6.0-0.0-6.0-0.8","3","3","3","3","3","3","2","3","4","4","3","2","2","3","2","2","2","2","3","4","4","5","4","4","2","3","3","2","4","1","0","1","1","0","0","1","1","1","1","1","0","1","0","1","3","5","4","4","5","1","3","4","4","3","4","798586383785664514","李","599","","","","","","","","","","","","","","","","","","","","","","","","","","","","","","","","","","","","","","","","","",""
"875","<p style=""color:rgb(150, 250, 100); font-size: 35px;"">本人的</p>","e","categorize-html","76","226857","0.0-6.0-0.0-6.0-1.8","3","3","3","3","3","3","2","3","4","4","3","2","2","3","2","2","2","2","3","4","4","5","4","4","2","3","3","2","4","1","0","1","1","0","0","1","1","1","1","1","0","1","0","1","3","5","4","4","5","1","3","4","4","3","4","798586383785664514","李","599","","","","","","","","","","","","","","","","","","","true","3","3","ability","875","self","本人的","","","","","","","","","","","","","","","","",""
"null","","null","html-keyboard-response","77","227108","0.0-6.0-0.0-6.0-0.9","3","3","3","3","3","3","2","3","4","4","3","2","2","3","2","2","2","2","3","4","4","5","4","4","2","3","3","2","4","1","0","1","1","0","0","1","1","1","1","1","0","1","0","1","3","5","4","4","5","1","3","4","4","3","4","798586383785664514","李","599","","","","","","","","","","","","","","","","","","","","","","","","","","","","","","","","","","","","","","","","","",""
"380","<p style=""color:white; font-size: 35px;"">蠢笨</p>","e","categorize-html","78","227489","0.0-6.0-0.0-6.0-1.9","3","3","3","3","3","3","2","3","4","4","3","2","2","3","2","2","2","2","3","4","4","5","4","4","2","3","3","2","4","1","0","1","1","0","0","1","1","1","1","1","0","1","0","1","3","5","4","4","5","1","3","4","4","3","4","798586383785664514","李","599","","","","","","","","","","","","","","","","","","","true","3","3","ability","380","negative","蠢笨","","","","","","","","","","","","","","","","",""
"null","","null","html-keyboard-response","79","227740","0.0-6.0-0.0-6.0-0.10","3","3","3","3","3","3","2","3","4","4","3","2","2","3","2","2","2","2","3","4","4","5","4","4","2","3","3","2","4","1","0","1","1","0","0","1","1","1","1","1","0","1","0","1","3","5","4","4","5","1","3","4","4","3","4","798586383785664514","李","599","","","","","","","","","","","","","","","","","","","","","","","","","","","","","","","","","","","","","","","","","",""
"577","<p style=""color:rgb(150, 250, 100); font-size: 35px;"">别人的</p>","i","categorize-html","80","228318","0.0-6.0-0.0-6.0-1.10","3","3","3","3","3","3","2","3","4","4","3","2","2","3","2","2","2","2","3","4","4","5","4","4","2","3","3","2","4","1","0","1","1","0","0","1","1","1","1","1","0","1","0","1","3","5","4","4","5","1","3","4","4","3","4","798586383785664514","李","599","","","","","","","","","","","","","","","","","","","true","3","3","ability","577","other","别人的","","","","","","","","","","","","","","","","",""
"null","","null","html-keyboard-response","81","228570","0.0-6.0-0.0-6.0-0.11","3","3","3","3","3","3","2","3","4","4","3","2","2","3","2","2","2","2","3","4","4","5","4","4","2","3","3","2","4","1","0","1","1","0","0","1","1","1","1","1","0","1","0","1","3","5","4","4","5","1","3","4","4","3","4","798586383785664514","李","599","","","","","","","","","","","","","","","","","","","","","","","","","","","","","","","","","","","","","","","","","",""
"857","<p style=""color:white; font-size: 35px;"">精干</p>","i","categorize-html","82","229428","0.0-6.0-0.0-6.0-1.11","3","3","3","3","3","3","2","3","4","4","3","2","2","3","2","2","2","2","3","4","4","5","4","4","2","3","3","2","4","1","0","1","1","0","0","1","1","1","1","1","0","1","0","1","3","5","4","4","5","1","3","4","4","3","4","798586383785664514","李","599","","","","","","","","","","","","","","","","","","","true","3","3","ability","857","positive","精干","","","","","","","","","","","","","","","","",""
"null","","null","html-keyboard-response","83","229678","0.0-6.0-0.0-6.0-0.12","3","3","3","3","3","3","2","3","4","4","3","2","2","3","2","2","2","2","3","4","4","5","4","4","2","3","3","2","4","1","0","1","1","0","0","1","1","1","1","1","0","1","0","1","3","5","4","4","5","1","3","4","4","3","4","798586383785664514","李","599","","","","","","","","","","","","","","","","","","","","","","","","","","","","","","","","","","","","","","","","","",""
"499","<p style=""color:rgb(150, 250, 100); font-size: 35px;"">我</p>","i","categorize-html","84","230770","0.0-6.0-0.0-6.0-1.12","3","3","3","3","3","3","2","3","4","4","3","2","2","3","2","2","2","2","3","4","4","5","4","4","2","3","3","2","4","1","0","1","1","0","0","1","1","1","1","1","0","1","0","1","3","5","4","4","5","1","3","4","4","3","4","798586383785664514","李","599","","","","","","","","","","","","","","","","","","","false","3","3","ability","1309.681818181818","self","我","","","","","","","","","","","","","","","","",""
"null","","null","html-keyboard-response","85","231021","0.0-6.0-0.0-6.0-0.13","3","3","3","3","3","3","2","3","4","4","3","2","2","3","2","2","2","2","3","4","4","5","4","4","2","3","3","2","4","1","0","1","1","0","0","1","1","1","1","1","0","1","0","1","3","5","4","4","5","1","3","4","4","3","4","798586383785664514","李","599","","","","","","","","","","","","","","","","","","","","","","","","","","","","","","","","","","","","","","","","","",""
"798","<p style=""color:white; font-size: 35px;"">天才</p>","i","categorize-html","86","231821","0.0-6.0-0.0-6.0-1.13","3","3","3","3","3","3","2","3","4","4","3","2","2","3","2","2","2","2","3","4","4","5","4","4","2","3","3","2","4","1","0","1","1","0","0","1","1","1","1","1","0","1","0","1","3","5","4","4","5","1","3","4","4","3","4","798586383785664514","李","599","","","","","","","","","","","","","","","","","","","true","3","3","ability","798","positive","天才","","","","","","","","","","","","","","","","",""
"null","","null","html-keyboard-response","87","232072","0.0-6.0-0.0-6.0-0.14","3","3","3","3","3","3","2","3","4","4","3","2","2","3","2","2","2","2","3","4","4","5","4","4","2","3","3","2","4","1","0","1","1","0","0","1","1","1","1","1","0","1","0","1","3","5","4","4","5","1","3","4","4","3","4","798586383785664514","李","599","","","","","","","","","","","","","","","","","","","","","","","","","","","","","","","","","","","","","","","","","",""
"608","<p style=""color:rgb(150, 250, 100); font-size: 35px;"">他人的</p>","i","categorize-html","88","232681","0.0-6.0-0.0-6.0-1.14","3","3","3","3","3","3","2","3","4","4","3","2","2","3","2","2","2","2","3","4","4","5","4","4","2","3","3","2","4","1","0","1","1","0","0","1","1","1","1","1","0","1","0","1","3","5","4","4","5","1","3","4","4","3","4","798586383785664514","李","599","","","","","","","","","","","","","","","","","","","true","3","3","ability","608","other","他人的","","","","","","","","","","","","","","","","",""
"null","","null","html-keyboard-response","89","232931","0.0-6.0-0.0-6.0-0.15","3","3","3","3","3","3","2","3","4","4","3","2","2","3","2","2","2","2","3","4","4","5","4","4","2","3","3","2","4","1","0","1","1","0","0","1","1","1","1","1","0","1","0","1","3","5","4","4","5","1","3","4","4","3","4","798586383785664514","李","599","","","","","","","","","","","","","","","","","","","","","","","","","","","","","","","","","","","","","","","","","",""
"854","<p style=""color:white; font-size: 35px;"">无能</p>","e","categorize-html","90","233787","0.0-6.0-0.0-6.0-1.15","3","3","3","3","3","3","2","3","4","4","3","2","2","3","2","2","2","2","3","4","4","5","4","4","2","3","3","2","4","1","0","1","1","0","0","1","1","1","1","1","0","1","0","1","3","5","4","4","5","1","3","4","4","3","4","798586383785664514","李","599","","","","","","","","","","","","","","","","","","","true","3","3","ability","854","negative","无能","","","","","","","","","","","","","","","","",""
"null","","null","html-keyboard-response","91","234037","0.0-6.0-0.0-6.0-0.16","3","3","3","3","3","3","2","3","4","4","3","2","2","3","2","2","2","2","3","4","4","5","4","4","2","3","3","2","4","1","0","1","1","0","0","1","1","1","1","1","0","1","0","1","3","5","4","4","5","1","3","4","4","3","4","798586383785664514","李","599","","","","","","","","","","","","","","","","","","","","","","","","","","","","","","","","","","","","","","","","","",""
"580","<p style=""color:rgb(150, 250, 100); font-size: 35px;"">自己</p>","e","categorize-html","92","234619","0.0-6.0-0.0-6.0-1.16","3","3","3","3","3","3","2","3","4","4","3","2","2","3","2","2","2","2","3","4","4","5","4","4","2","3","3","2","4","1","0","1","1","0","0","1","1","1","1","1","0","1","0","1","3","5","4","4","5","1","3","4","4","3","4","798586383785664514","李","599","","","","","","","","","","","","","","","","","","","true","3","3","ability","580","self","自己","","","","","","","","","","","","","","","","",""
"null","","null","html-keyboard-response","93","234870","0.0-6.0-0.0-6.0-0.17","3","3","3","3","3","3","2","3","4","4","3","2","2","3","2","2","2","2","3","4","4","5","4","4","2","3","3","2","4","1","0","1","1","0","0","1","1","1","1","1","0","1","0","1","3","5","4","4","5","1","3","4","4","3","4","798586383785664514","李","599","","","","","","","","","","","","","","","","","","","","","","","","","","","","","","","","","","","","","","","","","",""
"410","<p style=""color:white; font-size: 35px;"">能干</p>","i","categorize-html","94","235282","0.0-6.0-0.0-6.0-1.17","3","3","3","3","3","3","2","3","4","4","3","2","2","3","2","2","2","2","3","4","4","5","4","4","2","3","3","2","4","1","0","1","1","0","0","1","1","1","1","1","0","1","0","1","3","5","4","4","5","1","3","4","4","3","4","798586383785664514","李","599","","","","","","","","","","","","","","","","","","","true","3","3","ability","410","positive","能干","","","","","","","","","","","","","","","","",""
"null","","null","html-keyboard-response","95","235532","0.0-6.0-0.0-6.0-0.18","3","3","3","3","3","3","2","3","4","4","3","2","2","3","2","2","2","2","3","4","4","5","4","4","2","3","3","2","4","1","0","1","1","0","0","1","1","1","1","1","0","1","0","1","3","5","4","4","5","1","3","4","4","3","4","798586383785664514","李","599","","","","","","","","","","","","","","","","","","","","","","","","","","","","","","","","","","","","","","","","","",""
"580","<p style=""color:rgb(150, 250, 100); font-size: 35px;"">他</p>","i","categorize-html","96","236114","0.0-6.0-0.0-6.0-1.18","3","3","3","3","3","3","2","3","4","4","3","2","2","3","2","2","2","2","3","4","4","5","4","4","2","3","3","2","4","1","0","1","1","0","0","1","1","1","1","1","0","1","0","1","3","5","4","4","5","1","3","4","4","3","4","798586383785664514","李","599","","","","","","","","","","","","","","","","","","","true","3","3","ability","580","other","他","","","","","","","","","","","","","","","","",""
"null","","null","html-keyboard-response","97","236365","0.0-6.0-0.0-6.0-0.19","3","3","3","3","3","3","2","3","4","4","3","2","2","3","2","2","2","2","3","4","4","5","4","4","2","3","3","2","4","1","0","1","1","0","0","1","1","1","1","1","0","1","0","1","3","5","4","4","5","1","3","4","4","3","4","798586383785664514","李","599","","","","","","","","","","","","","","","","","","","","","","","","","","","","","","","","","","","","","","","","","",""
"555","<p style=""color:white; font-size: 35px;"">废物</p>","e","categorize-html","98","236921","0.0-6.0-0.0-6.0-1.19","3","3","3","3","3","3","2","3","4","4","3","2","2","3","2","2","2","2","3","4","4","5","4","4","2","3","3","2","4","1","0","1","1","0","0","1","1","1","1","1","0","1","0","1","3","5","4","4","5","1","3","4","4","3","4","798586383785664514","李","599","","","","","","","","","","","","","","","","","","","true","3","3","ability","555","negative","废物","","","","","","","","","","","","","","","","",""
"null","","null","html-keyboard-response","99","237172","0.0-6.0-0.0-6.0-0.20","3","3","3","3","3","3","2","3","4","4","3","2","2","3","2","2","2","2","3","4","4","5","4","4","2","3","3","2","4","1","0","1","1","0","0","1","1","1","1","1","0","1","0","1","3","5","4","4","5","1","3","4","4","3","4","798586383785664514","李","599","","","","","","","","","","","","","","","","","","","","","","","","","","","","","","","","","","","","","","","","","",""
"774","<p style=""color:rgb(150, 250, 100); font-size: 35px;"">他人</p>","i","categorize-html","100","237948","0.0-6.0-0.0-6.0-1.20","3","3","3","3","3","3","2","3","4","4","3","2","2","3","2","2","2","2","3","4","4","5","4","4","2","3","3","2","4","1","0","1","1","0","0","1","1","1","1","1","0","1","0","1","3","5","4","4","5","1","3","4","4","3","4","798586383785664514","李","599","","","","","","","","","","","","","","","","","","","true","3","3","ability","774","other","他人","","","","","","","","","","","","","","","","",""
"null","","null","html-keyboard-response","101","238199","0.0-6.0-0.0-6.0-0.21","3","3","3","3","3","3","2","3","4","4","3","2","2","3","2","2","2","2","3","4","4","5","4","4","2","3","3","2","4","1","0","1","1","0","0","1","1","1","1","1","0","1","0","1","3","5","4","4","5","1","3","4","4","3","4","798586383785664514","李","599","","","","","","","","","","","","","","","","","","","","","","","","","","","","","","","","","","","","","","","","","",""
"1346","<p style=""color:white; font-size: 35px;"">全才</p>","e","categorize-html","102","240131","0.0-6.0-0.0-6.0-1.21","3","3","3","3","3","3","2","3","4","4","3","2","2","3","2","2","2","2","3","4","4","5","4","4","2","3","3","2","4","1","0","1","1","0","0","1","1","1","1","1","0","1","0","1","3","5","4","4","5","1","3","4","4","3","4","798586383785664514","李","599","","","","","","","","","","","","","","","","","","","false","3","3","ability","1309.681818181818","positive","全才","","","","","","","","","","","","","","","","",""
"null","","null","html-keyboard-response","103","240382","0.0-6.0-0.0-6.0-0.22","3","3","3","3","3","3","2","3","4","4","3","2","2","3","2","2","2","2","3","4","4","5","4","4","2","3","3","2","4","1","0","1","1","0","0","1","1","1","1","1","0","1","0","1","3","5","4","4","5","1","3","4","4","3","4","798586383785664514","李","599","","","","","","","","","","","","","","","","","","","","","","","","","","","","","","","","","","","","","","","","","",""
"800","<p style=""color:rgb(150, 250, 100); font-size: 35px;"">自己的</p>","e","categorize-html","104","241183","0.0-6.0-0.0-6.0-1.22","3","3","3","3","3","3","2","3","4","4","3","2","2","3","2","2","2","2","3","4","4","5","4","4","2","3","3","2","4","1","0","1","1","0","0","1","1","1","1","1","0","1","0","1","3","5","4","4","5","1","3","4","4","3","4","798586383785664514","李","599","","","","","","","","","","","","","","","","","","","true","3","3","ability","800","self","自己的","","","","","","","","","","","","","","","","",""
"null","","null","html-keyboard-response","105","241435","0.0-6.0-0.0-6.0-0.23","3","3","3","3","3","3","2","3","4","4","3","2","2","3","2","2","2","2","3","4","4","5","4","4","2","3","3","2","4","1","0","1","1","0","0","1","1","1","1","1","0","1","0","1","3","5","4","4","5","1","3","4","4","3","4","798586383785664514","李","599","","","","","","","","","","","","","","","","","","","","","","","","","","","","","","","","","","","","","","","","","",""
"1331","<p style=""color:white; font-size: 35px;"">低能</p>","e","categorize-html","106","242767","0.0-6.0-0.0-6.0-1.23","3","3","3","3","3","3","2","3","4","4","3","2","2","3","2","2","2","2","3","4","4","5","4","4","2","3","3","2","4","1","0","1","1","0","0","1","1","1","1","1","0","1","0","1","3","5","4","4","5","1","3","4","4","3","4","798586383785664514","李","599","","","","","","","","","","","","","","","","","","","true","3","3","ability","1331","negative","低能","","","","","","","","","","","","","","","","",""
"6436","
    <div class=""tag-bottom""><p>
    —— 任务4：对“自我/消极”词和“他人/积极”词分类 ——<p/>
    <span style=""color:#78DCE8""><b>与刚才的任务完全相同，请再次对这四类词语分类</b></span><p/>
    <span style=""color:#FFD866""><b>请根据上方标签的提示，尽可能正确并且快速地做出按键反应</b></span><p/>
    当按键错误时屏幕中会出现<span style=""color:red""> X </span>，需要按另一个键纠正才能继续<br/><p/>
    请把双手食指分别放在键盘的“E”键和“I”键上<p/>
    按<空格键>开始
    </p></div>"," ","html-keyboard-response","107","249204","0.0-6.0-0.0-7.0","3","3","3","3","3","3","2","3","4","4","3","2","2","3","2","2","2","2","3","4","4","5","4","4","2","3","3","2","4","1","0","1","1","0","0","1","1","1","1","1","0","1","0","1","3","5","4","4","5","1","3","4","4","3","4","798586383785664514","李","599","","","","","","","","","","","","","","","","","","","","","","","","","","","","","","","","","","","","","","","","","",""
"null","","null","html-keyboard-response","108","249455","0.0-6.0-0.0-8.0-0.0","3","3","3","3","3","3","2","3","4","4","3","2","2","3","2","2","2","2","3","4","4","5","4","4","2","3","3","2","4","1","0","1","1","0","0","1","1","1","1","1","0","1","0","1","3","5","4","4","5","1","3","4","4","3","4","798586383785664514","李","599","","","","","","","","","","","","","","","","","","","","","","","","","","","","","","","","","","","","","","","","","",""
"613","<p style=""color:rgb(150, 250, 100); font-size: 35px;"">我</p>","e","categorize-html","109","250070","0.0-6.0-0.0-8.0-1.0","3","3","3","3","3","3","2","3","4","4","3","2","2","3","2","2","2","2","3","4","4","5","4","4","2","3","3","2","4","1","0","1","1","0","0","1","1","1","1","1","0","1","0","1","3","5","4","4","5","1","3","4","4","3","4","798586383785664514","李","599","","","","","","","","","","","","","","","","","","","true","4","4","ability","613","self","我","","","","","","","","","","","","","","","","",""
"null","","null","html-keyboard-response","110","250321","0.0-6.0-0.0-8.0-0.1","3","3","3","3","3","3","2","3","4","4","3","2","2","3","2","2","2","2","3","4","4","5","4","4","2","3","3","2","4","1","0","1","1","0","0","1","1","1","1","1","0","1","0","1","3","5","4","4","5","1","3","4","4","3","4","798586383785664514","李","599","","","","","","","","","","","","","","","","","","","","","","","","","","","","","","","","","","","","","","","","","",""
"805","<p style=""color:white; font-size: 35px;"">愚钝</p>","e","categorize-html","111","251127","0.0-6.0-0.0-8.0-1.1","3","3","3","3","3","3","2","3","4","4","3","2","2","3","2","2","2","2","3","4","4","5","4","4","2","3","3","2","4","1","0","1","1","0","0","1","1","1","1","1","0","1","0","1","3","5","4","4","5","1","3","4","4","3","4","798586383785664514","李","599","","","","","","","","","","","","","","","","","","","true","4","4","ability","805","negative","愚钝","","","","","","","","","","","","","","","","",""
"null","","null","html-keyboard-response","112","251377","0.0-6.0-0.0-8.0-0.2","3","3","3","3","3","3","2","3","4","4","3","2","2","3","2","2","2","2","3","4","4","5","4","4","2","3","3","2","4","1","0","1","1","0","0","1","1","1","1","1","0","1","0","1","3","5","4","4","5","1","3","4","4","3","4","798586383785664514","李","599","","","","","","","","","","","","","","","","","","","","","","","","","","","","","","","","","","","","","","","","","",""
"507","<p style=""color:rgb(150, 250, 100); font-size: 35px;"">别人</p>","i","categorize-html","113","251885","0.0-6.0-0.0-8.0-1.2","3","3","3","3","3","3","2","3","4","4","3","2","2","3","2","2","2","2","3","4","4","5","4","4","2","3","3","2","4","1","0","1","1","0","0","1","1","1","1","1","0","1","0","1","3","5","4","4","5","1","3","4","4","3","4","798586383785664514","李","599","","","","","","","","","","","","","","","","","","","true","4","4","ability","507","other","别人","","","","","","","","","","","","","","","","",""
"null","","null","html-keyboard-response","114","252137","0.0-6.0-0.0-8.0-0.3","3","3","3","3","3","3","2","3","4","4","3","2","2","3","2","2","2","2","3","4","4","5","4","4","2","3","3","2","4","1","0","1","1","0","0","1","1","1","1","1","0","1","0","1","3","5","4","4","5","1","3","4","4","3","4","798586383785664514","李","599","","","","","","","","","","","","","","","","","","","","","","","","","","","","","","","","","","","","","","","","","",""
"333","<p style=""color:white; font-size: 35px;"">能干</p>","i","categorize-html","115","252470","0.0-6.0-0.0-8.0-1.3","3","3","3","3","3","3","2","3","4","4","3","2","2","3","2","2","2","2","3","4","4","5","4","4","2","3","3","2","4","1","0","1","1","0","0","1","1","1","1","1","0","1","0","1","3","5","4","4","5","1","3","4","4","3","4","798586383785664514","李","599","","","","","","","","","","","","","","","","","","","true","4","4","ability","333","positive","能干","","","","","","","","","","","","","","","","",""
"null","","null","html-keyboard-response","116","252721","0.0-6.0-0.0-8.0-0.4","3","3","3","3","3","3","2","3","4","4","3","2","2","3","2","2","2","2","3","4","4","5","4","4","2","3","3","2","4","1","0","1","1","0","0","1","1","1","1","1","0","1","0","1","3","5","4","4","5","1","3","4","4","3","4","798586383785664514","李","599","","","","","","","","","","","","","","","","","","","","","","","","","","","","","","","","","","","","","","","","","",""
"496","<p style=""color:rgb(150, 250, 100); font-size: 35px;"">他人的</p>","i","categorize-html","117","253218","0.0-6.0-0.0-8.0-1.4","3","3","3","3","3","3","2","3","4","4","3","2","2","3","2","2","2","2","3","4","4","5","4","4","2","3","3","2","4","1","0","1","1","0","0","1","1","1","1","1","0","1","0","1","3","5","4","4","5","1","3","4","4","3","4","798586383785664514","李","599","","","","","","","","","","","","","","","","","","","true","4","4","ability","496","other","他人的","","","","","","","","","","","","","","","","",""
"null","","null","html-keyboard-response","118","253470","0.0-6.0-0.0-8.0-0.5","3","3","3","3","3","3","2","3","4","4","3","2","2","3","2","2","2","2","3","4","4","5","4","4","2","3","3","2","4","1","0","1","1","0","0","1","1","1","1","1","0","1","0","1","3","5","4","4","5","1","3","4","4","3","4","798586383785664514","李","599","","","","","","","","","","","","","","","","","","","","","","","","","","","","","","","","","","","","","","","","","",""
"534","<p style=""color:white; font-size: 35px;"">低能</p>","e","categorize-html","119","254006","0.0-6.0-0.0-8.0-1.5","3","3","3","3","3","3","2","3","4","4","3","2","2","3","2","2","2","2","3","4","4","5","4","4","2","3","3","2","4","1","0","1","1","0","0","1","1","1","1","1","0","1","0","1","3","5","4","4","5","1","3","4","4","3","4","798586383785664514","李","599","","","","","","","","","","","","","","","","","","","true","4","4","ability","534","negative","低能","","","","","","","","","","","","","","","","",""
"null","","null","html-keyboard-response","120","254256","0.0-6.0-0.0-8.0-0.6","3","3","3","3","3","3","2","3","4","4","3","2","2","3","2","2","2","2","3","4","4","5","4","4","2","3","3","2","4","1","0","1","1","0","0","1","1","1","1","1","0","1","0","1","3","5","4","4","5","1","3","4","4","3","4","798586383785664514","李","599","","","","","","","","","","","","","","","","","","","","","","","","","","","","","","","","","","","","","","","","","",""
"556","<p style=""color:rgb(150, 250, 100); font-size: 35px;"">我的</p>","e","categorize-html","121","254813","0.0-6.0-0.0-8.0-1.6","3","3","3","3","3","3","2","3","4","4","3","2","2","3","2","2","2","2","3","4","4","5","4","4","2","3","3","2","4","1","0","1","1","0","0","1","1","1","1","1","0","1","0","1","3","5","4","4","5","1","3","4","4","3","4","798586383785664514","李","599","","","","","","","","","","","","","","","","","","","true","4","4","ability","556","self","我的","","","","","","","","","","","","","","","","",""
"null","","null","html-keyboard-response","122","255064","0.0-6.0-0.0-8.0-0.7","3","3","3","3","3","3","2","3","4","4","3","2","2","3","2","2","2","2","3","4","4","5","4","4","2","3","3","2","4","1","0","1","1","0","0","1","1","1","1","1","0","1","0","1","3","5","4","4","5","1","3","4","4","3","4","798586383785664514","李","599","","","","","","","","","","","","","","","","","","","","","","","","","","","","","","","","","","","","","","","","","",""
"609","<p style=""color:white; font-size: 35px;"">全才</p>","i","categorize-html","123","255674","0.0-6.0-0.0-8.0-1.7","3","3","3","3","3","3","2","3","4","4","3","2","2","3","2","2","2","2","3","4","4","5","4","4","2","3","3","2","4","1","0","1","1","0","0","1","1","1","1","1","0","1","0","1","3","5","4","4","5","1","3","4","4","3","4","798586383785664514","李","599","","","","","","","","","","","","","","","","","","","true","4","4","ability","609","positive","全才","","","","","","","","","","","","","","","","",""
"null","","null","html-keyboard-response","124","255924","0.0-6.0-0.0-8.0-0.8","3","3","3","3","3","3","2","3","4","4","3","2","2","3","2","2","2","2","3","4","4","5","4","4","2","3","3","2","4","1","0","1","1","0","0","1","1","1","1","1","0","1","0","1","3","5","4","4","5","1","3","4","4","3","4","798586383785664514","李","599","","","","","","","","","","","","","","","","","","","","","","","","","","","","","","","","","","","","","","","","","",""
"493","<p style=""color:rgb(150, 250, 100); font-size: 35px;"">别人的</p>","i","categorize-html","125","256419","0.0-6.0-0.0-8.0-1.8","3","3","3","3","3","3","2","3","4","4","3","2","2","3","2","2","2","2","3","4","4","5","4","4","2","3","3","2","4","1","0","1","1","0","0","1","1","1","1","1","0","1","0","1","3","5","4","4","5","1","3","4","4","3","4","798586383785664514","李","599","","","","","","","","","","","","","","","","","","","true","4","4","ability","493","other","别人的","","","","","","","","","","","","","","","","",""
"null","","null","html-keyboard-response","126","256671","0.0-6.0-0.0-8.0-0.9","3","3","3","3","3","3","2","3","4","4","3","2","2","3","2","2","2","2","3","4","4","5","4","4","2","3","3","2","4","1","0","1","1","0","0","1","1","1","1","1","0","1","0","1","3","5","4","4","5","1","3","4","4","3","4","798586383785664514","李","599","","","","","","","","","","","","","","","","","","","","","","","","","","","","","","","","","","","","","","","","","",""
"417","<p style=""color:white; font-size: 35px;"">精干</p>","i","categorize-html","127","257089","0.0-6.0-0.0-8.0-1.9","3","3","3","3","3","3","2","3","4","4","3","2","2","3","2","2","2","2","3","4","4","5","4","4","2","3","3","2","4","1","0","1","1","0","0","1","1","1","1","1","0","1","0","1","3","5","4","4","5","1","3","4","4","3","4","798586383785664514","李","599","","","","","","","","","","","","","","","","","","","true","4","4","ability","417","positive","精干","","","","","","","","","","","","","","","","",""
"null","","null","html-keyboard-response","128","257341","0.0-6.0-0.0-8.0-0.10","3","3","3","3","3","3","2","3","4","4","3","2","2","3","2","2","2","2","3","4","4","5","4","4","2","3","3","2","4","1","0","1","1","0","0","1","1","1","1","1","0","1","0","1","3","5","4","4","5","1","3","4","4","3","4","798586383785664514","李","599","","","","","","","","","","","","","","","","","","","","","","","","","","","","","","","","","","","","","","","","","",""
"467","<p style=""color:rgb(150, 250, 100); font-size: 35px;"">本人</p>","e","categorize-html","129","257809","0.0-6.0-0.0-8.0-1.10","3","3","3","3","3","3","2","3","4","4","3","2","2","3","2","2","2","2","3","4","4","5","4","4","2","3","3","2","4","1","0","1","1","0","0","1","1","1","1","1","0","1","0","1","3","5","4","4","5","1","3","4","4","3","4","798586383785664514","李","599","","","","","","","","","","","","","","","","","","","true","4","4","ability","467","self","本人","","","","","","","","","","","","","","","","",""
"null","","null","html-keyboard-response","130","258060","0.0-6.0-0.0-8.0-0.11","3","3","3","3","3","3","2","3","4","4","3","2","2","3","2","2","2","2","3","4","4","5","4","4","2","3","3","2","4","1","0","1","1","0","0","1","1","1","1","1","0","1","0","1","3","5","4","4","5","1","3","4","4","3","4","798586383785664514","李","599","","","","","","","","","","","","","","","","","","","","","","","","","","","","","","","","","","","","","","","","","",""
"706","<p style=""color:white; font-size: 35px;"">无能</p>","e","categorize-html","131","258767","0.0-6.0-0.0-8.0-1.11","3","3","3","3","3","3","2","3","4","4","3","2","2","3","2","2","2","2","3","4","4","5","4","4","2","3","3","2","4","1","0","1","1","0","0","1","1","1","1","1","0","1","0","1","3","5","4","4","5","1","3","4","4","3","4","798586383785664514","李","599","","","","","","","","","","","","","","","","","","","true","4","4","ability","706","negative","无能","","","","","","","","","","","","","","","","",""
"null","","null","html-keyboard-response","132","259019","0.0-6.0-0.0-8.0-0.12","3","3","3","3","3","3","2","3","4","4","3","2","2","3","2","2","2","2","3","4","4","5","4","4","2","3","3","2","4","1","0","1","1","0","0","1","1","1","1","1","0","1","0","1","3","5","4","4","5","1","3","4","4","3","4","798586383785664514","李","599","","","","","","","","","","","","","","","","","","","","","","","","","","","","","","","","","","","","","","","","","",""
"691","<p style=""color:rgb(150, 250, 100); font-size: 35px;"">自己的</p>","e","categorize-html","133","259711","0.0-6.0-0.0-8.0-1.12","3","3","3","3","3","3","2","3","4","4","3","2","2","3","2","2","2","2","3","4","4","5","4","4","2","3","3","2","4","1","0","1","1","0","0","1","1","1","1","1","0","1","0","1","3","5","4","4","5","1","3","4","4","3","4","798586383785664514","李","599","","","","","","","","","","","","","","","","","","","true","4","4","ability","691","self","自己的","","","","","","","","","","","","","","","","",""
"null","","null","html-keyboard-response","134","259962","0.0-6.0-0.0-8.0-0.13","3","3","3","3","3","3","2","3","4","4","3","2","2","3","2","2","2","2","3","4","4","5","4","4","2","3","3","2","4","1","0","1","1","0","0","1","1","1","1","1","0","1","0","1","3","5","4","4","5","1","3","4","4","3","4","798586383785664514","李","599","","","","","","","","","","","","","","","","","","","","","","","","","","","","","","","","","","","","","","","","","",""
"460","<p style=""color:white; font-size: 35px;"">废物</p>","e","categorize-html","135","260423","0.0-6.0-0.0-8.0-1.13","3","3","3","3","3","3","2","3","4","4","3","2","2","3","2","2","2","2","3","4","4","5","4","4","2","3","3","2","4","1","0","1","1","0","0","1","1","1","1","1","0","1","0","1","3","5","4","4","5","1","3","4","4","3","4","798586383785664514","李","599","","","","","","","","","","","","","","","","","","","true","4","4","ability","460","negative","废物","","","","","","","","","","","","","","","","",""
"null","","null","html-keyboard-response","136","260674","0.0-6.0-0.0-8.0-0.14","3","3","3","3","3","3","2","3","4","4","3","2","2","3","2","2","2","2","3","4","4","5","4","4","2","3","3","2","4","1","0","1","1","0","0","1","1","1","1","1","0","1","0","1","3","5","4","4","5","1","3","4","4","3","4","798586383785664514","李","599","","","","","","","","","","","","","","","","","","","","","","","","","","","","","","","","","","","","","","","","","",""
"598","<p style=""color:rgb(150, 250, 100); font-size: 35px;"">别人</p>","i","categorize-html","137","261273","0.0-6.0-0.0-8.0-1.14","3","3","3","3","3","3","2","3","4","4","3","2","2","3","2","2","2","2","3","4","4","5","4","4","2","3","3","2","4","1","0","1","1","0","0","1","1","1","1","1","0","1","0","1","3","5","4","4","5","1","3","4","4","3","4","798586383785664514","李","599","","","","","","","","","","","","","","","","","","","true","4","4","ability","598","other","别人","","","","","","","","","","","","","","","","",""
"null","","null","html-keyboard-response","138","261524","0.0-6.0-0.0-8.0-0.15","3","3","3","3","3","3","2","3","4","4","3","2","2","3","2","2","2","2","3","4","4","5","4","4","2","3","3","2","4","1","0","1","1","0","0","1","1","1","1","1","0","1","0","1","3","5","4","4","5","1","3","4","4","3","4","798586383785664514","李","599","","","","","","","","","","","","","","","","","","","","","","","","","","","","","","","","","","","","","","","","","",""
"454","<p style=""color:white; font-size: 35px;"">全能</p>","i","categorize-html","139","261979","0.0-6.0-0.0-8.0-1.15","3","3","3","3","3","3","2","3","4","4","3","2","2","3","2","2","2","2","3","4","4","5","4","4","2","3","3","2","4","1","0","1","1","0","0","1","1","1","1","1","0","1","0","1","3","5","4","4","5","1","3","4","4","3","4","798586383785664514","李","599","","","","","","","","","","","","","","","","","","","true","4","4","ability","454","positive","全能","","","","","","","","","","","","","","","","",""
"null","","null","html-keyboard-response","140","262230","0.0-6.0-0.0-8.0-0.16","3","3","3","3","3","3","2","3","4","4","3","2","2","3","2","2","2","2","3","4","4","5","4","4","2","3","3","2","4","1","0","1","1","0","0","1","1","1","1","1","0","1","0","1","3","5","4","4","5","1","3","4","4","3","4","798586383785664514","李","599","","","","","","","","","","","","","","","","","","","","","","","","","","","","","","","","","","","","","","","","","",""
"546","<p style=""color:rgb(150, 250, 100); font-size: 35px;"">自己</p>","e","categorize-html","141","262778","0.0-6.0-0.0-8.0-1.16","3","3","3","3","3","3","2","3","4","4","3","2","2","3","2","2","2","2","3","4","4","5","4","4","2","3","3","2","4","1","0","1","1","0","0","1","1","1","1","1","0","1","0","1","3","5","4","4","5","1","3","4","4","3","4","798586383785664514","李","599","","","","","","","","","","","","","","","","","","","true","4","4","ability","546","self","自己","","","","","","","","","","","","","","","","",""
"null","","null","html-keyboard-response","142","263028","0.0-6.0-0.0-8.0-0.17","3","3","3","3","3","3","2","3","4","4","3","2","2","3","2","2","2","2","3","4","4","5","4","4","2","3","3","2","4","1","0","1","1","0","0","1","1","1","1","1","0","1","0","1","3","5","4","4","5","1","3","4","4","3","4","798586383785664514","李","599","","","","","","","","","","","","","","","","","","","","","","","","","","","","","","","","","","","","","","","","","",""
"537","<p style=""color:white; font-size: 35px;"">精干</p>","i","categorize-html","143","263567","0.0-6.0-0.0-8.0-1.17","3","3","3","3","3","3","2","3","4","4","3","2","2","3","2","2","2","2","3","4","4","5","4","4","2","3","3","2","4","1","0","1","1","0","0","1","1","1","1","1","0","1","0","1","3","5","4","4","5","1","3","4","4","3","4","798586383785664514","李","599","","","","","","","","","","","","","","","","","","","true","4","4","ability","537","positive","精干","","","","","","","","","","","","","","","","",""
"null","","null","html-keyboard-response","144","263818","0.0-6.0-0.0-8.0-0.18","3","3","3","3","3","3","2","3","4","4","3","2","2","3","2","2","2","2","3","4","4","5","4","4","2","3","3","2","4","1","0","1","1","0","0","1","1","1","1","1","0","1","0","1","3","5","4","4","5","1","3","4","4","3","4","798586383785664514","李","599","","","","","","","","","","","","","","","","","","","","","","","","","","","","","","","","","","","","","","","","","",""
"693","<p style=""color:rgb(150, 250, 100); font-size: 35px;"">他人</p>","i","categorize-html","145","264513","0.0-6.0-0.0-8.0-1.18","3","3","3","3","3","3","2","3","4","4","3","2","2","3","2","2","2","2","3","4","4","5","4","4","2","3","3","2","4","1","0","1","1","0","0","1","1","1","1","1","0","1","0","1","3","5","4","4","5","1","3","4","4","3","4","798586383785664514","李","599","","","","","","","","","","","","","","","","","","","true","4","4","ability","693","other","他人","","","","","","","","","","","","","","","","",""
"null","","null","html-keyboard-response","146","264764","0.0-6.0-0.0-8.0-0.19","3","3","3","3","3","3","2","3","4","4","3","2","2","3","2","2","2","2","3","4","4","5","4","4","2","3","3","2","4","1","0","1","1","0","0","1","1","1","1","1","0","1","0","1","3","5","4","4","5","1","3","4","4","3","4","798586383785664514","李","599","","","","","","","","","","","","","","","","","","","","","","","","","","","","","","","","","","","","","","","","","",""
"794","<p style=""color:white; font-size: 35px;"">废物</p>","e","categorize-html","147","265559","0.0-6.0-0.0-8.0-1.19","3","3","3","3","3","3","2","3","4","4","3","2","2","3","2","2","2","2","3","4","4","5","4","4","2","3","3","2","4","1","0","1","1","0","0","1","1","1","1","1","0","1","0","1","3","5","4","4","5","1","3","4","4","3","4","798586383785664514","李","599","","","","","","","","","","","","","","","","","","","true","4","4","ability","794","negative","废物","","","","","","","","","","","","","","","","",""
"null","","null","html-keyboard-response","148","265810","0.0-6.0-0.0-8.0-0.20","3","3","3","3","3","3","2","3","4","4","3","2","2","3","2","2","2","2","3","4","4","5","4","4","2","3","3","2","4","1","0","1","1","0","0","1","1","1","1","1","0","1","0","1","3","5","4","4","5","1","3","4","4","3","4","798586383785664514","李","599","","","","","","","","","","","","","","","","","","","","","","","","","","","","","","","","","","","","","","","","","",""
"541","<p style=""color:rgb(150, 250, 100); font-size: 35px;"">本人的</p>","i","categorize-html","149","267124","0.0-6.0-0.0-8.0-1.20","3","3","3","3","3","3","2","3","4","4","3","2","2","3","2","2","2","2","3","4","4","5","4","4","2","3","3","2","4","1","0","1","1","0","0","1","1","1","1","1","0","1","0","1","3","5","4","4","5","1","3","4","4","3","4","798586383785664514","李","599","","","","","","","","","","","","","","","","","","","false","4","4","ability","1285.5319148936169","self","本人的","","","","","","","","","","","","","","","","",""
"null","","null","html-keyboard-response","150","267375","0.0-6.0-0.0-8.0-0.21","3","3","3","3","3","3","2","3","4","4","3","2","2","3","2","2","2","2","3","4","4","5","4","4","2","3","3","2","4","1","0","1","1","0","0","1","1","1","1","1","0","1","0","1","3","5","4","4","5","1","3","4","4","3","4","798586383785664514","李","599","","","","","","","","","","","","","","","","","","","","","","","","","","","","","","","","","","","","","","","","","",""
"758","<p style=""color:white; font-size: 35px;"">天才</p>","i","categorize-html","151","268133","0.0-6.0-0.0-8.0-1.21","3","3","3","3","3","3","2","3","4","4","3","2","2","3","2","2","2","2","3","4","4","5","4","4","2","3","3","2","4","1","0","1","1","0","0","1","1","1","1","1","0","1","0","1","3","5","4","4","5","1","3","4","4","3","4","798586383785664514","李","599","","","","","","","","","","","","","","","","","","","true","4","4","ability","758","positive","天才","","","","","","","","","","","","","","","","",""
"null","","null","html-keyboard-response","152","268385","0.0-6.0-0.0-8.0-0.22","3","3","3","3","3","3","2","3","4","4","3","2","2","3","2","2","2","2","3","4","4","5","4","4","2","3","3","2","4","1","0","1","1","0","0","1","1","1","1","1","0","1","0","1","3","5","4","4","5","1","3","4","4","3","4","798586383785664514","李","599","","","","","","","","","","","","","","","","","","","","","","","","","","","","","","","","","","","","","","","","","",""
"824","<p style=""color:rgb(150, 250, 100); font-size: 35px;"">他的</p>","i","categorize-html","153","269210","0.0-6.0-0.0-8.0-1.22","3","3","3","3","3","3","2","3","4","4","3","2","2","3","2","2","2","2","3","4","4","5","4","4","2","3","3","2","4","1","0","1","1","0","0","1","1","1","1","1","0","1","0","1","3","5","4","4","5","1","3","4","4","3","4","798586383785664514","李","599","","","","","","","","","","","","","","","","","","","true","4","4","ability","824","other","他的","","","","","","","","","","","","","","","","",""
"null","","null","html-keyboard-response","154","269462","0.0-6.0-0.0-8.0-0.23","3","3","3","3","3","3","2","3","4","4","3","2","2","3","2","2","2","2","3","4","4","5","4","4","2","3","3","2","4","1","0","1","1","0","0","1","1","1","1","1","0","1","0","1","3","5","4","4","5","1","3","4","4","3","4","798586383785664514","李","599","","","","","","","","","","","","","","","","","","","","","","","","","","","","","","","","","","","","","","","","","",""
"672","<p style=""color:white; font-size: 35px;"">蠢笨</p>","e","categorize-html","155","270135","0.0-6.0-0.0-8.0-1.23","3","3","3","3","3","3","2","3","4","4","3","2","2","3","2","2","2","2","3","4","4","5","4","4","2","3","3","2","4","1","0","1","1","0","0","1","1","1","1","1","0","1","0","1","3","5","4","4","5","1","3","4","4","3","4","798586383785664514","李","599","","","","","","","","","","","","","","","","","","","true","4","4","ability","672","negative","蠢笨","","","","","","","","","","","","","","","","",""
"null","","null","html-keyboard-response","156","270386","0.0-6.0-0.0-8.0-0.24","3","3","3","3","3","3","2","3","4","4","3","2","2","3","2","2","2","2","3","4","4","5","4","4","2","3","3","2","4","1","0","1","1","0","0","1","1","1","1","1","0","1","0","1","3","5","4","4","5","1","3","4","4","3","4","798586383785664514","李","599","","","","","","","","","","","","","","","","","","","","","","","","","","","","","","","","","","","","","","","","","",""
"1397","<p style=""color:rgb(150, 250, 100); font-size: 35px;"">我的</p>","e","categorize-html","157","271784","0.0-6.0-0.0-8.0-1.24","3","3","3","3","3","3","2","3","4","4","3","2","2","3","2","2","2","2","3","4","4","5","4","4","2","3","3","2","4","1","0","1","1","0","0","1","1","1","1","1","0","1","0","1","3","5","4","4","5","1","3","4","4","3","4","798586383785664514","李","599","","","","","","","","","","","","","","","","","","","true","4","4","ability","1397","self","我的","","","","","","","","","","","","","","","","",""
"null","","null","html-keyboard-response","158","272036","0.0-6.0-0.0-8.0-0.25","3","3","3","3","3","3","2","3","4","4","3","2","2","3","2","2","2","2","3","4","4","5","4","4","2","3","3","2","4","1","0","1","1","0","0","1","1","1","1","1","0","1","0","1","3","5","4","4","5","1","3","4","4","3","4","798586383785664514","李","599","","","","","","","","","","","","","","","","","","","","","","","","","","","","","","","","","","","","","","","","","",""
"768","<p style=""color:white; font-size: 35px;"">无能</p>","e","categorize-html","159","272805","0.0-6.0-0.0-8.0-1.25","3","3","3","3","3","3","2","3","4","4","3","2","2","3","2","2","2","2","3","4","4","5","4","4","2","3","3","2","4","1","0","1","1","0","0","1","1","1","1","1","0","1","0","1","3","5","4","4","5","1","3","4","4","3","4","798586383785664514","李","599","","","","","","","","","","","","","","","","","","","true","4","4","ability","768","negative","无能","","","","","","","","","","","","","","","","",""
"null","","null","html-keyboard-response","160","273056","0.0-6.0-0.0-8.0-0.26","3","3","3","3","3","3","2","3","4","4","3","2","2","3","2","2","2","2","3","4","4","5","4","4","2","3","3","2","4","1","0","1","1","0","0","1","1","1","1","1","0","1","0","1","3","5","4","4","5","1","3","4","4","3","4","798586383785664514","李","599","","","","","","","","","","","","","","","","","","","","","","","","","","","","","","","","","","","","","","","","","",""
"563","<p style=""color:rgb(150, 250, 100); font-size: 35px;"">他人的</p>","i","categorize-html","161","273621","0.0-6.0-0.0-8.0-1.26","3","3","3","3","3","3","2","3","4","4","3","2","2","3","2","2","2","2","3","4","4","5","4","4","2","3","3","2","4","1","0","1","1","0","0","1","1","1","1","1","0","1","0","1","3","5","4","4","5","1","3","4","4","3","4","798586383785664514","李","599","","","","","","","","","","","","","","","","","","","true","4","4","ability","563","other","他人的","","","","","","","","","","","","","","","","",""
"null","","null","html-keyboard-response","162","273872","0.0-6.0-0.0-8.0-0.27","3","3","3","3","3","3","2","3","4","4","3","2","2","3","2","2","2","2","3","4","4","5","4","4","2","3","3","2","4","1","0","1","1","0","0","1","1","1","1","1","0","1","0","1","3","5","4","4","5","1","3","4","4","3","4","798586383785664514","李","599","","","","","","","","","","","","","","","","","","","","","","","","","","","","","","","","","","","","","","","","","",""
"1444","<p style=""color:white; font-size: 35px;"">高效</p>","i","categorize-html","163","275317","0.0-6.0-0.0-8.0-1.27","3","3","3","3","3","3","2","3","4","4","3","2","2","3","2","2","2","2","3","4","4","5","4","4","2","3","3","2","4","1","0","1","1","0","0","1","1","1","1","1","0","1","0","1","3","5","4","4","5","1","3","4","4","3","4","798586383785664514","李","599","","","","","","","","","","","","","","","","","","","true","4","4","ability","1444","positive","高效","","","","","","","","","","","","","","","","",""
"null","","null","html-keyboard-response","164","275568","0.0-6.0-0.0-8.0-0.28","3","3","3","3","3","3","2","3","4","4","3","2","2","3","2","2","2","2","3","4","4","5","4","4","2","3","3","2","4","1","0","1","1","0","0","1","1","1","1","1","0","1","0","1","3","5","4","4","5","1","3","4","4","3","4","798586383785664514","李","599","","","","","","","","","","","","","","","","","","","","","","","","","","","","","","","","","","","","","","","","","",""
"1723","<p style=""color:rgb(150, 250, 100); font-size: 35px;"">自己的</p>","e","categorize-html","165","277292","0.0-6.0-0.0-8.0-1.28","3","3","3","3","3","3","2","3","4","4","3","2","2","3","2","2","2","2","3","4","4","5","4","4","2","3","3","2","4","1","0","1","1","0","0","1","1","1","1","1","0","1","0","1","3","5","4","4","5","1","3","4","4","3","4","798586383785664514","李","599","","","","","","","","","","","","","","","","","","","true","4","4","ability","1723","self","自己的","","","","","","","","","","","","","","","","",""
"null","","null","html-keyboard-response","166","277543","0.0-6.0-0.0-8.0-0.29","3","3","3","3","3","3","2","3","4","4","3","2","2","3","2","2","2","2","3","4","4","5","4","4","2","3","3","2","4","1","0","1","1","0","0","1","1","1","1","1","0","1","0","1","3","5","4","4","5","1","3","4","4","3","4","798586383785664514","李","599","","","","","","","","","","","","","","","","","","","","","","","","","","","","","","","","","","","","","","","","","",""
"981","<p style=""color:white; font-size: 35px;"">全才</p>","i","categorize-html","167","278524","0.0-6.0-0.0-8.0-1.29","3","3","3","3","3","3","2","3","4","4","3","2","2","3","2","2","2","2","3","4","4","5","4","4","2","3","3","2","4","1","0","1","1","0","0","1","1","1","1","1","0","1","0","1","3","5","4","4","5","1","3","4","4","3","4","798586383785664514","李","599","","","","","","","","","","","","","","","","","","","true","4","4","ability","981","positive","全才","","","","","","","","","","","","","","","","",""
"null","","null","html-keyboard-response","168","278775","0.0-6.0-0.0-8.0-0.30","3","3","3","3","3","3","2","3","4","4","3","2","2","3","2","2","2","2","3","4","4","5","4","4","2","3","3","2","4","1","0","1","1","0","0","1","1","1","1","1","0","1","0","1","3","5","4","4","5","1","3","4","4","3","4","798586383785664514","李","599","","","","","","","","","","","","","","","","","","","","","","","","","","","","","","","","","","","","","","","","","",""
"676","<p style=""color:rgb(150, 250, 100); font-size: 35px;"">他的</p>","i","categorize-html","169","279453","0.0-6.0-0.0-8.0-1.30","3","3","3","3","3","3","2","3","4","4","3","2","2","3","2","2","2","2","3","4","4","5","4","4","2","3","3","2","4","1","0","1","1","0","0","1","1","1","1","1","0","1","0","1","3","5","4","4","5","1","3","4","4","3","4","798586383785664514","李","599","","","","","","","","","","","","","","","","","","","true","4","4","ability","676","other","他的","","","","","","","","","","","","","","","","",""
"null","","null","html-keyboard-response","170","279704","0.0-6.0-0.0-8.0-0.31","3","3","3","3","3","3","2","3","4","4","3","2","2","3","2","2","2","2","3","4","4","5","4","4","2","3","3","2","4","1","0","1","1","0","0","1","1","1","1","1","0","1","0","1","3","5","4","4","5","1","3","4","4","3","4","798586383785664514","李","599","","","","","","","","","","","","","","","","","","","","","","","","","","","","","","","","","","","","","","","","","",""
"1558","<p style=""color:white; font-size: 35px;"">拙笨</p>","e","categorize-html","171","281264","0.0-6.0-0.0-8.0-1.31","3","3","3","3","3","3","2","3","4","4","3","2","2","3","2","2","2","2","3","4","4","5","4","4","2","3","3","2","4","1","0","1","1","0","0","1","1","1","1","1","0","1","0","1","3","5","4","4","5","1","3","4","4","3","4","798586383785664514","李","599","","","","","","","","","","","","","","","","","","","true","4","4","ability","1558","negative","拙笨","","","","","","","","","","","","","","","","",""
"null","","null","html-keyboard-response","172","281514","0.0-6.0-0.0-8.0-0.32","3","3","3","3","3","3","2","3","4","4","3","2","2","3","2","2","2","2","3","4","4","5","4","4","2","3","3","2","4","1","0","1","1","0","0","1","1","1","1","1","0","1","0","1","3","5","4","4","5","1","3","4","4","3","4","798586383785664514","李","599","","","","","","","","","","","","","","","","","","","","","","","","","","","","","","","","","","","","","","","","","",""
"602","<p style=""color:rgb(150, 250, 100); font-size: 35px;"">他</p>","i","categorize-html","173","282118","0.0-6.0-0.0-8.0-1.32","3","3","3","3","3","3","2","3","4","4","3","2","2","3","2","2","2","2","3","4","4","5","4","4","2","3","3","2","4","1","0","1","1","0","0","1","1","1","1","1","0","1","0","1","3","5","4","4","5","1","3","4","4","3","4","798586383785664514","李","599","","","","","","","","","","","","","","","","","","","true","4","4","ability","602","other","他","","","","","","","","","","","","","","","","",""
"null","","null","html-keyboard-response","174","282369","0.0-6.0-0.0-8.0-0.33","3","3","3","3","3","3","2","3","4","4","3","2","2","3","2","2","2","2","3","4","4","5","4","4","2","3","3","2","4","1","0","1","1","0","0","1","1","1","1","1","0","1","0","1","3","5","4","4","5","1","3","4","4","3","4","798586383785664514","李","599","","","","","","","","","","","","","","","","","","","","","","","","","","","","","","","","","","","","","","","","","",""
"2147","<p style=""color:white; font-size: 35px;"">全能</p>","i","categorize-html","175","284517","0.0-6.0-0.0-8.0-1.33","3","3","3","3","3","3","2","3","4","4","3","2","2","3","2","2","2","2","3","4","4","5","4","4","2","3","3","2","4","1","0","1","1","0","0","1","1","1","1","1","0","1","0","1","3","5","4","4","5","1","3","4","4","3","4","798586383785664514","李","599","","","","","","","","","","","","","","","","","","","true","4","4","ability","2147","positive","全能","","","","","","","","","","","","","","","","",""
"null","","null","html-keyboard-response","176","284768","0.0-6.0-0.0-8.0-0.34","3","3","3","3","3","3","2","3","4","4","3","2","2","3","2","2","2","2","3","4","4","5","4","4","2","3","3","2","4","1","0","1","1","0","0","1","1","1","1","1","0","1","0","1","3","5","4","4","5","1","3","4","4","3","4","798586383785664514","李","599","","","","","","","","","","","","","","","","","","","","","","","","","","","","","","","","","","","","","","","","","",""
"686","<p style=""color:rgb(150, 250, 100); font-size: 35px;"">本人</p>","e","categorize-html","177","285455","0.0-6.0-0.0-8.0-1.34","3","3","3","3","3","3","2","3","4","4","3","2","2","3","2","2","2","2","3","4","4","5","4","4","2","3","3","2","4","1","0","1","1","0","0","1","1","1","1","1","0","1","0","1","3","5","4","4","5","1","3","4","4","3","4","798586383785664514","李","599","","","","","","","","","","","","","","","","","","","true","4","4","ability","686","self","本人","","","","","","","","","","","","","","","","",""
"null","","null","html-keyboard-response","178","285707","0.0-6.0-0.0-8.0-0.35","3","3","3","3","3","3","2","3","4","4","3","2","2","3","2","2","2","2","3","4","4","5","4","4","2","3","3","2","4","1","0","1","1","0","0","1","1","1","1","1","0","1","0","1","3","5","4","4","5","1","3","4","4","3","4","798586383785664514","李","599","","","","","","","","","","","","","","","","","","","","","","","","","","","","","","","","","","","","","","","","","",""
"383","<p style=""color:white; font-size: 35px;"">拙笨</p>","e","categorize-html","179","286091","0.0-6.0-0.0-8.0-1.35","3","3","3","3","3","3","2","3","4","4","3","2","2","3","2","2","2","2","3","4","4","5","4","4","2","3","3","2","4","1","0","1","1","0","0","1","1","1","1","1","0","1","0","1","3","5","4","4","5","1","3","4","4","3","4","798586383785664514","李","599","","","","","","","","","","","","","","","","","","","true","4","4","ability","383","negative","拙笨","","","","","","","","","","","","","","","","",""
"null","","null","html-keyboard-response","180","286342","0.0-6.0-0.0-8.0-0.36","3","3","3","3","3","3","2","3","4","4","3","2","2","3","2","2","2","2","3","4","4","5","4","4","2","3","3","2","4","1","0","1","1","0","0","1","1","1","1","1","0","1","0","1","3","5","4","4","5","1","3","4","4","3","4","798586383785664514","李","599","","","","","","","","","","","","","","","","","","","","","","","","","","","","","","","","","","","","","","","","","",""
"502","<p style=""color:rgb(150, 250, 100); font-size: 35px;"">本人的</p>","e","categorize-html","181","286846","0.0-6.0-0.0-8.0-1.36","3","3","3","3","3","3","2","3","4","4","3","2","2","3","2","2","2","2","3","4","4","5","4","4","2","3","3","2","4","1","0","1","1","0","0","1","1","1","1","1","0","1","0","1","3","5","4","4","5","1","3","4","4","3","4","798586383785664514","李","599","","","","","","","","","","","","","","","","","","","true","4","4","ability","502","self","本人的","","","","","","","","","","","","","","","","",""
"null","","null","html-keyboard-response","182","287097","0.0-6.0-0.0-8.0-0.37","3","3","3","3","3","3","2","3","4","4","3","2","2","3","2","2","2","2","3","4","4","5","4","4","2","3","3","2","4","1","0","1","1","0","0","1","1","1","1","1","0","1","0","1","3","5","4","4","5","1","3","4","4","3","4","798586383785664514","李","599","","","","","","","","","","","","","","","","","","","","","","","","","","","","","","","","","","","","","","","","","",""
"478","<p style=""color:white; font-size: 35px;"">能干</p>","i","categorize-html","183","287575","0.0-6.0-0.0-8.0-1.37","3","3","3","3","3","3","2","3","4","4","3","2","2","3","2","2","2","2","3","4","4","5","4","4","2","3","3","2","4","1","0","1","1","0","0","1","1","1","1","1","0","1","0","1","3","5","4","4","5","1","3","4","4","3","4","798586383785664514","李","599","","","","","","","","","","","","","","","","","","","true","4","4","ability","478","positive","能干","","","","","","","","","","","","","","","","",""
"null","","null","html-keyboard-response","184","287827","0.0-6.0-0.0-8.0-0.38","3","3","3","3","3","3","2","3","4","4","3","2","2","3","2","2","2","2","3","4","4","5","4","4","2","3","3","2","4","1","0","1","1","0","0","1","1","1","1","1","0","1","0","1","3","5","4","4","5","1","3","4","4","3","4","798586383785664514","李","599","","","","","","","","","","","","","","","","","","","","","","","","","","","","","","","","","","","","","","","","","",""
"463","<p style=""color:rgb(150, 250, 100); font-size: 35px;"">他人</p>","i","categorize-html","185","288291","0.0-6.0-0.0-8.0-1.38","3","3","3","3","3","3","2","3","4","4","3","2","2","3","2","2","2","2","3","4","4","5","4","4","2","3","3","2","4","1","0","1","1","0","0","1","1","1","1","1","0","1","0","1","3","5","4","4","5","1","3","4","4","3","4","798586383785664514","李","599","","","","","","","","","","","","","","","","","","","true","4","4","ability","463","other","他人","","","","","","","","","","","","","","","","",""
"null","","null","html-keyboard-response","186","288542","0.0-6.0-0.0-8.0-0.39","3","3","3","3","3","3","2","3","4","4","3","2","2","3","2","2","2","2","3","4","4","5","4","4","2","3","3","2","4","1","0","1","1","0","0","1","1","1","1","1","0","1","0","1","3","5","4","4","5","1","3","4","4","3","4","798586383785664514","李","599","","","","","","","","","","","","","","","","","","","","","","","","","","","","","","","","","","","","","","","","","",""
"580","<p style=""color:white; font-size: 35px;"">低能</p>","e","categorize-html","187","289124","0.0-6.0-0.0-8.0-1.39","3","3","3","3","3","3","2","3","4","4","3","2","2","3","2","2","2","2","3","4","4","5","4","4","2","3","3","2","4","1","0","1","1","0","0","1","1","1","1","1","0","1","0","1","3","5","4","4","5","1","3","4","4","3","4","798586383785664514","李","599","","","","","","","","","","","","","","","","","","","true","4","4","ability","580","negative","低能","","","","","","","","","","","","","","","","",""
"null","","null","html-keyboard-response","188","289375","0.0-6.0-0.0-8.0-0.40","3","3","3","3","3","3","2","3","4","4","3","2","2","3","2","2","2","2","3","4","4","5","4","4","2","3","3","2","4","1","0","1","1","0","0","1","1","1","1","1","0","1","0","1","3","5","4","4","5","1","3","4","4","3","4","798586383785664514","李","599","","","","","","","","","","","","","","","","","","","","","","","","","","","","","","","","","","","","","","","","","",""
"439","<p style=""color:rgb(150, 250, 100); font-size: 35px;"">他</p>","i","categorize-html","189","289815","0.0-6.0-0.0-8.0-1.40","3","3","3","3","3","3","2","3","4","4","3","2","2","3","2","2","2","2","3","4","4","5","4","4","2","3","3","2","4","1","0","1","1","0","0","1","1","1","1","1","0","1","0","1","3","5","4","4","5","1","3","4","4","3","4","798586383785664514","李","599","","","","","","","","","","","","","","","","","","","true","4","4","ability","439","other","他","","","","","","","","","","","","","","","","",""
"null","","null","html-keyboard-response","190","290066","0.0-6.0-0.0-8.0-0.41","3","3","3","3","3","3","2","3","4","4","3","2","2","3","2","2","2","2","3","4","4","5","4","4","2","3","3","2","4","1","0","1","1","0","0","1","1","1","1","1","0","1","0","1","3","5","4","4","5","1","3","4","4","3","4","798586383785664514","李","599","","","","","","","","","","","","","","","","","","","","","","","","","","","","","","","","","","","","","","","","","",""
"591","<p style=""color:white; font-size: 35px;"">天才</p>","i","categorize-html","191","290659","0.0-6.0-0.0-8.0-1.41","3","3","3","3","3","3","2","3","4","4","3","2","2","3","2","2","2","2","3","4","4","5","4","4","2","3","3","2","4","1","0","1","1","0","0","1","1","1","1","1","0","1","0","1","3","5","4","4","5","1","3","4","4","3","4","798586383785664514","李","599","","","","","","","","","","","","","","","","","","","true","4","4","ability","591","positive","天才","","","","","","","","","","","","","","","","",""
"null","","null","html-keyboard-response","192","290909","0.0-6.0-0.0-8.0-0.42","3","3","3","3","3","3","2","3","4","4","3","2","2","3","2","2","2","2","3","4","4","5","4","4","2","3","3","2","4","1","0","1","1","0","0","1","1","1","1","1","0","1","0","1","3","5","4","4","5","1","3","4","4","3","4","798586383785664514","李","599","","","","","","","","","","","","","","","","","","","","","","","","","","","","","","","","","","","","","","","","","",""
