"rt","stimulus","response","trial_type","trial_index","time_elapsed","internal_node_id","ses_1","ses_2","ses_3","ses_4","ses_5","ses_6","ses_7","ses_8","ses_9","ses_10","coreself_1","coreself_2","coreself_3","coreself_4","coreself_5","coreself_6","coreself_7","coreself_8","coreself_9","coreself_10","SGPS_1","SGPS_2","SGPS_3","SGPS_4","SGPS_5","SGPS_6","SGPS_7","SGPS_8","SGPS_9","NPI1","NPI2","NPI3","NPI4","NPI5","NPI6","NPI7","NPI8","NPI9","NPI10","NPI11","NPI12","NPI13","NPI14","NPI15","hsns_1","hsns_2","hsns_3","hsns_4","hsns_5","trap1","hsns_6","hsns_7","hsns_8","hsns_9","hsns_10","subj_idx","friend_name","ParticipantID","value","success","user_agent","responses","item_order","radio_event_ids","radio_event_times","key_event_times","mouse_event_times","straightlining","zigzagging","honeypot","timeout","failed_images","failed_audio","failed_video","view_history","response_type","key_press","avg_frame_time","center_x","center_y","correct_response","correct","identity","Image","word","condition","task_id","screen_id","time_stamp","version_attrib2","version_target2","IAT","RT","varname","summary","version_attrib","version_target","question_order","correct_answer","trap1_item"
"7043","
   <p><div style = ""color: white;font-size:25px;"">您好，欢迎参加本次实验。</div> </p>
   <p><div style = ""color: white;font-size:25px;"">为充分保障您的权利，请确保您已经知晓并同意《参与实验同意书》以及《数据公开知情同意书》。</div></p>
   <p><div style = ""color: white;font-size:25px;"">如果您未见过上述内容，请咨询实验员。</div></p>
   <p><div style = ""color: white;font-size:25px;"">如果您选择继续实验，则表示您已经清楚两份知情同意书的内容并同意。</div></p>
   <p><div style = ""color: pink;font-size:30px;"">请确保您记得day0的实验编号，您将在本次实验输入该编号，若您忘记，请咨询实验员后作答。</div></p>
   <p><div style = ""color: lightblue;font-size:25px;"">请您尽可能认真地作答，我们将依据您在各问卷和按键任务中的作答质量发放报酬。</div></p>
   <p> <div style = ""color: green;font-size:25px;""><按空格键至下页></div> </p>
   "," ","html-keyboard-response","0","7045","0.0-0.0","4","3","4","3","4","4","3","4","4","4","4","4","4","4","4","4","4","4","4","4","2","3","2","2","2","2","2","2","2","0","1","0","0","1","0","0","0","0","0","1","1","0","0","1","5","2","3","2","2","4","4","2","2","4","2","802899041120821250","潘","23","","","","","","","","","","","","","","","","","","","","","","","","","","","","","","","","","","","","","","","","","",""
"","","","call-function","1","7046","0.0-1.0-0.0","4","3","4","3","4","4","3","4","4","4","4","4","4","4","4","4","4","4","4","4","2","3","2","2","2","2","2","2","2","0","1","0","0","1","0","0","0","0","0","1","1","0","0","1","5","2","3","2","2","4","4","2","2","4","2","802899041120821250","潘","23","","","","","","","","","","","","","","","","","","","","","","","","","","","","","","","","","","","","","","","","","",""
"25213","","{""friend_name"":""潘"",""ParticipantID"":""23""}","survey-html-form","2","32262","0.0-1.0-1.0","4","3","4","3","4","4","3","4","4","4","4","4","4","4","4","4","4","4","4","4","2","3","2","2","2","2","2","2","2","0","1","0","0","1","0","0","0","0","0","1","1","0","0","1","5","2","3","2","2","4","4","2","2","4","2","802899041120821250","潘","23","","","","","","","","","","","","","","","","","","","","","","","","","","","","","","","","","","","","","","","","","",""
"","","","fullscreen","3","52362","0.0-2.0","4","3","4","3","4","4","3","4","4","4","4","4","4","4","4","4","4","4","4","4","2","3","2","2","2","2","2","2","2","0","1","0","0","1","0","0","0","0","0","1","1","0","0","1","5","2","3","2","2","4","4","2","2","4","2","802899041120821250","潘","23","","true","","","","","","","","","","","","","","","","","","","","","","","","","","","","","","","","","","","","","","","",""
"26362","","{""Q01"":""4"",""Q02"":""3"",""Q03"":""4"",""Q04"":""3"",""Q05"":""4"",""Q06"":""4"",""Q07"":""3"",""Q08"":""4"",""Q09"":""4"",""Q10"":""4""}","survey-template","4","78729","0.0-3.0","4","3","4","3","4","4","3","4","4","4","4","4","4","4","4","4","4","4","4","4","2","3","2","2","2","2","2","2","2","0","1","0","0","1","0","0","0","0","0","1","1","0","0","1","5","2","3","2","2","4","4","2","2","4","2","802899041120821250","潘","23","","","","{""Q01"":""4"",""Q02"":""3"",""Q03"":""4"",""Q04"":""3"",""Q05"":""4"",""Q06"":""4"",""Q07"":""3"",""Q08"":""4"",""Q09"":""4"",""Q10"":""4""}","[0,1,2,3,4,5,6,7,8,9]","[""Q01"",""Q02"",""Q03"",""Q04"",""Q05"",""Q06"",""Q07"",""Q08"",""Q09"",""Q10""]","[10085,10898,13064,15369,17811,20805,23003,24115,24731,25366]","[]","[10085,10898,12380,13064,15369,17210,17811,19400,20805,22056,23003,24115,24731,25366,26362]","0.5","0.3333333333333333","0","","","","","","","","","","","","","","","","","","","","","","","","","","","","","",""
"26851","","{""Q01"":""4"",""Q02"":""4"",""Q03"":""4"",""Q04"":""4"",""Q05"":""4"",""Q06"":""4"",""Q07"":""4"",""Q08"":""4"",""Q09"":""4"",""Q10"":""4""}","survey-template","5","105585","0.0-4.0","4","3","4","3","4","4","3","4","4","4","4","4","4","4","4","4","4","4","4","4","2","3","2","2","2","2","2","2","2","0","1","0","0","1","0","0","0","0","0","1","1","0","0","1","5","2","3","2","2","4","4","2","2","4","2","802899041120821250","潘","23","","","","{""Q01"":""4"",""Q02"":""4"",""Q03"":""4"",""Q04"":""4"",""Q05"":""4"",""Q06"":""4"",""Q07"":""4"",""Q08"":""4"",""Q09"":""4"",""Q10"":""4""}","[0,1,2,3,4,5,6,7,8,9]","[""Q01"",""Q02"",""Q03"",""Q04"",""Q05"",""Q06"",""Q07"",""Q08"",""Q09"",""Q10""]","[12127,12965,14746,17741,19360,20475,21950,23508,24768,25813]","[]","[11629,12127,12965,14746,16175,17741,18739,19360,20475,21950,23508,24768,25813,26851]","0.6","0","0","","","","","","","","","","","","","","","","","","","","","","","","","","","","","",""
"","","","preload","6","106443","0.0-5.0","4","3","4","3","4","4","3","4","4","4","4","4","4","4","4","4","4","4","4","4","2","3","2","2","2","2","2","2","2","0","1","0","0","1","0","0","0","0","0","1","1","0","0","1","5","2","3","2","2","4","4","2","2","4","2","802899041120821250","潘","23","","true","","","","","","","","","","","false","[]","[]","[]","","","","","","","","","","","","","","","","","","","","","","","","","",""
"61577","","","instructions","7","168022","0.0-6.0","4","3","4","3","4","4","3","4","4","4","4","4","4","4","4","4","4","4","4","4","2","3","2","2","2","2","2","2","2","0","1","0","0","1","0","0","0","0","0","1","1","0","0","1","5","2","3","2","2","4","4","2","2","4","2","802899041120821250","潘","23","","","","","","","","","","","","","","","","","[{""page_index"":0,""viewing_time"":61577}]","","","","","","","","","","","","","","","","","","","","","","","","",""
"29274","","","instructions","8","197298","0.0-7.0-1.0-0.0","4","3","4","3","4","4","3","4","4","4","4","4","4","4","4","4","4","4","4","4","2","3","2","2","2","2","2","2","2","0","1","0","0","1","0","0","0","0","0","1","1","0","0","1","5","2","3","2","2","4","4","2","2","4","2","802899041120821250","潘","23","","","","","","","","","","","","","","","","","[{""page_index"":0,""viewing_time"":20779},{""page_index"":1,""viewing_time"":6245},{""page_index"":2,""viewing_time"":2249}]","","","","","","","","","","","","","","","","","","","","","","","","",""
"null","","null","psychophysics","9","199607","0.0-7.0-1.0-1.0-0.0-0.0","4","3","4","3","4","4","3","4","4","4","4","4","4","4","4","4","4","4","4","4","2","3","2","2","2","2","2","2","2","0","1","0","0","1","0","0","0","0","0","1","1","0","0","1","5","2","3","2","2","4","4","2","2","4","2","802899041120821250","潘","23","","","","null","","","","","","","","","","","","","","key","null","16.682481751824817","768","428","j","false","match","img/triangle.png","三角","三角","ALT1_2","prac_ALT1_2","","","","","","","","","","","",""
"null","<span class='add_' style='color:yellow; font-size: 70px;'> 太慢! </span>","null","html-keyboard-response","10","200109","0.0-7.0-1.0-1.0-0.0-1.0","4","3","4","3","4","4","3","4","4","4","4","4","4","4","4","4","4","4","4","4","2","3","2","2","2","2","2","2","2","0","1","0","0","1","0","0","0","0","0","1","1","0","0","1","5","2","3","2","2","4","4","2","2","4","2","802899041120821250","潘","23","","","","","","","","","","","","","","","","","","","","","","","","","","","","","","feedback_test","","","","","","","","","","","",""
"453","","f","psychophysics","11","201581","0.0-7.0-1.0-1.0-0.0-0.1","4","3","4","3","4","4","3","4","4","4","4","4","4","4","4","4","4","4","4","4","2","3","2","2","2","2","2","2","2","0","1","0","0","1","0","0","0","0","0","1","1","0","0","1","5","2","3","2","2","4","4","2","2","4","2","802899041120821250","潘","23","","","","nonmatch","","","","","","","","","","","","","","key","f","16.683678160919662","768","428","f","true","nonmatch","img/circle.png","三角","圆形","ALT1_2","prac_ALT1_2","","","","","","","","","","","",""
"null","<span style='color:GreenYellow; font-size: 70px;'>正确! </span>","null","html-keyboard-response","12","202093","0.0-7.0-1.0-1.0-0.0-1.1","4","3","4","3","4","4","3","4","4","4","4","4","4","4","4","4","4","4","4","4","2","3","2","2","2","2","2","2","2","0","1","0","0","1","0","0","0","0","0","1","1","0","0","1","5","2","3","2","2","4","4","2","2","4","2","802899041120821250","潘","23","","","","","","","","","","","","","","","","","","","","","","","","","","","","","","feedback_test","","","","","","","","","","","",""
"412","","f","psychophysics","13","203521","0.0-7.0-1.0-1.0-0.0-0.2","4","3","4","3","4","4","3","4","4","4","4","4","4","4","4","4","4","4","4","4","2","3","2","2","2","2","2","2","2","0","1","0","0","1","0","0","0","0","0","1","1","0","0","1","5","2","3","2","2","4","4","2","2","4","2","802899041120821250","潘","23","","","","nonmatch","","","","","","","","","","","","","","key","f","16.683571428571582","768","428","j","false","match","img/triangle.png","三角","三角","ALT1_2","prac_ALT1_2","","","","","","","","","","","",""
"null","<span style='color:red; font-size: 70px;'>错误! </span>","null","html-keyboard-response","14","204028","0.0-7.0-1.0-1.0-0.0-1.2","4","3","4","3","4","4","3","4","4","4","4","4","4","4","4","4","4","4","4","4","2","3","2","2","2","2","2","2","2","0","1","0","0","1","0","0","0","0","0","1","1","0","0","1","5","2","3","2","2","4","4","2","2","4","2","802899041120821250","潘","23","","","","","","","","","","","","","","","","","","","","","","","","","","","","","","feedback_test","","","","","","","","","","","",""
"378","","j","psychophysics","15","205427","0.0-7.0-1.0-1.0-0.0-0.3","4","3","4","3","4","4","3","4","4","4","4","4","4","4","4","4","4","4","4","4","2","3","2","2","2","2","2","2","2","0","1","0","0","1","0","0","0","0","0","1","1","0","0","1","5","2","3","2","2","4","4","2","2","4","2","802899041120821250","潘","23","","","","match","","","","","","","","","","","","","","key","j","16.68341463414644","768","428","j","true","match","img/square.png","方形","方形","ALT1_2","prac_ALT1_2","","","","","","","","","","","",""
"null","<span style='color:GreenYellow; font-size: 70px;'>正确! </span>","null","html-keyboard-response","16","205938","0.0-7.0-1.0-1.0-0.0-1.3","4","3","4","3","4","4","3","4","4","4","4","4","4","4","4","4","4","4","4","4","2","3","2","2","2","2","2","2","2","0","1","0","0","1","0","0","0","0","0","1","1","0","0","1","5","2","3","2","2","4","4","2","2","4","2","802899041120821250","潘","23","","","","","","","","","","","","","","","","","","","","","","","","","","","","","","feedback_test","","","","","","","","","","","",""
"372","","j","psychophysics","17","207330","0.0-7.0-1.0-1.0-0.0-0.4","4","3","4","3","4","4","3","4","4","4","4","4","4","4","4","4","4","4","4","4","2","3","2","2","2","2","2","2","2","0","1","0","0","1","0","0","0","0","0","1","1","0","0","1","5","2","3","2","2","4","4","2","2","4","2","802899041120821250","潘","23","","","","match","","","","","","","","","","","","","","key","j","16.68219512195125","768","428","f","false","nonmatch","img/square.png","圆形","方形","ALT1_2","prac_ALT1_2","","","","","","","","","","","",""
"null","<span style='color:red; font-size: 70px;'>错误! </span>","null","html-keyboard-response","18","207837","0.0-7.0-1.0-1.0-0.0-1.4","4","3","4","3","4","4","3","4","4","4","4","4","4","4","4","4","4","4","4","4","2","3","2","2","2","2","2","2","2","0","1","0","0","1","0","0","0","0","0","1","1","0","0","1","5","2","3","2","2","4","4","2","2","4","2","802899041120821250","潘","23","","","","","","","","","","","","","","","","","","","","","","","","","","","","","","feedback_test","","","","","","","","","","","",""
"456","","f","psychophysics","19","209314","0.0-7.0-1.0-1.0-0.0-0.5","4","3","4","3","4","4","3","4","4","4","4","4","4","4","4","4","4","4","4","4","2","3","2","2","2","2","2","2","2","0","1","0","0","1","0","0","0","0","0","1","1","0","0","1","5","2","3","2","2","4","4","2","2","4","2","802899041120821250","潘","23","","","","nonmatch","","","","","","","","","","","","","","key","f","16.682988505746938","768","428","f","true","nonmatch","img/circle.png","方形","圆形","ALT1_2","prac_ALT1_2","","","","","","","","","","","",""
"null","<span style='color:GreenYellow; font-size: 70px;'>正确! </span>","null","html-keyboard-response","20","209817","0.0-7.0-1.0-1.0-0.0-1.5","4","3","4","3","4","4","3","4","4","4","4","4","4","4","4","4","4","4","4","4","2","3","2","2","2","2","2","2","2","0","1","0","0","1","0","0","0","0","0","1","1","0","0","1","5","2","3","2","2","4","4","2","2","4","2","802899041120821250","潘","23","","","","","","","","","","","","","","","","","","","","","","","","","","","","","","feedback_test","","","","","","","","","","","",""
"610","","j","psychophysics","21","211447","0.0-7.0-1.0-1.0-0.0-0.6","4","3","4","3","4","4","3","4","4","4","4","4","4","4","4","4","4","4","4","4","2","3","2","2","2","2","2","2","2","0","1","0","0","1","0","0","0","0","0","1","1","0","0","1","5","2","3","2","2","4","4","2","2","4","2","802899041120821250","潘","23","","","","match","","","","","","","","","","","","","","key","j","16.683333333333092","768","428","j","true","match","img/triangle.png","三角","三角","ALT1_2","prac_ALT1_2","","","","","","","","","","","",""
"null","<span style='color:GreenYellow; font-size: 70px;'>正确! </span>","null","html-keyboard-response","22","211958","0.0-7.0-1.0-1.0-0.0-1.6","4","3","4","3","4","4","3","4","4","4","4","4","4","4","4","4","4","4","4","4","2","3","2","2","2","2","2","2","2","0","1","0","0","1","0","0","0","0","0","1","1","0","0","1","5","2","3","2","2","4","4","2","2","4","2","802899041120821250","潘","23","","","","","","","","","","","","","","","","","","","","","","","","","","","","","","feedback_test","","","","","","","","","","","",""
"687","","j","psychophysics","23","213666","0.0-7.0-1.0-1.0-0.0-0.7","4","3","4","3","4","4","3","4","4","4","4","4","4","4","4","4","4","4","4","4","2","3","2","2","2","2","2","2","2","0","1","0","0","1","0","0","0","0","0","1","1","0","0","1","5","2","3","2","2","4","4","2","2","4","2","802899041120821250","潘","23","","","","match","","","","","","","","","","","","","","key","j","16.67960396039618","768","428","j","true","match","img/circle.png","圆形","圆形","ALT1_2","prac_ALT1_2","","","","","","","","","","","",""
"null","<span style='color:GreenYellow; font-size: 70px;'>正确! </span>","null","html-keyboard-response","24","214198","0.0-7.0-1.0-1.0-0.0-1.7","4","3","4","3","4","4","3","4","4","4","4","4","4","4","4","4","4","4","4","4","2","3","2","2","2","2","2","2","2","0","1","0","0","1","0","0","0","0","0","1","1","0","0","1","5","2","3","2","2","4","4","2","2","4","2","802899041120821250","潘","23","","","","","","","","","","","","","","","","","","","","","","","","","","","","","","feedback_test","","","","","","","","","","","",""
"534","","f","psychophysics","25","215751","0.0-7.0-1.0-1.0-0.0-0.8","4","3","4","3","4","4","3","4","4","4","4","4","4","4","4","4","4","4","4","4","2","3","2","2","2","2","2","2","2","0","1","0","0","1","0","0","0","0","0","1","1","0","0","1","5","2","3","2","2","4","4","2","2","4","2","802899041120821250","潘","23","","","","nonmatch","","","","","","","","","","","","","","key","f","16.68369565217385","768","428","f","true","nonmatch","img/pentagon.png","三角","五边","ALT1_2","prac_ALT1_2","","","","","","","","","","","",""
"null","<span style='color:GreenYellow; font-size: 70px;'>正确! </span>","null","html-keyboard-response","26","216267","0.0-7.0-1.0-1.0-0.0-1.8","4","3","4","3","4","4","3","4","4","4","4","4","4","4","4","4","4","4","4","4","2","3","2","2","2","2","2","2","2","0","1","0","0","1","0","0","0","0","0","1","1","0","0","1","5","2","3","2","2","4","4","2","2","4","2","802899041120821250","潘","23","","","","","","","","","","","","","","","","","","","","","","","","","","","","","","feedback_test","","","","","","","","","","","",""
"835","","f","psychophysics","27","218122","0.0-7.0-1.0-1.0-0.0-0.9","4","3","4","3","4","4","3","4","4","4","4","4","4","4","4","4","4","4","4","4","2","3","2","2","2","2","2","2","2","0","1","0","0","1","0","0","0","0","0","1","1","0","0","1","5","2","3","2","2","4","4","2","2","4","2","802899041120821250","潘","23","","","","nonmatch","","","","","","","","","","","","","","key","f","16.681999999999906","768","428","f","true","nonmatch","img/pentagon.png","圆形","五边","ALT1_2","prac_ALT1_2","","","","","","","","","","","",""
"null","<span style='color:GreenYellow; font-size: 70px;'>正确! </span>","null","html-keyboard-response","28","218628","0.0-7.0-1.0-1.0-0.0-1.9","4","3","4","3","4","4","3","4","4","4","4","4","4","4","4","4","4","4","4","4","2","3","2","2","2","2","2","2","2","0","1","0","0","1","0","0","0","0","0","1","1","0","0","1","5","2","3","2","2","4","4","2","2","4","2","802899041120821250","潘","23","","","","","","","","","","","","","","","","","","","","","","","","","","","","","","feedback_test","","","","","","","","","","","",""
"770","","j","psychophysics","29","220418","0.0-7.0-1.0-1.0-0.0-0.10","4","3","4","3","4","4","3","4","4","4","4","4","4","4","4","4","4","4","4","4","2","3","2","2","2","2","2","2","2","0","1","0","0","1","0","0","0","0","0","1","1","0","0","1","5","2","3","2","2","4","4","2","2","4","2","802899041120821250","潘","23","","","","match","","","","","","","","","","","","","","key","j","16.68320754716966","768","428","f","false","nonmatch","img/circle.png","五边","圆形","ALT1_2","prac_ALT1_2","","","","","","","","","","","",""
"null","<span style='color:red; font-size: 70px;'>错误! </span>","null","html-keyboard-response","30","220927","0.0-7.0-1.0-1.0-0.0-1.10","4","3","4","3","4","4","3","4","4","4","4","4","4","4","4","4","4","4","4","4","2","3","2","2","2","2","2","2","2","0","1","0","0","1","0","0","0","0","0","1","1","0","0","1","5","2","3","2","2","4","4","2","2","4","2","802899041120821250","潘","23","","","","","","","","","","","","","","","","","","","","","","","","","","","","","","feedback_test","","","","","","","","","","","",""
"801","","j","psychophysics","31","222749","0.0-7.0-1.0-1.0-0.0-0.11","4","3","4","3","4","4","3","4","4","4","4","4","4","4","4","4","4","4","4","4","2","3","2","2","2","2","2","2","2","0","1","0","0","1","0","0","0","0","0","1","1","0","0","1","5","2","3","2","2","4","4","2","2","4","2","802899041120821250","潘","23","","","","match","","","","","","","","","","","","","","key","j","16.683518518518582","768","428","j","true","match","img/circle.png","圆形","圆形","ALT1_2","prac_ALT1_2","","","","","","","","","","","",""
"null","<span style='color:GreenYellow; font-size: 70px;'>正确! </span>","null","html-keyboard-response","32","223258","0.0-7.0-1.0-1.0-0.0-1.11","4","3","4","3","4","4","3","4","4","4","4","4","4","4","4","4","4","4","4","4","2","3","2","2","2","2","2","2","2","0","1","0","0","1","0","0","0","0","0","1","1","0","0","1","5","2","3","2","2","4","4","2","2","4","2","802899041120821250","潘","23","","","","","","","","","","","","","","","","","","","","","","","","","","","","","","feedback_test","","","","","","","","","","","",""
"418","","f","psychophysics","33","224695","0.0-7.0-1.0-1.0-0.0-0.12","4","3","4","3","4","4","3","4","4","4","4","4","4","4","4","4","4","4","4","4","2","3","2","2","2","2","2","2","2","0","1","0","0","1","0","0","0","0","0","1","1","0","0","1","5","2","3","2","2","4","4","2","2","4","2","802899041120821250","潘","23","","","","nonmatch","","","","","","","","","","","","","","key","f","16.703999999999958","768","428","f","true","nonmatch","img/triangle.png","圆形","三角","ALT1_2","prac_ALT1_2","","","","","","","","","","","",""
"null","<span style='color:GreenYellow; font-size: 70px;'>正确! </span>","null","html-keyboard-response","34","225198","0.0-7.0-1.0-1.0-0.0-1.12","4","3","4","3","4","4","3","4","4","4","4","4","4","4","4","4","4","4","4","4","2","3","2","2","2","2","2","2","2","0","1","0","0","1","0","0","0","0","0","1","1","0","0","1","5","2","3","2","2","4","4","2","2","4","2","802899041120821250","潘","23","","","","","","","","","","","","","","","","","","","","","","","","","","","","","","feedback_test","","","","","","","","","","","",""
"729","","f","psychophysics","35","226946","0.0-7.0-1.0-1.0-0.0-0.13","4","3","4","3","4","4","3","4","4","4","4","4","4","4","4","4","4","4","4","4","2","3","2","2","2","2","2","2","2","0","1","0","0","1","0","0","0","0","0","1","1","0","0","1","5","2","3","2","2","4","4","2","2","4","2","802899041120821250","潘","23","","","","nonmatch","","","","","","","","","","","","","","key","f","16.683653846153902","768","428","f","true","nonmatch","img/square.png","五边","方形","ALT1_2","prac_ALT1_2","","","","","","","","","","","",""
"null","<span style='color:GreenYellow; font-size: 70px;'>正确! </span>","null","html-keyboard-response","36","227458","0.0-7.0-1.0-1.0-0.0-1.13","4","3","4","3","4","4","3","4","4","4","4","4","4","4","4","4","4","4","4","4","2","3","2","2","2","2","2","2","2","0","1","0","0","1","0","0","0","0","0","1","1","0","0","1","5","2","3","2","2","4","4","2","2","4","2","802899041120821250","潘","23","","","","","","","","","","","","","","","","","","","","","","","","","","","","","","feedback_test","","","","","","","","","","","",""
"579","","f","psychophysics","37","229057","0.0-7.0-1.0-1.0-0.0-0.14","4","3","4","3","4","4","3","4","4","4","4","4","4","4","4","4","4","4","4","4","2","3","2","2","2","2","2","2","2","0","1","0","0","1","0","0","0","0","0","1","1","0","0","1","5","2","3","2","2","4","4","2","2","4","2","802899041120821250","潘","23","","","","nonmatch","","","","","","","","","","","","","","key","f","16.681063829787124","768","428","j","false","match","img/pentagon.png","五边","五边","ALT1_2","prac_ALT1_2","","","","","","","","","","","",""
"null","<span style='color:red; font-size: 70px;'>错误! </span>","null","html-keyboard-response","38","229568","0.0-7.0-1.0-1.0-0.0-1.14","4","3","4","3","4","4","3","4","4","4","4","4","4","4","4","4","4","4","4","4","2","3","2","2","2","2","2","2","2","0","1","0","0","1","0","0","0","0","0","1","1","0","0","1","5","2","3","2","2","4","4","2","2","4","2","802899041120821250","潘","23","","","","","","","","","","","","","","","","","","","","","","","","","","","","","","feedback_test","","","","","","","","","","","",""
"655","","j","psychophysics","39","231243","0.0-7.0-1.0-1.0-0.0-0.15","4","3","4","3","4","4","3","4","4","4","4","4","4","4","4","4","4","4","4","4","2","3","2","2","2","2","2","2","2","0","1","0","0","1","0","0","0","0","0","1","1","0","0","1","5","2","3","2","2","4","4","2","2","4","2","802899041120821250","潘","23","","","","match","","","","","","","","","","","","","","key","j","16.682020202020095","768","428","j","true","match","img/pentagon.png","五边","五边","ALT1_2","prac_ALT1_2","","","","","","","","","","","",""
"null","<span style='color:GreenYellow; font-size: 70px;'>正确! </span>","null","html-keyboard-response","40","231768","0.0-7.0-1.0-1.0-0.0-1.15","4","3","4","3","4","4","3","4","4","4","4","4","4","4","4","4","4","4","4","4","2","3","2","2","2","2","2","2","2","0","1","0","0","1","0","0","0","0","0","1","1","0","0","1","5","2","3","2","2","4","4","2","2","4","2","802899041120821250","潘","23","","","","","","","","","","","","","","","","","","","","","","","","","","","","","","feedback_test","","","","","","","","","","","",""
"645","","j","psychophysics","41","233431","0.0-7.0-1.0-1.0-0.0-0.16","4","3","4","3","4","4","3","4","4","4","4","4","4","4","4","4","4","4","4","4","2","3","2","2","2","2","2","2","2","0","1","0","0","1","0","0","0","0","0","1","1","0","0","1","5","2","3","2","2","4","4","2","2","4","2","802899041120821250","潘","23","","","","match","","","","","","","","","","","","","","key","j","16.708888888889113","768","428","j","true","match","img/square.png","方形","方形","ALT1_2","prac_ALT1_2","","","","","","","","","","","",""
"null","<span style='color:GreenYellow; font-size: 70px;'>正确! </span>","null","html-keyboard-response","42","233937","0.0-7.0-1.0-1.0-0.0-1.16","4","3","4","3","4","4","3","4","4","4","4","4","4","4","4","4","4","4","4","4","2","3","2","2","2","2","2","2","2","0","1","0","0","1","0","0","0","0","0","1","1","0","0","1","5","2","3","2","2","4","4","2","2","4","2","802899041120821250","潘","23","","","","","","","","","","","","","","","","","","","","","","","","","","","","","","feedback_test","","","","","","","","","","","",""
"558","","f","psychophysics","43","235516","0.0-7.0-1.0-1.0-0.0-0.17","4","3","4","3","4","4","3","4","4","4","4","4","4","4","4","4","4","4","4","4","2","3","2","2","2","2","2","2","2","0","1","0","0","1","0","0","0","0","0","1","1","0","0","1","5","2","3","2","2","4","4","2","2","4","2","802899041120821250","潘","23","","","","nonmatch","","","","","","","","","","","","","","key","f","16.681935483871104","768","428","f","true","nonmatch","img/triangle.png","五边","三角","ALT1_2","prac_ALT1_2","","","","","","","","","","","",""
"null","<span style='color:GreenYellow; font-size: 70px;'>正确! </span>","null","html-keyboard-response","44","236017","0.0-7.0-1.0-1.0-0.0-1.17","4","3","4","3","4","4","3","4","4","4","4","4","4","4","4","4","4","4","4","4","2","3","2","2","2","2","2","2","2","0","1","0","0","1","0","0","0","0","0","1","1","0","0","1","5","2","3","2","2","4","4","2","2","4","2","802899041120821250","潘","23","","","","","","","","","","","","","","","","","","","","","","","","","","","","","","feedback_test","","","","","","","","","","","",""
"750","","f","psychophysics","45","237789","0.0-7.0-1.0-1.0-0.0-0.18","4","3","4","3","4","4","3","4","4","4","4","4","4","4","4","4","4","4","4","4","2","3","2","2","2","2","2","2","2","0","1","0","0","1","0","0","0","0","0","1","1","0","0","1","5","2","3","2","2","4","4","2","2","4","2","802899041120821250","潘","23","","","","nonmatch","","","","","","","","","","","","","","key","f","16.679428571428538","768","428","f","true","nonmatch","img/square.png","三角","方形","ALT1_2","prac_ALT1_2","","","","","","","","","","","",""
"null","<span style='color:GreenYellow; font-size: 70px;'>正确! </span>","null","html-keyboard-response","46","238297","0.0-7.0-1.0-1.0-0.0-1.18","4","3","4","3","4","4","3","4","4","4","4","4","4","4","4","4","4","4","4","4","2","3","2","2","2","2","2","2","2","0","1","0","0","1","0","0","0","0","0","1","1","0","0","1","5","2","3","2","2","4","4","2","2","4","2","802899041120821250","潘","23","","","","","","","","","","","","","","","","","","","","","","","","","","","","","","feedback_test","","","","","","","","","","","",""
"406","","j","psychophysics","47","239722","0.0-7.0-1.0-1.0-0.0-0.19","4","3","4","3","4","4","3","4","4","4","4","4","4","4","4","4","4","4","4","4","2","3","2","2","2","2","2","2","2","0","1","0","0","1","0","0","0","0","0","1","1","0","0","1","5","2","3","2","2","4","4","2","2","4","2","802899041120821250","潘","23","","","","match","","","","","","","","","","","","","","key","j","16.683529411764773","768","428","j","true","match","img/pentagon.png","五边","五边","ALT1_2","prac_ALT1_2","","","","","","","","","","","",""
"null","<span style='color:GreenYellow; font-size: 70px;'>正确! </span>","null","html-keyboard-response","48","240238","0.0-7.0-1.0-1.0-0.0-1.19","4","3","4","3","4","4","3","4","4","4","4","4","4","4","4","4","4","4","4","4","2","3","2","2","2","2","2","2","2","0","1","0","0","1","0","0","0","0","0","1","1","0","0","1","5","2","3","2","2","4","4","2","2","4","2","802899041120821250","潘","23","","","","","","","","","","","","","","","","","","","","","","","","","","","","","","feedback_test","","","","","","","","","","","",""
"501","","f","psychophysics","49","241747","0.0-7.0-1.0-1.0-0.0-0.20","4","3","4","3","4","4","3","4","4","4","4","4","4","4","4","4","4","4","4","4","2","3","2","2","2","2","2","2","2","0","1","0","0","1","0","0","0","0","0","1","1","0","0","1","5","2","3","2","2","4","4","2","2","4","2","802899041120821250","潘","23","","","","nonmatch","","","","","","","","","","","","","","key","f","16.682471910112255","768","428","j","false","match","img/circle.png","圆形","圆形","ALT1_2","prac_ALT1_2","","","","","","","","","","","",""
"null","<span style='color:red; font-size: 70px;'>错误! </span>","null","html-keyboard-response","50","242247","0.0-7.0-1.0-1.0-0.0-1.20","4","3","4","3","4","4","3","4","4","4","4","4","4","4","4","4","4","4","4","4","2","3","2","2","2","2","2","2","2","0","1","0","0","1","0","0","0","0","0","1","1","0","0","1","5","2","3","2","2","4","4","2","2","4","2","802899041120821250","潘","23","","","","","","","","","","","","","","","","","","","","","","","","","","","","","","feedback_test","","","","","","","","","","","",""
"672","","f","psychophysics","51","243941","0.0-7.0-1.0-1.0-0.0-0.21","4","3","4","3","4","4","3","4","4","4","4","4","4","4","4","4","4","4","4","4","2","3","2","2","2","2","2","2","2","0","1","0","0","1","0","0","0","0","0","1","1","0","0","1","5","2","3","2","2","4","4","2","2","4","2","802899041120821250","潘","23","","","","nonmatch","","","","","","","","","","","","","","key","f","16.683399999999963","768","428","f","true","nonmatch","img/triangle.png","方形","三角","ALT1_2","prac_ALT1_2","","","","","","","","","","","",""
"null","<span style='color:GreenYellow; font-size: 70px;'>正确! </span>","null","html-keyboard-response","52","244448","0.0-7.0-1.0-1.0-0.0-1.21","4","3","4","3","4","4","3","4","4","4","4","4","4","4","4","4","4","4","4","4","2","3","2","2","2","2","2","2","2","0","1","0","0","1","0","0","0","0","0","1","1","0","0","1","5","2","3","2","2","4","4","2","2","4","2","802899041120821250","潘","23","","","","","","","","","","","","","","","","","","","","","","","","","","","","","","feedback_test","","","","","","","","","","","",""
"456","","j","psychophysics","53","245923","0.0-7.0-1.0-1.0-0.0-0.22","4","3","4","3","4","4","3","4","4","4","4","4","4","4","4","4","4","4","4","4","2","3","2","2","2","2","2","2","2","0","1","0","0","1","0","0","0","0","0","1","1","0","0","1","5","2","3","2","2","4","4","2","2","4","2","802899041120821250","潘","23","","","","match","","","","","","","","","","","","","","key","j","16.680459770115075","768","428","f","false","nonmatch","img/pentagon.png","方形","五边","ALT1_2","prac_ALT1_2","","","","","","","","","","","",""
"null","<span style='color:red; font-size: 70px;'>错误! </span>","null","html-keyboard-response","54","246457","0.0-7.0-1.0-1.0-0.0-1.22","4","3","4","3","4","4","3","4","4","4","4","4","4","4","4","4","4","4","4","4","2","3","2","2","2","2","2","2","2","0","1","0","0","1","0","0","0","0","0","1","1","0","0","1","5","2","3","2","2","4","4","2","2","4","2","802899041120821250","潘","23","","","","","","","","","","","","","","","","","","","","","","","","","","","","","","feedback_test","","","","","","","","","","","",""
"675","","f","psychophysics","55","248153","0.0-7.0-1.0-1.0-0.0-0.23","4","3","4","3","4","4","3","4","4","4","4","4","4","4","4","4","4","4","4","4","2","3","2","2","2","2","2","2","2","0","1","0","0","1","0","0","0","0","0","1","1","0","0","1","5","2","3","2","2","4","4","2","2","4","2","802899041120821250","潘","23","","","","nonmatch","","","","","","","","","","","","","","key","f","16.68359999999986","768","428","j","false","match","img/square.png","方形","方形","ALT1_2","prac_ALT1_2","","","","","","","","","","","",""
"null","<span style='color:red; font-size: 70px;'>错误! </span>","null","html-keyboard-response","56","248658","0.0-7.0-1.0-1.0-0.0-1.23","4","3","4","3","4","4","3","4","4","4","4","4","4","4","4","4","4","4","4","4","2","3","2","2","2","2","2","2","2","0","1","0","0","1","0","0","0","0","0","1","1","0","0","1","5","2","3","2","2","4","4","2","2","4","2","802899041120821250","潘","23","","","","","","","","","","","","","","","","","","","","","","","","","","","","","","feedback_test","","","","","","","","","","","",""
"423","","f","psychophysics","57","250100","0.0-7.0-1.0-1.0-0.0-0.24","4","3","4","3","4","4","3","4","4","4","4","4","4","4","4","4","4","4","4","4","2","3","2","2","2","2","2","2","2","0","1","0","0","1","0","0","0","0","0","1","1","0","0","1","5","2","3","2","2","4","4","2","2","4","2","802899041120821250","潘","23","","","","nonmatch","","","","","","","","","","","","","","key","f","16.683720930232422","768","428","j","false","match","img/circle.png","圆形","圆形","ALT1_2","prac_ALT1_2","","","","","","","","","","","",""
"null","<span style='color:red; font-size: 70px;'>错误! </span>","null","html-keyboard-response","58","250617","0.0-7.0-1.0-1.0-0.0-1.24","4","3","4","3","4","4","3","4","4","4","4","4","4","4","4","4","4","4","4","4","2","3","2","2","2","2","2","2","2","0","1","0","0","1","0","0","0","0","0","1","1","0","0","1","5","2","3","2","2","4","4","2","2","4","2","802899041120821250","潘","23","","","","","","","","","","","","","","","","","","","","","","","","","","","","","","feedback_test","","","","","","","","","","","",""
"566","","j","psychophysics","59","252194","0.0-7.0-1.0-1.0-0.0-0.25","4","3","4","3","4","4","3","4","4","4","4","4","4","4","4","4","4","4","4","4","2","3","2","2","2","2","2","2","2","0","1","0","0","1","0","0","0","0","0","1","1","0","0","1","5","2","3","2","2","4","4","2","2","4","2","802899041120821250","潘","23","","","","match","","","","","","","","","","","","","","key","j","16.682150537634435","768","428","j","true","match","img/pentagon.png","五边","五边","ALT1_2","prac_ALT1_2","","","","","","","","","","","",""
"null","<span style='color:GreenYellow; font-size: 70px;'>正确! </span>","null","html-keyboard-response","60","252708","0.0-7.0-1.0-1.0-0.0-1.25","4","3","4","3","4","4","3","4","4","4","4","4","4","4","4","4","4","4","4","4","2","3","2","2","2","2","2","2","2","0","1","0","0","1","0","0","0","0","0","1","1","0","0","1","5","2","3","2","2","4","4","2","2","4","2","802899041120821250","潘","23","","","","","","","","","","","","","","","","","","","","","","","","","","","","","","feedback_test","","","","","","","","","","","",""
"665","","f","psychophysics","61","254393","0.0-7.0-1.0-1.0-0.0-0.26","4","3","4","3","4","4","3","4","4","4","4","4","4","4","4","4","4","4","4","4","2","3","2","2","2","2","2","2","2","0","1","0","0","1","0","0","0","0","0","1","1","0","0","1","5","2","3","2","2","4","4","2","2","4","2","802899041120821250","潘","23","","","","nonmatch","","","","","","","","","","","","","","key","f","16.68359999999986","768","428","f","true","nonmatch","img/pentagon.png","圆形","五边","ALT1_2","prac_ALT1_2","","","","","","","","","","","",""
"null","<span style='color:GreenYellow; font-size: 70px;'>正确! </span>","null","html-keyboard-response","62","254928","0.0-7.0-1.0-1.0-0.0-1.26","4","3","4","3","4","4","3","4","4","4","4","4","4","4","4","4","4","4","4","4","2","3","2","2","2","2","2","2","2","0","1","0","0","1","0","0","0","0","0","1","1","0","0","1","5","2","3","2","2","4","4","2","2","4","2","802899041120821250","潘","23","","","","","","","","","","","","","","","","","","","","","","","","","","","","","","feedback_test","","","","","","","","","","","",""
"879","","f","psychophysics","63","256827","0.0-7.0-1.0-1.0-0.0-0.27","4","3","4","3","4","4","3","4","4","4","4","4","4","4","4","4","4","4","4","4","2","3","2","2","2","2","2","2","2","0","1","0","0","1","0","0","0","0","0","1","1","0","0","1","5","2","3","2","2","4","4","2","2","4","2","802899041120821250","潘","23","","","","nonmatch","","","","","","","","","","","","","","key","f","16.68353982300877","768","428","f","true","nonmatch","img/triangle.png","方形","三角","ALT1_2","prac_ALT1_2","","","","","","","","","","","",""
"null","<span style='color:GreenYellow; font-size: 70px;'>正确! </span>","null","html-keyboard-response","64","257338","0.0-7.0-1.0-1.0-0.0-1.27","4","3","4","3","4","4","3","4","4","4","4","4","4","4","4","4","4","4","4","4","2","3","2","2","2","2","2","2","2","0","1","0","0","1","0","0","0","0","0","1","1","0","0","1","5","2","3","2","2","4","4","2","2","4","2","802899041120821250","潘","23","","","","","","","","","","","","","","","","","","","","","","","","","","","","","","feedback_test","","","","","","","","","","","",""
"590","","j","psychophysics","65","258950","0.0-7.0-1.0-1.0-0.0-0.28","4","3","4","3","4","4","3","4","4","4","4","4","4","4","4","4","4","4","4","4","2","3","2","2","2","2","2","2","2","0","1","0","0","1","0","0","0","0","0","1","1","0","0","1","5","2","3","2","2","4","4","2","2","4","2","802899041120821250","潘","23","","","","match","","","","","","","","","","","","","","key","j","16.68084210526339","768","428","f","false","nonmatch","img/square.png","五边","方形","ALT1_2","prac_ALT1_2","","","","","","","","","","","",""
"null","<span style='color:red; font-size: 70px;'>错误! </span>","null","html-keyboard-response","66","259458","0.0-7.0-1.0-1.0-0.0-1.28","4","3","4","3","4","4","3","4","4","4","4","4","4","4","4","4","4","4","4","4","2","3","2","2","2","2","2","2","2","0","1","0","0","1","0","0","0","0","0","1","1","0","0","1","5","2","3","2","2","4","4","2","2","4","2","802899041120821250","潘","23","","","","","","","","","","","","","","","","","","","","","","","","","","","","","","feedback_test","","","","","","","","","","","",""
"574","","j","psychophysics","67","261052","0.0-7.0-1.0-1.0-0.0-0.29","4","3","4","3","4","4","3","4","4","4","4","4","4","4","4","4","4","4","4","4","2","3","2","2","2","2","2","2","2","0","1","0","0","1","0","0","0","0","0","1","1","0","0","1","5","2","3","2","2","4","4","2","2","4","2","802899041120821250","潘","23","","","","match","","","","","","","","","","","","","","key","j","16.68085106382948","768","428","j","true","match","img/square.png","方形","方形","ALT1_2","prac_ALT1_2","","","","","","","","","","","",""
"null","<span style='color:GreenYellow; font-size: 70px;'>正确! </span>","null","html-keyboard-response","68","261556","0.0-7.0-1.0-1.0-0.0-1.29","4","3","4","3","4","4","3","4","4","4","4","4","4","4","4","4","4","4","4","4","2","3","2","2","2","2","2","2","2","0","1","0","0","1","0","0","0","0","0","1","1","0","0","1","5","2","3","2","2","4","4","2","2","4","2","802899041120821250","潘","23","","","","","","","","","","","","","","","","","","","","","","","","","","","","","","feedback_test","","","","","","","","","","","",""
"537","","f","psychophysics","69","263105","0.0-7.0-1.0-1.0-0.0-0.30","4","3","4","3","4","4","3","4","4","4","4","4","4","4","4","4","4","4","4","4","2","3","2","2","2","2","2","2","2","0","1","0","0","1","0","0","0","0","0","1","1","0","0","1","5","2","3","2","2","4","4","2","2","4","2","802899041120821250","潘","23","","","","nonmatch","","","","","","","","","","","","","","key","f","16.682826086955966","768","428","f","true","nonmatch","img/pentagon.png","方形","五边","ALT1_2","prac_ALT1_2","","","","","","","","","","","",""
"null","<span style='color:GreenYellow; font-size: 70px;'>正确! </span>","null","html-keyboard-response","70","263608","0.0-7.0-1.0-1.0-0.0-1.30","4","3","4","3","4","4","3","4","4","4","4","4","4","4","4","4","4","4","4","4","2","3","2","2","2","2","2","2","2","0","1","0","0","1","0","0","0","0","0","1","1","0","0","1","5","2","3","2","2","4","4","2","2","4","2","802899041120821250","潘","23","","","","","","","","","","","","","","","","","","","","","","","","","","","","","","feedback_test","","","","","","","","","","","",""
"702","","f","psychophysics","71","265330","0.0-7.0-1.0-1.0-0.0-0.31","4","3","4","3","4","4","3","4","4","4","4","4","4","4","4","4","4","4","4","4","2","3","2","2","2","2","2","2","2","0","1","0","0","1","0","0","0","0","0","1","1","0","0","1","5","2","3","2","2","4","4","2","2","4","2","802899041120821250","潘","23","","","","nonmatch","","","","","","","","","","","","","","key","f","16.682745098038783","768","428","f","true","nonmatch","img/square.png","三角","方形","ALT1_2","prac_ALT1_2","","","","","","","","","","","",""
"null","<span style='color:GreenYellow; font-size: 70px;'>正确! </span>","null","html-keyboard-response","72","265848","0.0-7.0-1.0-1.0-0.0-1.31","4","3","4","3","4","4","3","4","4","4","4","4","4","4","4","4","4","4","4","4","2","3","2","2","2","2","2","2","2","0","1","0","0","1","0","0","0","0","0","1","1","0","0","1","5","2","3","2","2","4","4","2","2","4","2","802899041120821250","潘","23","","","","","","","","","","","","","","","","","","","","","","","","","","","","","","feedback_test","","","","","","","","","","","",""
"645","","f","psychophysics","73","267503","0.0-7.0-1.0-1.0-0.0-0.32","4","3","4","3","4","4","3","4","4","4","4","4","4","4","4","4","4","4","4","4","2","3","2","2","2","2","2","2","2","0","1","0","0","1","0","0","0","0","0","1","1","0","0","1","5","2","3","2","2","4","4","2","2","4","2","802899041120821250","潘","23","","","","nonmatch","","","","","","","","","","","","","","key","f","16.683673469387756","768","428","f","true","nonmatch","img/circle.png","方形","圆形","ALT1_2","prac_ALT1_2","","","","","","","","","","","",""
"null","<span style='color:GreenYellow; font-size: 70px;'>正确! </span>","null","html-keyboard-response","74","268017","0.0-7.0-1.0-1.0-0.0-1.32","4","3","4","3","4","4","3","4","4","4","4","4","4","4","4","4","4","4","4","4","2","3","2","2","2","2","2","2","2","0","1","0","0","1","0","0","0","0","0","1","1","0","0","1","5","2","3","2","2","4","4","2","2","4","2","802899041120821250","潘","23","","","","","","","","","","","","","","","","","","","","","","","","","","","","","","feedback_test","","","","","","","","","","","",""
"706","","f","psychophysics","75","269744","0.0-7.0-1.0-1.0-0.0-0.33","4","3","4","3","4","4","3","4","4","4","4","4","4","4","4","4","4","4","4","4","2","3","2","2","2","2","2","2","2","0","1","0","0","1","0","0","0","0","0","1","1","0","0","1","5","2","3","2","2","4","4","2","2","4","2","802899041120821250","潘","23","","","","nonmatch","","","","","","","","","","","","","","key","f","16.680784313725514","768","428","f","true","nonmatch","img/circle.png","五边","圆形","ALT1_2","prac_ALT1_2","","","","","","","","","","","",""
"null","<span style='color:GreenYellow; font-size: 70px;'>正确! </span>","null","html-keyboard-response","76","270257","0.0-7.0-1.0-1.0-0.0-1.33","4","3","4","3","4","4","3","4","4","4","4","4","4","4","4","4","4","4","4","4","2","3","2","2","2","2","2","2","2","0","1","0","0","1","0","0","0","0","0","1","1","0","0","1","5","2","3","2","2","4","4","2","2","4","2","802899041120821250","潘","23","","","","","","","","","","","","","","","","","","","","","","","","","","","","","","feedback_test","","","","","","","","","","","",""
"757","","j","psychophysics","77","272035","0.0-7.0-1.0-1.0-0.0-0.34","4","3","4","3","4","4","3","4","4","4","4","4","4","4","4","4","4","4","4","4","2","3","2","2","2","2","2","2","2","0","1","0","0","1","0","0","0","0","0","1","1","0","0","1","5","2","3","2","2","4","4","2","2","4","2","802899041120821250","潘","23","","","","match","","","","","","","","","","","","","","key","j","16.68152380952379","768","428","j","true","match","img/triangle.png","三角","三角","ALT1_2","prac_ALT1_2","","","","","","","","","","","",""
"null","<span style='color:GreenYellow; font-size: 70px;'>正确! </span>","null","html-keyboard-response","78","272537","0.0-7.0-1.0-1.0-0.0-1.34","4","3","4","3","4","4","3","4","4","4","4","4","4","4","4","4","4","4","4","4","2","3","2","2","2","2","2","2","2","0","1","0","0","1","0","0","0","0","0","1","1","0","0","1","5","2","3","2","2","4","4","2","2","4","2","802899041120821250","潘","23","","","","","","","","","","","","","","","","","","","","","","","","","","","","","","feedback_test","","","","","","","","","","","",""
"748","","f","psychophysics","79","274295","0.0-7.0-1.0-1.0-0.0-0.35","4","3","4","3","4","4","3","4","4","4","4","4","4","4","4","4","4","4","4","4","2","3","2","2","2","2","2","2","2","0","1","0","0","1","0","0","0","0","0","1","1","0","0","1","5","2","3","2","2","4","4","2","2","4","2","802899041120821250","潘","23","","","","nonmatch","","","","","","","","","","","","","","key","f","16.683653846154183","768","428","f","true","nonmatch","img/triangle.png","五边","三角","ALT1_2","prac_ALT1_2","","","","","","","","","","","",""
"null","<span style='color:GreenYellow; font-size: 70px;'>正确! </span>","null","html-keyboard-response","80","274808","0.0-7.0-1.0-1.0-0.0-1.35","4","3","4","3","4","4","3","4","4","4","4","4","4","4","4","4","4","4","4","4","2","3","2","2","2","2","2","2","2","0","1","0","0","1","0","0","0","0","0","1","1","0","0","1","5","2","3","2","2","4","4","2","2","4","2","802899041120821250","潘","23","","","","","","","","","","","","","","","","","","","","","","","","","","","","","","feedback_test","","","","","","","","","","","",""
"736","","j","psychophysics","81","276553","0.0-7.0-1.0-1.0-0.0-0.36","4","3","4","3","4","4","3","4","4","4","4","4","4","4","4","4","4","4","4","4","2","3","2","2","2","2","2","2","2","0","1","0","0","1","0","0","0","0","0","1","1","0","0","1","5","2","3","2","2","4","4","2","2","4","2","802899041120821250","潘","23","","","","match","","","","","","","","","","","","","","key","j","16.683689320388755","768","428","j","true","match","img/pentagon.png","五边","五边","ALT1_2","prac_ALT1_2","","","","","","","","","","","",""
"null","<span style='color:GreenYellow; font-size: 70px;'>正确! </span>","null","html-keyboard-response","82","277068","0.0-7.0-1.0-1.0-0.0-1.36","4","3","4","3","4","4","3","4","4","4","4","4","4","4","4","4","4","4","4","4","2","3","2","2","2","2","2","2","2","0","1","0","0","1","0","0","0","0","0","1","1","0","0","1","5","2","3","2","2","4","4","2","2","4","2","802899041120821250","潘","23","","","","","","","","","","","","","","","","","","","","","","","","","","","","","","feedback_test","","","","","","","","","","","",""
"638","","f","psychophysics","83","278766","0.0-7.0-1.0-1.0-0.0-0.37","4","3","4","3","4","4","3","4","4","4","4","4","4","4","4","4","4","4","4","4","2","3","2","2","2","2","2","2","2","0","1","0","0","1","0","0","0","0","0","1","1","0","0","1","5","2","3","2","2","4","4","2","2","4","2","802899041120821250","潘","23","","","","nonmatch","","","","","","","","","","","","","","key","f","16.683564356435436","768","428","f","true","nonmatch","img/pentagon.png","三角","五边","ALT1_2","prac_ALT1_2","","","","","","","","","","","",""
"null","<span style='color:GreenYellow; font-size: 70px;'>正确! </span>","null","html-keyboard-response","84","279288","0.0-7.0-1.0-1.0-0.0-1.37","4","3","4","3","4","4","3","4","4","4","4","4","4","4","4","4","4","4","4","4","2","3","2","2","2","2","2","2","2","0","1","0","0","1","0","0","0","0","0","1","1","0","0","1","5","2","3","2","2","4","4","2","2","4","2","802899041120821250","潘","23","","","","","","","","","","","","","","","","","","","","","","","","","","","","","","feedback_test","","","","","","","","","","","",""
"842","","f","psychophysics","85","281150","0.0-7.0-1.0-1.0-0.0-0.38","4","3","4","3","4","4","3","4","4","4","4","4","4","4","4","4","4","4","4","4","2","3","2","2","2","2","2","2","2","0","1","0","0","1","0","0","0","0","0","1","1","0","0","1","5","2","3","2","2","4","4","2","2","4","2","802899041120821250","潘","23","","","","nonmatch","","","","","","","","","","","","","","key","f","16.68272727272759","768","428","f","true","nonmatch","img/triangle.png","圆形","三角","ALT1_2","prac_ALT1_2","","","","","","","","","","","",""
"null","<span style='color:GreenYellow; font-size: 70px;'>正确! </span>","null","html-keyboard-response","86","281667","0.0-7.0-1.0-1.0-0.0-1.38","4","3","4","3","4","4","3","4","4","4","4","4","4","4","4","4","4","4","4","4","2","3","2","2","2","2","2","2","2","0","1","0","0","1","0","0","0","0","0","1","1","0","0","1","5","2","3","2","2","4","4","2","2","4","2","802899041120821250","潘","23","","","","","","","","","","","","","","","","","","","","","","","","","","","","","","feedback_test","","","","","","","","","","","",""
"735","","f","psychophysics","87","283412","0.0-7.0-1.0-1.0-0.0-0.39","4","3","4","3","4","4","3","4","4","4","4","4","4","4","4","4","4","4","4","4","2","3","2","2","2","2","2","2","2","0","1","0","0","1","0","0","0","0","0","1","1","0","0","1","5","2","3","2","2","4","4","2","2","4","2","802899041120821250","潘","23","","","","nonmatch","","","","","","","","","","","","","","key","f","16.680582524271617","768","428","f","true","nonmatch","img/circle.png","三角","圆形","ALT1_2","prac_ALT1_2","","","","","","","","","","","",""
"null","<span style='color:GreenYellow; font-size: 70px;'>正确! </span>","null","html-keyboard-response","88","283938","0.0-7.0-1.0-1.0-0.0-1.39","4","3","4","3","4","4","3","4","4","4","4","4","4","4","4","4","4","4","4","4","2","3","2","2","2","2","2","2","2","0","1","0","0","1","0","0","0","0","0","1","1","0","0","1","5","2","3","2","2","4","4","2","2","4","2","802899041120821250","潘","23","","","","","","","","","","","","","","","","","","","","","","","","","","","","","","feedback_test","","","","","","","","","","","",""
"562","","j","psychophysics","89","285519","0.0-7.0-1.0-1.0-0.0-0.40","4","3","4","3","4","4","3","4","4","4","4","4","4","4","4","4","4","4","4","4","2","3","2","2","2","2","2","2","2","0","1","0","0","1","0","0","0","0","0","1","1","0","0","1","5","2","3","2","2","4","4","2","2","4","2","802899041120821250","潘","23","","","","match","","","","","","","","","","","","","","key","j","16.6799999999999","768","428","j","true","match","img/triangle.png","三角","三角","ALT1_2","prac_ALT1_2","","","","","","","","","","","",""
"null","<span style='color:GreenYellow; font-size: 70px;'>正确! </span>","null","html-keyboard-response","90","286037","0.0-7.0-1.0-1.0-0.0-1.40","4","3","4","3","4","4","3","4","4","4","4","4","4","4","4","4","4","4","4","4","2","3","2","2","2","2","2","2","2","0","1","0","0","1","0","0","0","0","0","1","1","0","0","1","5","2","3","2","2","4","4","2","2","4","2","802899041120821250","潘","23","","","","","","","","","","","","","","","","","","","","","","","","","","","","","","feedback_test","","","","","","","","","","","",""
"596","","j","psychophysics","91","287654","0.0-7.0-1.0-1.0-0.0-0.41","4","3","4","3","4","4","3","4","4","4","4","4","4","4","4","4","4","4","4","4","2","3","2","2","2","2","2","2","2","0","1","0","0","1","0","0","0","0","0","1","1","0","0","1","5","2","3","2","2","4","4","2","2","4","2","802899041120821250","潘","23","","","","match","","","","","","","","","","","","","","key","j","16.68021052631574","768","428","j","true","match","img/pentagon.png","五边","五边","ALT1_2","prac_ALT1_2","","","","","","","","","","","",""
"null","<span style='color:GreenYellow; font-size: 70px;'>正确! </span>","null","html-keyboard-response","92","288167","0.0-7.0-1.0-1.0-0.0-1.41","4","3","4","3","4","4","3","4","4","4","4","4","4","4","4","4","4","4","4","4","2","3","2","2","2","2","2","2","2","0","1","0","0","1","0","0","0","0","0","1","1","0","0","1","5","2","3","2","2","4","4","2","2","4","2","802899041120821250","潘","23","","","","","","","","","","","","","","","","","","","","","","","","","","","","","","feedback_test","","","","","","","","","","","",""
"661","","j","psychophysics","93","289849","0.0-7.0-1.0-1.0-0.0-0.42","4","3","4","3","4","4","3","4","4","4","4","4","4","4","4","4","4","4","4","4","2","3","2","2","2","2","2","2","2","0","1","0","0","1","0","0","0","0","0","1","1","0","0","1","5","2","3","2","2","4","4","2","2","4","2","802899041120821250","潘","23","","","","match","","","","","","","","","","","","","","key","j","16.706000000000348","768","428","j","true","match","img/triangle.png","三角","三角","ALT1_2","prac_ALT1_2","","","","","","","","","","","",""
"null","<span style='color:GreenYellow; font-size: 70px;'>正确! </span>","null","html-keyboard-response","94","290367","0.0-7.0-1.0-1.0-0.0-1.42","4","3","4","3","4","4","3","4","4","4","4","4","4","4","4","4","4","4","4","4","2","3","2","2","2","2","2","2","2","0","1","0","0","1","0","0","0","0","0","1","1","0","0","1","5","2","3","2","2","4","4","2","2","4","2","802899041120821250","潘","23","","","","","","","","","","","","","","","","","","","","","","","","","","","","","","feedback_test","","","","","","","","","","","",""
"574","","j","psychophysics","95","291960","0.0-7.0-1.0-1.0-0.0-0.43","4","3","4","3","4","4","3","4","4","4","4","4","4","4","4","4","4","4","4","4","2","3","2","2","2","2","2","2","2","0","1","0","0","1","0","0","0","0","0","1","1","0","0","1","5","2","3","2","2","4","4","2","2","4","2","802899041120821250","潘","23","","","","match","","","","","","","","","","","","","","key","j","16.68297872340438","768","428","j","true","match","img/square.png","方形","方形","ALT1_2","prac_ALT1_2","","","","","","","","","","","",""
"null","<span style='color:GreenYellow; font-size: 70px;'>正确! </span>","null","html-keyboard-response","96","292472","0.0-7.0-1.0-1.0-0.0-1.43","4","3","4","3","4","4","3","4","4","4","4","4","4","4","4","4","4","4","4","4","2","3","2","2","2","2","2","2","2","0","1","0","0","1","0","0","0","0","0","1","1","0","0","1","5","2","3","2","2","4","4","2","2","4","2","802899041120821250","潘","23","","","","","","","","","","","","","","","","","","","","","","","","","","","","","","feedback_test","","","","","","","","","","","",""
"538","","j","psychophysics","97","294016","0.0-7.0-1.0-1.0-0.0-0.44","4","3","4","3","4","4","3","4","4","4","4","4","4","4","4","4","4","4","4","4","2","3","2","2","2","2","2","2","2","0","1","0","0","1","0","0","0","0","0","1","1","0","0","1","5","2","3","2","2","4","4","2","2","4","2","802899041120821250","潘","23","","","","match","","","","","","","","","","","","","","key","j","16.683695652174166","768","428","j","true","match","img/square.png","方形","方形","ALT1_2","prac_ALT1_2","","","","","","","","","","","",""
"null","<span style='color:GreenYellow; font-size: 70px;'>正确! </span>","null","html-keyboard-response","98","294538","0.0-7.0-1.0-1.0-0.0-1.44","4","3","4","3","4","4","3","4","4","4","4","4","4","4","4","4","4","4","4","4","2","3","2","2","2","2","2","2","2","0","1","0","0","1","0","0","0","0","0","1","1","0","0","1","5","2","3","2","2","4","4","2","2","4","2","802899041120821250","潘","23","","","","","","","","","","","","","","","","","","","","","","","","","","","","","","feedback_test","","","","","","","","","","","",""
"840","","j","psychophysics","99","296398","0.0-7.0-1.0-1.0-0.0-0.45","4","3","4","3","4","4","3","4","4","4","4","4","4","4","4","4","4","4","4","4","2","3","2","2","2","2","2","2","2","0","1","0","0","1","0","0","0","0","0","1","1","0","0","1","5","2","3","2","2","4","4","2","2","4","2","802899041120821250","潘","23","","","","match","","","","","","","","","","","","","","key","j","16.681818181818183","768","428","f","false","nonmatch","img/square.png","圆形","方形","ALT1_2","prac_ALT1_2","","","","","","","","","","","",""
"null","<span style='color:red; font-size: 70px;'>错误! </span>","null","html-keyboard-response","100","296907","0.0-7.0-1.0-1.0-0.0-1.45","4","3","4","3","4","4","3","4","4","4","4","4","4","4","4","4","4","4","4","4","2","3","2","2","2","2","2","2","2","0","1","0","0","1","0","0","0","0","0","1","1","0","0","1","5","2","3","2","2","4","4","2","2","4","2","802899041120821250","潘","23","","","","","","","","","","","","","","","","","","","","","","","","","","","","","","feedback_test","","","","","","","","","","","",""
"582","","f","psychophysics","101","298510","0.0-7.0-1.0-1.0-0.0-0.46","4","3","4","3","4","4","3","4","4","4","4","4","4","4","4","4","4","4","4","4","2","3","2","2","2","2","2","2","2","0","1","0","0","1","0","0","0","0","0","1","1","0","0","1","5","2","3","2","2","4","4","2","2","4","2","802899041120821250","潘","23","","","","nonmatch","","","","","","","","","","","","","","key","f","16.683578947368446","768","428","j","false","match","img/circle.png","圆形","圆形","ALT1_2","prac_ALT1_2","","","","","","","","","","","",""
"null","<span style='color:red; font-size: 70px;'>错误! </span>","null","html-keyboard-response","102","299027","0.0-7.0-1.0-1.0-0.0-1.46","4","3","4","3","4","4","3","4","4","4","4","4","4","4","4","4","4","4","4","4","2","3","2","2","2","2","2","2","2","0","1","0","0","1","0","0","0","0","0","1","1","0","0","1","5","2","3","2","2","4","4","2","2","4","2","802899041120821250","潘","23","","","","","","","","","","","","","","","","","","","","","","","","","","","","","","feedback_test","","","","","","","","","","","",""
"703","","j","psychophysics","103","300750","0.0-7.0-1.0-1.0-0.0-0.47","4","3","4","3","4","4","3","4","4","4","4","4","4","4","4","4","4","4","4","4","2","3","2","2","2","2","2","2","2","0","1","0","0","1","0","0","0","0","0","1","1","0","0","1","5","2","3","2","2","4","4","2","2","4","2","802899041120821250","潘","23","","","","match","","","","","","","","","","","","","","key","j","16.683137254901894","768","428","j","true","match","img/circle.png","圆形","圆形","ALT1_2","prac_ALT1_2","","","","","","","","","","","",""
"null","<span style='color:GreenYellow; font-size: 70px;'>正确! </span>","null","html-keyboard-response","104","301267","0.0-7.0-1.0-1.0-0.0-1.47","4","3","4","3","4","4","3","4","4","4","4","4","4","4","4","4","4","4","4","4","2","3","2","2","2","2","2","2","2","0","1","0","0","1","0","0","0","0","0","1","1","0","0","1","5","2","3","2","2","4","4","2","2","4","2","802899041120821250","潘","23","","","","","","","","","","","","","","","","","","","","","","","","","","","","","","feedback_test","","","","","","","","","","","",""
"21614","<style>.context{color:white; font-size: 35px; line-height:40px}</style>                          <div><p class='context'>您正确回答了75% 的试次。</p><p class='context'>您的平均反应时为638毫秒。</p><p class='context'>恭喜您完成练习。按空格键进入正式实验。</p><p class='footer' style='font-size: 35px; line-height:40px;'>请在进入正式实验实验之前将您的<span style='color: lightgreen;'>食指</span>放在电脑键盘的相应键位上进行按键。</p>"," ","html-keyboard-response","105","322885","0.0-7.0-1.0-2.0","4","3","4","3","4","4","3","4","4","4","4","4","4","4","4","4","4","4","4","4","2","3","2","2","2","2","2","2","2","0","1","0","0","1","0","0","0","0","0","1","1","0","0","1","5","2","3","2","2","4","4","2","2","4","2","802899041120821250","潘","23","","","","","","","","","","","","","","","","","","","","","","","","","","","","","","","","","","","","","","","","","",""
"2260","
  <p style='color: white; font-size: 22px'>请您将手指放在按键上，准备进入正式的匹配任务。</p>
  <p> <div style = ""color: green""><按空格键进入下一阶段的匹配任务></div></p>
  "," ","html-keyboard-response","106","325147","0.0-7.0-1.0-3.0","4","3","4","3","4","4","3","4","4","4","4","4","4","4","4","4","4","4","4","4","2","3","2","2","2","2","2","2","2","0","1","0","0","1","0","0","0","0","0","1","1","0","0","1","5","2","3","2","2","4","4","2","2","4","2","802899041120821250","潘","23","","","","","","","","","","","","","","","","","","","","","","","","","","","","","","","","","","","","","","","","","",""
"745","","f","psychophysics","107","326905","0.0-7.0-1.0-4.0-0.0-0.0","4","3","4","3","4","4","3","4","4","4","4","4","4","4","4","4","4","4","4","4","2","3","2","2","2","2","2","2","2","0","1","0","0","1","0","0","0","0","0","1","1","0","0","1","5","2","3","2","2","4","4","2","2","4","2","802899041120821250","潘","23","","","","nonmatch","","","","","","","","","","","","","","key","f","16.68365384615362","768","428","f","true","nonmatch","img/pentagon.png","方形","五边","ALT1","formal_ALT1_2","","","","","","","","","","","",""
"null","<span style='color:GreenYellow; font-size: 70px;'>正确! </span>","null","html-keyboard-response","108","327413","0.0-7.0-1.0-4.0-0.0-1.0","4","3","4","3","4","4","3","4","4","4","4","4","4","4","4","4","4","4","4","4","2","3","2","2","2","2","2","2","2","0","1","0","0","1","0","0","0","0","0","1","1","0","0","1","5","2","3","2","2","4","4","2","2","4","2","802899041120821250","潘","23","","","","","","","","","","","","","","","","","","","","","","","","","","","","","","feedback_test","","","","","","","","","","","",""
"745","","f","psychophysics","109","329161","0.0-7.0-1.0-4.0-0.0-0.1","4","3","4","3","4","4","3","4","4","4","4","4","4","4","4","4","4","4","4","4","2","3","2","2","2","2","2","2","2","0","1","0","0","1","0","0","0","0","0","1","1","0","0","1","5","2","3","2","2","4","4","2","2","4","2","802899041120821250","潘","23","","","","nonmatch","","","","","","","","","","","","","","key","f","16.681538461537947","768","428","f","true","nonmatch","img/circle.png","方形","圆形","ALT1","formal_ALT1_2","","","","","","","","","","","",""
"null","<span style='color:GreenYellow; font-size: 70px;'>正确! </span>","null","html-keyboard-response","110","329668","0.0-7.0-1.0-4.0-0.0-1.1","4","3","4","3","4","4","3","4","4","4","4","4","4","4","4","4","4","4","4","4","2","3","2","2","2","2","2","2","2","0","1","0","0","1","0","0","0","0","0","1","1","0","0","1","5","2","3","2","2","4","4","2","2","4","2","802899041120821250","潘","23","","","","","","","","","","","","","","","","","","","","","","","","","","","","","","feedback_test","","","","","","","","","","","",""
"640","","j","psychophysics","111","331326","0.0-7.0-1.0-4.0-0.0-0.2","4","3","4","3","4","4","3","4","4","4","4","4","4","4","4","4","4","4","4","4","2","3","2","2","2","2","2","2","2","0","1","0","0","1","0","0","0","0","0","1","1","0","0","1","5","2","3","2","2","4","4","2","2","4","2","802899041120821250","潘","23","","","","match","","","","","","","","","","","","","","key","j","16.683673469387756","768","428","j","true","match","img/pentagon.png","五边","五边","ALT1","formal_ALT1_2","","","","","","","","","","","",""
"null","<span style='color:GreenYellow; font-size: 70px;'>正确! </span>","null","html-keyboard-response","112","331829","0.0-7.0-1.0-4.0-0.0-1.2","4","3","4","3","4","4","3","4","4","4","4","4","4","4","4","4","4","4","4","4","2","3","2","2","2","2","2","2","2","0","1","0","0","1","0","0","0","0","0","1","1","0","0","1","5","2","3","2","2","4","4","2","2","4","2","802899041120821250","潘","23","","","","","","","","","","","","","","","","","","","","","","","","","","","","","","feedback_test","","","","","","","","","","","",""
"608","","j","psychophysics","113","333566","0.0-7.0-1.0-4.0-0.0-0.3","4","3","4","3","4","4","3","4","4","4","4","4","4","4","4","4","4","4","4","4","2","3","2","2","2","2","2","2","2","0","1","0","0","1","0","0","0","0","0","1","1","0","0","1","5","2","3","2","2","4","4","2","2","4","2","802899041120821250","潘","23","","","","match","","","","","","","","","","","","","","key","j","16.706019417475456","768","428","j","true","match","img/circle.png","圆形","圆形","ALT1","formal_ALT1_2","","","","","","","","","","","",""
"null","<span style='color:GreenYellow; font-size: 70px;'>正确! </span>","null","html-keyboard-response","114","334067","0.0-7.0-1.0-4.0-0.0-1.3","4","3","4","3","4","4","3","4","4","4","4","4","4","4","4","4","4","4","4","4","2","3","2","2","2","2","2","2","2","0","1","0","0","1","0","0","0","0","0","1","1","0","0","1","5","2","3","2","2","4","4","2","2","4","2","802899041120821250","潘","23","","","","","","","","","","","","","","","","","","","","","","","","","","","","","","feedback_test","","","","","","","","","","","",""
"652","","j","psychophysics","115","335739","0.0-7.0-1.0-4.0-0.0-0.4","4","3","4","3","4","4","3","4","4","4","4","4","4","4","4","4","4","4","4","4","2","3","2","2","2","2","2","2","2","0","1","0","0","1","0","0","0","0","0","1","1","0","0","1","5","2","3","2","2","4","4","2","2","4","2","802899041120821250","潘","23","","","","match","","","","","","","","","","","","","","key","j","16.682828282828048","768","428","j","true","match","img/circle.png","圆形","圆形","ALT1","formal_ALT1_2","","","","","","","","","","","",""
"null","<span style='color:GreenYellow; font-size: 70px;'>正确! </span>","null","html-keyboard-response","116","336247","0.0-7.0-1.0-4.0-0.0-1.4","4","3","4","3","4","4","3","4","4","4","4","4","4","4","4","4","4","4","4","4","2","3","2","2","2","2","2","2","2","0","1","0","0","1","0","0","0","0","0","1","1","0","0","1","5","2","3","2","2","4","4","2","2","4","2","802899041120821250","潘","23","","","","","","","","","","","","","","","","","","","","","","","","","","","","","","feedback_test","","","","","","","","","","","",""
"587","","f","psychophysics","117","337845","0.0-7.0-1.0-4.0-0.0-0.5","4","3","4","3","4","4","3","4","4","4","4","4","4","4","4","4","4","4","4","4","2","3","2","2","2","2","2","2","2","0","1","0","0","1","0","0","0","0","0","1","1","0","0","1","5","2","3","2","2","4","4","2","2","4","2","802899041120821250","潘","23","","","","nonmatch","","","","","","","","","","","","","","key","f","16.682340425532065","768","428","j","false","match","img/pentagon.png","五边","五边","ALT1","formal_ALT1_2","","","","","","","","","","","",""
"null","<span style='color:red; font-size: 70px;'>错误! </span>","null","html-keyboard-response","118","338347","0.0-7.0-1.0-4.0-0.0-1.5","4","3","4","3","4","4","3","4","4","4","4","4","4","4","4","4","4","4","4","4","2","3","2","2","2","2","2","2","2","0","1","0","0","1","0","0","0","0","0","1","1","0","0","1","5","2","3","2","2","4","4","2","2","4","2","802899041120821250","潘","23","","","","","","","","","","","","","","","","","","","","","","","","","","","","","","feedback_test","","","","","","","","","","","",""
"644","","j","psychophysics","119","340013","0.0-7.0-1.0-4.0-0.0-0.6","4","3","4","3","4","4","3","4","4","4","4","4","4","4","4","4","4","4","4","4","2","3","2","2","2","2","2","2","2","0","1","0","0","1","0","0","0","0","0","1","1","0","0","1","5","2","3","2","2","4","4","2","2","4","2","802899041120821250","潘","23","","","","match","","","","","","","","","","","","","","key","j","16.6797959183673","768","428","j","true","match","img/pentagon.png","五边","五边","ALT1","formal_ALT1_2","","","","","","","","","","","",""
"null","<span style='color:GreenYellow; font-size: 70px;'>正确! </span>","null","html-keyboard-response","120","340527","0.0-7.0-1.0-4.0-0.0-1.6","4","3","4","3","4","4","3","4","4","4","4","4","4","4","4","4","4","4","4","4","2","3","2","2","2","2","2","2","2","0","1","0","0","1","0","0","0","0","0","1","1","0","0","1","5","2","3","2","2","4","4","2","2","4","2","802899041120821250","潘","23","","","","","","","","","","","","","","","","","","","","","","","","","","","","","","feedback_test","","","","","","","","","","","",""
"656","","f","psychophysics","121","342204","0.0-7.0-1.0-4.0-0.0-0.7","4","3","4","3","4","4","3","4","4","4","4","4","4","4","4","4","4","4","4","4","2","3","2","2","2","2","2","2","2","0","1","0","0","1","0","0","0","0","0","1","1","0","0","1","5","2","3","2","2","4","4","2","2","4","2","802899041120821250","潘","23","","","","nonmatch","","","","","","","","","","","","","","key","f","16.683600000000443","768","428","f","true","nonmatch","img/triangle.png","五边","三角","ALT1","formal_ALT1_2","","","","","","","","","","","",""
"null","<span style='color:GreenYellow; font-size: 70px;'>正确! </span>","null","html-keyboard-response","122","342707","0.0-7.0-1.0-4.0-0.0-1.7","4","3","4","3","4","4","3","4","4","4","4","4","4","4","4","4","4","4","4","4","2","3","2","2","2","2","2","2","2","0","1","0","0","1","0","0","0","0","0","1","1","0","0","1","5","2","3","2","2","4","4","2","2","4","2","802899041120821250","潘","23","","","","","","","","","","","","","","","","","","","","","","","","","","","","","","feedback_test","","","","","","","","","","","",""
"788","","j","psychophysics","123","344514","0.0-7.0-1.0-4.0-0.0-0.8","4","3","4","3","4","4","3","4","4","4","4","4","4","4","4","4","4","4","4","4","2","3","2","2","2","2","2","2","2","0","1","0","0","1","0","0","0","0","0","1","1","0","0","1","5","2","3","2","2","4","4","2","2","4","2","802899041120821250","潘","23","","","","match","","","","","","","","","","","","","","key","j","16.68355140186929","768","428","f","false","nonmatch","img/triangle.png","方形","三角","ALT1","formal_ALT1_2","","","","","","","","","","","",""
"null","<span style='color:red; font-size: 70px;'>错误! </span>","null","html-keyboard-response","124","345018","0.0-7.0-1.0-4.0-0.0-1.8","4","3","4","3","4","4","3","4","4","4","4","4","4","4","4","4","4","4","4","4","2","3","2","2","2","2","2","2","2","0","1","0","0","1","0","0","0","0","0","1","1","0","0","1","5","2","3","2","2","4","4","2","2","4","2","802899041120821250","潘","23","","","","","","","","","","","","","","","","","","","","","","","","","","","","","","feedback_test","","","","","","","","","","","",""
"639","","j","psychophysics","125","346677","0.0-7.0-1.0-4.0-0.0-0.9","4","3","4","3","4","4","3","4","4","4","4","4","4","4","4","4","4","4","4","4","2","3","2","2","2","2","2","2","2","0","1","0","0","1","0","0","0","0","0","1","1","0","0","1","5","2","3","2","2","4","4","2","2","4","2","802899041120821250","潘","23","","","","match","","","","","","","","","","","","","","key","j","16.68306122448982","768","428","j","true","match","img/triangle.png","三角","三角","ALT1","formal_ALT1_2","","","","","","","","","","","",""
"null","<span style='color:GreenYellow; font-size: 70px;'>正确! </span>","null","html-keyboard-response","126","347238","0.0-7.0-1.0-4.0-0.0-1.9","4","3","4","3","4","4","3","4","4","4","4","4","4","4","4","4","4","4","4","4","2","3","2","2","2","2","2","2","2","0","1","0","0","1","0","0","0","0","0","1","1","0","0","1","5","2","3","2","2","4","4","2","2","4","2","802899041120821250","潘","23","","","","","","","","","","","","","","","","","","","","","","","","","","","","","","feedback_test","","","","","","","","","","","",""
"724","","f","psychophysics","127","348982","0.0-7.0-1.0-4.0-0.0-0.10","4","3","4","3","4","4","3","4","4","4","4","4","4","4","4","4","4","4","4","4","2","3","2","2","2","2","2","2","2","0","1","0","0","1","0","0","0","0","0","1","1","0","0","1","5","2","3","2","2","4","4","2","2","4","2","802899041120821250","潘","23","","","","nonmatch","","","","","","","","","","","","","","key","f","16.681553398058366","768","428","f","true","nonmatch","img/triangle.png","圆形","三角","ALT1","formal_ALT1_2","","","","","","","","","","","",""
"null","<span style='color:GreenYellow; font-size: 70px;'>正确! </span>","null","html-keyboard-response","128","349518","0.0-7.0-1.0-4.0-0.0-1.10","4","3","4","3","4","4","3","4","4","4","4","4","4","4","4","4","4","4","4","4","2","3","2","2","2","2","2","2","2","0","1","0","0","1","0","0","0","0","0","1","1","0","0","1","5","2","3","2","2","4","4","2","2","4","2","802899041120821250","潘","23","","","","","","","","","","","","","","","","","","","","","","","","","","","","","","feedback_test","","","","","","","","","","","",""
"752","","j","psychophysics","129","351289","0.0-7.0-1.0-4.0-0.0-0.11","4","3","4","3","4","4","3","4","4","4","4","4","4","4","4","4","4","4","4","4","2","3","2","2","2","2","2","2","2","0","1","0","0","1","0","0","0","0","0","1","1","0","0","1","5","2","3","2","2","4","4","2","2","4","2","802899041120821250","潘","23","","","","match","","","","","","","","","","","","","","key","j","16.683619047619313","768","428","j","true","match","img/triangle.png","三角","三角","ALT1","formal_ALT1_2","","","","","","","","","","","",""
"null","<span style='color:GreenYellow; font-size: 70px;'>正确! </span>","null","html-keyboard-response","130","351807","0.0-7.0-1.0-4.0-0.0-1.11","4","3","4","3","4","4","3","4","4","4","4","4","4","4","4","4","4","4","4","4","2","3","2","2","2","2","2","2","2","0","1","0","0","1","0","0","0","0","0","1","1","0","0","1","5","2","3","2","2","4","4","2","2","4","2","802899041120821250","潘","23","","","","","","","","","","","","","","","","","","","","","","","","","","","","","","feedback_test","","","","","","","","","","","",""
"581","","j","psychophysics","131","353408","0.0-7.0-1.0-4.0-0.0-0.12","4","3","4","3","4","4","3","4","4","4","4","4","4","4","4","4","4","4","4","4","2","3","2","2","2","2","2","2","2","0","1","0","0","1","0","0","0","0","0","1","1","0","0","1","5","2","3","2","2","4","4","2","2","4","2","802899041120821250","潘","23","","","","match","","","","","","","","","","","","","","key","j","16.683617021276696","768","428","j","true","match","img/circle.png","圆形","圆形","ALT1","formal_ALT1_2","","","","","","","","","","","",""
"null","<span style='color:GreenYellow; font-size: 70px;'>正确! </span>","null","html-keyboard-response","132","353927","0.0-7.0-1.0-4.0-0.0-1.12","4","3","4","3","4","4","3","4","4","4","4","4","4","4","4","4","4","4","4","4","2","3","2","2","2","2","2","2","2","0","1","0","0","1","0","0","0","0","0","1","1","0","0","1","5","2","3","2","2","4","4","2","2","4","2","802899041120821250","潘","23","","","","","","","","","","","","","","","","","","","","","","","","","","","","","","feedback_test","","","","","","","","","","","",""
"684","","f","psychophysics","133","355630","0.0-7.0-1.0-4.0-0.0-0.13","4","3","4","3","4","4","3","4","4","4","4","4","4","4","4","4","4","4","4","4","2","3","2","2","2","2","2","2","2","0","1","0","0","1","0","0","0","0","0","1","1","0","0","1","5","2","3","2","2","4","4","2","2","4","2","802899041120821250","潘","23","","","","nonmatch","","","","","","","","","","","","","","key","f","16.68359999999986","768","428","f","true","nonmatch","img/pentagon.png","三角","五边","ALT1","formal_ALT1_2","","","","","","","","","","","",""
"null","<span style='color:GreenYellow; font-size: 70px;'>正确! </span>","null","html-keyboard-response","134","356147","0.0-7.0-1.0-4.0-0.0-1.13","4","3","4","3","4","4","3","4","4","4","4","4","4","4","4","4","4","4","4","4","2","3","2","2","2","2","2","2","2","0","1","0","0","1","0","0","0","0","0","1","1","0","0","1","5","2","3","2","2","4","4","2","2","4","2","802899041120821250","潘","23","","","","","","","","","","","","","","","","","","","","","","","","","","","","","","feedback_test","","","","","","","","","","","",""
"814","","f","psychophysics","135","357970","0.0-7.0-1.0-4.0-0.0-0.14","4","3","4","3","4","4","3","4","4","4","4","4","4","4","4","4","4","4","4","4","2","3","2","2","2","2","2","2","2","0","1","0","0","1","0","0","0","0","0","1","1","0","0","1","5","2","3","2","2","4","4","2","2","4","2","802899041120821250","潘","23","","","","nonmatch","","","","","","","","","","","","","","key","f","16.6803703703702","768","428","f","true","nonmatch","img/square.png","圆形","方形","ALT1","formal_ALT1_2","","","","","","","","","","","",""
"null","<span style='color:GreenYellow; font-size: 70px;'>正确! </span>","null","html-keyboard-response","136","358478","0.0-7.0-1.0-4.0-0.0-1.14","4","3","4","3","4","4","3","4","4","4","4","4","4","4","4","4","4","4","4","4","2","3","2","2","2","2","2","2","2","0","1","0","0","1","0","0","0","0","0","1","1","0","0","1","5","2","3","2","2","4","4","2","2","4","2","802899041120821250","潘","23","","","","","","","","","","","","","","","","","","","","","","","","","","","","","","feedback_test","","","","","","","","","","","",""
"647","","f","psychophysics","137","360144","0.0-7.0-1.0-4.0-0.0-0.15","4","3","4","3","4","4","3","4","4","4","4","4","4","4","4","4","4","4","4","4","2","3","2","2","2","2","2","2","2","0","1","0","0","1","0","0","0","0","0","1","1","0","0","1","5","2","3","2","2","4","4","2","2","4","2","802899041120821250","潘","23","","","","nonmatch","","","","","","","","","","","","","","key","f","16.683434343434083","768","428","f","true","nonmatch","img/circle.png","三角","圆形","ALT1","formal_ALT1_2","","","","","","","","","","","",""
"null","<span style='color:GreenYellow; font-size: 70px;'>正确! </span>","null","html-keyboard-response","138","360647","0.0-7.0-1.0-4.0-0.0-1.15","4","3","4","3","4","4","3","4","4","4","4","4","4","4","4","4","4","4","4","4","2","3","2","2","2","2","2","2","2","0","1","0","0","1","0","0","0","0","0","1","1","0","0","1","5","2","3","2","2","4","4","2","2","4","2","802899041120821250","潘","23","","","","","","","","","","","","","","","","","","","","","","","","","","","","","","feedback_test","","","","","","","","","","","",""
"562","","j","psychophysics","139","362229","0.0-7.0-1.0-4.0-0.0-0.16","4","3","4","3","4","4","3","4","4","4","4","4","4","4","4","4","4","4","4","4","2","3","2","2","2","2","2","2","2","0","1","0","0","1","0","0","0","0","0","1","1","0","0","1","5","2","3","2","2","4","4","2","2","4","2","802899041120821250","潘","23","","","","match","","","","","","","","","","","","","","key","j","16.68212765957442","768","428","j","true","match","img/square.png","方形","方形","ALT1","formal_ALT1_2","","","","","","","","","","","",""
"null","<span style='color:GreenYellow; font-size: 70px;'>正确! </span>","null","html-keyboard-response","140","362747","0.0-7.0-1.0-4.0-0.0-1.16","4","3","4","3","4","4","3","4","4","4","4","4","4","4","4","4","4","4","4","4","2","3","2","2","2","2","2","2","2","0","1","0","0","1","0","0","0","0","0","1","1","0","0","1","5","2","3","2","2","4","4","2","2","4","2","802899041120821250","潘","23","","","","","","","","","","","","","","","","","","","","","","","","","","","","","","feedback_test","","","","","","","","","","","",""
"539","","f","psychophysics","141","364307","0.0-7.0-1.0-4.0-0.0-0.17","4","3","4","3","4","4","3","4","4","4","4","4","4","4","4","4","4","4","4","4","2","3","2","2","2","2","2","2","2","0","1","0","0","1","0","0","0","0","0","1","1","0","0","1","5","2","3","2","2","4","4","2","2","4","2","802899041120821250","潘","23","","","","nonmatch","","","","","","","","","","","","","","key","f","16.683695652174166","768","428","f","true","nonmatch","img/square.png","三角","方形","ALT1","formal_ALT1_2","","","","","","","","","","","",""
"null","<span style='color:GreenYellow; font-size: 70px;'>正确! </span>","null","html-keyboard-response","142","364826","0.0-7.0-1.0-4.0-0.0-1.17","4","3","4","3","4","4","3","4","4","4","4","4","4","4","4","4","4","4","4","4","2","3","2","2","2","2","2","2","2","0","1","0","0","1","0","0","0","0","0","1","1","0","0","1","5","2","3","2","2","4","4","2","2","4","2","802899041120821250","潘","23","","","","","","","","","","","","","","","","","","","","","","","","","","","","","","feedback_test","","","","","","","","","","","",""
"540","","j","psychophysics","143","366376","0.0-7.0-1.0-4.0-0.0-0.18","4","3","4","3","4","4","3","4","4","4","4","4","4","4","4","4","4","4","4","4","2","3","2","2","2","2","2","2","2","0","1","0","0","1","0","0","0","0","0","1","1","0","0","1","5","2","3","2","2","4","4","2","2","4","2","802899041120821250","潘","23","","","","match","","","","","","","","","","","","","","key","j","16.681978021977997","768","428","j","true","match","img/square.png","方形","方形","ALT1","formal_ALT1_2","","","","","","","","","","","",""
"null","<span style='color:GreenYellow; font-size: 70px;'>正确! </span>","null","html-keyboard-response","144","366877","0.0-7.0-1.0-4.0-0.0-1.18","4","3","4","3","4","4","3","4","4","4","4","4","4","4","4","4","4","4","4","4","2","3","2","2","2","2","2","2","2","0","1","0","0","1","0","0","0","0","0","1","1","0","0","1","5","2","3","2","2","4","4","2","2","4","2","802899041120821250","潘","23","","","","","","","","","","","","","","","","","","","","","","","","","","","","","","feedback_test","","","","","","","","","","","",""
"751","","f","psychophysics","145","368649","0.0-7.0-1.0-4.0-0.0-0.19","4","3","4","3","4","4","3","4","4","4","4","4","4","4","4","4","4","4","4","4","2","3","2","2","2","2","2","2","2","0","1","0","0","1","0","0","0","0","0","1","1","0","0","1","5","2","3","2","2","4","4","2","2","4","2","802899041120821250","潘","23","","","","nonmatch","","","","","","","","","","","","","","key","f","16.680380952380975","768","428","f","true","nonmatch","img/circle.png","五边","圆形","ALT1","formal_ALT1_2","","","","","","","","","","","",""
"null","<span style='color:GreenYellow; font-size: 70px;'>正确! </span>","null","html-keyboard-response","146","369157","0.0-7.0-1.0-4.0-0.0-1.19","4","3","4","3","4","4","3","4","4","4","4","4","4","4","4","4","4","4","4","4","2","3","2","2","2","2","2","2","2","0","1","0","0","1","0","0","0","0","0","1","1","0","0","1","5","2","3","2","2","4","4","2","2","4","2","802899041120821250","潘","23","","","","","","","","","","","","","","","","","","","","","","","","","","","","","","feedback_test","","","","","","","","","","","",""
"605","","j","psychophysics","147","370783","0.0-7.0-1.0-4.0-0.0-0.20","4","3","4","3","4","4","3","4","4","4","4","4","4","4","4","4","4","4","4","4","2","3","2","2","2","2","2","2","2","0","1","0","0","1","0","0","0","0","0","1","1","0","0","1","5","2","3","2","2","4","4","2","2","4","2","802899041120821250","潘","23","","","","match","","","","","","","","","","","","","","key","j","16.682886597938047","768","428","j","true","match","img/triangle.png","三角","三角","ALT1","formal_ALT1_2","","","","","","","","","","","",""
"null","<span style='color:GreenYellow; font-size: 70px;'>正确! </span>","null","html-keyboard-response","148","371297","0.0-7.0-1.0-4.0-0.0-1.20","4","3","4","3","4","4","3","4","4","4","4","4","4","4","4","4","4","4","4","4","2","3","2","2","2","2","2","2","2","0","1","0","0","1","0","0","0","0","0","1","1","0","0","1","5","2","3","2","2","4","4","2","2","4","2","802899041120821250","潘","23","","","","","","","","","","","","","","","","","","","","","","","","","","","","","","feedback_test","","","","","","","","","","","",""
"620","","f","psychophysics","149","372938","0.0-7.0-1.0-4.0-0.0-0.21","4","3","4","3","4","4","3","4","4","4","4","4","4","4","4","4","4","4","4","4","2","3","2","2","2","2","2","2","2","0","1","0","0","1","0","0","0","0","0","1","1","0","0","1","5","2","3","2","2","4","4","2","2","4","2","802899041120821250","潘","23","","","","nonmatch","","","","","","","","","","","","","","key","f","16.680618556701223","768","428","f","true","nonmatch","img/pentagon.png","圆形","五边","ALT1","formal_ALT1_2","","","","","","","","","","","",""
"null","<span style='color:GreenYellow; font-size: 70px;'>正确! </span>","null","html-keyboard-response","150","373507","0.0-7.0-1.0-4.0-0.0-1.21","4","3","4","3","4","4","3","4","4","4","4","4","4","4","4","4","4","4","4","4","2","3","2","2","2","2","2","2","2","0","1","0","0","1","0","0","0","0","0","1","1","0","0","1","5","2","3","2","2","4","4","2","2","4","2","802899041120821250","潘","23","","","","","","","","","","","","","","","","","","","","","","","","","","","","","","feedback_test","","","","","","","","","","","",""
"519","","j","psychophysics","151","375046","0.0-7.0-1.0-4.0-0.0-0.22","4","3","4","3","4","4","3","4","4","4","4","4","4","4","4","4","4","4","4","4","2","3","2","2","2","2","2","2","2","0","1","0","0","1","0","0","0","0","0","1","1","0","0","1","5","2","3","2","2","4","4","2","2","4","2","802899041120821250","潘","23","","","","match","","","","","","","","","","","","","","key","j","16.68175824175865","768","428","j","true","match","img/square.png","方形","方形","ALT1","formal_ALT1_2","","","","","","","","","","","",""
"null","<span style='color:GreenYellow; font-size: 70px;'>正确! </span>","null","html-keyboard-response","152","375563","0.0-7.0-1.0-4.0-0.0-1.22","4","3","4","3","4","4","3","4","4","4","4","4","4","4","4","4","4","4","4","4","2","3","2","2","2","2","2","2","2","0","1","0","0","1","0","0","0","0","0","1","1","0","0","1","5","2","3","2","2","4","4","2","2","4","2","802899041120821250","潘","23","","","","","","","","","","","","","","","","","","","","","","","","","","","","","","feedback_test","","","","","","","","","","","",""
"532","","f","psychophysics","153","377100","0.0-7.0-1.0-4.0-0.0-0.23","4","3","4","3","4","4","3","4","4","4","4","4","4","4","4","4","4","4","4","4","2","3","2","2","2","2","2","2","2","0","1","0","0","1","0","0","0","0","0","1","1","0","0","1","5","2","3","2","2","4","4","2","2","4","2","802899041120821250","潘","23","","","","nonmatch","","","","","","","","","","","","","","key","f","16.683516483516613","768","428","f","true","nonmatch","img/square.png","五边","方形","ALT1","formal_ALT1_2","","","","","","","","","","","",""
"null","<span style='color:GreenYellow; font-size: 70px;'>正确! </span>","null","html-keyboard-response","154","377618","0.0-7.0-1.0-4.0-0.0-1.23","4","3","4","3","4","4","3","4","4","4","4","4","4","4","4","4","4","4","4","4","2","3","2","2","2","2","2","2","2","0","1","0","0","1","0","0","0","0","0","1","1","0","0","1","5","2","3","2","2","4","4","2","2","4","2","802899041120821250","潘","23","","","","","","","","","","","","","","","","","","","","","","","","","","","","","","feedback_test","","","","","","","","","","","",""
"556","","j","psychophysics","155","379194","0.0-7.0-1.0-4.0-0.0-0.24","4","3","4","3","4","4","3","4","4","4","4","4","4","4","4","4","4","4","4","4","2","3","2","2","2","2","2","2","2","0","1","0","0","1","0","0","0","0","0","1","1","0","0","1","5","2","3","2","2","4","4","2","2","4","2","802899041120821250","潘","23","","","","match","","","","","","","","","","","","","","key","j","16.683617021276696","768","428","j","true","match","img/square.png","方形","方形","ALT1","formal_ALT1_2","","","","","","","","","","","",""
"null","<span style='color:GreenYellow; font-size: 70px;'>正确! </span>","null","html-keyboard-response","156","379698","0.0-7.0-1.0-4.0-0.0-1.24","4","3","4","3","4","4","3","4","4","4","4","4","4","4","4","4","4","4","4","4","2","3","2","2","2","2","2","2","2","0","1","0","0","1","0","0","0","0","0","1","1","0","0","1","5","2","3","2","2","4","4","2","2","4","2","802899041120821250","潘","23","","","","","","","","","","","","","","","","","","","","","","","","","","","","","","feedback_test","","","","","","","","","","","",""
"780","","j","psychophysics","157","381498","0.0-7.0-1.0-4.0-0.0-0.25","4","3","4","3","4","4","3","4","4","4","4","4","4","4","4","4","4","4","4","4","2","3","2","2","2","2","2","2","2","0","1","0","0","1","0","0","0","0","0","1","1","0","0","1","5","2","3","2","2","4","4","2","2","4","2","802899041120821250","潘","23","","","","match","","","","","","","","","","","","","","key","j","16.701682242990262","768","428","j","true","match","img/circle.png","圆形","圆形","ALT1","formal_ALT1_2","","","","","","","","","","","",""
"null","<span style='color:GreenYellow; font-size: 70px;'>正确! </span>","null","html-keyboard-response","158","382018","0.0-7.0-1.0-4.0-0.0-1.25","4","3","4","3","4","4","3","4","4","4","4","4","4","4","4","4","4","4","4","4","2","3","2","2","2","2","2","2","2","0","1","0","0","1","0","0","0","0","0","1","1","0","0","1","5","2","3","2","2","4","4","2","2","4","2","802899041120821250","潘","23","","","","","","","","","","","","","","","","","","","","","","","","","","","","","","feedback_test","","","","","","","","","","","",""
"737","","f","psychophysics","159","383774","0.0-7.0-1.0-4.0-0.0-0.26","4","3","4","3","4","4","3","4","4","4","4","4","4","4","4","4","4","4","4","4","2","3","2","2","2","2","2","2","2","0","1","0","0","1","0","0","0","0","0","1","1","0","0","1","5","2","3","2","2","4","4","2","2","4","2","802899041120821250","潘","23","","","","nonmatch","","","","","","","","","","","","","","key","f","16.681346153846018","768","428","f","true","nonmatch","img/pentagon.png","方形","五边","ALT1","formal_ALT1_2","","","","","","","","","","","",""
"null","<span style='color:GreenYellow; font-size: 70px;'>正确! </span>","null","html-keyboard-response","160","384288","0.0-7.0-1.0-4.0-0.0-1.26","4","3","4","3","4","4","3","4","4","4","4","4","4","4","4","4","4","4","4","4","2","3","2","2","2","2","2","2","2","0","1","0","0","1","0","0","0","0","0","1","1","0","0","1","5","2","3","2","2","4","4","2","2","4","2","802899041120821250","潘","23","","","","","","","","","","","","","","","","","","","","","","","","","","","","","","feedback_test","","","","","","","","","","","",""
"656","","j","psychophysics","161","385955","0.0-7.0-1.0-4.0-0.0-0.27","4","3","4","3","4","4","3","4","4","4","4","4","4","4","4","4","4","4","4","4","2","3","2","2","2","2","2","2","2","0","1","0","0","1","0","0","0","0","0","1","1","0","0","1","5","2","3","2","2","4","4","2","2","4","2","802899041120821250","潘","23","","","","match","","","","","","","","","","","","","","key","j","16.683636363636293","768","428","j","true","match","img/triangle.png","三角","三角","ALT1","formal_ALT1_2","","","","","","","","","","","",""
"null","<span style='color:GreenYellow; font-size: 70px;'>正确! </span>","null","html-keyboard-response","162","386467","0.0-7.0-1.0-4.0-0.0-1.27","4","3","4","3","4","4","3","4","4","4","4","4","4","4","4","4","4","4","4","4","2","3","2","2","2","2","2","2","2","0","1","0","0","1","0","0","0","0","0","1","1","0","0","1","5","2","3","2","2","4","4","2","2","4","2","802899041120821250","潘","23","","","","","","","","","","","","","","","","","","","","","","","","","","","","","","feedback_test","","","","","","","","","","","",""
"615","","j","psychophysics","163","388102","0.0-7.0-1.0-4.0-0.0-0.28","4","3","4","3","4","4","3","4","4","4","4","4","4","4","4","4","4","4","4","4","2","3","2","2","2","2","2","2","2","0","1","0","0","1","0","0","0","0","0","1","1","0","0","1","5","2","3","2","2","4","4","2","2","4","2","802899041120821250","潘","23","","","","match","","","","","","","","","","","","","","key","j","16.678969072164804","768","428","j","true","match","img/pentagon.png","五边","五边","ALT1","formal_ALT1_2","","","","","","","","","","","",""
"null","<span style='color:GreenYellow; font-size: 70px;'>正确! </span>","null","html-keyboard-response","164","388617","0.0-7.0-1.0-4.0-0.0-1.28","4","3","4","3","4","4","3","4","4","4","4","4","4","4","4","4","4","4","4","4","2","3","2","2","2","2","2","2","2","0","1","0","0","1","0","0","0","0","0","1","1","0","0","1","5","2","3","2","2","4","4","2","2","4","2","802899041120821250","潘","23","","","","","","","","","","","","","","","","","","","","","","","","","","","","","","feedback_test","","","","","","","","","","","",""
"682","","f","psychophysics","165","390319","0.0-7.0-1.0-4.0-0.0-0.29","4","3","4","3","4","4","3","4","4","4","4","4","4","4","4","4","4","4","4","4","2","3","2","2","2","2","2","2","2","0","1","0","0","1","0","0","0","0","0","1","1","0","0","1","5","2","3","2","2","4","4","2","2","4","2","802899041120821250","潘","23","","","","nonmatch","","","","","","","","","","","","","","key","f","16.68039999999979","768","428","f","true","nonmatch","img/pentagon.png","圆形","五边","ALT1","formal_ALT1_2","","","","","","","","","","","",""
"null","<span style='color:GreenYellow; font-size: 70px;'>正确! </span>","null","html-keyboard-response","166","390837","0.0-7.0-1.0-4.0-0.0-1.29","4","3","4","3","4","4","3","4","4","4","4","4","4","4","4","4","4","4","4","4","2","3","2","2","2","2","2","2","2","0","1","0","0","1","0","0","0","0","0","1","1","0","0","1","5","2","3","2","2","4","4","2","2","4","2","802899041120821250","潘","23","","","","","","","","","","","","","","","","","","","","","","","","","","","","","","feedback_test","","","","","","","","","","","",""
"695","","j","psychophysics","167","392553","0.0-7.0-1.0-4.0-0.0-0.30","4","3","4","3","4","4","3","4","4","4","4","4","4","4","4","4","4","4","4","4","2","3","2","2","2","2","2","2","2","0","1","0","0","1","0","0","0","0","0","1","1","0","0","1","5","2","3","2","2","4","4","2","2","4","2","802899041120821250","潘","23","","","","match","","","","","","","","","","","","","","key","j","16.68297029702952","768","428","j","true","match","img/circle.png","圆形","圆形","ALT1","formal_ALT1_2","","","","","","","","","","","",""
"null","<span style='color:GreenYellow; font-size: 70px;'>正确! </span>","null","html-keyboard-response","168","393067","0.0-7.0-1.0-4.0-0.0-1.30","4","3","4","3","4","4","3","4","4","4","4","4","4","4","4","4","4","4","4","4","2","3","2","2","2","2","2","2","2","0","1","0","0","1","0","0","0","0","0","1","1","0","0","1","5","2","3","2","2","4","4","2","2","4","2","802899041120821250","潘","23","","","","","","","","","","","","","","","","","","","","","","","","","","","","","","feedback_test","","","","","","","","","","","",""
"540","","f","psychophysics","169","394637","0.0-7.0-1.0-4.0-0.0-0.31","4","3","4","3","4","4","3","4","4","4","4","4","4","4","4","4","4","4","4","4","2","3","2","2","2","2","2","2","2","0","1","0","0","1","0","0","0","0","0","1","1","0","0","1","5","2","3","2","2","4","4","2","2","4","2","802899041120821250","潘","23","","","","nonmatch","","","","","","","","","","","","","","key","f","16.683225806452015","768","428","f","true","nonmatch","img/circle.png","三角","圆形","ALT1","formal_ALT1_2","","","","","","","","","","","",""
"null","<span style='color:GreenYellow; font-size: 70px;'>正确! </span>","null","html-keyboard-response","170","395141","0.0-7.0-1.0-4.0-0.0-1.31","4","3","4","3","4","4","3","4","4","4","4","4","4","4","4","4","4","4","4","4","2","3","2","2","2","2","2","2","2","0","1","0","0","1","0","0","0","0","0","1","1","0","0","1","5","2","3","2","2","4","4","2","2","4","2","802899041120821250","潘","23","","","","","","","","","","","","","","","","","","","","","","","","","","","","","","feedback_test","","","","","","","","","","","",""
"833","","f","psychophysics","171","396982","0.0-7.0-1.0-4.0-0.0-0.32","4","3","4","3","4","4","3","4","4","4","4","4","4","4","4","4","4","4","4","4","2","3","2","2","2","2","2","2","2","0","1","0","0","1","0","0","0","0","0","1","1","0","0","1","5","2","3","2","2","4","4","2","2","4","2","802899041120821250","潘","23","","","","nonmatch","","","","","","","","","","","","","","key","f","16.683669724770812","768","428","f","true","nonmatch","img/pentagon.png","三角","五边","ALT1","formal_ALT1_2","","","","","","","","","","","",""
"null","<span style='color:GreenYellow; font-size: 70px;'>正确! </span>","null","html-keyboard-response","172","397487","0.0-7.0-1.0-4.0-0.0-1.32","4","3","4","3","4","4","3","4","4","4","4","4","4","4","4","4","4","4","4","4","2","3","2","2","2","2","2","2","2","0","1","0","0","1","0","0","0","0","0","1","1","0","0","1","5","2","3","2","2","4","4","2","2","4","2","802899041120821250","潘","23","","","","","","","","","","","","","","","","","","","","","","","","","","","","","","feedback_test","","","","","","","","","","","",""
"686","","j","psychophysics","173","399193","0.0-7.0-1.0-4.0-0.0-0.33","4","3","4","3","4","4","3","4","4","4","4","4","4","4","4","4","4","4","4","4","2","3","2","2","2","2","2","2","2","0","1","0","0","1","0","0","0","0","0","1","1","0","0","1","5","2","3","2","2","4","4","2","2","4","2","802899041120821250","潘","23","","","","match","","","","","","","","","","","","","","key","j","16.683564356435436","768","428","j","true","match","img/pentagon.png","五边","五边","ALT1","formal_ALT1_2","","","","","","","","","","","",""
"null","<span style='color:GreenYellow; font-size: 70px;'>正确! </span>","null","html-keyboard-response","174","399708","0.0-7.0-1.0-4.0-0.0-1.33","4","3","4","3","4","4","3","4","4","4","4","4","4","4","4","4","4","4","4","4","2","3","2","2","2","2","2","2","2","0","1","0","0","1","0","0","0","0","0","1","1","0","0","1","5","2","3","2","2","4","4","2","2","4","2","802899041120821250","潘","23","","","","","","","","","","","","","","","","","","","","","","","","","","","","","","feedback_test","","","","","","","","","","","",""
"730","","f","psychophysics","175","401458","0.0-7.0-1.0-4.0-0.0-0.34","4","3","4","3","4","4","3","4","4","4","4","4","4","4","4","4","4","4","4","4","2","3","2","2","2","2","2","2","2","0","1","0","0","1","0","0","0","0","0","1","1","0","0","1","5","2","3","2","2","4","4","2","2","4","2","802899041120821250","潘","23","","","","nonmatch","","","","","","","","","","","","","","key","f","16.683461538461135","768","428","f","true","nonmatch","img/circle.png","五边","圆形","ALT1","formal_ALT1_2","","","","","","","","","","","",""
"null","<span style='color:GreenYellow; font-size: 70px;'>正确! </span>","null","html-keyboard-response","176","401978","0.0-7.0-1.0-4.0-0.0-1.34","4","3","4","3","4","4","3","4","4","4","4","4","4","4","4","4","4","4","4","4","2","3","2","2","2","2","2","2","2","0","1","0","0","1","0","0","0","0","0","1","1","0","0","1","5","2","3","2","2","4","4","2","2","4","2","802899041120821250","潘","23","","","","","","","","","","","","","","","","","","","","","","","","","","","","","","feedback_test","","","","","","","","","","","",""
"840","","j","psychophysics","177","403838","0.0-7.0-1.0-4.0-0.0-0.35","4","3","4","3","4","4","3","4","4","4","4","4","4","4","4","4","4","4","4","4","2","3","2","2","2","2","2","2","2","0","1","0","0","1","0","0","0","0","0","1","1","0","0","1","5","2","3","2","2","4","4","2","2","4","2","802899041120821250","潘","23","","","","match","","","","","","","","","","","","","","key","j","16.682702702702954","768","428","j","true","match","img/square.png","方形","方形","ALT1","formal_ALT1_2","","","","","","","","","","","",""
"null","<span style='color:GreenYellow; font-size: 70px;'>正确! </span>","null","html-keyboard-response","178","404346","0.0-7.0-1.0-4.0-0.0-1.35","4","3","4","3","4","4","3","4","4","4","4","4","4","4","4","4","4","4","4","4","2","3","2","2","2","2","2","2","2","0","1","0","0","1","0","0","0","0","0","1","1","0","0","1","5","2","3","2","2","4","4","2","2","4","2","802899041120821250","潘","23","","","","","","","","","","","","","","","","","","","","","","","","","","","","","","feedback_test","","","","","","","","","","","",""
"618","","f","psychophysics","179","405986","0.0-7.0-1.0-4.0-0.0-0.36","4","3","4","3","4","4","3","4","4","4","4","4","4","4","4","4","4","4","4","4","2","3","2","2","2","2","2","2","2","0","1","0","0","1","0","0","0","0","0","1","1","0","0","1","5","2","3","2","2","4","4","2","2","4","2","802899041120821250","潘","23","","","","nonmatch","","","","","","","","","","","","","","key","f","16.683298969071853","768","428","f","true","nonmatch","img/square.png","圆形","方形","ALT1","formal_ALT1_2","","","","","","","","","","","",""
"null","<span style='color:GreenYellow; font-size: 70px;'>正确! </span>","null","html-keyboard-response","180","406487","0.0-7.0-1.0-4.0-0.0-1.36","4","3","4","3","4","4","3","4","4","4","4","4","4","4","4","4","4","4","4","4","2","3","2","2","2","2","2","2","2","0","1","0","0","1","0","0","0","0","0","1","1","0","0","1","5","2","3","2","2","4","4","2","2","4","2","802899041120821250","潘","23","","","","","","","","","","","","","","","","","","","","","","","","","","","","","","feedback_test","","","","","","","","","","","",""
"702","","f","psychophysics","181","408210","0.0-7.0-1.0-4.0-0.0-0.37","4","3","4","3","4","4","3","4","4","4","4","4","4","4","4","4","4","4","4","4","2","3","2","2","2","2","2","2","2","0","1","0","0","1","0","0","0","0","0","1","1","0","0","1","5","2","3","2","2","4","4","2","2","4","2","802899041120821250","潘","23","","","","nonmatch","","","","","","","","","","","","","","key","f","16.67901960784323","768","428","f","true","nonmatch","img/triangle.png","圆形","三角","ALT1","formal_ALT1_2","","","","","","","","","","","",""
"null","<span style='color:GreenYellow; font-size: 70px;'>正确! </span>","null","html-keyboard-response","182","408728","0.0-7.0-1.0-4.0-0.0-1.37","4","3","4","3","4","4","3","4","4","4","4","4","4","4","4","4","4","4","4","4","2","3","2","2","2","2","2","2","2","0","1","0","0","1","0","0","0","0","0","1","1","0","0","1","5","2","3","2","2","4","4","2","2","4","2","802899041120821250","潘","23","","","","","","","","","","","","","","","","","","","","","","","","","","","","","","feedback_test","","","","","","","","","","","",""
