"rt","stimulus","response","trial_type","trial_index","time_elapsed","internal_node_id","ses_1","ses_2","ses_3","ses_4","ses_5","ses_6","ses_7","ses_8","ses_9","ses_10","coreself_1","coreself_2","coreself_3","coreself_4","coreself_5","coreself_6","coreself_7","coreself_8","coreself_9","coreself_10","SGPS_1","SGPS_2","SGPS_3","SGPS_4","SGPS_5","SGPS_6","SGPS_7","SGPS_8","SGPS_9","NPI1","NPI2","NPI3","NPI4","NPI5","NPI6","NPI7","NPI8","NPI9","NPI10","NPI11","NPI12","NPI13","NPI14","NPI15","hsns_1","hsns_2","hsns_3","hsns_4","hsns_5","trap1","hsns_6","hsns_7","hsns_8","hsns_9","hsns_10","subj_idx","friend_name","ParticipantID","value","success","user_agent","responses","item_order","radio_event_ids","radio_event_times","key_event_times","mouse_event_times","straightlining","zigzagging","honeypot","timeout","failed_images","failed_audio","failed_video","version_attrib2","version_target2","correct","IAT","screen_id","task_id","RT","condition","word","varname","summary","version_attrib","version_target","time_stamp","view_history","response_type","key_press","avg_frame_time","center_x","center_y","correct_response","identity","Image","question_order","correct_answer","trap1_item"
"2678","
   <p><div style = ""color: white;font-size:25px;"">您好，欢迎参加本次实验。</div> </p>
   <p><div style = ""color: white;font-size:25px;"">为充分保障您的权利，请确保您已经知晓并同意《参与实验同意书》以及《数据公开知情同意书》。</div></p>
   <p><div style = ""color: white;font-size:25px;"">如果您未见过上述内容，请咨询实验员。</div></p>
   <p><div style = ""color: white;font-size:25px;"">如果您选择继续实验，则表示您已经清楚两份知情同意书的内容并同意。</div></p>
   <p><div style = ""color: pink;font-size:30px;"">请确保您记得day0的实验编号，您将在本次实验输入该编号，若您忘记，请咨询实验员后作答。</div></p>
   <p><div style = ""color: lightblue;font-size:25px;"">请您尽可能认真地作答，我们将依据您在各问卷和按键任务中的作答质量发放报酬。</div></p>
   <p> <div style = ""color: green;font-size:25px;""><按空格键至下页></div> </p>
   "," ","html-keyboard-response","0","2681","0.0-0.0","3","3","4","4","3","3","4","4","3","4","4","4","4","5","5","4","5","4","5","4","2","1","2","1","1","2","4","4","1","1","0","1","1","0","0","0","0","0","1","1","0","1","0","1","5","2","3","2","2","1","4","4","3","4","2","790000811211104258","张","672","","","","","","","","","","","","","","","","","","","","","","","","","","","","","","","","","","","","","","","","","",""
"","","","call-function","1","2681","0.0-1.0-0.0","3","3","4","4","3","3","4","4","3","4","4","4","4","5","5","4","5","4","5","4","2","1","2","1","1","2","4","4","1","1","0","1","1","0","0","0","0","0","1","1","0","1","0","1","5","2","3","2","2","1","4","4","3","4","2","790000811211104258","张","672","","","","","","","","","","","","","","","","","","","","","","","","","","","","","","","","","","","","","","","","","",""
"39869","","{""friend_name"":""张"",""ParticipantID"":""672""}","survey-html-form","2","42551","0.0-1.0-1.0","3","3","4","4","3","3","4","4","3","4","4","4","4","5","5","4","5","4","5","4","2","1","2","1","1","2","4","4","1","1","0","1","1","0","0","0","0","0","1","1","0","1","0","1","5","2","3","2","2","1","4","4","3","4","2","790000811211104258","张","672","","","","","","","","","","","","","","","","","","","","","","","","","","","","","","","","","","","","","","","","","",""
"","","","fullscreen","3","44775","0.0-2.0","3","3","4","4","3","3","4","4","3","4","4","4","4","5","5","4","5","4","5","4","2","1","2","1","1","2","4","4","1","1","0","1","1","0","0","0","0","0","1","1","0","1","0","1","5","2","3","2","2","1","4","4","3","4","2","790000811211104258","张","672","","true","{}","","","","","","","","","","","","","","","","","","","","","","","","","","","","","","","","","","","","","","",""
"28544.200000047684","","{""Q01"":""3"",""Q02"":""3"",""Q03"":""4"",""Q04"":""4"",""Q05"":""3"",""Q06"":""3"",""Q07"":""4"",""Q08"":""4"",""Q09"":""3"",""Q10"":""4""}","survey-template","4","73321","0.0-3.0","3","3","4","4","3","3","4","4","3","4","4","4","4","5","5","4","5","4","5","4","2","1","2","1","1","2","4","4","1","1","0","1","1","0","0","0","0","0","1","1","0","1","0","1","5","2","3","2","2","1","4","4","3","4","2","790000811211104258","张","672","","","","{""Q01"":""3"",""Q02"":""3"",""Q03"":""4"",""Q04"":""4"",""Q05"":""3"",""Q06"":""3"",""Q07"":""4"",""Q08"":""4"",""Q09"":""3"",""Q10"":""4""}","[0,1,2,3,4,5,6,7,8,9]","[""Q01"",""Q02"",""Q03"",""Q04"",""Q05"",""Q06"",""Q07"",""Q08"",""Q09"",""Q10""]","[4629.399999976158,8295.800000071526,9093.399999976158,11431.5,13476.899999976158,14751.100000023842,18549.100000023842,23767.200000047684,24549.399999976158,25805.300000071526]","[]","[4629.399999976158,6303,8295.800000071526,9093.399999976158,11431.5,13476.899999976158,14751.100000023842,17165.300000071526,18037.200000047684,18549.100000023842,20493.399999976158,22655.200000047684,23767.200000047684,24549.399999976158,25805.300000071526,28543.300000071526]","0.3","0.6666666666666666","0","","","","","","","","","","","","","","","","","","","","","","","","","","","","","",""
"27936.900000095367","","{""Q01"":""4"",""Q02"":""4"",""Q03"":""4"",""Q04"":""5"",""Q05"":""5"",""Q06"":""4"",""Q07"":""5"",""Q08"":""4"",""Q09"":""5"",""Q10"":""4""}","survey-template","5","101264","0.0-4.0","3","3","4","4","3","3","4","4","3","4","4","4","4","5","5","4","5","4","5","4","2","1","2","1","1","2","4","4","1","1","0","1","1","0","0","0","0","0","1","1","0","1","0","1","5","2","3","2","2","1","4","4","3","4","2","790000811211104258","张","672","","","","{""Q01"":""4"",""Q02"":""4"",""Q03"":""4"",""Q04"":""5"",""Q05"":""5"",""Q06"":""4"",""Q07"":""5"",""Q08"":""4"",""Q09"":""5"",""Q10"":""4""}","[0,1,2,3,4,5,6,7,8,9]","[""Q01"",""Q02"",""Q03"",""Q04"",""Q04"",""Q05"",""Q06"",""Q07"",""Q08"",""Q09"",""Q10""]","[4361.5,5551.400000095367,8175.200000047684,9745.900000095367,10722.5,14656.300000071526,15755,19414.200000047684,20205.5,23520.200000047684,25005.700000047684]","[]","[3678.7000000476837,4361.5,5551.400000095367,8175.200000047684,9745.900000095367,10722.5,12994.600000023842,14656.300000071526,15755,17778,19414.200000047684,20205.5,23520.200000047684,25005.700000047684,27935.900000095367]","0.4","0.2222222222222222","0","","","","","","","","","","","","","","","","","","","","","","","","","","","","","",""
"","","","preload","6","101467","0.0-5.0","3","3","4","4","3","3","4","4","3","4","4","4","4","5","5","4","5","4","5","4","2","1","2","1","1","2","4","4","1","1","0","1","1","0","0","0","0","0","1","1","0","1","0","1","5","2","3","2","2","1","4","4","3","4","2","790000811211104258","张","672","","true","","","","","","","","","","","false","[]","[]","[]","","","","","","","","","","","","","","","","","","","","","","","","","",""
"14810","
    <h3>词语分类任务</h3>
    <p>在接下来的任务中，你需要对一系列词语进行分类。<p/>
    请先熟悉这些词语，这有利于你完成接下来的任务。</p>
    <table align=""center"" border=1 cellpadding=3 cellspacing=0>
    <tr> <th>类别</th> <th>词语</th> </tr>
    <tr> <td>&emsp;积极&emsp;</td> <td>&emsp;高尚、诚信、善良、君子、廉正、正直&emsp;</td> </tr>
    <tr> <td>&emsp;消极&emsp;</td> <td>&emsp;缺德、卑鄙、不孝、不仁、小人、黑心&emsp;</td> </tr>
    <tr> <td>&emsp;自我&emsp;</td> <td>&emsp;我、我的、自己、自己的、本人、本人的&emsp;</td> </tr>
    <tr> <td>&emsp;他人&emsp;</td> <td>&emsp;他、他的、别人、别人的、他人、他人的&emsp;</td> </tr>
    </table><br/>","0","html-button-response","7","116278","0.0-6.0-1.0-0.0","3","3","4","4","3","3","4","4","3","4","4","4","4","5","5","4","5","4","5","4","2","1","2","1","1","2","4","4","1","1","0","1","1","0","0","0","0","0","1","1","0","1","0","1","5","2","3","2","2","1","4","4","3","4","2","790000811211104258","张","672","","","","","","","","","","","","","","","","","2","2","","","","","","","","","","","","","","","","","","","","","","","",""
"19731","
    <div class=""tag-bottom""><p>
    —— 任务1：对“他人”词和“自我”词分类 ——<p/>
    不同词语会出现在屏幕中央，类别标签将始终显示在屏幕上方<p/>   
    <span style=""color:#FFD866""><b>请根据上方标签的提示，尽可能正确并且快速地做出按键反应</b></span><p/>
    当按键错误时屏幕中会出现<span style=""color:red""> X </span>，需要按另一个键纠正才能继续<br/><p/>
    请把双手食指分别放在键盘的“E”键和“I”键上<p/>
    按<空格键>开始
    </p></div>"," ","html-keyboard-response","8","136012","0.0-6.0-1.0-1.0","3","3","4","4","3","3","4","4","3","4","4","4","4","5","5","4","5","4","5","4","2","1","2","1","1","2","4","4","1","1","0","1","1","0","0","0","0","0","1","1","0","1","0","1","5","2","3","2","2","1","4","4","3","4","2","790000811211104258","张","672","","","","","","","","","","","","","","","","","","","","","","","","","","","","","","","","","","","","","","","","","",""
"null","","null","html-keyboard-response","9","136269","0.0-6.0-1.0-2.0-0.0","3","3","4","4","3","3","4","4","3","4","4","4","4","5","5","4","5","4","5","4","2","1","2","1","1","2","4","4","1","1","0","1","1","0","0","0","0","0","1","1","0","1","0","1","5","2","3","2","2","1","4","4","3","4","2","790000811211104258","张","672","","","","","","","","","","","","","","","","","","","","","","","","","","","","","","","","","","","","","","","","","",""
"1295","<p style=""color:rgb(150, 250, 100); font-size: 35px;"">我</p>","i","categorize-html","10","137567","0.0-6.0-1.0-2.0-1.0","3","3","4","4","3","3","4","4","3","4","4","4","4","5","5","4","5","4","5","4","2","1","2","1","1","2","4","4","1","1","0","1","1","0","0","0","0","0","1","1","0","1","0","1","5","2","3","2","2","1","4","4","3","4","2","790000811211104258","张","672","","","","","","","","","","","","","","","","","","","true","11","1","moral","1295","self","我","","","","","","","","","","","","","","","","",""
"null","","null","html-keyboard-response","11","137818","0.0-6.0-1.0-2.0-0.1","3","3","4","4","3","3","4","4","3","4","4","4","4","5","5","4","5","4","5","4","2","1","2","1","1","2","4","4","1","1","0","1","1","0","0","0","0","0","1","1","0","1","0","1","5","2","3","2","2","1","4","4","3","4","2","790000811211104258","张","672","","","","","","","","","","","","","","","","","","","","","","","","","","","","","","","","","","","","","","","","","",""
"732","<p style=""color:rgb(150, 250, 100); font-size: 35px;"">自己</p>","i","categorize-html","12","138552","0.0-6.0-1.0-2.0-1.1","3","3","4","4","3","3","4","4","3","4","4","4","4","5","5","4","5","4","5","4","2","1","2","1","1","2","4","4","1","1","0","1","1","0","0","0","0","0","1","1","0","1","0","1","5","2","3","2","2","1","4","4","3","4","2","790000811211104258","张","672","","","","","","","","","","","","","","","","","","","true","11","1","moral","732","self","自己","","","","","","","","","","","","","","","","",""
"null","","null","html-keyboard-response","13","138804","0.0-6.0-1.0-2.0-0.2","3","3","4","4","3","3","4","4","3","4","4","4","4","5","5","4","5","4","5","4","2","1","2","1","1","2","4","4","1","1","0","1","1","0","0","0","0","0","1","1","0","1","0","1","5","2","3","2","2","1","4","4","3","4","2","790000811211104258","张","672","","","","","","","","","","","","","","","","","","","","","","","","","","","","","","","","","","","","","","","","","",""
"557","<p style=""color:rgb(150, 250, 100); font-size: 35px;"">自己的</p>","i","categorize-html","14","139363","0.0-6.0-1.0-2.0-1.2","3","3","4","4","3","3","4","4","3","4","4","4","4","5","5","4","5","4","5","4","2","1","2","1","1","2","4","4","1","1","0","1","1","0","0","0","0","0","1","1","0","1","0","1","5","2","3","2","2","1","4","4","3","4","2","790000811211104258","张","672","","","","","","","","","","","","","","","","","","","true","11","1","moral","557","self","自己的","","","","","","","","","","","","","","","","",""
"null","","null","html-keyboard-response","15","139615","0.0-6.0-1.0-2.0-0.3","3","3","4","4","3","3","4","4","3","4","4","4","4","5","5","4","5","4","5","4","2","1","2","1","1","2","4","4","1","1","0","1","1","0","0","0","0","0","1","1","0","1","0","1","5","2","3","2","2","1","4","4","3","4","2","790000811211104258","张","672","","","","","","","","","","","","","","","","","","","","","","","","","","","","","","","","","","","","","","","","","",""
"828","<p style=""color:rgb(150, 250, 100); font-size: 35px;"">他人</p>","e","categorize-html","16","140445","0.0-6.0-1.0-2.0-1.3","3","3","4","4","3","3","4","4","3","4","4","4","4","5","5","4","5","4","5","4","2","1","2","1","1","2","4","4","1","1","0","1","1","0","0","0","0","0","1","1","0","1","0","1","5","2","3","2","2","1","4","4","3","4","2","790000811211104258","张","672","","","","","","","","","","","","","","","","","","","true","11","1","moral","828","other","他人","","","","","","","","","","","","","","","","",""
"null","","null","html-keyboard-response","17","140704","0.0-6.0-1.0-2.0-0.4","3","3","4","4","3","3","4","4","3","4","4","4","4","5","5","4","5","4","5","4","2","1","2","1","1","2","4","4","1","1","0","1","1","0","0","0","0","0","1","1","0","1","0","1","5","2","3","2","2","1","4","4","3","4","2","790000811211104258","张","672","","","","","","","","","","","","","","","","","","","","","","","","","","","","","","","","","","","","","","","","","",""
"967","<p style=""color:rgb(150, 250, 100); font-size: 35px;"">别人的</p>","e","categorize-html","18","141673","0.0-6.0-1.0-2.0-1.4","3","3","4","4","3","3","4","4","3","4","4","4","4","5","5","4","5","4","5","4","2","1","2","1","1","2","4","4","1","1","0","1","1","0","0","0","0","0","1","1","0","1","0","1","5","2","3","2","2","1","4","4","3","4","2","790000811211104258","张","672","","","","","","","","","","","","","","","","","","","true","11","1","moral","967","other","别人的","","","","","","","","","","","","","","","","",""
"null","","null","html-keyboard-response","19","141926","0.0-6.0-1.0-2.0-0.5","3","3","4","4","3","3","4","4","3","4","4","4","4","5","5","4","5","4","5","4","2","1","2","1","1","2","4","4","1","1","0","1","1","0","0","0","0","0","1","1","0","1","0","1","5","2","3","2","2","1","4","4","3","4","2","790000811211104258","张","672","","","","","","","","","","","","","","","","","","","","","","","","","","","","","","","","","","","","","","","","","",""
"594","<p style=""color:rgb(150, 250, 100); font-size: 35px;"">他</p>","e","categorize-html","20","142522","0.0-6.0-1.0-2.0-1.5","3","3","4","4","3","3","4","4","3","4","4","4","4","5","5","4","5","4","5","4","2","1","2","1","1","2","4","4","1","1","0","1","1","0","0","0","0","0","1","1","0","1","0","1","5","2","3","2","2","1","4","4","3","4","2","790000811211104258","张","672","","","","","","","","","","","","","","","","","","","true","11","1","moral","594","other","他","","","","","","","","","","","","","","","","",""
"null","","null","html-keyboard-response","21","142787","0.0-6.0-1.0-2.0-0.6","3","3","4","4","3","3","4","4","3","4","4","4","4","5","5","4","5","4","5","4","2","1","2","1","1","2","4","4","1","1","0","1","1","0","0","0","0","0","1","1","0","1","0","1","5","2","3","2","2","1","4","4","3","4","2","790000811211104258","张","672","","","","","","","","","","","","","","","","","","","","","","","","","","","","","","","","","","","","","","","","","",""
"597","<p style=""color:rgb(150, 250, 100); font-size: 35px;"">他的</p>","e","categorize-html","22","143386","0.0-6.0-1.0-2.0-1.6","3","3","4","4","3","3","4","4","3","4","4","4","4","5","5","4","5","4","5","4","2","1","2","1","1","2","4","4","1","1","0","1","1","0","0","0","0","0","1","1","0","1","0","1","5","2","3","2","2","1","4","4","3","4","2","790000811211104258","张","672","","","","","","","","","","","","","","","","","","","true","11","1","moral","597","other","他的","","","","","","","","","","","","","","","","",""
"null","","null","html-keyboard-response","23","143638","0.0-6.0-1.0-2.0-0.7","3","3","4","4","3","3","4","4","3","4","4","4","4","5","5","4","5","4","5","4","2","1","2","1","1","2","4","4","1","1","0","1","1","0","0","0","0","0","1","1","0","1","0","1","5","2","3","2","2","1","4","4","3","4","2","790000811211104258","张","672","","","","","","","","","","","","","","","","","","","","","","","","","","","","","","","","","","","","","","","","","",""
"672","<p style=""color:rgb(150, 250, 100); font-size: 35px;"">我的</p>","i","categorize-html","24","144312","0.0-6.0-1.0-2.0-1.7","3","3","4","4","3","3","4","4","3","4","4","4","4","5","5","4","5","4","5","4","2","1","2","1","1","2","4","4","1","1","0","1","1","0","0","0","0","0","1","1","0","1","0","1","5","2","3","2","2","1","4","4","3","4","2","790000811211104258","张","672","","","","","","","","","","","","","","","","","","","true","11","1","moral","672","self","我的","","","","","","","","","","","","","","","","",""
"null","","null","html-keyboard-response","25","144564","0.0-6.0-1.0-2.0-0.8","3","3","4","4","3","3","4","4","3","4","4","4","4","5","5","4","5","4","5","4","2","1","2","1","1","2","4","4","1","1","0","1","1","0","0","0","0","0","1","1","0","1","0","1","5","2","3","2","2","1","4","4","3","4","2","790000811211104258","张","672","","","","","","","","","","","","","","","","","","","","","","","","","","","","","","","","","","","","","","","","","",""
"614","<p style=""color:rgb(150, 250, 100); font-size: 35px;"">别人</p>","e","categorize-html","26","145180","0.0-6.0-1.0-2.0-1.8","3","3","4","4","3","3","4","4","3","4","4","4","4","5","5","4","5","4","5","4","2","1","2","1","1","2","4","4","1","1","0","1","1","0","0","0","0","0","1","1","0","1","0","1","5","2","3","2","2","1","4","4","3","4","2","790000811211104258","张","672","","","","","","","","","","","","","","","","","","","true","11","1","moral","614","other","别人","","","","","","","","","","","","","","","","",""
"null","","null","html-keyboard-response","27","145431","0.0-6.0-1.0-2.0-0.9","3","3","4","4","3","3","4","4","3","4","4","4","4","5","5","4","5","4","5","4","2","1","2","1","1","2","4","4","1","1","0","1","1","0","0","0","0","0","1","1","0","1","0","1","5","2","3","2","2","1","4","4","3","4","2","790000811211104258","张","672","","","","","","","","","","","","","","","","","","","","","","","","","","","","","","","","","","","","","","","","","",""
"555","<p style=""color:rgb(150, 250, 100); font-size: 35px;"">他人的</p>","i","categorize-html","28","147806","0.0-6.0-1.0-2.0-1.9","3","3","4","4","3","3","4","4","3","4","4","4","4","5","5","4","5","4","5","4","2","1","2","1","1","2","4","4","1","1","0","1","1","0","0","0","0","0","1","1","0","1","0","1","5","2","3","2","2","1","4","4","3","4","2","790000811211104258","张","672","","","","","","","","","","","","","","","","","","","false","11","1","moral","555","other","他人的","","","","","","","","","","","","","","","","",""
"null","","null","html-keyboard-response","29","148058","0.0-6.0-1.0-2.0-0.10","3","3","4","4","3","3","4","4","3","4","4","4","4","5","5","4","5","4","5","4","2","1","2","1","1","2","4","4","1","1","0","1","1","0","0","0","0","0","1","1","0","1","0","1","5","2","3","2","2","1","4","4","3","4","2","790000811211104258","张","672","","","","","","","","","","","","","","","","","","","","","","","","","","","","","","","","","","","","","","","","","",""
"961","<p style=""color:rgb(150, 250, 100); font-size: 35px;"">本人</p>","i","categorize-html","30","149022","0.0-6.0-1.0-2.0-1.10","3","3","4","4","3","3","4","4","3","4","4","4","4","5","5","4","5","4","5","4","2","1","2","1","1","2","4","4","1","1","0","1","1","0","0","0","0","0","1","1","0","1","0","1","5","2","3","2","2","1","4","4","3","4","2","790000811211104258","张","672","","","","","","","","","","","","","","","","","","","true","11","1","moral","961","self","本人","","","","","","","","","","","","","","","","",""
"null","","null","html-keyboard-response","31","149273","0.0-6.0-1.0-2.0-0.11","3","3","4","4","3","3","4","4","3","4","4","4","4","5","5","4","5","4","5","4","2","1","2","1","1","2","4","4","1","1","0","1","1","0","0","0","0","0","1","1","0","1","0","1","5","2","3","2","2","1","4","4","3","4","2","790000811211104258","张","672","","","","","","","","","","","","","","","","","","","","","","","","","","","","","","","","","","","","","","","","","",""
"561","<p style=""color:rgb(150, 250, 100); font-size: 35px;"">本人的</p>","i","categorize-html","32","149836","0.0-6.0-1.0-2.0-1.11","3","3","4","4","3","3","4","4","3","4","4","4","4","5","5","4","5","4","5","4","2","1","2","1","1","2","4","4","1","1","0","1","1","0","0","0","0","0","1","1","0","1","0","1","5","2","3","2","2","1","4","4","3","4","2","790000811211104258","张","672","","","","","","","","","","","","","","","","","","","true","11","1","moral","561","self","本人的","","","","","","","","","","","","","","","","",""
"9106","
    <div class=""tag-bottom""><p>
    —— 任务2：对“消极”词和“积极”词分类 ——<p/>   
    <span style=""color:#78DCE8""><b>注意上方，类别标签和需要分类的词语都已经改变</b></span><p/>
    <span style=""color:#FFD866""><b>请根据上方标签的提示，尽可能正确并且快速地做出按键反应</b></span><p/>
    当按键错误时屏幕中会出现<span style=""color:red""> X </span>，需要按另一个键纠正才能继续<br/><p/>
    请把双手食指分别放在键盘的“E”键和“I”键上<p/>
    按<空格键>开始
    </p></div>"," ","html-keyboard-response","33","158942","0.0-6.0-1.0-3.0","3","3","4","4","3","3","4","4","3","4","4","4","4","5","5","4","5","4","5","4","2","1","2","1","1","2","4","4","1","1","0","1","1","0","0","0","0","0","1","1","0","1","0","1","5","2","3","2","2","1","4","4","3","4","2","790000811211104258","张","672","","","","","","","","","","","","","","","","","","","","","","","","","","","","","","","","","","","","","","","","","",""
"null","","null","html-keyboard-response","34","159193","0.0-6.0-1.0-4.0-0.0","3","3","4","4","3","3","4","4","3","4","4","4","4","5","5","4","5","4","5","4","2","1","2","1","1","2","4","4","1","1","0","1","1","0","0","0","0","0","1","1","0","1","0","1","5","2","3","2","2","1","4","4","3","4","2","790000811211104258","张","672","","","","","","","","","","","","","","","","","","","","","","","","","","","","","","","","","","","","","","","","","",""
"583","<p style=""color:white; font-size: 35px;"">正直</p>","i","categorize-html","35","159779","0.0-6.0-1.0-4.0-1.0","3","3","4","4","3","3","4","4","3","4","4","4","4","5","5","4","5","4","5","4","2","1","2","1","1","2","4","4","1","1","0","1","1","0","0","0","0","0","1","1","0","1","0","1","5","2","3","2","2","1","4","4","3","4","2","790000811211104258","张","672","","","","","","","","","","","","","","","","","","","true","12","2","moral","583","positive","正直","","","","","","","","","","","","","","","","",""
"null","","null","html-keyboard-response","36","160031","0.0-6.0-1.0-4.0-0.1","3","3","4","4","3","3","4","4","3","4","4","4","4","5","5","4","5","4","5","4","2","1","2","1","1","2","4","4","1","1","0","1","1","0","0","0","0","0","1","1","0","1","0","1","5","2","3","2","2","1","4","4","3","4","2","790000811211104258","张","672","","","","","","","","","","","","","","","","","","","","","","","","","","","","","","","","","","","","","","","","","",""
"684","<p style=""color:white; font-size: 35px;"">卑鄙</p>","e","categorize-html","37","160717","0.0-6.0-1.0-4.0-1.1","3","3","4","4","3","3","4","4","3","4","4","4","4","5","5","4","5","4","5","4","2","1","2","1","1","2","4","4","1","1","0","1","1","0","0","0","0","0","1","1","0","1","0","1","5","2","3","2","2","1","4","4","3","4","2","790000811211104258","张","672","","","","","","","","","","","","","","","","","","","true","12","2","moral","684","negative","卑鄙","","","","","","","","","","","","","","","","",""
"null","","null","html-keyboard-response","38","160968","0.0-6.0-1.0-4.0-0.2","3","3","4","4","3","3","4","4","3","4","4","4","4","5","5","4","5","4","5","4","2","1","2","1","1","2","4","4","1","1","0","1","1","0","0","0","0","0","1","1","0","1","0","1","5","2","3","2","2","1","4","4","3","4","2","790000811211104258","张","672","","","","","","","","","","","","","","","","","","","","","","","","","","","","","","","","","","","","","","","","","",""
"642","<p style=""color:white; font-size: 35px;"">黑心</p>","e","categorize-html","39","161612","0.0-6.0-1.0-4.0-1.2","3","3","4","4","3","3","4","4","3","4","4","4","4","5","5","4","5","4","5","4","2","1","2","1","1","2","4","4","1","1","0","1","1","0","0","0","0","0","1","1","0","1","0","1","5","2","3","2","2","1","4","4","3","4","2","790000811211104258","张","672","","","","","","","","","","","","","","","","","","","true","12","2","moral","642","negative","黑心","","","","","","","","","","","","","","","","",""
"null","","null","html-keyboard-response","40","161864","0.0-6.0-1.0-4.0-0.3","3","3","4","4","3","3","4","4","3","4","4","4","4","5","5","4","5","4","5","4","2","1","2","1","1","2","4","4","1","1","0","1","1","0","0","0","0","0","1","1","0","1","0","1","5","2","3","2","2","1","4","4","3","4","2","790000811211104258","张","672","","","","","","","","","","","","","","","","","","","","","","","","","","","","","","","","","","","","","","","","","",""
"570","<p style=""color:white; font-size: 35px;"">廉正</p>","i","categorize-html","41","162437","0.0-6.0-1.0-4.0-1.3","3","3","4","4","3","3","4","4","3","4","4","4","4","5","5","4","5","4","5","4","2","1","2","1","1","2","4","4","1","1","0","1","1","0","0","0","0","0","1","1","0","1","0","1","5","2","3","2","2","1","4","4","3","4","2","790000811211104258","张","672","","","","","","","","","","","","","","","","","","","true","12","2","moral","570","positive","廉正","","","","","","","","","","","","","","","","",""
"null","","null","html-keyboard-response","42","162690","0.0-6.0-1.0-4.0-0.4","3","3","4","4","3","3","4","4","3","4","4","4","4","5","5","4","5","4","5","4","2","1","2","1","1","2","4","4","1","1","0","1","1","0","0","0","0","0","1","1","0","1","0","1","5","2","3","2","2","1","4","4","3","4","2","790000811211104258","张","672","","","","","","","","","","","","","","","","","","","","","","","","","","","","","","","","","","","","","","","","","",""
"817","<p style=""color:white; font-size: 35px;"">不仁</p>","e","categorize-html","43","163509","0.0-6.0-1.0-4.0-1.4","3","3","4","4","3","3","4","4","3","4","4","4","4","5","5","4","5","4","5","4","2","1","2","1","1","2","4","4","1","1","0","1","1","0","0","0","0","0","1","1","0","1","0","1","5","2","3","2","2","1","4","4","3","4","2","790000811211104258","张","672","","","","","","","","","","","","","","","","","","","true","12","2","moral","817","negative","不仁","","","","","","","","","","","","","","","","",""
"null","","null","html-keyboard-response","44","163761","0.0-6.0-1.0-4.0-0.5","3","3","4","4","3","3","4","4","3","4","4","4","4","5","5","4","5","4","5","4","2","1","2","1","1","2","4","4","1","1","0","1","1","0","0","0","0","0","1","1","0","1","0","1","5","2","3","2","2","1","4","4","3","4","2","790000811211104258","张","672","","","","","","","","","","","","","","","","","","","","","","","","","","","","","","","","","","","","","","","","","",""
"870","<p style=""color:white; font-size: 35px;"">君子</p>","i","categorize-html","45","164632","0.0-6.0-1.0-4.0-1.5","3","3","4","4","3","3","4","4","3","4","4","4","4","5","5","4","5","4","5","4","2","1","2","1","1","2","4","4","1","1","0","1","1","0","0","0","0","0","1","1","0","1","0","1","5","2","3","2","2","1","4","4","3","4","2","790000811211104258","张","672","","","","","","","","","","","","","","","","","","","true","12","2","moral","870","positive","君子","","","","","","","","","","","","","","","","",""
"null","","null","html-keyboard-response","46","164884","0.0-6.0-1.0-4.0-0.6","3","3","4","4","3","3","4","4","3","4","4","4","4","5","5","4","5","4","5","4","2","1","2","1","1","2","4","4","1","1","0","1","1","0","0","0","0","0","1","1","0","1","0","1","5","2","3","2","2","1","4","4","3","4","2","790000811211104258","张","672","","","","","","","","","","","","","","","","","","","","","","","","","","","","","","","","","","","","","","","","","",""
"628","<p style=""color:white; font-size: 35px;"">善良</p>","i","categorize-html","47","165513","0.0-6.0-1.0-4.0-1.6","3","3","4","4","3","3","4","4","3","4","4","4","4","5","5","4","5","4","5","4","2","1","2","1","1","2","4","4","1","1","0","1","1","0","0","0","0","0","1","1","0","1","0","1","5","2","3","2","2","1","4","4","3","4","2","790000811211104258","张","672","","","","","","","","","","","","","","","","","","","true","12","2","moral","628","positive","善良","","","","","","","","","","","","","","","","",""
"null","","null","html-keyboard-response","48","165764","0.0-6.0-1.0-4.0-0.7","3","3","4","4","3","3","4","4","3","4","4","4","4","5","5","4","5","4","5","4","2","1","2","1","1","2","4","4","1","1","0","1","1","0","0","0","0","0","1","1","0","1","0","1","5","2","3","2","2","1","4","4","3","4","2","790000811211104258","张","672","","","","","","","","","","","","","","","","","","","","","","","","","","","","","","","","","","","","","","","","","",""
"942","<p style=""color:white; font-size: 35px;"">不孝</p>","e","categorize-html","49","166708","0.0-6.0-1.0-4.0-1.7","3","3","4","4","3","3","4","4","3","4","4","4","4","5","5","4","5","4","5","4","2","1","2","1","1","2","4","4","1","1","0","1","1","0","0","0","0","0","1","1","0","1","0","1","5","2","3","2","2","1","4","4","3","4","2","790000811211104258","张","672","","","","","","","","","","","","","","","","","","","true","12","2","moral","942","negative","不孝","","","","","","","","","","","","","","","","",""
"null","","null","html-keyboard-response","50","166960","0.0-6.0-1.0-4.0-0.8","3","3","4","4","3","3","4","4","3","4","4","4","4","5","5","4","5","4","5","4","2","1","2","1","1","2","4","4","1","1","0","1","1","0","0","0","0","0","1","1","0","1","0","1","5","2","3","2","2","1","4","4","3","4","2","790000811211104258","张","672","","","","","","","","","","","","","","","","","","","","","","","","","","","","","","","","","","","","","","","","","",""
"596","<p style=""color:white; font-size: 35px;"">诚信</p>","i","categorize-html","51","167558","0.0-6.0-1.0-4.0-1.8","3","3","4","4","3","3","4","4","3","4","4","4","4","5","5","4","5","4","5","4","2","1","2","1","1","2","4","4","1","1","0","1","1","0","0","0","0","0","1","1","0","1","0","1","5","2","3","2","2","1","4","4","3","4","2","790000811211104258","张","672","","","","","","","","","","","","","","","","","","","true","12","2","moral","596","positive","诚信","","","","","","","","","","","","","","","","",""
"null","","null","html-keyboard-response","52","167810","0.0-6.0-1.0-4.0-0.9","3","3","4","4","3","3","4","4","3","4","4","4","4","5","5","4","5","4","5","4","2","1","2","1","1","2","4","4","1","1","0","1","1","0","0","0","0","0","1","1","0","1","0","1","5","2","3","2","2","1","4","4","3","4","2","790000811211104258","张","672","","","","","","","","","","","","","","","","","","","","","","","","","","","","","","","","","","","","","","","","","",""
"711","<p style=""color:white; font-size: 35px;"">缺德</p>","e","categorize-html","53","168523","0.0-6.0-1.0-4.0-1.9","3","3","4","4","3","3","4","4","3","4","4","4","4","5","5","4","5","4","5","4","2","1","2","1","1","2","4","4","1","1","0","1","1","0","0","0","0","0","1","1","0","1","0","1","5","2","3","2","2","1","4","4","3","4","2","790000811211104258","张","672","","","","","","","","","","","","","","","","","","","true","12","2","moral","711","negative","缺德","","","","","","","","","","","","","","","","",""
"null","","null","html-keyboard-response","54","168775","0.0-6.0-1.0-4.0-0.10","3","3","4","4","3","3","4","4","3","4","4","4","4","5","5","4","5","4","5","4","2","1","2","1","1","2","4","4","1","1","0","1","1","0","0","0","0","0","1","1","0","1","0","1","5","2","3","2","2","1","4","4","3","4","2","790000811211104258","张","672","","","","","","","","","","","","","","","","","","","","","","","","","","","","","","","","","","","","","","","","","",""
"691","<p style=""color:white; font-size: 35px;"">高尚</p>","i","categorize-html","55","169468","0.0-6.0-1.0-4.0-1.10","3","3","4","4","3","3","4","4","3","4","4","4","4","5","5","4","5","4","5","4","2","1","2","1","1","2","4","4","1","1","0","1","1","0","0","0","0","0","1","1","0","1","0","1","5","2","3","2","2","1","4","4","3","4","2","790000811211104258","张","672","","","","","","","","","","","","","","","","","","","true","12","2","moral","691","positive","高尚","","","","","","","","","","","","","","","","",""
"null","","null","html-keyboard-response","56","169719","0.0-6.0-1.0-4.0-0.11","3","3","4","4","3","3","4","4","3","4","4","4","4","5","5","4","5","4","5","4","2","1","2","1","1","2","4","4","1","1","0","1","1","0","0","0","0","0","1","1","0","1","0","1","5","2","3","2","2","1","4","4","3","4","2","790000811211104258","张","672","","","","","","","","","","","","","","","","","","","","","","","","","","","","","","","","","","","","","","","","","",""
"1255","<p style=""color:white; font-size: 35px;"">小人</p>","e","categorize-html","57","170976","0.0-6.0-1.0-4.0-1.11","3","3","4","4","3","3","4","4","3","4","4","4","4","5","5","4","5","4","5","4","2","1","2","1","1","2","4","4","1","1","0","1","1","0","0","0","0","0","1","1","0","1","0","1","5","2","3","2","2","1","4","4","3","4","2","790000811211104258","张","672","","","","","","","","","","","","","","","","","","","true","12","2","moral","1255","negative","小人","","","","","","","","","","","","","","","","",""
"9179","
    <div class=""tag-bottom""><p>
    —— 任务3：对“他人/消极”词和“自我/积极”词分类 ——<p/>
    <span style=""color:#78DCE8""><b>注意上方，之前的四类词语将混合在一起交替呈现</b></span><p/>
    <span style=""color:#FFD866""><b>请根据上方标签的提示，尽可能正确并且快速地做出按键反应</b></span><p/>
    当按键错误时屏幕中会出现<span style=""color:red""> X </span>，需要按另一个键纠正才能继续<br/><p/>
    请把双手食指分别放在键盘的“E”键和“I”键上<p/>
    按<空格键>开始
    </p></div>"," ","html-keyboard-response","58","180155","0.0-6.0-1.0-5.0","3","3","4","4","3","3","4","4","3","4","4","4","4","5","5","4","5","4","5","4","2","1","2","1","1","2","4","4","1","1","0","1","1","0","0","0","0","0","1","1","0","1","0","1","5","2","3","2","2","1","4","4","3","4","2","790000811211104258","张","672","","","","","","","","","","","","","","","","","","","","","","","","","","","","","","","","","","","","","","","","","",""
"null","","null","html-keyboard-response","59","180406","0.0-6.0-1.0-6.0-0.0","3","3","4","4","3","3","4","4","3","4","4","4","4","5","5","4","5","4","5","4","2","1","2","1","1","2","4","4","1","1","0","1","1","0","0","0","0","0","1","1","0","1","0","1","5","2","3","2","2","1","4","4","3","4","2","790000811211104258","张","672","","","","","","","","","","","","","","","","","","","","","","","","","","","","","","","","","","","","","","","","","",""
"719","<p style=""color:rgb(150, 250, 100); font-size: 35px;"">本人</p>","i","categorize-html","60","181129","0.0-6.0-1.0-6.0-1.0","3","3","4","4","3","3","4","4","3","4","4","4","4","5","5","4","5","4","5","4","2","1","2","1","1","2","4","4","1","1","0","1","1","0","0","0","0","0","1","1","0","1","0","1","5","2","3","2","2","1","4","4","3","4","2","790000811211104258","张","672","","","","","","","","","","","","","","","","","","","true","13","3","moral","719","self","本人","","","","","","","","","","","","","","","","",""
"null","","null","html-keyboard-response","61","181380","0.0-6.0-1.0-6.0-0.1","3","3","4","4","3","3","4","4","3","4","4","4","4","5","5","4","5","4","5","4","2","1","2","1","1","2","4","4","1","1","0","1","1","0","0","0","0","0","1","1","0","1","0","1","5","2","3","2","2","1","4","4","3","4","2","790000811211104258","张","672","","","","","","","","","","","","","","","","","","","","","","","","","","","","","","","","","","","","","","","","","",""
"890","<p style=""color:white; font-size: 35px;"">君子</p>","i","categorize-html","62","182272","0.0-6.0-1.0-6.0-1.1","3","3","4","4","3","3","4","4","3","4","4","4","4","5","5","4","5","4","5","4","2","1","2","1","1","2","4","4","1","1","0","1","1","0","0","0","0","0","1","1","0","1","0","1","5","2","3","2","2","1","4","4","3","4","2","790000811211104258","张","672","","","","","","","","","","","","","","","","","","","true","13","3","moral","890","positive","君子","","","","","","","","","","","","","","","","",""
"null","","null","html-keyboard-response","63","182524","0.0-6.0-1.0-6.0-0.2","3","3","4","4","3","3","4","4","3","4","4","4","4","5","5","4","5","4","5","4","2","1","2","1","1","2","4","4","1","1","0","1","1","0","0","0","0","0","1","1","0","1","0","1","5","2","3","2","2","1","4","4","3","4","2","790000811211104258","张","672","","","","","","","","","","","","","","","","","","","","","","","","","","","","","","","","","","","","","","","","","",""
"816","<p style=""color:rgb(150, 250, 100); font-size: 35px;"">他的</p>","e","categorize-html","64","183342","0.0-6.0-1.0-6.0-1.2","3","3","4","4","3","3","4","4","3","4","4","4","4","5","5","4","5","4","5","4","2","1","2","1","1","2","4","4","1","1","0","1","1","0","0","0","0","0","1","1","0","1","0","1","5","2","3","2","2","1","4","4","3","4","2","790000811211104258","张","672","","","","","","","","","","","","","","","","","","","true","13","3","moral","816","other","他的","","","","","","","","","","","","","","","","",""
"null","","null","html-keyboard-response","65","183602","0.0-6.0-1.0-6.0-0.3","3","3","4","4","3","3","4","4","3","4","4","4","4","5","5","4","5","4","5","4","2","1","2","1","1","2","4","4","1","1","0","1","1","0","0","0","0","0","1","1","0","1","0","1","5","2","3","2","2","1","4","4","3","4","2","790000811211104258","张","672","","","","","","","","","","","","","","","","","","","","","","","","","","","","","","","","","","","","","","","","","",""
"869","<p style=""color:white; font-size: 35px;"">不仁</p>","e","categorize-html","66","184474","0.0-6.0-1.0-6.0-1.3","3","3","4","4","3","3","4","4","3","4","4","4","4","5","5","4","5","4","5","4","2","1","2","1","1","2","4","4","1","1","0","1","1","0","0","0","0","0","1","1","0","1","0","1","5","2","3","2","2","1","4","4","3","4","2","790000811211104258","张","672","","","","","","","","","","","","","","","","","","","true","13","3","moral","869","negative","不仁","","","","","","","","","","","","","","","","",""
"null","","null","html-keyboard-response","67","184725","0.0-6.0-1.0-6.0-0.4","3","3","4","4","3","3","4","4","3","4","4","4","4","5","5","4","5","4","5","4","2","1","2","1","1","2","4","4","1","1","0","1","1","0","0","0","0","0","1","1","0","1","0","1","5","2","3","2","2","1","4","4","3","4","2","790000811211104258","张","672","","","","","","","","","","","","","","","","","","","","","","","","","","","","","","","","","","","","","","","","","",""
"1287","<p style=""color:rgb(150, 250, 100); font-size: 35px;"">别人的</p>","e","categorize-html","68","186014","0.0-6.0-1.0-6.0-1.4","3","3","4","4","3","3","4","4","3","4","4","4","4","5","5","4","5","4","5","4","2","1","2","1","1","2","4","4","1","1","0","1","1","0","0","0","0","0","1","1","0","1","0","1","5","2","3","2","2","1","4","4","3","4","2","790000811211104258","张","672","","","","","","","","","","","","","","","","","","","true","13","3","moral","1287","other","别人的","","","","","","","","","","","","","","","","",""
"null","","null","html-keyboard-response","69","186266","0.0-6.0-1.0-6.0-0.5","3","3","4","4","3","3","4","4","3","4","4","4","4","5","5","4","5","4","5","4","2","1","2","1","1","2","4","4","1","1","0","1","1","0","0","0","0","0","1","1","0","1","0","1","5","2","3","2","2","1","4","4","3","4","2","790000811211104258","张","672","","","","","","","","","","","","","","","","","","","","","","","","","","","","","","","","","","","","","","","","","",""
"1028","<p style=""color:white; font-size: 35px;"">小人</p>","e","categorize-html","70","187296","0.0-6.0-1.0-6.0-1.5","3","3","4","4","3","3","4","4","3","4","4","4","4","5","5","4","5","4","5","4","2","1","2","1","1","2","4","4","1","1","0","1","1","0","0","0","0","0","1","1","0","1","0","1","5","2","3","2","2","1","4","4","3","4","2","790000811211104258","张","672","","","","","","","","","","","","","","","","","","","true","13","3","moral","1028","negative","小人","","","","","","","","","","","","","","","","",""
"null","","null","html-keyboard-response","71","187548","0.0-6.0-1.0-6.0-0.6","3","3","4","4","3","3","4","4","3","4","4","4","4","5","5","4","5","4","5","4","2","1","2","1","1","2","4","4","1","1","0","1","1","0","0","0","0","0","1","1","0","1","0","1","5","2","3","2","2","1","4","4","3","4","2","790000811211104258","张","672","","","","","","","","","","","","","","","","","","","","","","","","","","","","","","","","","","","","","","","","","",""
"667","<p style=""color:rgb(150, 250, 100); font-size: 35px;"">我</p>","i","categorize-html","72","188217","0.0-6.0-1.0-6.0-1.6","3","3","4","4","3","3","4","4","3","4","4","4","4","5","5","4","5","4","5","4","2","1","2","1","1","2","4","4","1","1","0","1","1","0","0","0","0","0","1","1","0","1","0","1","5","2","3","2","2","1","4","4","3","4","2","790000811211104258","张","672","","","","","","","","","","","","","","","","","","","true","13","3","moral","667","self","我","","","","","","","","","","","","","","","","",""
"null","","null","html-keyboard-response","73","188468","0.0-6.0-1.0-6.0-0.7","3","3","4","4","3","3","4","4","3","4","4","4","4","5","5","4","5","4","5","4","2","1","2","1","1","2","4","4","1","1","0","1","1","0","0","0","0","0","1","1","0","1","0","1","5","2","3","2","2","1","4","4","3","4","2","790000811211104258","张","672","","","","","","","","","","","","","","","","","","","","","","","","","","","","","","","","","","","","","","","","","",""
"902","<p style=""color:white; font-size: 35px;"">诚信</p>","i","categorize-html","74","189373","0.0-6.0-1.0-6.0-1.7","3","3","4","4","3","3","4","4","3","4","4","4","4","5","5","4","5","4","5","4","2","1","2","1","1","2","4","4","1","1","0","1","1","0","0","0","0","0","1","1","0","1","0","1","5","2","3","2","2","1","4","4","3","4","2","790000811211104258","张","672","","","","","","","","","","","","","","","","","","","true","13","3","moral","902","positive","诚信","","","","","","","","","","","","","","","","",""
"null","","null","html-keyboard-response","75","189624","0.0-6.0-1.0-6.0-0.8","3","3","4","4","3","3","4","4","3","4","4","4","4","5","5","4","5","4","5","4","2","1","2","1","1","2","4","4","1","1","0","1","1","0","0","0","0","0","1","1","0","1","0","1","5","2","3","2","2","1","4","4","3","4","2","790000811211104258","张","672","","","","","","","","","","","","","","","","","","","","","","","","","","","","","","","","","","","","","","","","","",""
"820","<p style=""color:rgb(150, 250, 100); font-size: 35px;"">自己</p>","i","categorize-html","76","190447","0.0-6.0-1.0-6.0-1.8","3","3","4","4","3","3","4","4","3","4","4","4","4","5","5","4","5","4","5","4","2","1","2","1","1","2","4","4","1","1","0","1","1","0","0","0","0","0","1","1","0","1","0","1","5","2","3","2","2","1","4","4","3","4","2","790000811211104258","张","672","","","","","","","","","","","","","","","","","","","true","13","3","moral","820","self","自己","","","","","","","","","","","","","","","","",""
"null","","null","html-keyboard-response","77","190703","0.0-6.0-1.0-6.0-0.9","3","3","4","4","3","3","4","4","3","4","4","4","4","5","5","4","5","4","5","4","2","1","2","1","1","2","4","4","1","1","0","1","1","0","0","0","0","0","1","1","0","1","0","1","5","2","3","2","2","1","4","4","3","4","2","790000811211104258","张","672","","","","","","","","","","","","","","","","","","","","","","","","","","","","","","","","","","","","","","","","","",""
"593","<p style=""color:white; font-size: 35px;"">廉正</p>","i","categorize-html","78","191298","0.0-6.0-1.0-6.0-1.9","3","3","4","4","3","3","4","4","3","4","4","4","4","5","5","4","5","4","5","4","2","1","2","1","1","2","4","4","1","1","0","1","1","0","0","0","0","0","1","1","0","1","0","1","5","2","3","2","2","1","4","4","3","4","2","790000811211104258","张","672","","","","","","","","","","","","","","","","","","","true","13","3","moral","593","positive","廉正","","","","","","","","","","","","","","","","",""
"null","","null","html-keyboard-response","79","191549","0.0-6.0-1.0-6.0-0.10","3","3","4","4","3","3","4","4","3","4","4","4","4","5","5","4","5","4","5","4","2","1","2","1","1","2","4","4","1","1","0","1","1","0","0","0","0","0","1","1","0","1","0","1","5","2","3","2","2","1","4","4","3","4","2","790000811211104258","张","672","","","","","","","","","","","","","","","","","","","","","","","","","","","","","","","","","","","","","","","","","",""
"867","<p style=""color:rgb(150, 250, 100); font-size: 35px;"">他人的</p>","e","categorize-html","80","192418","0.0-6.0-1.0-6.0-1.10","3","3","4","4","3","3","4","4","3","4","4","4","4","5","5","4","5","4","5","4","2","1","2","1","1","2","4","4","1","1","0","1","1","0","0","0","0","0","1","1","0","1","0","1","5","2","3","2","2","1","4","4","3","4","2","790000811211104258","张","672","","","","","","","","","","","","","","","","","","","true","13","3","moral","867","other","他人的","","","","","","","","","","","","","","","","",""
"null","","null","html-keyboard-response","81","192669","0.0-6.0-1.0-6.0-0.11","3","3","4","4","3","3","4","4","3","4","4","4","4","5","5","4","5","4","5","4","2","1","2","1","1","2","4","4","1","1","0","1","1","0","0","0","0","0","1","1","0","1","0","1","5","2","3","2","2","1","4","4","3","4","2","790000811211104258","张","672","","","","","","","","","","","","","","","","","","","","","","","","","","","","","","","","","","","","","","","","","",""
"761","<p style=""color:white; font-size: 35px;"">不孝</p>","e","categorize-html","82","193432","0.0-6.0-1.0-6.0-1.11","3","3","4","4","3","3","4","4","3","4","4","4","4","5","5","4","5","4","5","4","2","1","2","1","1","2","4","4","1","1","0","1","1","0","0","0","0","0","1","1","0","1","0","1","5","2","3","2","2","1","4","4","3","4","2","790000811211104258","张","672","","","","","","","","","","","","","","","","","","","true","13","3","moral","761","negative","不孝","","","","","","","","","","","","","","","","",""
"null","","null","html-keyboard-response","83","193689","0.0-6.0-1.0-6.0-0.12","3","3","4","4","3","3","4","4","3","4","4","4","4","5","5","4","5","4","5","4","2","1","2","1","1","2","4","4","1","1","0","1","1","0","0","0","0","0","1","1","0","1","0","1","5","2","3","2","2","1","4","4","3","4","2","790000811211104258","张","672","","","","","","","","","","","","","","","","","","","","","","","","","","","","","","","","","","","","","","","","","",""
"983","<p style=""color:rgb(150, 250, 100); font-size: 35px;"">本人的</p>","i","categorize-html","84","194674","0.0-6.0-1.0-6.0-1.12","3","3","4","4","3","3","4","4","3","4","4","4","4","5","5","4","5","4","5","4","2","1","2","1","1","2","4","4","1","1","0","1","1","0","0","0","0","0","1","1","0","1","0","1","5","2","3","2","2","1","4","4","3","4","2","790000811211104258","张","672","","","","","","","","","","","","","","","","","","","true","13","3","moral","983","self","本人的","","","","","","","","","","","","","","","","",""
"null","","null","html-keyboard-response","85","194926","0.0-6.0-1.0-6.0-0.13","3","3","4","4","3","3","4","4","3","4","4","4","4","5","5","4","5","4","5","4","2","1","2","1","1","2","4","4","1","1","0","1","1","0","0","0","0","0","1","1","0","1","0","1","5","2","3","2","2","1","4","4","3","4","2","790000811211104258","张","672","","","","","","","","","","","","","","","","","","","","","","","","","","","","","","","","","","","","","","","","","",""
"685","<p style=""color:white; font-size: 35px;"">善良</p>","i","categorize-html","86","195613","0.0-6.0-1.0-6.0-1.13","3","3","4","4","3","3","4","4","3","4","4","4","4","5","5","4","5","4","5","4","2","1","2","1","1","2","4","4","1","1","0","1","1","0","0","0","0","0","1","1","0","1","0","1","5","2","3","2","2","1","4","4","3","4","2","790000811211104258","张","672","","","","","","","","","","","","","","","","","","","true","13","3","moral","685","positive","善良","","","","","","","","","","","","","","","","",""
"null","","null","html-keyboard-response","87","195864","0.0-6.0-1.0-6.0-0.14","3","3","4","4","3","3","4","4","3","4","4","4","4","5","5","4","5","4","5","4","2","1","2","1","1","2","4","4","1","1","0","1","1","0","0","0","0","0","1","1","0","1","0","1","5","2","3","2","2","1","4","4","3","4","2","790000811211104258","张","672","","","","","","","","","","","","","","","","","","","","","","","","","","","","","","","","","","","","","","","","","",""
"716","<p style=""color:rgb(150, 250, 100); font-size: 35px;"">他人</p>","e","categorize-html","88","196583","0.0-6.0-1.0-6.0-1.14","3","3","4","4","3","3","4","4","3","4","4","4","4","5","5","4","5","4","5","4","2","1","2","1","1","2","4","4","1","1","0","1","1","0","0","0","0","0","1","1","0","1","0","1","5","2","3","2","2","1","4","4","3","4","2","790000811211104258","张","672","","","","","","","","","","","","","","","","","","","true","13","3","moral","716","other","他人","","","","","","","","","","","","","","","","",""
"null","","null","html-keyboard-response","89","196833","0.0-6.0-1.0-6.0-0.15","3","3","4","4","3","3","4","4","3","4","4","4","4","5","5","4","5","4","5","4","2","1","2","1","1","2","4","4","1","1","0","1","1","0","0","0","0","0","1","1","0","1","0","1","5","2","3","2","2","1","4","4","3","4","2","790000811211104258","张","672","","","","","","","","","","","","","","","","","","","","","","","","","","","","","","","","","","","","","","","","","",""
"1357","<p style=""color:white; font-size: 35px;"">黑心</p>","e","categorize-html","90","198193","0.0-6.0-1.0-6.0-1.15","3","3","4","4","3","3","4","4","3","4","4","4","4","5","5","4","5","4","5","4","2","1","2","1","1","2","4","4","1","1","0","1","1","0","0","0","0","0","1","1","0","1","0","1","5","2","3","2","2","1","4","4","3","4","2","790000811211104258","张","672","","","","","","","","","","","","","","","","","","","true","13","3","moral","1357","negative","黑心","","","","","","","","","","","","","","","","",""
"null","","null","html-keyboard-response","91","198444","0.0-6.0-1.0-6.0-0.16","3","3","4","4","3","3","4","4","3","4","4","4","4","5","5","4","5","4","5","4","2","1","2","1","1","2","4","4","1","1","0","1","1","0","0","0","0","0","1","1","0","1","0","1","5","2","3","2","2","1","4","4","3","4","2","790000811211104258","张","672","","","","","","","","","","","","","","","","","","","","","","","","","","","","","","","","","","","","","","","","","",""
"657","<p style=""color:rgb(150, 250, 100); font-size: 35px;"">他</p>","e","categorize-html","92","199104","0.0-6.0-1.0-6.0-1.16","3","3","4","4","3","3","4","4","3","4","4","4","4","5","5","4","5","4","5","4","2","1","2","1","1","2","4","4","1","1","0","1","1","0","0","0","0","0","1","1","0","1","0","1","5","2","3","2","2","1","4","4","3","4","2","790000811211104258","张","672","","","","","","","","","","","","","","","","","","","true","13","3","moral","657","other","他","","","","","","","","","","","","","","","","",""
"null","","null","html-keyboard-response","93","199354","0.0-6.0-1.0-6.0-0.17","3","3","4","4","3","3","4","4","3","4","4","4","4","5","5","4","5","4","5","4","2","1","2","1","1","2","4","4","1","1","0","1","1","0","0","0","0","0","1","1","0","1","0","1","5","2","3","2","2","1","4","4","3","4","2","790000811211104258","张","672","","","","","","","","","","","","","","","","","","","","","","","","","","","","","","","","","","","","","","","","","",""
"624","<p style=""color:white; font-size: 35px;"">缺德</p>","e","categorize-html","94","199980","0.0-6.0-1.0-6.0-1.17","3","3","4","4","3","3","4","4","3","4","4","4","4","5","5","4","5","4","5","4","2","1","2","1","1","2","4","4","1","1","0","1","1","0","0","0","0","0","1","1","0","1","0","1","5","2","3","2","2","1","4","4","3","4","2","790000811211104258","张","672","","","","","","","","","","","","","","","","","","","true","13","3","moral","624","negative","缺德","","","","","","","","","","","","","","","","",""
"null","","null","html-keyboard-response","95","200232","0.0-6.0-1.0-6.0-0.18","3","3","4","4","3","3","4","4","3","4","4","4","4","5","5","4","5","4","5","4","2","1","2","1","1","2","4","4","1","1","0","1","1","0","0","0","0","0","1","1","0","1","0","1","5","2","3","2","2","1","4","4","3","4","2","790000811211104258","张","672","","","","","","","","","","","","","","","","","","","","","","","","","","","","","","","","","","","","","","","","","",""
"549","<p style=""color:rgb(150, 250, 100); font-size: 35px;"">我的</p>","i","categorize-html","96","200782","0.0-6.0-1.0-6.0-1.18","3","3","4","4","3","3","4","4","3","4","4","4","4","5","5","4","5","4","5","4","2","1","2","1","1","2","4","4","1","1","0","1","1","0","0","0","0","0","1","1","0","1","0","1","5","2","3","2","2","1","4","4","3","4","2","790000811211104258","张","672","","","","","","","","","","","","","","","","","","","true","13","3","moral","549","self","我的","","","","","","","","","","","","","","","","",""
"null","","null","html-keyboard-response","97","201034","0.0-6.0-1.0-6.0-0.19","3","3","4","4","3","3","4","4","3","4","4","4","4","5","5","4","5","4","5","4","2","1","2","1","1","2","4","4","1","1","0","1","1","0","0","0","0","0","1","1","0","1","0","1","5","2","3","2","2","1","4","4","3","4","2","790000811211104258","张","672","","","","","","","","","","","","","","","","","","","","","","","","","","","","","","","","","","","","","","","","","",""
"493","<p style=""color:white; font-size: 35px;"">正直</p>","i","categorize-html","98","201528","0.0-6.0-1.0-6.0-1.19","3","3","4","4","3","3","4","4","3","4","4","4","4","5","5","4","5","4","5","4","2","1","2","1","1","2","4","4","1","1","0","1","1","0","0","0","0","0","1","1","0","1","0","1","5","2","3","2","2","1","4","4","3","4","2","790000811211104258","张","672","","","","","","","","","","","","","","","","","","","true","13","3","moral","493","positive","正直","","","","","","","","","","","","","","","","",""
"null","","null","html-keyboard-response","99","201793","0.0-6.0-1.0-6.0-0.20","3","3","4","4","3","3","4","4","3","4","4","4","4","5","5","4","5","4","5","4","2","1","2","1","1","2","4","4","1","1","0","1","1","0","0","0","0","0","1","1","0","1","0","1","5","2","3","2","2","1","4","4","3","4","2","790000811211104258","张","672","","","","","","","","","","","","","","","","","","","","","","","","","","","","","","","","","","","","","","","","","",""
"722","<p style=""color:rgb(150, 250, 100); font-size: 35px;"">自己的</p>","i","categorize-html","100","202518","0.0-6.0-1.0-6.0-1.20","3","3","4","4","3","3","4","4","3","4","4","4","4","5","5","4","5","4","5","4","2","1","2","1","1","2","4","4","1","1","0","1","1","0","0","0","0","0","1","1","0","1","0","1","5","2","3","2","2","1","4","4","3","4","2","790000811211104258","张","672","","","","","","","","","","","","","","","","","","","true","13","3","moral","722","self","自己的","","","","","","","","","","","","","","","","",""
"null","","null","html-keyboard-response","101","202769","0.0-6.0-1.0-6.0-0.21","3","3","4","4","3","3","4","4","3","4","4","4","4","5","5","4","5","4","5","4","2","1","2","1","1","2","4","4","1","1","0","1","1","0","0","0","0","0","1","1","0","1","0","1","5","2","3","2","2","1","4","4","3","4","2","790000811211104258","张","672","","","","","","","","","","","","","","","","","","","","","","","","","","","","","","","","","","","","","","","","","",""
"585","<p style=""color:white; font-size: 35px;"">高尚</p>","i","categorize-html","102","203356","0.0-6.0-1.0-6.0-1.21","3","3","4","4","3","3","4","4","3","4","4","4","4","5","5","4","5","4","5","4","2","1","2","1","1","2","4","4","1","1","0","1","1","0","0","0","0","0","1","1","0","1","0","1","5","2","3","2","2","1","4","4","3","4","2","790000811211104258","张","672","","","","","","","","","","","","","","","","","","","true","13","3","moral","585","positive","高尚","","","","","","","","","","","","","","","","",""
"null","","null","html-keyboard-response","103","203607","0.0-6.0-1.0-6.0-0.22","3","3","4","4","3","3","4","4","3","4","4","4","4","5","5","4","5","4","5","4","2","1","2","1","1","2","4","4","1","1","0","1","1","0","0","0","0","0","1","1","0","1","0","1","5","2","3","2","2","1","4","4","3","4","2","790000811211104258","张","672","","","","","","","","","","","","","","","","","","","","","","","","","","","","","","","","","","","","","","","","","",""
"639","<p style=""color:rgb(150, 250, 100); font-size: 35px;"">别人</p>","e","categorize-html","104","204249","0.0-6.0-1.0-6.0-1.22","3","3","4","4","3","3","4","4","3","4","4","4","4","5","5","4","5","4","5","4","2","1","2","1","1","2","4","4","1","1","0","1","1","0","0","0","0","0","1","1","0","1","0","1","5","2","3","2","2","1","4","4","3","4","2","790000811211104258","张","672","","","","","","","","","","","","","","","","","","","true","13","3","moral","639","other","别人","","","","","","","","","","","","","","","","",""
"null","","null","html-keyboard-response","105","204500","0.0-6.0-1.0-6.0-0.23","3","3","4","4","3","3","4","4","3","4","4","4","4","5","5","4","5","4","5","4","2","1","2","1","1","2","4","4","1","1","0","1","1","0","0","0","0","0","1","1","0","1","0","1","5","2","3","2","2","1","4","4","3","4","2","790000811211104258","张","672","","","","","","","","","","","","","","","","","","","","","","","","","","","","","","","","","","","","","","","","","",""
"694","<p style=""color:white; font-size: 35px;"">卑鄙</p>","e","categorize-html","106","205196","0.0-6.0-1.0-6.0-1.23","3","3","4","4","3","3","4","4","3","4","4","4","4","5","5","4","5","4","5","4","2","1","2","1","1","2","4","4","1","1","0","1","1","0","0","0","0","0","1","1","0","1","0","1","5","2","3","2","2","1","4","4","3","4","2","790000811211104258","张","672","","","","","","","","","","","","","","","","","","","true","13","3","moral","694","negative","卑鄙","","","","","","","","","","","","","","","","",""
"7350","
    <div class=""tag-bottom""><p>
    —— 任务4：对“他人/消极”词和“自我/积极”词分类 ——<p/>
    <span style=""color:#78DCE8""><b>与刚才的任务完全相同，请再次对这四类词语分类</b></span><p/>
    <span style=""color:#FFD866""><b>请根据上方标签的提示，尽可能正确并且快速地做出按键反应</b></span><p/>
    当按键错误时屏幕中会出现<span style=""color:red""> X </span>，需要按另一个键纠正才能继续<br/><p/>
    请把双手食指分别放在键盘的“E”键和“I”键上<p/>
    按<空格键>开始
    </p></div>"," ","html-keyboard-response","107","212547","0.0-6.0-1.0-7.0","3","3","4","4","3","3","4","4","3","4","4","4","4","5","5","4","5","4","5","4","2","1","2","1","1","2","4","4","1","1","0","1","1","0","0","0","0","0","1","1","0","1","0","1","5","2","3","2","2","1","4","4","3","4","2","790000811211104258","张","672","","","","","","","","","","","","","","","","","","","","","","","","","","","","","","","","","","","","","","","","","",""
"null","","null","html-keyboard-response","108","212799","0.0-6.0-1.0-8.0-0.0","3","3","4","4","3","3","4","4","3","4","4","4","4","5","5","4","5","4","5","4","2","1","2","1","1","2","4","4","1","1","0","1","1","0","0","0","0","0","1","1","0","1","0","1","5","2","3","2","2","1","4","4","3","4","2","790000811211104258","张","672","","","","","","","","","","","","","","","","","","","","","","","","","","","","","","","","","","","","","","","","","",""
"819","<p style=""color:rgb(150, 250, 100); font-size: 35px;"">他人</p>","e","categorize-html","109","213620","0.0-6.0-1.0-8.0-1.0","3","3","4","4","3","3","4","4","3","4","4","4","4","5","5","4","5","4","5","4","2","1","2","1","1","2","4","4","1","1","0","1","1","0","0","0","0","0","1","1","0","1","0","1","5","2","3","2","2","1","4","4","3","4","2","790000811211104258","张","672","","","","","","","","","","","","","","","","","","","true","14","4","moral","819","other","他人","","","","","","","","","","","","","","","","",""
"null","","null","html-keyboard-response","110","213872","0.0-6.0-1.0-8.0-0.1","3","3","4","4","3","3","4","4","3","4","4","4","4","5","5","4","5","4","5","4","2","1","2","1","1","2","4","4","1","1","0","1","1","0","0","0","0","0","1","1","0","1","0","1","5","2","3","2","2","1","4","4","3","4","2","790000811211104258","张","672","","","","","","","","","","","","","","","","","","","","","","","","","","","","","","","","","","","","","","","","","",""
"712","<p style=""color:white; font-size: 35px;"">君子</p>","i","categorize-html","111","214586","0.0-6.0-1.0-8.0-1.1","3","3","4","4","3","3","4","4","3","4","4","4","4","5","5","4","5","4","5","4","2","1","2","1","1","2","4","4","1","1","0","1","1","0","0","0","0","0","1","1","0","1","0","1","5","2","3","2","2","1","4","4","3","4","2","790000811211104258","张","672","","","","","","","","","","","","","","","","","","","true","14","4","moral","712","positive","君子","","","","","","","","","","","","","","","","",""
"null","","null","html-keyboard-response","112","214837","0.0-6.0-1.0-8.0-0.2","3","3","4","4","3","3","4","4","3","4","4","4","4","5","5","4","5","4","5","4","2","1","2","1","1","2","4","4","1","1","0","1","1","0","0","0","0","0","1","1","0","1","0","1","5","2","3","2","2","1","4","4","3","4","2","790000811211104258","张","672","","","","","","","","","","","","","","","","","","","","","","","","","","","","","","","","","","","","","","","","","",""
"1081","<p style=""color:rgb(150, 250, 100); font-size: 35px;"">本人的</p>","i","categorize-html","113","215919","0.0-6.0-1.0-8.0-1.2","3","3","4","4","3","3","4","4","3","4","4","4","4","5","5","4","5","4","5","4","2","1","2","1","1","2","4","4","1","1","0","1","1","0","0","0","0","0","1","1","0","1","0","1","5","2","3","2","2","1","4","4","3","4","2","790000811211104258","张","672","","","","","","","","","","","","","","","","","","","true","14","4","moral","1081","self","本人的","","","","","","","","","","","","","","","","",""
"null","","null","html-keyboard-response","114","216171","0.0-6.0-1.0-8.0-0.3","3","3","4","4","3","3","4","4","3","4","4","4","4","5","5","4","5","4","5","4","2","1","2","1","1","2","4","4","1","1","0","1","1","0","0","0","0","0","1","1","0","1","0","1","5","2","3","2","2","1","4","4","3","4","2","790000811211104258","张","672","","","","","","","","","","","","","","","","","","","","","","","","","","","","","","","","","","","","","","","","","",""
"598","<p style=""color:white; font-size: 35px;"">黑心</p>","e","categorize-html","115","216771","0.0-6.0-1.0-8.0-1.3","3","3","4","4","3","3","4","4","3","4","4","4","4","5","5","4","5","4","5","4","2","1","2","1","1","2","4","4","1","1","0","1","1","0","0","0","0","0","1","1","0","1","0","1","5","2","3","2","2","1","4","4","3","4","2","790000811211104258","张","672","","","","","","","","","","","","","","","","","","","true","14","4","moral","598","negative","黑心","","","","","","","","","","","","","","","","",""
"null","","null","html-keyboard-response","116","217023","0.0-6.0-1.0-8.0-0.4","3","3","4","4","3","3","4","4","3","4","4","4","4","5","5","4","5","4","5","4","2","1","2","1","1","2","4","4","1","1","0","1","1","0","0","0","0","0","1","1","0","1","0","1","5","2","3","2","2","1","4","4","3","4","2","790000811211104258","张","672","","","","","","","","","","","","","","","","","","","","","","","","","","","","","","","","","","","","","","","","","",""
"715","<p style=""color:rgb(150, 250, 100); font-size: 35px;"">我</p>","i","categorize-html","117","217740","0.0-6.0-1.0-8.0-1.4","3","3","4","4","3","3","4","4","3","4","4","4","4","5","5","4","5","4","5","4","2","1","2","1","1","2","4","4","1","1","0","1","1","0","0","0","0","0","1","1","0","1","0","1","5","2","3","2","2","1","4","4","3","4","2","790000811211104258","张","672","","","","","","","","","","","","","","","","","","","true","14","4","moral","715","self","我","","","","","","","","","","","","","","","","",""
"null","","null","html-keyboard-response","118","217991","0.0-6.0-1.0-8.0-0.5","3","3","4","4","3","3","4","4","3","4","4","4","4","5","5","4","5","4","5","4","2","1","2","1","1","2","4","4","1","1","0","1","1","0","0","0","0","0","1","1","0","1","0","1","5","2","3","2","2","1","4","4","3","4","2","790000811211104258","张","672","","","","","","","","","","","","","","","","","","","","","","","","","","","","","","","","","","","","","","","","","",""
"797","<p style=""color:white; font-size: 35px;"">善良</p>","i","categorize-html","119","218790","0.0-6.0-1.0-8.0-1.5","3","3","4","4","3","3","4","4","3","4","4","4","4","5","5","4","5","4","5","4","2","1","2","1","1","2","4","4","1","1","0","1","1","0","0","0","0","0","1","1","0","1","0","1","5","2","3","2","2","1","4","4","3","4","2","790000811211104258","张","672","","","","","","","","","","","","","","","","","","","true","14","4","moral","797","positive","善良","","","","","","","","","","","","","","","","",""
"null","","null","html-keyboard-response","120","219041","0.0-6.0-1.0-8.0-0.6","3","3","4","4","3","3","4","4","3","4","4","4","4","5","5","4","5","4","5","4","2","1","2","1","1","2","4","4","1","1","0","1","1","0","0","0","0","0","1","1","0","1","0","1","5","2","3","2","2","1","4","4","3","4","2","790000811211104258","张","672","","","","","","","","","","","","","","","","","","","","","","","","","","","","","","","","","","","","","","","","","",""
"743","<p style=""color:rgb(150, 250, 100); font-size: 35px;"">他人的</p>","e","categorize-html","121","219785","0.0-6.0-1.0-8.0-1.6","3","3","4","4","3","3","4","4","3","4","4","4","4","5","5","4","5","4","5","4","2","1","2","1","1","2","4","4","1","1","0","1","1","0","0","0","0","0","1","1","0","1","0","1","5","2","3","2","2","1","4","4","3","4","2","790000811211104258","张","672","","","","","","","","","","","","","","","","","","","true","14","4","moral","743","other","他人的","","","","","","","","","","","","","","","","",""
"null","","null","html-keyboard-response","122","220037","0.0-6.0-1.0-8.0-0.7","3","3","4","4","3","3","4","4","3","4","4","4","4","5","5","4","5","4","5","4","2","1","2","1","1","2","4","4","1","1","0","1","1","0","0","0","0","0","1","1","0","1","0","1","5","2","3","2","2","1","4","4","3","4","2","790000811211104258","张","672","","","","","","","","","","","","","","","","","","","","","","","","","","","","","","","","","","","","","","","","","",""
"753","<p style=""color:white; font-size: 35px;"">不孝</p>","e","categorize-html","123","220791","0.0-6.0-1.0-8.0-1.7","3","3","4","4","3","3","4","4","3","4","4","4","4","5","5","4","5","4","5","4","2","1","2","1","1","2","4","4","1","1","0","1","1","0","0","0","0","0","1","1","0","1","0","1","5","2","3","2","2","1","4","4","3","4","2","790000811211104258","张","672","","","","","","","","","","","","","","","","","","","true","14","4","moral","753","negative","不孝","","","","","","","","","","","","","","","","",""
"null","","null","html-keyboard-response","124","221043","0.0-6.0-1.0-8.0-0.8","3","3","4","4","3","3","4","4","3","4","4","4","4","5","5","4","5","4","5","4","2","1","2","1","1","2","4","4","1","1","0","1","1","0","0","0","0","0","1","1","0","1","0","1","5","2","3","2","2","1","4","4","3","4","2","790000811211104258","张","672","","","","","","","","","","","","","","","","","","","","","","","","","","","","","","","","","","","","","","","","","",""
"616","<p style=""color:rgb(150, 250, 100); font-size: 35px;"">我</p>","i","categorize-html","125","221661","0.0-6.0-1.0-8.0-1.8","3","3","4","4","3","3","4","4","3","4","4","4","4","5","5","4","5","4","5","4","2","1","2","1","1","2","4","4","1","1","0","1","1","0","0","0","0","0","1","1","0","1","0","1","5","2","3","2","2","1","4","4","3","4","2","790000811211104258","张","672","","","","","","","","","","","","","","","","","","","true","14","4","moral","616","self","我","","","","","","","","","","","","","","","","",""
"null","","null","html-keyboard-response","126","221912","0.0-6.0-1.0-8.0-0.9","3","3","4","4","3","3","4","4","3","4","4","4","4","5","5","4","5","4","5","4","2","1","2","1","1","2","4","4","1","1","0","1","1","0","0","0","0","0","1","1","0","1","0","1","5","2","3","2","2","1","4","4","3","4","2","790000811211104258","张","672","","","","","","","","","","","","","","","","","","","","","","","","","","","","","","","","","","","","","","","","","",""
"997","<p style=""color:white; font-size: 35px;"">正直</p>","i","categorize-html","127","222911","0.0-6.0-1.0-8.0-1.9","3","3","4","4","3","3","4","4","3","4","4","4","4","5","5","4","5","4","5","4","2","1","2","1","1","2","4","4","1","1","0","1","1","0","0","0","0","0","1","1","0","1","0","1","5","2","3","2","2","1","4","4","3","4","2","790000811211104258","张","672","","","","","","","","","","","","","","","","","","","true","14","4","moral","997","positive","正直","","","","","","","","","","","","","","","","",""
"null","","null","html-keyboard-response","128","223163","0.0-6.0-1.0-8.0-0.10","3","3","4","4","3","3","4","4","3","4","4","4","4","5","5","4","5","4","5","4","2","1","2","1","1","2","4","4","1","1","0","1","1","0","0","0","0","0","1","1","0","1","0","1","5","2","3","2","2","1","4","4","3","4","2","790000811211104258","张","672","","","","","","","","","","","","","","","","","","","","","","","","","","","","","","","","","","","","","","","","","",""
"616","<p style=""color:rgb(150, 250, 100); font-size: 35px;"">他人</p>","e","categorize-html","129","223781","0.0-6.0-1.0-8.0-1.10","3","3","4","4","3","3","4","4","3","4","4","4","4","5","5","4","5","4","5","4","2","1","2","1","1","2","4","4","1","1","0","1","1","0","0","0","0","0","1","1","0","1","0","1","5","2","3","2","2","1","4","4","3","4","2","790000811211104258","张","672","","","","","","","","","","","","","","","","","","","true","14","4","moral","616","other","他人","","","","","","","","","","","","","","","","",""
"null","","null","html-keyboard-response","130","224032","0.0-6.0-1.0-8.0-0.11","3","3","4","4","3","3","4","4","3","4","4","4","4","5","5","4","5","4","5","4","2","1","2","1","1","2","4","4","1","1","0","1","1","0","0","0","0","0","1","1","0","1","0","1","5","2","3","2","2","1","4","4","3","4","2","790000811211104258","张","672","","","","","","","","","","","","","","","","","","","","","","","","","","","","","","","","","","","","","","","","","",""
"514","<p style=""color:white; font-size: 35px;"">缺德</p>","e","categorize-html","131","224548","0.0-6.0-1.0-8.0-1.11","3","3","4","4","3","3","4","4","3","4","4","4","4","5","5","4","5","4","5","4","2","1","2","1","1","2","4","4","1","1","0","1","1","0","0","0","0","0","1","1","0","1","0","1","5","2","3","2","2","1","4","4","3","4","2","790000811211104258","张","672","","","","","","","","","","","","","","","","","","","true","14","4","moral","514","negative","缺德","","","","","","","","","","","","","","","","",""
"null","","null","html-keyboard-response","132","224798","0.0-6.0-1.0-8.0-0.12","3","3","4","4","3","3","4","4","3","4","4","4","4","5","5","4","5","4","5","4","2","1","2","1","1","2","4","4","1","1","0","1","1","0","0","0","0","0","1","1","0","1","0","1","5","2","3","2","2","1","4","4","3","4","2","790000811211104258","张","672","","","","","","","","","","","","","","","","","","","","","","","","","","","","","","","","","","","","","","","","","",""
"635","<p style=""color:rgb(150, 250, 100); font-size: 35px;"">自己</p>","i","categorize-html","133","225435","0.0-6.0-1.0-8.0-1.12","3","3","4","4","3","3","4","4","3","4","4","4","4","5","5","4","5","4","5","4","2","1","2","1","1","2","4","4","1","1","0","1","1","0","0","0","0","0","1","1","0","1","0","1","5","2","3","2","2","1","4","4","3","4","2","790000811211104258","张","672","","","","","","","","","","","","","","","","","","","true","14","4","moral","635","self","自己","","","","","","","","","","","","","","","","",""
"null","","null","html-keyboard-response","134","225686","0.0-6.0-1.0-8.0-0.13","3","3","4","4","3","3","4","4","3","4","4","4","4","5","5","4","5","4","5","4","2","1","2","1","1","2","4","4","1","1","0","1","1","0","0","0","0","0","1","1","0","1","0","1","5","2","3","2","2","1","4","4","3","4","2","790000811211104258","张","672","","","","","","","","","","","","","","","","","","","","","","","","","","","","","","","","","","","","","","","","","",""
"733","<p style=""color:white; font-size: 35px;"">卑鄙</p>","e","categorize-html","135","226421","0.0-6.0-1.0-8.0-1.13","3","3","4","4","3","3","4","4","3","4","4","4","4","5","5","4","5","4","5","4","2","1","2","1","1","2","4","4","1","1","0","1","1","0","0","0","0","0","1","1","0","1","0","1","5","2","3","2","2","1","4","4","3","4","2","790000811211104258","张","672","","","","","","","","","","","","","","","","","","","true","14","4","moral","733","negative","卑鄙","","","","","","","","","","","","","","","","",""
"null","","null","html-keyboard-response","136","226672","0.0-6.0-1.0-8.0-0.14","3","3","4","4","3","3","4","4","3","4","4","4","4","5","5","4","5","4","5","4","2","1","2","1","1","2","4","4","1","1","0","1","1","0","0","0","0","0","1","1","0","1","0","1","5","2","3","2","2","1","4","4","3","4","2","790000811211104258","张","672","","","","","","","","","","","","","","","","","","","","","","","","","","","","","","","","","","","","","","","","","",""
"1113","<p style=""color:rgb(150, 250, 100); font-size: 35px;"">他</p>","e","categorize-html","137","227787","0.0-6.0-1.0-8.0-1.14","3","3","4","4","3","3","4","4","3","4","4","4","4","5","5","4","5","4","5","4","2","1","2","1","1","2","4","4","1","1","0","1","1","0","0","0","0","0","1","1","0","1","0","1","5","2","3","2","2","1","4","4","3","4","2","790000811211104258","张","672","","","","","","","","","","","","","","","","","","","true","14","4","moral","1113","other","他","","","","","","","","","","","","","","","","",""
"null","","null","html-keyboard-response","138","228039","0.0-6.0-1.0-8.0-0.15","3","3","4","4","3","3","4","4","3","4","4","4","4","5","5","4","5","4","5","4","2","1","2","1","1","2","4","4","1","1","0","1","1","0","0","0","0","0","1","1","0","1","0","1","5","2","3","2","2","1","4","4","3","4","2","790000811211104258","张","672","","","","","","","","","","","","","","","","","","","","","","","","","","","","","","","","","","","","","","","","","",""
"1165","<p style=""color:white; font-size: 35px;"">善良</p>","i","categorize-html","139","229205","0.0-6.0-1.0-8.0-1.15","3","3","4","4","3","3","4","4","3","4","4","4","4","5","5","4","5","4","5","4","2","1","2","1","1","2","4","4","1","1","0","1","1","0","0","0","0","0","1","1","0","1","0","1","5","2","3","2","2","1","4","4","3","4","2","790000811211104258","张","672","","","","","","","","","","","","","","","","","","","true","14","4","moral","1165","positive","善良","","","","","","","","","","","","","","","","",""
"null","","null","html-keyboard-response","140","229456","0.0-6.0-1.0-8.0-0.16","3","3","4","4","3","3","4","4","3","4","4","4","4","5","5","4","5","4","5","4","2","1","2","1","1","2","4","4","1","1","0","1","1","0","0","0","0","0","1","1","0","1","0","1","5","2","3","2","2","1","4","4","3","4","2","790000811211104258","张","672","","","","","","","","","","","","","","","","","","","","","","","","","","","","","","","","","","","","","","","","","",""
"667","<p style=""color:rgb(150, 250, 100); font-size: 35px;"">自己的</p>","i","categorize-html","141","230125","0.0-6.0-1.0-8.0-1.16","3","3","4","4","3","3","4","4","3","4","4","4","4","5","5","4","5","4","5","4","2","1","2","1","1","2","4","4","1","1","0","1","1","0","0","0","0","0","1","1","0","1","0","1","5","2","3","2","2","1","4","4","3","4","2","790000811211104258","张","672","","","","","","","","","","","","","","","","","","","true","14","4","moral","667","self","自己的","","","","","","","","","","","","","","","","",""
"null","","null","html-keyboard-response","142","230379","0.0-6.0-1.0-8.0-0.17","3","3","4","4","3","3","4","4","3","4","4","4","4","5","5","4","5","4","5","4","2","1","2","1","1","2","4","4","1","1","0","1","1","0","0","0","0","0","1","1","0","1","0","1","5","2","3","2","2","1","4","4","3","4","2","790000811211104258","张","672","","","","","","","","","","","","","","","","","","","","","","","","","","","","","","","","","","","","","","","","","",""
"528","<p style=""color:white; font-size: 35px;"">诚信</p>","i","categorize-html","143","230909","0.0-6.0-1.0-8.0-1.17","3","3","4","4","3","3","4","4","3","4","4","4","4","5","5","4","5","4","5","4","2","1","2","1","1","2","4","4","1","1","0","1","1","0","0","0","0","0","1","1","0","1","0","1","5","2","3","2","2","1","4","4","3","4","2","790000811211104258","张","672","","","","","","","","","","","","","","","","","","","true","14","4","moral","528","positive","诚信","","","","","","","","","","","","","","","","",""
"null","","null","html-keyboard-response","144","231160","0.0-6.0-1.0-8.0-0.18","3","3","4","4","3","3","4","4","3","4","4","4","4","5","5","4","5","4","5","4","2","1","2","1","1","2","4","4","1","1","0","1","1","0","0","0","0","0","1","1","0","1","0","1","5","2","3","2","2","1","4","4","3","4","2","790000811211104258","张","672","","","","","","","","","","","","","","","","","","","","","","","","","","","","","","","","","","","","","","","","","",""
"765","<p style=""color:rgb(150, 250, 100); font-size: 35px;"">他的</p>","e","categorize-html","145","231928","0.0-6.0-1.0-8.0-1.18","3","3","4","4","3","3","4","4","3","4","4","4","4","5","5","4","5","4","5","4","2","1","2","1","1","2","4","4","1","1","0","1","1","0","0","0","0","0","1","1","0","1","0","1","5","2","3","2","2","1","4","4","3","4","2","790000811211104258","张","672","","","","","","","","","","","","","","","","","","","true","14","4","moral","765","other","他的","","","","","","","","","","","","","","","","",""
"null","","null","html-keyboard-response","146","232179","0.0-6.0-1.0-8.0-0.19","3","3","4","4","3","3","4","4","3","4","4","4","4","5","5","4","5","4","5","4","2","1","2","1","1","2","4","4","1","1","0","1","1","0","0","0","0","0","1","1","0","1","0","1","5","2","3","2","2","1","4","4","3","4","2","790000811211104258","张","672","","","","","","","","","","","","","","","","","","","","","","","","","","","","","","","","","","","","","","","","","",""
"651","<p style=""color:white; font-size: 35px;"">小人</p>","e","categorize-html","147","232831","0.0-6.0-1.0-8.0-1.19","3","3","4","4","3","3","4","4","3","4","4","4","4","5","5","4","5","4","5","4","2","1","2","1","1","2","4","4","1","1","0","1","1","0","0","0","0","0","1","1","0","1","0","1","5","2","3","2","2","1","4","4","3","4","2","790000811211104258","张","672","","","","","","","","","","","","","","","","","","","true","14","4","moral","651","negative","小人","","","","","","","","","","","","","","","","",""
"null","","null","html-keyboard-response","148","233082","0.0-6.0-1.0-8.0-0.20","3","3","4","4","3","3","4","4","3","4","4","4","4","5","5","4","5","4","5","4","2","1","2","1","1","2","4","4","1","1","0","1","1","0","0","0","0","0","1","1","0","1","0","1","5","2","3","2","2","1","4","4","3","4","2","790000811211104258","张","672","","","","","","","","","","","","","","","","","","","","","","","","","","","","","","","","","","","","","","","","","",""
"561","<p style=""color:rgb(150, 250, 100); font-size: 35px;"">我的</p>","i","categorize-html","149","233645","0.0-6.0-1.0-8.0-1.20","3","3","4","4","3","3","4","4","3","4","4","4","4","5","5","4","5","4","5","4","2","1","2","1","1","2","4","4","1","1","0","1","1","0","0","0","0","0","1","1","0","1","0","1","5","2","3","2","2","1","4","4","3","4","2","790000811211104258","张","672","","","","","","","","","","","","","","","","","","","true","14","4","moral","561","self","我的","","","","","","","","","","","","","","","","",""
"null","","null","html-keyboard-response","150","233897","0.0-6.0-1.0-8.0-0.21","3","3","4","4","3","3","4","4","3","4","4","4","4","5","5","4","5","4","5","4","2","1","2","1","1","2","4","4","1","1","0","1","1","0","0","0","0","0","1","1","0","1","0","1","5","2","3","2","2","1","4","4","3","4","2","790000811211104258","张","672","","","","","","","","","","","","","","","","","","","","","","","","","","","","","","","","","","","","","","","","","",""
"1043","<p style=""color:white; font-size: 35px;"">廉正</p>","i","categorize-html","151","234941","0.0-6.0-1.0-8.0-1.21","3","3","4","4","3","3","4","4","3","4","4","4","4","5","5","4","5","4","5","4","2","1","2","1","1","2","4","4","1","1","0","1","1","0","0","0","0","0","1","1","0","1","0","1","5","2","3","2","2","1","4","4","3","4","2","790000811211104258","张","672","","","","","","","","","","","","","","","","","","","true","14","4","moral","1043","positive","廉正","","","","","","","","","","","","","","","","",""
"null","","null","html-keyboard-response","152","235193","0.0-6.0-1.0-8.0-0.22","3","3","4","4","3","3","4","4","3","4","4","4","4","5","5","4","5","4","5","4","2","1","2","1","1","2","4","4","1","1","0","1","1","0","0","0","0","0","1","1","0","1","0","1","5","2","3","2","2","1","4","4","3","4","2","790000811211104258","张","672","","","","","","","","","","","","","","","","","","","","","","","","","","","","","","","","","","","","","","","","","",""
"785","<p style=""color:rgb(150, 250, 100); font-size: 35px;"">别人的</p>","i","categorize-html","153","236708","0.0-6.0-1.0-8.0-1.22","3","3","4","4","3","3","4","4","3","4","4","4","4","5","5","4","5","4","5","4","2","1","2","1","1","2","4","4","1","1","0","1","1","0","0","0","0","0","1","1","0","1","0","1","5","2","3","2","2","1","4","4","3","4","2","790000811211104258","张","672","","","","","","","","","","","","","","","","","","","false","14","4","moral","1419.6444444444444","other","别人的","","","","","","","","","","","","","","","","",""
"null","","null","html-keyboard-response","154","236960","0.0-6.0-1.0-8.0-0.23","3","3","4","4","3","3","4","4","3","4","4","4","4","5","5","4","5","4","5","4","2","1","2","1","1","2","4","4","1","1","0","1","1","0","0","0","0","0","1","1","0","1","0","1","5","2","3","2","2","1","4","4","3","4","2","790000811211104258","张","672","","","","","","","","","","","","","","","","","","","","","","","","","","","","","","","","","","","","","","","","","",""
"646","<p style=""color:white; font-size: 35px;"">不孝</p>","e","categorize-html","155","237607","0.0-6.0-1.0-8.0-1.23","3","3","4","4","3","3","4","4","3","4","4","4","4","5","5","4","5","4","5","4","2","1","2","1","1","2","4","4","1","1","0","1","1","0","0","0","0","0","1","1","0","1","0","1","5","2","3","2","2","1","4","4","3","4","2","790000811211104258","张","672","","","","","","","","","","","","","","","","","","","true","14","4","moral","646","negative","不孝","","","","","","","","","","","","","","","","",""
"null","","null","html-keyboard-response","156","237859","0.0-6.0-1.0-8.0-0.24","3","3","4","4","3","3","4","4","3","4","4","4","4","5","5","4","5","4","5","4","2","1","2","1","1","2","4","4","1","1","0","1","1","0","0","0","0","0","1","1","0","1","0","1","5","2","3","2","2","1","4","4","3","4","2","790000811211104258","张","672","","","","","","","","","","","","","","","","","","","","","","","","","","","","","","","","","","","","","","","","","",""
"573","<p style=""color:rgb(150, 250, 100); font-size: 35px;"">别人</p>","e","categorize-html","157","238434","0.0-6.0-1.0-8.0-1.24","3","3","4","4","3","3","4","4","3","4","4","4","4","5","5","4","5","4","5","4","2","1","2","1","1","2","4","4","1","1","0","1","1","0","0","0","0","0","1","1","0","1","0","1","5","2","3","2","2","1","4","4","3","4","2","790000811211104258","张","672","","","","","","","","","","","","","","","","","","","true","14","4","moral","573","other","别人","","","","","","","","","","","","","","","","",""
"null","","null","html-keyboard-response","158","238699","0.0-6.0-1.0-8.0-0.25","3","3","4","4","3","3","4","4","3","4","4","4","4","5","5","4","5","4","5","4","2","1","2","1","1","2","4","4","1","1","0","1","1","0","0","0","0","0","1","1","0","1","0","1","5","2","3","2","2","1","4","4","3","4","2","790000811211104258","张","672","","","","","","","","","","","","","","","","","","","","","","","","","","","","","","","","","","","","","","","","","",""
"636","<p style=""color:white; font-size: 35px;"">高尚</p>","i","categorize-html","159","239338","0.0-6.0-1.0-8.0-1.25","3","3","4","4","3","3","4","4","3","4","4","4","4","5","5","4","5","4","5","4","2","1","2","1","1","2","4","4","1","1","0","1","1","0","0","0","0","0","1","1","0","1","0","1","5","2","3","2","2","1","4","4","3","4","2","790000811211104258","张","672","","","","","","","","","","","","","","","","","","","true","14","4","moral","636","positive","高尚","","","","","","","","","","","","","","","","",""
"null","","null","html-keyboard-response","160","239589","0.0-6.0-1.0-8.0-0.26","3","3","4","4","3","3","4","4","3","4","4","4","4","5","5","4","5","4","5","4","2","1","2","1","1","2","4","4","1","1","0","1","1","0","0","0","0","0","1","1","0","1","0","1","5","2","3","2","2","1","4","4","3","4","2","790000811211104258","张","672","","","","","","","","","","","","","","","","","","","","","","","","","","","","","","","","","","","","","","","","","",""
"1732","<p style=""color:rgb(150, 250, 100); font-size: 35px;"">本人</p>","i","categorize-html","161","241323","0.0-6.0-1.0-8.0-1.26","3","3","4","4","3","3","4","4","3","4","4","4","4","5","5","4","5","4","5","4","2","1","2","1","1","2","4","4","1","1","0","1","1","0","0","0","0","0","1","1","0","1","0","1","5","2","3","2","2","1","4","4","3","4","2","790000811211104258","张","672","","","","","","","","","","","","","","","","","","","true","14","4","moral","1732","self","本人","","","","","","","","","","","","","","","","",""
"null","","null","html-keyboard-response","162","241575","0.0-6.0-1.0-8.0-0.27","3","3","4","4","3","3","4","4","3","4","4","4","4","5","5","4","5","4","5","4","2","1","2","1","1","2","4","4","1","1","0","1","1","0","0","0","0","0","1","1","0","1","0","1","5","2","3","2","2","1","4","4","3","4","2","790000811211104258","张","672","","","","","","","","","","","","","","","","","","","","","","","","","","","","","","","","","","","","","","","","","",""
"708","<p style=""color:white; font-size: 35px;"">小人</p>","e","categorize-html","163","242285","0.0-6.0-1.0-8.0-1.27","3","3","4","4","3","3","4","4","3","4","4","4","4","5","5","4","5","4","5","4","2","1","2","1","1","2","4","4","1","1","0","1","1","0","0","0","0","0","1","1","0","1","0","1","5","2","3","2","2","1","4","4","3","4","2","790000811211104258","张","672","","","","","","","","","","","","","","","","","","","true","14","4","moral","708","negative","小人","","","","","","","","","","","","","","","","",""
"null","","null","html-keyboard-response","164","242536","0.0-6.0-1.0-8.0-0.28","3","3","4","4","3","3","4","4","3","4","4","4","4","5","5","4","5","4","5","4","2","1","2","1","1","2","4","4","1","1","0","1","1","0","0","0","0","0","1","1","0","1","0","1","5","2","3","2","2","1","4","4","3","4","2","790000811211104258","张","672","","","","","","","","","","","","","","","","","","","","","","","","","","","","","","","","","","","","","","","","","",""
"655","<p style=""color:rgb(150, 250, 100); font-size: 35px;"">自己的</p>","i","categorize-html","165","243193","0.0-6.0-1.0-8.0-1.28","3","3","4","4","3","3","4","4","3","4","4","4","4","5","5","4","5","4","5","4","2","1","2","1","1","2","4","4","1","1","0","1","1","0","0","0","0","0","1","1","0","1","0","1","5","2","3","2","2","1","4","4","3","4","2","790000811211104258","张","672","","","","","","","","","","","","","","","","","","","true","14","4","moral","655","self","自己的","","","","","","","","","","","","","","","","",""
"null","","null","html-keyboard-response","166","243445","0.0-6.0-1.0-8.0-0.29","3","3","4","4","3","3","4","4","3","4","4","4","4","5","5","4","5","4","5","4","2","1","2","1","1","2","4","4","1","1","0","1","1","0","0","0","0","0","1","1","0","1","0","1","5","2","3","2","2","1","4","4","3","4","2","790000811211104258","张","672","","","","","","","","","","","","","","","","","","","","","","","","","","","","","","","","","","","","","","","","","",""
"688","<p style=""color:white; font-size: 35px;"">缺德</p>","e","categorize-html","167","244135","0.0-6.0-1.0-8.0-1.29","3","3","4","4","3","3","4","4","3","4","4","4","4","5","5","4","5","4","5","4","2","1","2","1","1","2","4","4","1","1","0","1","1","0","0","0","0","0","1","1","0","1","0","1","5","2","3","2","2","1","4","4","3","4","2","790000811211104258","张","672","","","","","","","","","","","","","","","","","","","true","14","4","moral","688","negative","缺德","","","","","","","","","","","","","","","","",""
"null","","null","html-keyboard-response","168","244388","0.0-6.0-1.0-8.0-0.30","3","3","4","4","3","3","4","4","3","4","4","4","4","5","5","4","5","4","5","4","2","1","2","1","1","2","4","4","1","1","0","1","1","0","0","0","0","0","1","1","0","1","0","1","5","2","3","2","2","1","4","4","3","4","2","790000811211104258","张","672","","","","","","","","","","","","","","","","","","","","","","","","","","","","","","","","","","","","","","","","","",""
"650","<p style=""color:rgb(150, 250, 100); font-size: 35px;"">别人的</p>","e","categorize-html","169","245040","0.0-6.0-1.0-8.0-1.30","3","3","4","4","3","3","4","4","3","4","4","4","4","5","5","4","5","4","5","4","2","1","2","1","1","2","4","4","1","1","0","1","1","0","0","0","0","0","1","1","0","1","0","1","5","2","3","2","2","1","4","4","3","4","2","790000811211104258","张","672","","","","","","","","","","","","","","","","","","","true","14","4","moral","650","other","别人的","","","","","","","","","","","","","","","","",""
"null","","null","html-keyboard-response","170","245291","0.0-6.0-1.0-8.0-0.31","3","3","4","4","3","3","4","4","3","4","4","4","4","5","5","4","5","4","5","4","2","1","2","1","1","2","4","4","1","1","0","1","1","0","0","0","0","0","1","1","0","1","0","1","5","2","3","2","2","1","4","4","3","4","2","790000811211104258","张","672","","","","","","","","","","","","","","","","","","","","","","","","","","","","","","","","","","","","","","","","","",""
"668","<p style=""color:white; font-size: 35px;"">高尚</p>","i","categorize-html","171","245961","0.0-6.0-1.0-8.0-1.31","3","3","4","4","3","3","4","4","3","4","4","4","4","5","5","4","5","4","5","4","2","1","2","1","1","2","4","4","1","1","0","1","1","0","0","0","0","0","1","1","0","1","0","1","5","2","3","2","2","1","4","4","3","4","2","790000811211104258","张","672","","","","","","","","","","","","","","","","","","","true","14","4","moral","668","positive","高尚","","","","","","","","","","","","","","","","",""
"null","","null","html-keyboard-response","172","246213","0.0-6.0-1.0-8.0-0.32","3","3","4","4","3","3","4","4","3","4","4","4","4","5","5","4","5","4","5","4","2","1","2","1","1","2","4","4","1","1","0","1","1","0","0","0","0","0","1","1","0","1","0","1","5","2","3","2","2","1","4","4","3","4","2","790000811211104258","张","672","","","","","","","","","","","","","","","","","","","","","","","","","","","","","","","","","","","","","","","","","",""
"799","<p style=""color:rgb(150, 250, 100); font-size: 35px;"">他的</p>","e","categorize-html","173","247013","0.0-6.0-1.0-8.0-1.32","3","3","4","4","3","3","4","4","3","4","4","4","4","5","5","4","5","4","5","4","2","1","2","1","1","2","4","4","1","1","0","1","1","0","0","0","0","0","1","1","0","1","0","1","5","2","3","2","2","1","4","4","3","4","2","790000811211104258","张","672","","","","","","","","","","","","","","","","","","","true","14","4","moral","799","other","他的","","","","","","","","","","","","","","","","",""
"null","","null","html-keyboard-response","174","247264","0.0-6.0-1.0-8.0-0.33","3","3","4","4","3","3","4","4","3","4","4","4","4","5","5","4","5","4","5","4","2","1","2","1","1","2","4","4","1","1","0","1","1","0","0","0","0","0","1","1","0","1","0","1","5","2","3","2","2","1","4","4","3","4","2","790000811211104258","张","672","","","","","","","","","","","","","","","","","","","","","","","","","","","","","","","","","","","","","","","","","",""
"678","<p style=""color:white; font-size: 35px;"">廉正</p>","e","categorize-html","175","248352","0.0-6.0-1.0-8.0-1.33","3","3","4","4","3","3","4","4","3","4","4","4","4","5","5","4","5","4","5","4","2","1","2","1","1","2","4","4","1","1","0","1","1","0","0","0","0","0","1","1","0","1","0","1","5","2","3","2","2","1","4","4","3","4","2","790000811211104258","张","672","","","","","","","","","","","","","","","","","","","false","14","4","moral","1419.6444444444444","positive","廉正","","","","","","","","","","","","","","","","",""
"null","","null","html-keyboard-response","176","248604","0.0-6.0-1.0-8.0-0.34","3","3","4","4","3","3","4","4","3","4","4","4","4","5","5","4","5","4","5","4","2","1","2","1","1","2","4","4","1","1","0","1","1","0","0","0","0","0","1","1","0","1","0","1","5","2","3","2","2","1","4","4","3","4","2","790000811211104258","张","672","","","","","","","","","","","","","","","","","","","","","","","","","","","","","","","","","","","","","","","","","",""
"625","<p style=""color:rgb(150, 250, 100); font-size: 35px;"">本人的</p>","i","categorize-html","177","249231","0.0-6.0-1.0-8.0-1.34","3","3","4","4","3","3","4","4","3","4","4","4","4","5","5","4","5","4","5","4","2","1","2","1","1","2","4","4","1","1","0","1","1","0","0","0","0","0","1","1","0","1","0","1","5","2","3","2","2","1","4","4","3","4","2","790000811211104258","张","672","","","","","","","","","","","","","","","","","","","true","14","4","moral","625","self","本人的","","","","","","","","","","","","","","","","",""
"null","","null","html-keyboard-response","178","249483","0.0-6.0-1.0-8.0-0.35","3","3","4","4","3","3","4","4","3","4","4","4","4","5","5","4","5","4","5","4","2","1","2","1","1","2","4","4","1","1","0","1","1","0","0","0","0","0","1","1","0","1","0","1","5","2","3","2","2","1","4","4","3","4","2","790000811211104258","张","672","","","","","","","","","","","","","","","","","","","","","","","","","","","","","","","","","","","","","","","","","",""
"1632","<p style=""color:white; font-size: 35px;"">黑心</p>","e","categorize-html","179","251117","0.0-6.0-1.0-8.0-1.35","3","3","4","4","3","3","4","4","3","4","4","4","4","5","5","4","5","4","5","4","2","1","2","1","1","2","4","4","1","1","0","1","1","0","0","0","0","0","1","1","0","1","0","1","5","2","3","2","2","1","4","4","3","4","2","790000811211104258","张","672","","","","","","","","","","","","","","","","","","","true","14","4","moral","1632","negative","黑心","","","","","","","","","","","","","","","","",""
"null","","null","html-keyboard-response","180","251375","0.0-6.0-1.0-8.0-0.36","3","3","4","4","3","3","4","4","3","4","4","4","4","5","5","4","5","4","5","4","2","1","2","1","1","2","4","4","1","1","0","1","1","0","0","0","0","0","1","1","0","1","0","1","5","2","3","2","2","1","4","4","3","4","2","790000811211104258","张","672","","","","","","","","","","","","","","","","","","","","","","","","","","","","","","","","","","","","","","","","","",""
"736","<p style=""color:rgb(150, 250, 100); font-size: 35px;"">别人</p>","e","categorize-html","181","252114","0.0-6.0-1.0-8.0-1.36","3","3","4","4","3","3","4","4","3","4","4","4","4","5","5","4","5","4","5","4","2","1","2","1","1","2","4","4","1","1","0","1","1","0","0","0","0","0","1","1","0","1","0","1","5","2","3","2","2","1","4","4","3","4","2","790000811211104258","张","672","","","","","","","","","","","","","","","","","","","true","14","4","moral","736","other","别人","","","","","","","","","","","","","","","","",""
"null","","null","html-keyboard-response","182","252365","0.0-6.0-1.0-8.0-0.37","3","3","4","4","3","3","4","4","3","4","4","4","4","5","5","4","5","4","5","4","2","1","2","1","1","2","4","4","1","1","0","1","1","0","0","0","0","0","1","1","0","1","0","1","5","2","3","2","2","1","4","4","3","4","2","790000811211104258","张","672","","","","","","","","","","","","","","","","","","","","","","","","","","","","","","","","","","","","","","","","","",""
"1535","<p style=""color:white; font-size: 35px;"">君子</p>","i","categorize-html","183","253901","0.0-6.0-1.0-8.0-1.37","3","3","4","4","3","3","4","4","3","4","4","4","4","5","5","4","5","4","5","4","2","1","2","1","1","2","4","4","1","1","0","1","1","0","0","0","0","0","1","1","0","1","0","1","5","2","3","2","2","1","4","4","3","4","2","790000811211104258","张","672","","","","","","","","","","","","","","","","","","","true","14","4","moral","1535","positive","君子","","","","","","","","","","","","","","","","",""
"null","","null","html-keyboard-response","184","254153","0.0-6.0-1.0-8.0-0.38","3","3","4","4","3","3","4","4","3","4","4","4","4","5","5","4","5","4","5","4","2","1","2","1","1","2","4","4","1","1","0","1","1","0","0","0","0","0","1","1","0","1","0","1","5","2","3","2","2","1","4","4","3","4","2","790000811211104258","张","672","","","","","","","","","","","","","","","","","","","","","","","","","","","","","","","","","","","","","","","","","",""
"551","<p style=""color:rgb(150, 250, 100); font-size: 35px;"">本人</p>","i","categorize-html","185","254705","0.0-6.0-1.0-8.0-1.38","3","3","4","4","3","3","4","4","3","4","4","4","4","5","5","4","5","4","5","4","2","1","2","1","1","2","4","4","1","1","0","1","1","0","0","0","0","0","1","1","0","1","0","1","5","2","3","2","2","1","4","4","3","4","2","790000811211104258","张","672","","","","","","","","","","","","","","","","","","","true","14","4","moral","551","self","本人","","","","","","","","","","","","","","","","",""
"null","","null","html-keyboard-response","186","254957","0.0-6.0-1.0-8.0-0.39","3","3","4","4","3","3","4","4","3","4","4","4","4","5","5","4","5","4","5","4","2","1","2","1","1","2","4","4","1","1","0","1","1","0","0","0","0","0","1","1","0","1","0","1","5","2","3","2","2","1","4","4","3","4","2","790000811211104258","张","672","","","","","","","","","","","","","","","","","","","","","","","","","","","","","","","","","","","","","","","","","",""
"562","<p style=""color:white; font-size: 35px;"">卑鄙</p>","e","categorize-html","187","255521","0.0-6.0-1.0-8.0-1.39","3","3","4","4","3","3","4","4","3","4","4","4","4","5","5","4","5","4","5","4","2","1","2","1","1","2","4","4","1","1","0","1","1","0","0","0","0","0","1","1","0","1","0","1","5","2","3","2","2","1","4","4","3","4","2","790000811211104258","张","672","","","","","","","","","","","","","","","","","","","true","14","4","moral","562","negative","卑鄙","","","","","","","","","","","","","","","","",""
"null","","null","html-keyboard-response","188","255772","0.0-6.0-1.0-8.0-0.40","3","3","4","4","3","3","4","4","3","4","4","4","4","5","5","4","5","4","5","4","2","1","2","1","1","2","4","4","1","1","0","1","1","0","0","0","0","0","1","1","0","1","0","1","5","2","3","2","2","1","4","4","3","4","2","790000811211104258","张","672","","","","","","","","","","","","","","","","","","","","","","","","","","","","","","","","","","","","","","","","","",""
"575","<p style=""color:rgb(150, 250, 100); font-size: 35px;"">自己</p>","i","categorize-html","189","256350","0.0-6.0-1.0-8.0-1.40","3","3","4","4","3","3","4","4","3","4","4","4","4","5","5","4","5","4","5","4","2","1","2","1","1","2","4","4","1","1","0","1","1","0","0","0","0","0","1","1","0","1","0","1","5","2","3","2","2","1","4","4","3","4","2","790000811211104258","张","672","","","","","","","","","","","","","","","","","","","true","14","4","moral","575","self","自己","","","","","","","","","","","","","","","","",""
"null","","null","html-keyboard-response","190","256600","0.0-6.0-1.0-8.0-0.41","3","3","4","4","3","3","4","4","3","4","4","4","4","5","5","4","5","4","5","4","2","1","2","1","1","2","4","4","1","1","0","1","1","0","0","0","0","0","1","1","0","1","0","1","5","2","3","2","2","1","4","4","3","4","2","790000811211104258","张","672","","","","","","","","","","","","","","","","","","","","","","","","","","","","","","","","","","","","","","","","","",""
"829","<p style=""color:white; font-size: 35px;"">不仁</p>","e","categorize-html","191","257431","0.0-6.0-1.0-8.0-1.41","3","3","4","4","3","3","4","4","3","4","4","4","4","5","5","4","5","4","5","4","2","1","2","1","1","2","4","4","1","1","0","1","1","0","0","0","0","0","1","1","0","1","0","1","5","2","3","2","2","1","4","4","3","4","2","790000811211104258","张","672","","","","","","","","","","","","","","","","","","","true","14","4","moral","829","negative","不仁","","","","","","","","","","","","","","","","",""
"null","","null","html-keyboard-response","192","257682","0.0-6.0-1.0-8.0-0.42","3","3","4","4","3","3","4","4","3","4","4","4","4","5","5","4","5","4","5","4","2","1","2","1","1","2","4","4","1","1","0","1","1","0","0","0","0","0","1","1","0","1","0","1","5","2","3","2","2","1","4","4","3","4","2","790000811211104258","张","672","","","","","","","","","","","","","","","","","","","","","","","","","","","","","","","","","","","","","","","","","",""
