"rt","stimulus","response","trial_type","trial_index","time_elapsed","internal_node_id","ses_1","ses_2","ses_3","ses_4","ses_5","ses_6","ses_7","ses_8","ses_9","ses_10","coreself_1","coreself_2","coreself_3","coreself_4","coreself_5","coreself_6","coreself_7","coreself_8","coreself_9","coreself_10","SGPS_1","SGPS_2","SGPS_3","SGPS_4","SGPS_5","SGPS_6","SGPS_7","SGPS_8","SGPS_9","NPI1","NPI2","NPI3","NPI4","NPI5","NPI6","NPI7","NPI8","NPI9","NPI10","NPI11","NPI12","NPI13","NPI14","NPI15","hsns_1","hsns_2","hsns_3","hsns_4","hsns_5","trap1","hsns_6","hsns_7","hsns_8","hsns_9","hsns_10","subj_idx","friend_name","ParticipantID","value","success","user_agent","responses","item_order","radio_event_ids","radio_event_times","key_event_times","mouse_event_times","straightlining","zigzagging","honeypot","timeout","failed_images","failed_audio","failed_video","view_history","response_type","key_press","avg_frame_time","center_x","center_y","correct_response","correct","identity","Image","word","condition","task_id","screen_id","time_stamp","version_attrib","version_target","IAT","RT","varname","summary","version_attrib2","version_target2","question_order","correct_answer","trap1_item"
"18398","
   <p><div style = ""color: white;font-size:25px;"">您好，欢迎参加本次实验。</div> </p>
   <p><div style = ""color: white;font-size:25px;"">为充分保障您的权利，请确保您已经知晓并同意《参与实验同意书》以及《数据公开知情同意书》。</div></p>
   <p><div style = ""color: white;font-size:25px;"">如果您未见过上述内容，请咨询实验员。</div></p>
   <p><div style = ""color: white;font-size:25px;"">如果您选择继续实验，则表示您已经清楚两份知情同意书的内容并同意。</div></p>
   <p><div style = ""color: pink;font-size:30px;"">请确保您记得day0的实验编号，您将在本次实验输入该编号，若您忘记，请咨询实验员后作答。</div></p>
   <p><div style = ""color: lightblue;font-size:25px;"">请您尽可能认真地作答，我们将依据您在各问卷和按键任务中的作答质量发放报酬。</div></p>
   <p> <div style = ""color: green;font-size:25px;""><按空格键至下页></div> </p>
   "," ","html-keyboard-response","0","18402","0.0-0.0","3","3","3","3","2","3","3","3","3","3","3","2","2","3","2","4","3","1","3","4","3","4","3","4","4","3","4","4","5","1","0","1","1","0","0","1","1","1","1","1","0","1","0","1","4","4","3","2","5","3","2","4","2","4","5","689594271669420032","李","592","","","","","","","","","","","","","","","","","","","","","","","","","","","","","","","","","","","","","","","","","",""
"","","","call-function","1","18407","0.0-1.0-0.0","3","3","3","3","2","3","3","3","3","3","3","2","2","3","2","4","3","1","3","4","3","4","3","4","4","3","4","4","5","1","0","1","1","0","0","1","1","1","1","1","0","1","0","1","4","4","3","2","5","3","2","4","2","4","5","689594271669420032","李","592","","","","","","","","","","","","","","","","","","","","","","","","","","","","","","","","","","","","","","","","","",""
"27480","","{""friend_name"":""李"",""ParticipantID"":""592""}","survey-html-form","2","45888","0.0-1.0-1.0","3","3","3","3","2","3","3","3","3","3","3","2","2","3","2","4","3","1","3","4","3","4","3","4","4","3","4","4","5","1","0","1","1","0","0","1","1","1","1","1","0","1","0","1","4","4","3","2","5","3","2","4","2","4","5","689594271669420032","李","592","","","","","","","","","","","","","","","","","","","","","","","","","","","","","","","","","","","","","","","","","",""
"","","","fullscreen","3","69181","0.0-2.0","3","3","3","3","2","3","3","3","3","3","3","2","2","3","2","4","3","1","3","4","3","4","3","4","4","3","4","4","5","1","0","1","1","0","0","1","1","1","1","1","0","1","0","1","4","4","3","2","5","3","2","4","2","4","5","689594271669420032","李","592","","true","{}","","","","","","","","","","","","","","","","","","","","","","","","","","","","","","","","","","","","","","",""
"102394.29999999702","","{""Q01"":""3"",""Q02"":""3"",""Q03"":""3"",""Q04"":""3"",""Q05"":""2"",""Q06"":""3"",""Q07"":""3"",""Q08"":""3"",""Q09"":""3"",""Q10"":""3""}","survey-template","4","171580","0.0-3.0","3","3","3","3","2","3","3","3","3","3","3","2","2","3","2","4","3","1","3","4","3","4","3","4","4","3","4","4","5","1","0","1","1","0","0","1","1","1","1","1","0","1","0","1","4","4","3","2","5","3","2","4","2","4","5","689594271669420032","李","592","","","","{""Q01"":""3"",""Q02"":""3"",""Q03"":""3"",""Q04"":""3"",""Q05"":""2"",""Q06"":""3"",""Q07"":""3"",""Q08"":""3"",""Q09"":""3"",""Q10"":""3""}","[0,1,2,3,4,5,6,7,8,9]","[""Q01"",""Q02"",""Q03"",""Q04"",""Q05"",""Q05"",""Q06"",""Q07"",""Q07"",""Q08"",""Q09"",""Q10""]","[7961.29999999702,11991.09999999404,16683.5,22265.39999999106,27574.59999999404,28890.39999999106,35997.69999998808,42671.09999999404,45642.39999999106,56253.59999999404,57619.69999998808,59580.89999999106]","[]","[7961.29999999702,11991.09999999404,16683.5,22265.39999999106,27574.59999999404,28890.39999999106,35997.69999998808,42671.09999999404,45642.39999999106,56253.59999999404,57619.69999998808,59580.89999999106,102393.29999999702]","0.6","0.3333333333333333","0","","","","","","","","","","","","","","","","","","","","","","","","","","","","","",""
"113437.5","","{""Q01"":""3"",""Q02"":""2"",""Q03"":""2"",""Q04"":""3"",""Q05"":""2"",""Q06"":""4"",""Q07"":""3"",""Q08"":""1"",""Q09"":""3"",""Q10"":""4""}","survey-template","5","285023","0.0-4.0","3","3","3","3","2","3","3","3","3","3","3","2","2","3","2","4","3","1","3","4","3","4","3","4","4","3","4","4","5","1","0","1","1","0","0","1","1","1","1","1","0","1","0","1","4","4","3","2","5","3","2","4","2","4","5","689594271669420032","李","592","","","","{""Q01"":""3"",""Q02"":""2"",""Q03"":""2"",""Q04"":""3"",""Q05"":""2"",""Q06"":""4"",""Q07"":""3"",""Q08"":""1"",""Q09"":""3"",""Q10"":""4""}","[0,1,2,3,4,5,6,7,8,9]","[""Q01"",""Q02"",""Q03"",""Q04"",""Q05"",""Q06"",""Q07"",""Q08"",""Q07"",""Q08"",""Q09"",""Q10""]","[9027.40000000596,13569.70000000298,16440,19987.30000001192,24478.60000000894,29941.70000000298,42159.60000000894,57548,59225.90000000596,61756.5,68355.70000000298,71775.20000000298]","[]","[9027.40000000596,13569.70000000298,16440,19987.30000001192,24478.60000000894,29941.70000000298,42159.60000000894,57548,59225.90000000596,61756.5,68355.70000000298,71775.20000000298,113435.90000000596]","0.4","0.5555555555555556","0","","","","","","","","","","","","","","","","","","","","","","","","","","","","","",""
"","","","preload","6","285312","0.0-5.0","3","3","3","3","2","3","3","3","3","3","3","2","2","3","2","4","3","1","3","4","3","4","3","4","4","3","4","4","5","1","0","1","1","0","0","1","1","1","1","1","0","1","0","1","4","4","3","2","5","3","2","4","2","4","5","689594271669420032","李","592","","true","","","","","","","","","","","false","[]","[]","[]","","","","","","","","","","","","","","","","","","","","","","","","","",""
"23941","","","instructions","7","309255","0.0-6.0","3","3","3","3","2","3","3","3","3","3","3","2","2","3","2","4","3","1","3","4","3","4","3","4","4","3","4","4","5","1","0","1","1","0","0","1","1","1","1","1","0","1","0","1","4","4","3","2","5","3","2","4","2","4","5","689594271669420032","李","592","","","","","","","","","","","","","","","","","[{""page_index"":0,""viewing_time"":23940}]","","","","","","","","","","","","","","","","","","","","","","","","",""
"44826","","","instructions","8","354086","0.0-7.0-0.0-0.0","3","3","3","3","2","3","3","3","3","3","3","2","2","3","2","4","3","1","3","4","3","4","3","4","4","3","4","4","5","1","0","1","1","0","0","1","1","1","1","1","0","1","0","1","4","4","3","2","5","3","2","4","2","4","5","689594271669420032","李","592","","","","","","","","","","","","","","","","","[{""page_index"":0,""viewing_time"":17876},{""page_index"":1,""viewing_time"":23812},{""page_index"":2,""viewing_time"":3138}]","","","","","","","","","","","","","","","","","","","","","","","","",""
"null","","null","psychophysics","9","356311","0.0-7.0-0.0-1.0-0.0-0.0","3","3","3","3","2","3","3","3","3","3","3","2","2","3","2","4","3","1","3","4","3","4","3","4","4","3","4","4","5","1","0","1","1","0","0","1","1","1","1","1","0","1","0","1","4","4","3","2","5","3","2","4","2","4","5","689594271669420032","李","592","","","","null","","","","","","","","","","","","","","key","null","16.66656060606042","747","463","f","false","match","img/hexagon.png","六边","六边","ALT1_1","prac_ALT1_1","","","","","","","","","","","",""
"null","<span class='add_' style='color:yellow; font-size: 70px;'> 太慢! </span>","null","html-keyboard-response","10","356826","0.0-7.0-0.0-1.0-0.0-1.0","3","3","3","3","2","3","3","3","3","3","3","2","2","3","2","4","3","1","3","4","3","4","3","4","4","3","4","4","5","1","0","1","1","0","0","1","1","1","1","1","0","1","0","1","4","4","3","2","5","3","2","4","2","4","5","689594271669420032","李","592","","","","","","","","","","","","","","","","","","","","","","","","","","","","","","feedback_test","","","","","","","","","","","",""
"741","","j","psychophysics","11","358569","0.0-7.0-0.0-1.0-0.0-0.1","3","3","3","3","2","3","3","3","3","3","3","2","2","3","2","4","3","1","3","4","3","4","3","4","4","3","4","4","5","1","0","1","1","0","0","1","1","1","1","1","0","1","0","1","4","4","3","2","5","3","2","4","2","4","5","689594271669420032","李","592","","","","nonmatch","","","","","","","","","","","","","","key","j","16.66990291262136","747","463","j","true","nonmatch","img/circle.png","六边","圆形","ALT1_1","prac_ALT1_1","","","","","","","","","","","",""
"null","<span style='color:GreenYellow; font-size: 70px;'>正确! </span>","null","html-keyboard-response","12","359072","0.0-7.0-0.0-1.0-0.0-1.1","3","3","3","3","2","3","3","3","3","3","3","2","2","3","2","4","3","1","3","4","3","4","3","4","4","3","4","4","5","1","0","1","1","0","0","1","1","1","1","1","0","1","0","1","4","4","3","2","5","3","2","4","2","4","5","689594271669420032","李","592","","","","","","","","","","","","","","","","","","","","","","","","","","","","","","feedback_test","","","","","","","","","","","",""
"629","","f","psychophysics","13","360704","0.0-7.0-0.0-1.0-0.0-0.2","3","3","3","3","2","3","3","3","3","3","3","2","2","3","2","4","3","1","3","4","3","4","3","4","4","3","4","4","5","1","0","1","1","0","0","1","1","1","1","1","0","1","0","1","4","4","3","2","5","3","2","4","2","4","5","689594271669420032","李","592","","","","match","","","","","","","","","","","","","","key","f","16.668247422680484","747","463","j","false","nonmatch","img/hexagon.png","圆形","六边","ALT1_1","prac_ALT1_1","","","","","","","","","","","",""
"null","<span style='color:red; font-size: 70px;'>错误! </span>","null","html-keyboard-response","14","361207","0.0-7.0-0.0-1.0-0.0-1.2","3","3","3","3","2","3","3","3","3","3","3","2","2","3","2","4","3","1","3","4","3","4","3","4","4","3","4","4","5","1","0","1","1","0","0","1","1","1","1","1","0","1","0","1","4","4","3","2","5","3","2","4","2","4","5","689594271669420032","李","592","","","","","","","","","","","","","","","","","","","","","","","","","","","","","","feedback_test","","","","","","","","","","","",""
"888","","f","psychophysics","15","363114","0.0-7.0-0.0-1.0-0.0-0.3","3","3","3","3","2","3","3","3","3","3","3","2","2","3","2","4","3","1","3","4","3","4","3","4","4","3","4","4","5","1","0","1","1","0","0","1","1","1","1","1","0","1","0","1","4","4","3","2","5","3","2","4","2","4","5","689594271669420032","李","592","","","","match","","","","","","","","","","","","","","key","f","16.66596491228107","747","463","j","false","nonmatch","img/hexagon.png","方形","六边","ALT1_1","prac_ALT1_1","","","","","","","","","","","",""
"null","<span style='color:red; font-size: 70px;'>错误! </span>","null","html-keyboard-response","16","363628","0.0-7.0-0.0-1.0-0.0-1.3","3","3","3","3","2","3","3","3","3","3","3","2","2","3","2","4","3","1","3","4","3","4","3","4","4","3","4","4","5","1","0","1","1","0","0","1","1","1","1","1","0","1","0","1","4","4","3","2","5","3","2","4","2","4","5","689594271669420032","李","592","","","","","","","","","","","","","","","","","","","","","","","","","","","","","","feedback_test","","","","","","","","","","","",""
"null","","null","psychophysics","17","365841","0.0-7.0-0.0-1.0-0.0-0.4","3","3","3","3","2","3","3","3","3","3","3","2","2","3","2","4","3","1","3","4","3","4","3","4","4","3","4","4","5","1","0","1","1","0","0","1","1","1","1","1","0","1","0","1","4","4","3","2","5","3","2","4","2","4","5","689594271669420032","李","592","","","","null","","","","","","","","","","","","","","key","null","16.66183206106879","747","463","j","false","nonmatch","img/triangle.png","圆形","三角","ALT1_1","prac_ALT1_1","","","","","","","","","","","",""
"null","<span class='add_' style='color:yellow; font-size: 70px;'> 太慢! </span>","null","html-keyboard-response","18","366348","0.0-7.0-0.0-1.0-0.0-1.4","3","3","3","3","2","3","3","3","3","3","3","2","2","3","2","4","3","1","3","4","3","4","3","4","4","3","4","4","5","1","0","1","1","0","0","1","1","1","1","1","0","1","0","1","4","4","3","2","5","3","2","4","2","4","5","689594271669420032","李","592","","","","","","","","","","","","","","","","","","","","","","","","","","","","","","feedback_test","","","","","","","","","","","",""
"672","","j","psychophysics","19","368033","0.0-7.0-0.0-1.0-0.0-0.5","3","3","3","3","2","3","3","3","3","3","3","2","2","3","2","4","3","1","3","4","3","4","3","4","4","3","4","4","5","1","0","1","1","0","0","1","1","1","1","1","0","1","0","1","4","4","3","2","5","3","2","4","2","4","5","689594271669420032","李","592","","","","nonmatch","","","","","","","","","","","","","","key","j","16.668000000000465","747","463","j","true","nonmatch","img/triangle.png","方形","三角","ALT1_1","prac_ALT1_1","","","","","","","","","","","",""
"null","<span style='color:GreenYellow; font-size: 70px;'>正确! </span>","null","html-keyboard-response","20","368550","0.0-7.0-0.0-1.0-0.0-1.5","3","3","3","3","2","3","3","3","3","3","3","2","2","3","2","4","3","1","3","4","3","4","3","4","4","3","4","4","5","1","0","1","1","0","0","1","1","1","1","1","0","1","0","1","4","4","3","2","5","3","2","4","2","4","5","689594271669420032","李","592","","","","","","","","","","","","","","","","","","","","","","","","","","","","","","feedback_test","","","","","","","","","","","",""
"486","","f","psychophysics","21","370046","0.0-7.0-0.0-1.0-0.0-0.6","3","3","3","3","2","3","3","3","3","3","3","2","2","3","2","4","3","1","3","4","3","4","3","4","4","3","4","4","5","1","0","1","1","0","0","1","1","1","1","1","0","1","0","1","4","4","3","2","5","3","2","4","2","4","5","689594271669420032","李","592","","","","match","","","","","","","","","","","","","","key","f","16.65505617977515","747","463","f","true","match","img/triangle.png","三角","三角","ALT1_1","prac_ALT1_1","","","","","","","","","","","",""
"null","<span style='color:GreenYellow; font-size: 70px;'>正确! </span>","null","html-keyboard-response","22","370561","0.0-7.0-0.0-1.0-0.0-1.6","3","3","3","3","2","3","3","3","3","3","3","2","2","3","2","4","3","1","3","4","3","4","3","4","4","3","4","4","5","1","0","1","1","0","0","1","1","1","1","1","0","1","0","1","4","4","3","2","5","3","2","4","2","4","5","689594271669420032","李","592","","","","","","","","","","","","","","","","","","","","","","","","","","","","","","feedback_test","","","","","","","","","","","",""
"604","","j","psychophysics","23","372180","0.0-7.0-0.0-1.0-0.0-0.7","3","3","3","3","2","3","3","3","3","3","3","2","2","3","2","4","3","1","3","4","3","4","3","4","4","3","4","4","5","1","0","1","1","0","0","1","1","1","1","1","0","1","0","1","4","4","3","2","5","3","2","4","2","4","5","689594271669420032","李","592","","","","nonmatch","","","","","","","","","","","","","","key","j","16.666666666666668","747","463","f","false","match","img/triangle.png","三角","三角","ALT1_1","prac_ALT1_1","","","","","","","","","","","",""
"null","<span style='color:red; font-size: 70px;'>错误! </span>","null","html-keyboard-response","24","372689","0.0-7.0-0.0-1.0-0.0-1.7","3","3","3","3","2","3","3","3","3","3","3","2","2","3","2","4","3","1","3","4","3","4","3","4","4","3","4","4","5","1","0","1","1","0","0","1","1","1","1","1","0","1","0","1","4","4","3","2","5","3","2","4","2","4","5","689594271669420032","李","592","","","","","","","","","","","","","","","","","","","","","","","","","","","","","","feedback_test","","","","","","","","","","","",""
"687","","f","psychophysics","25","374397","0.0-7.0-0.0-1.0-0.0-0.8","3","3","3","3","2","3","3","3","3","3","3","2","2","3","2","4","3","1","3","4","3","4","3","4","4","3","4","4","5","1","0","1","1","0","0","1","1","1","1","1","0","1","0","1","4","4","3","2","5","3","2","4","2","4","5","689594271669420032","李","592","","","","match","","","","","","","","","","","","","","key","f","16.57843137254902","747","463","f","true","match","img/hexagon.png","六边","六边","ALT1_1","prac_ALT1_1","","","","","","","","","","","",""
"null","<span style='color:GreenYellow; font-size: 70px;'>正确! </span>","null","html-keyboard-response","26","374906","0.0-7.0-0.0-1.0-0.0-1.8","3","3","3","3","2","3","3","3","3","3","3","2","2","3","2","4","3","1","3","4","3","4","3","4","4","3","4","4","5","1","0","1","1","0","0","1","1","1","1","1","0","1","0","1","4","4","3","2","5","3","2","4","2","4","5","689594271669420032","李","592","","","","","","","","","","","","","","","","","","","","","","","","","","","","","","feedback_test","","","","","","","","","","","",""
"723","","j","psychophysics","27","376632","0.0-7.0-0.0-1.0-0.0-0.9","3","3","3","3","2","3","3","3","3","3","3","2","2","3","2","4","3","1","3","4","3","4","3","4","4","3","4","4","5","1","0","1","1","0","0","1","1","1","1","1","0","1","0","1","4","4","3","2","5","3","2","4","2","4","5","689594271669420032","李","592","","","","nonmatch","","","","","","","","","","","","","","key","j","16.665242718446784","747","463","j","true","nonmatch","img/triangle.png","六边","三角","ALT1_1","prac_ALT1_1","","","","","","","","","","","",""
"null","<span style='color:GreenYellow; font-size: 70px;'>正确! </span>","null","html-keyboard-response","28","377141","0.0-7.0-0.0-1.0-0.0-1.9","3","3","3","3","2","3","3","3","3","3","3","2","2","3","2","4","3","1","3","4","3","4","3","4","4","3","4","4","5","1","0","1","1","0","0","1","1","1","1","1","0","1","0","1","4","4","3","2","5","3","2","4","2","4","5","689594271669420032","李","592","","","","","","","","","","","","","","","","","","","","","","","","","","","","","","feedback_test","","","","","","","","","","","",""
"760","","f","psychophysics","29","378903","0.0-7.0-0.0-1.0-0.0-0.10","3","3","3","3","2","3","3","3","3","3","3","2","2","3","2","4","3","1","3","4","3","4","3","4","4","3","4","4","5","1","0","1","1","0","0","1","1","1","1","1","0","1","0","1","4","4","3","2","5","3","2","4","2","4","5","689594271669420032","李","592","","","","match","","","","","","","","","","","","","","key","f","16.606730769231106","747","463","f","true","match","img/circle.png","圆形","圆形","ALT1_1","prac_ALT1_1","","","","","","","","","","","",""
"null","<span style='color:GreenYellow; font-size: 70px;'>正确! </span>","null","html-keyboard-response","30","379416","0.0-7.0-0.0-1.0-0.0-1.10","3","3","3","3","2","3","3","3","3","3","3","2","2","3","2","4","3","1","3","4","3","4","3","4","4","3","4","4","5","1","0","1","1","0","0","1","1","1","1","1","0","1","0","1","4","4","3","2","5","3","2","4","2","4","5","689594271669420032","李","592","","","","","","","","","","","","","","","","","","","","","","","","","","","","","","feedback_test","","","","","","","","","","","",""
"663","","j","psychophysics","31","381106","0.0-7.0-0.0-1.0-0.0-0.11","3","3","3","3","2","3","3","3","3","3","3","2","2","3","2","4","3","1","3","4","3","4","3","4","4","3","4","4","5","1","0","1","1","0","0","1","1","1","1","1","0","1","0","1","4","4","3","2","5","3","2","4","2","4","5","689594271669420032","李","592","","","","nonmatch","","","","","","","","","","","","","","key","j","16.635","747","463","f","false","match","img/triangle.png","三角","三角","ALT1_1","prac_ALT1_1","","","","","","","","","","","",""
"null","<span style='color:red; font-size: 70px;'>错误! </span>","null","html-keyboard-response","32","381612","0.0-7.0-0.0-1.0-0.0-1.11","3","3","3","3","2","3","3","3","3","3","3","2","2","3","2","4","3","1","3","4","3","4","3","4","4","3","4","4","5","1","0","1","1","0","0","1","1","1","1","1","0","1","0","1","4","4","3","2","5","3","2","4","2","4","5","689594271669420032","李","592","","","","","","","","","","","","","","","","","","","","","","","","","","","","","","feedback_test","","","","","","","","","","","",""
"706","","j","psychophysics","33","383331","0.0-7.0-0.0-1.0-0.0-0.12","3","3","3","3","2","3","3","3","3","3","3","2","2","3","2","4","3","1","3","4","3","4","3","4","4","3","4","4","5","1","0","1","1","0","0","1","1","1","1","1","0","1","0","1","4","4","3","2","5","3","2","4","2","4","5","689594271669420032","李","592","","","","nonmatch","","","","","","","","","","","","","","key","j","16.666666666666668","747","463","j","true","nonmatch","img/circle.png","三角","圆形","ALT1_1","prac_ALT1_1","","","","","","","","","","","",""
"null","<span style='color:GreenYellow; font-size: 70px;'>正确! </span>","null","html-keyboard-response","34","383844","0.0-7.0-0.0-1.0-0.0-1.12","3","3","3","3","2","3","3","3","3","3","3","2","2","3","2","4","3","1","3","4","3","4","3","4","4","3","4","4","5","1","0","1","1","0","0","1","1","1","1","1","0","1","0","1","4","4","3","2","5","3","2","4","2","4","5","689594271669420032","李","592","","","","","","","","","","","","","","","","","","","","","","","","","","","","","","feedback_test","","","","","","","","","","","",""
"777","","f","psychophysics","35","385637","0.0-7.0-0.0-1.0-0.0-0.13","3","3","3","3","2","3","3","3","3","3","3","2","2","3","2","4","3","1","3","4","3","4","3","4","4","3","4","4","5","1","0","1","1","0","0","1","1","1","1","1","0","1","0","1","4","4","3","2","5","3","2","4","2","4","5","689594271669420032","李","592","","","","match","","","","","","","","","","","","","","key","f","16.664150943395896","747","463","f","true","match","img/square.png","方形","方形","ALT1_1","prac_ALT1_1","","","","","","","","","","","",""
"null","<span style='color:GreenYellow; font-size: 70px;'>正确! </span>","null","html-keyboard-response","36","386160","0.0-7.0-0.0-1.0-0.0-1.13","3","3","3","3","2","3","3","3","3","3","3","2","2","3","2","4","3","1","3","4","3","4","3","4","4","3","4","4","5","1","0","1","1","0","0","1","1","1","1","1","0","1","0","1","4","4","3","2","5","3","2","4","2","4","5","689594271669420032","李","592","","","","","","","","","","","","","","","","","","","","","","","","","","","","","","feedback_test","","","","","","","","","","","",""
"676","","f","psychophysics","37","387855","0.0-7.0-0.0-1.0-0.0-0.14","3","3","3","3","2","3","3","3","3","3","3","2","2","3","2","4","3","1","3","4","3","4","3","4","4","3","4","4","5","1","0","1","1","0","0","1","1","1","1","1","0","1","0","1","4","4","3","2","5","3","2","4","2","4","5","689594271669420032","李","592","","","","match","","","","","","","","","","","","","","key","f","16.67","747","463","f","true","match","img/hexagon.png","六边","六边","ALT1_1","prac_ALT1_1","","","","","","","","","","","",""
"null","<span style='color:GreenYellow; font-size: 70px;'>正确! </span>","null","html-keyboard-response","38","388369","0.0-7.0-0.0-1.0-0.0-1.14","3","3","3","3","2","3","3","3","3","3","3","2","2","3","2","4","3","1","3","4","3","4","3","4","4","3","4","4","5","1","0","1","1","0","0","1","1","1","1","1","0","1","0","1","4","4","3","2","5","3","2","4","2","4","5","689594271669420032","李","592","","","","","","","","","","","","","","","","","","","","","","","","","","","","","","feedback_test","","","","","","","","","","","",""
"631","","f","psychophysics","39","390008","0.0-7.0-0.0-1.0-0.0-0.15","3","3","3","3","2","3","3","3","3","3","3","2","2","3","2","4","3","1","3","4","3","4","3","4","4","3","4","4","5","1","0","1","1","0","0","1","1","1","1","1","0","1","0","1","4","4","3","2","5","3","2","4","2","4","5","689594271669420032","李","592","","","","match","","","","","","","","","","","","","","key","f","16.663917525773435","747","463","f","true","match","img/circle.png","圆形","圆形","ALT1_1","prac_ALT1_1","","","","","","","","","","","",""
"null","<span style='color:GreenYellow; font-size: 70px;'>正确! </span>","null","html-keyboard-response","40","390519","0.0-7.0-0.0-1.0-0.0-1.15","3","3","3","3","2","3","3","3","3","3","3","2","2","3","2","4","3","1","3","4","3","4","3","4","4","3","4","4","5","1","0","1","1","0","0","1","1","1","1","1","0","1","0","1","4","4","3","2","5","3","2","4","2","4","5","689594271669420032","李","592","","","","","","","","","","","","","","","","","","","","","","","","","","","","","","feedback_test","","","","","","","","","","","",""
"665","","j","psychophysics","41","392192","0.0-7.0-0.0-1.0-0.0-0.16","3","3","3","3","2","3","3","3","3","3","3","2","2","3","2","4","3","1","3","4","3","4","3","4","4","3","4","4","5","1","0","1","1","0","0","1","1","1","1","1","0","1","0","1","4","4","3","2","5","3","2","4","2","4","5","689594271669420032","李","592","","","","nonmatch","","","","","","","","","","","","","","key","j","16.670707070707305","747","463","j","true","nonmatch","img/circle.png","方形","圆形","ALT1_1","prac_ALT1_1","","","","","","","","","","","",""
"null","<span style='color:GreenYellow; font-size: 70px;'>正确! </span>","null","html-keyboard-response","42","392701","0.0-7.0-0.0-1.0-0.0-1.16","3","3","3","3","2","3","3","3","3","3","3","2","2","3","2","4","3","1","3","4","3","4","3","4","4","3","4","4","5","1","0","1","1","0","0","1","1","1","1","1","0","1","0","1","4","4","3","2","5","3","2","4","2","4","5","689594271669420032","李","592","","","","","","","","","","","","","","","","","","","","","","","","","","","","","","feedback_test","","","","","","","","","","","",""
"775","","j","psychophysics","43","394502","0.0-7.0-0.0-1.0-0.0-0.17","3","3","3","3","2","3","3","3","3","3","3","2","2","3","2","4","3","1","3","4","3","4","3","4","4","3","4","4","5","1","0","1","1","0","0","1","1","1","1","1","0","1","0","1","4","4","3","2","5","3","2","4","2","4","5","689594271669420032","李","592","","","","nonmatch","","","","","","","","","","","","","","key","j","16.58691588785036","747","463","j","true","nonmatch","img/square.png","六边","方形","ALT1_1","prac_ALT1_1","","","","","","","","","","","",""
"null","<span style='color:GreenYellow; font-size: 70px;'>正确! </span>","null","html-keyboard-response","44","395019","0.0-7.0-0.0-1.0-0.0-1.17","3","3","3","3","2","3","3","3","3","3","3","2","2","3","2","4","3","1","3","4","3","4","3","4","4","3","4","4","5","1","0","1","1","0","0","1","1","1","1","1","0","1","0","1","4","4","3","2","5","3","2","4","2","4","5","689594271669420032","李","592","","","","","","","","","","","","","","","","","","","","","","","","","","","","","","feedback_test","","","","","","","","","","","",""
"544","","f","psychophysics","45","396571","0.0-7.0-0.0-1.0-0.0-0.18","3","3","3","3","2","3","3","3","3","3","3","2","2","3","2","4","3","1","3","4","3","4","3","4","4","3","4","4","5","1","0","1","1","0","0","1","1","1","1","1","0","1","0","1","4","4","3","2","5","3","2","4","2","4","5","689594271669420032","李","592","","","","match","","","","","","","","","","","","","","key","f","16.67065217391317","747","463","f","true","match","img/square.png","方形","方形","ALT1_1","prac_ALT1_1","","","","","","","","","","","",""
"null","<span style='color:GreenYellow; font-size: 70px;'>正确! </span>","null","html-keyboard-response","46","397072","0.0-7.0-0.0-1.0-0.0-1.18","3","3","3","3","2","3","3","3","3","3","3","2","2","3","2","4","3","1","3","4","3","4","3","4","4","3","4","4","5","1","0","1","1","0","0","1","1","1","1","1","0","1","0","1","4","4","3","2","5","3","2","4","2","4","5","689594271669420032","李","592","","","","","","","","","","","","","","","","","","","","","","","","","","","","","","feedback_test","","","","","","","","","","","",""
"613","","f","psychophysics","47","398690","0.0-7.0-0.0-1.0-0.0-0.19","3","3","3","3","2","3","3","3","3","3","3","2","2","3","2","4","3","1","3","4","3","4","3","4","4","3","4","4","5","1","0","1","1","0","0","1","1","1","1","1","0","1","0","1","4","4","3","2","5","3","2","4","2","4","5","689594271669420032","李","592","","","","match","","","","","","","","","","","","","","key","f","16.579166666666424","747","463","f","true","match","img/square.png","方形","方形","ALT1_1","prac_ALT1_1","","","","","","","","","","","",""
"null","<span style='color:GreenYellow; font-size: 70px;'>正确! </span>","null","html-keyboard-response","48","399192","0.0-7.0-0.0-1.0-0.0-1.19","3","3","3","3","2","3","3","3","3","3","3","2","2","3","2","4","3","1","3","4","3","4","3","4","4","3","4","4","5","1","0","1","1","0","0","1","1","1","1","1","0","1","0","1","4","4","3","2","5","3","2","4","2","4","5","689594271669420032","李","592","","","","","","","","","","","","","","","","","","","","","","","","","","","","","","feedback_test","","","","","","","","","","","",""
"696","","j","psychophysics","49","400894","0.0-7.0-0.0-1.0-0.0-0.20","3","3","3","3","2","3","3","3","3","3","3","2","2","3","2","4","3","1","3","4","3","4","3","4","4","3","4","4","5","1","0","1","1","0","0","1","1","1","1","1","0","1","0","1","4","4","3","2","5","3","2","4","2","4","5","689594271669420032","李","592","","","","nonmatch","","","","","","","","","","","","","","key","j","16.607999999999883","747","463","j","true","nonmatch","img/hexagon.png","三角","六边","ALT1_1","prac_ALT1_1","","","","","","","","","","","",""
"null","<span style='color:GreenYellow; font-size: 70px;'>正确! </span>","null","html-keyboard-response","50","401404","0.0-7.0-0.0-1.0-0.0-1.20","3","3","3","3","2","3","3","3","3","3","3","2","2","3","2","4","3","1","3","4","3","4","3","4","4","3","4","4","5","1","0","1","1","0","0","1","1","1","1","1","0","1","0","1","4","4","3","2","5","3","2","4","2","4","5","689594271669420032","李","592","","","","","","","","","","","","","","","","","","","","","","","","","","","","","","feedback_test","","","","","","","","","","","",""
"506","","f","psychophysics","51","402917","0.0-7.0-0.0-1.0-0.0-0.21","3","3","3","3","2","3","3","3","3","3","3","2","2","3","2","4","3","1","3","4","3","4","3","4","4","3","4","4","5","1","0","1","1","0","0","1","1","1","1","1","0","1","0","1","4","4","3","2","5","3","2","4","2","4","5","689594271669420032","李","592","","","","match","","","","","","","","","","","","","","key","f","16.671111111110722","747","463","f","true","match","img/circle.png","圆形","圆形","ALT1_1","prac_ALT1_1","","","","","","","","","","","",""
"null","<span style='color:GreenYellow; font-size: 70px;'>正确! </span>","null","html-keyboard-response","52","403431","0.0-7.0-0.0-1.0-0.0-1.21","3","3","3","3","2","3","3","3","3","3","3","2","2","3","2","4","3","1","3","4","3","4","3","4","4","3","4","4","5","1","0","1","1","0","0","1","1","1","1","1","0","1","0","1","4","4","3","2","5","3","2","4","2","4","5","689594271669420032","李","592","","","","","","","","","","","","","","","","","","","","","","","","","","","","","","feedback_test","","","","","","","","","","","",""
"677","","j","psychophysics","53","405121","0.0-7.0-0.0-1.0-0.0-0.22","3","3","3","3","2","3","3","3","3","3","3","2","2","3","2","4","3","1","3","4","3","4","3","4","4","3","4","4","5","1","0","1","1","0","0","1","1","1","1","1","0","1","0","1","4","4","3","2","5","3","2","4","2","4","5","689594271669420032","李","592","","","","nonmatch","","","","","","","","","","","","","","key","j","16.645","747","463","j","true","nonmatch","img/square.png","三角","方形","ALT1_1","prac_ALT1_1","","","","","","","","","","","",""
"null","<span style='color:GreenYellow; font-size: 70px;'>正确! </span>","null","html-keyboard-response","54","405632","0.0-7.0-0.0-1.0-0.0-1.22","3","3","3","3","2","3","3","3","3","3","3","2","2","3","2","4","3","1","3","4","3","4","3","4","4","3","4","4","5","1","0","1","1","0","0","1","1","1","1","1","0","1","0","1","4","4","3","2","5","3","2","4","2","4","5","689594271669420032","李","592","","","","","","","","","","","","","","","","","","","","","","","","","","","","","","feedback_test","","","","","","","","","","","",""
"849","","f","psychophysics","55","407507","0.0-7.0-0.0-1.0-0.0-0.23","3","3","3","3","2","3","3","3","3","3","3","2","2","3","2","4","3","1","3","4","3","4","3","4","4","3","4","4","5","1","0","1","1","0","0","1","1","1","1","1","0","1","0","1","4","4","3","2","5","3","2","4","2","4","5","689594271669420032","李","592","","","","match","","","","","","","","","","","","","","key","f","16.638738738738425","747","463","j","false","nonmatch","img/square.png","圆形","方形","ALT1_1","prac_ALT1_1","","","","","","","","","","","",""
"null","<span style='color:red; font-size: 70px;'>错误! </span>","null","html-keyboard-response","56","408021","0.0-7.0-0.0-1.0-0.0-1.23","3","3","3","3","2","3","3","3","3","3","3","2","2","3","2","4","3","1","3","4","3","4","3","4","4","3","4","4","5","1","0","1","1","0","0","1","1","1","1","1","0","1","0","1","4","4","3","2","5","3","2","4","2","4","5","689594271669420032","李","592","","","","","","","","","","","","","","","","","","","","","","","","","","","","","","feedback_test","","","","","","","","","","","",""
"768","","f","psychophysics","57","409796","0.0-7.0-0.0-1.0-0.0-0.24","3","3","3","3","2","3","3","3","3","3","3","2","2","3","2","4","3","1","3","4","3","4","3","4","4","3","4","4","5","1","0","1","1","0","0","1","1","1","1","1","0","1","0","1","4","4","3","2","5","3","2","4","2","4","5","689594271669420032","李","592","","","","match","","","","","","","","","","","","","","key","f","16.58867924528269","747","463","f","true","match","img/circle.png","圆形","圆形","ALT1_1","prac_ALT1_1","","","","","","","","","","","",""
"null","<span style='color:GreenYellow; font-size: 70px;'>正确! </span>","null","html-keyboard-response","58","410303","0.0-7.0-0.0-1.0-0.0-1.24","3","3","3","3","2","3","3","3","3","3","3","2","2","3","2","4","3","1","3","4","3","4","3","4","4","3","4","4","5","1","0","1","1","0","0","1","1","1","1","1","0","1","0","1","4","4","3","2","5","3","2","4","2","4","5","689594271669420032","李","592","","","","","","","","","","","","","","","","","","","","","","","","","","","","","","feedback_test","","","","","","","","","","","",""
"612","","j","psychophysics","59","411924","0.0-7.0-0.0-1.0-0.0-0.25","3","3","3","3","2","3","3","3","3","3","3","2","2","3","2","4","3","1","3","4","3","4","3","4","4","3","4","4","5","1","0","1","1","0","0","1","1","1","1","1","0","1","0","1","4","4","3","2","5","3","2","4","2","4","5","689594271669420032","李","592","","","","nonmatch","","","","","","","","","","","","","","key","j","16.608333333333576","747","463","f","false","match","img/hexagon.png","六边","六边","ALT1_1","prac_ALT1_1","","","","","","","","","","","",""
"null","<span style='color:red; font-size: 70px;'>错误! </span>","null","html-keyboard-response","60","412425","0.0-7.0-0.0-1.0-0.0-1.25","3","3","3","3","2","3","3","3","3","3","3","2","2","3","2","4","3","1","3","4","3","4","3","4","4","3","4","4","5","1","0","1","1","0","0","1","1","1","1","1","0","1","0","1","4","4","3","2","5","3","2","4","2","4","5","689594271669420032","李","592","","","","","","","","","","","","","","","","","","","","","","","","","","","","","","feedback_test","","","","","","","","","","","",""
"659","","f","psychophysics","61","414088","0.0-7.0-0.0-1.0-0.0-0.26","3","3","3","3","2","3","3","3","3","3","3","2","2","3","2","4","3","1","3","4","3","4","3","4","4","3","4","4","5","1","0","1","1","0","0","1","1","1","1","1","0","1","0","1","4","4","3","2","5","3","2","4","2","4","5","689594271669420032","李","592","","","","match","","","","","","","","","","","","","","key","f","16.66787878787874","747","463","f","true","match","img/hexagon.png","六边","六边","ALT1_1","prac_ALT1_1","","","","","","","","","","","",""
"null","<span style='color:GreenYellow; font-size: 70px;'>正确! </span>","null","html-keyboard-response","62","414599","0.0-7.0-0.0-1.0-0.0-1.26","3","3","3","3","2","3","3","3","3","3","3","2","2","3","2","4","3","1","3","4","3","4","3","4","4","3","4","4","5","1","0","1","1","0","0","1","1","1","1","1","0","1","0","1","4","4","3","2","5","3","2","4","2","4","5","689594271669420032","李","592","","","","","","","","","","","","","","","","","","","","","","","","","","","","","","feedback_test","","","","","","","","","","","",""
"636","","f","psychophysics","63","416247","0.0-7.0-0.0-1.0-0.0-0.27","3","3","3","3","2","3","3","3","3","3","3","2","2","3","2","4","3","1","3","4","3","4","3","4","4","3","4","4","5","1","0","1","1","0","0","1","1","1","1","1","0","1","0","1","4","4","3","2","5","3","2","4","2","4","5","689594271669420032","李","592","","","","match","","","","","","","","","","","","","","key","f","16.672448979592076","747","463","f","true","match","img/triangle.png","三角","三角","ALT1_1","prac_ALT1_1","","","","","","","","","","","",""
"null","<span style='color:GreenYellow; font-size: 70px;'>正确! </span>","null","html-keyboard-response","64","416751","0.0-7.0-0.0-1.0-0.0-1.27","3","3","3","3","2","3","3","3","3","3","3","2","2","3","2","4","3","1","3","4","3","4","3","4","4","3","4","4","5","1","0","1","1","0","0","1","1","1","1","1","0","1","0","1","4","4","3","2","5","3","2","4","2","4","5","689594271669420032","李","592","","","","","","","","","","","","","","","","","","","","","","","","","","","","","","feedback_test","","","","","","","","","","","",""
"696","","f","psychophysics","65","418458","0.0-7.0-0.0-1.0-0.0-0.28","3","3","3","3","2","3","3","3","3","3","3","2","2","3","2","4","3","1","3","4","3","4","3","4","4","3","4","4","5","1","0","1","1","0","0","1","1","1","1","1","0","1","0","1","4","4","3","2","5","3","2","4","2","4","5","689594271669420032","李","592","","","","match","","","","","","","","","","","","","","key","f","16.671287128712756","747","463","j","false","nonmatch","img/triangle.png","方形","三角","ALT1_1","prac_ALT1_1","","","","","","","","","","","",""
"null","<span style='color:red; font-size: 70px;'>错误! </span>","null","html-keyboard-response","66","418971","0.0-7.0-0.0-1.0-0.0-1.28","3","3","3","3","2","3","3","3","3","3","3","2","2","3","2","4","3","1","3","4","3","4","3","4","4","3","4","4","5","1","0","1","1","0","0","1","1","1","1","1","0","1","0","1","4","4","3","2","5","3","2","4","2","4","5","689594271669420032","李","592","","","","","","","","","","","","","","","","","","","","","","","","","","","","","","feedback_test","","","","","","","","","","","",""
"553","","j","psychophysics","67","420564","0.0-7.0-0.0-1.0-0.0-0.29","3","3","3","3","2","3","3","3","3","3","3","2","2","3","2","4","3","1","3","4","3","4","3","4","4","3","4","4","5","1","0","1","1","0","0","1","1","1","1","1","0","1","0","1","4","4","3","2","5","3","2","4","2","4","5","689594271669420032","李","592","","","","nonmatch","","","","","","","","","","","","","","key","j","16.667368421052263","747","463","j","true","nonmatch","img/square.png","三角","方形","ALT1_1","prac_ALT1_1","","","","","","","","","","","",""
"null","<span style='color:GreenYellow; font-size: 70px;'>正确! </span>","null","html-keyboard-response","68","421072","0.0-7.0-0.0-1.0-0.0-1.29","3","3","3","3","2","3","3","3","3","3","3","2","2","3","2","4","3","1","3","4","3","4","3","4","4","3","4","4","5","1","0","1","1","0","0","1","1","1","1","1","0","1","0","1","4","4","3","2","5","3","2","4","2","4","5","689594271669420032","李","592","","","","","","","","","","","","","","","","","","","","","","","","","","","","","","feedback_test","","","","","","","","","","","",""
"549","","f","psychophysics","69","422628","0.0-7.0-0.0-1.0-0.0-0.30","3","3","3","3","2","3","3","3","3","3","3","2","2","3","2","4","3","1","3","4","3","4","3","4","4","3","4","4","5","1","0","1","1","0","0","1","1","1","1","1","0","1","0","1","4","4","3","2","5","3","2","4","2","4","5","689594271669420032","李","592","","","","match","","","","","","","","","","","","","","key","f","16.668478260869566","747","463","j","false","nonmatch","img/triangle.png","六边","三角","ALT1_1","prac_ALT1_1","","","","","","","","","","","",""
"null","<span style='color:red; font-size: 70px;'>错误! </span>","null","html-keyboard-response","70","423132","0.0-7.0-0.0-1.0-0.0-1.30","3","3","3","3","2","3","3","3","3","3","3","2","2","3","2","4","3","1","3","4","3","4","3","4","4","3","4","4","5","1","0","1","1","0","0","1","1","1","1","1","0","1","0","1","4","4","3","2","5","3","2","4","2","4","5","689594271669420032","李","592","","","","","","","","","","","","","","","","","","","","","","","","","","","","","","feedback_test","","","","","","","","","","","",""
"974","","j","psychophysics","71","425118","0.0-7.0-0.0-1.0-0.0-0.31","3","3","3","3","2","3","3","3","3","3","3","2","2","3","2","4","3","1","3","4","3","4","3","4","4","3","4","4","5","1","0","1","1","0","0","1","1","1","1","1","0","1","0","1","4","4","3","2","5","3","2","4","2","4","5","689594271669420032","李","592","","","","nonmatch","","","","","","","","","","","","","","key","j","16.656779661016948","747","463","j","true","nonmatch","img/circle.png","三角","圆形","ALT1_1","prac_ALT1_1","","","","","","","","","","","",""
"null","<span style='color:GreenYellow; font-size: 70px;'>正确! </span>","null","html-keyboard-response","72","425650","0.0-7.0-0.0-1.0-0.0-1.31","3","3","3","3","2","3","3","3","3","3","3","2","2","3","2","4","3","1","3","4","3","4","3","4","4","3","4","4","5","1","0","1","1","0","0","1","1","1","1","1","0","1","0","1","4","4","3","2","5","3","2","4","2","4","5","689594271669420032","李","592","","","","","","","","","","","","","","","","","","","","","","","","","","","","","","feedback_test","","","","","","","","","","","",""
"626","","j","psychophysics","73","427287","0.0-7.0-0.0-1.0-0.0-0.32","3","3","3","3","2","3","3","3","3","3","3","2","2","3","2","4","3","1","3","4","3","4","3","4","4","3","4","4","5","1","0","1","1","0","0","1","1","1","1","1","0","1","0","1","4","4","3","2","5","3","2","4","2","4","5","689594271669420032","李","592","","","","nonmatch","","","","","","","","","","","","","","key","j","16.66597938144306","747","463","j","true","nonmatch","img/circle.png","六边","圆形","ALT1_1","prac_ALT1_1","","","","","","","","","","","",""
"null","<span style='color:GreenYellow; font-size: 70px;'>正确! </span>","null","html-keyboard-response","74","427797","0.0-7.0-0.0-1.0-0.0-1.32","3","3","3","3","2","3","3","3","3","3","3","2","2","3","2","4","3","1","3","4","3","4","3","4","4","3","4","4","5","1","0","1","1","0","0","1","1","1","1","1","0","1","0","1","4","4","3","2","5","3","2","4","2","4","5","689594271669420032","李","592","","","","","","","","","","","","","","","","","","","","","","","","","","","","","","feedback_test","","","","","","","","","","","",""
"697","","f","psychophysics","75","429502","0.0-7.0-0.0-1.0-0.0-0.33","3","3","3","3","2","3","3","3","3","3","3","2","2","3","2","4","3","1","3","4","3","4","3","4","4","3","4","4","5","1","0","1","1","0","0","1","1","1","1","1","0","1","0","1","4","4","3","2","5","3","2","4","2","4","5","689594271669420032","李","592","","","","match","","","","","","","","","","","","","","key","f","16.660396039604077","747","463","j","false","nonmatch","img/hexagon.png","三角","六边","ALT1_1","prac_ALT1_1","","","","","","","","","","","",""
"null","<span style='color:red; font-size: 70px;'>错误! </span>","null","html-keyboard-response","76","430009","0.0-7.0-0.0-1.0-0.0-1.33","3","3","3","3","2","3","3","3","3","3","3","2","2","3","2","4","3","1","3","4","3","4","3","4","4","3","4","4","5","1","0","1","1","0","0","1","1","1","1","1","0","1","0","1","4","4","3","2","5","3","2","4","2","4","5","689594271669420032","李","592","","","","","","","","","","","","","","","","","","","","","","","","","","","","","","feedback_test","","","","","","","","","","","",""
"721","","f","psychophysics","77","431735","0.0-7.0-0.0-1.0-0.0-0.34","3","3","3","3","2","3","3","3","3","3","3","2","2","3","2","4","3","1","3","4","3","4","3","4","4","3","4","4","5","1","0","1","1","0","0","1","1","1","1","1","0","1","0","1","4","4","3","2","5","3","2","4","2","4","5","689594271669420032","李","592","","","","match","","","","","","","","","","","","","","key","f","16.668155339805892","747","463","j","false","nonmatch","img/hexagon.png","方形","六边","ALT1_1","prac_ALT1_1","","","","","","","","","","","",""
"null","<span style='color:red; font-size: 70px;'>错误! </span>","null","html-keyboard-response","78","432242","0.0-7.0-0.0-1.0-0.0-1.34","3","3","3","3","2","3","3","3","3","3","3","2","2","3","2","4","3","1","3","4","3","4","3","4","4","3","4","4","5","1","0","1","1","0","0","1","1","1","1","1","0","1","0","1","4","4","3","2","5","3","2","4","2","4","5","689594271669420032","李","592","","","","","","","","","","","","","","","","","","","","","","","","","","","","","","feedback_test","","","","","","","","","","","",""
"976","","f","psychophysics","79","434240","0.0-7.0-0.0-1.0-0.0-0.35","3","3","3","3","2","3","3","3","3","3","3","2","2","3","2","4","3","1","3","4","3","4","3","4","4","3","4","4","5","1","0","1","1","0","0","1","1","1","1","1","0","1","0","1","4","4","3","2","5","3","2","4","2","4","5","689594271669420032","李","592","","","","match","","","","","","","","","","","","","","key","f","16.668907563025016","747","463","j","false","nonmatch","img/square.png","六边","方形","ALT1_1","prac_ALT1_1","","","","","","","","","","","",""
"null","<span style='color:red; font-size: 70px;'>错误! </span>","null","html-keyboard-response","80","434755","0.0-7.0-0.0-1.0-0.0-1.35","3","3","3","3","2","3","3","3","3","3","3","2","2","3","2","4","3","1","3","4","3","4","3","4","4","3","4","4","5","1","0","1","1","0","0","1","1","1","1","1","0","1","0","1","4","4","3","2","5","3","2","4","2","4","5","689594271669420032","李","592","","","","","","","","","","","","","","","","","","","","","","","","","","","","","","feedback_test","","","","","","","","","","","",""
"1013","","f","psychophysics","81","436777","0.0-7.0-0.0-1.0-0.0-0.36","3","3","3","3","2","3","3","3","3","3","3","2","2","3","2","4","3","1","3","4","3","4","3","4","4","3","4","4","5","1","0","1","1","0","0","1","1","1","1","1","0","1","0","1","4","4","3","2","5","3","2","4","2","4","5","689594271669420032","李","592","","","","match","","","","","","","","","","","","","","key","f","16.59416666666657","747","463","f","true","match","img/square.png","方形","方形","ALT1_1","prac_ALT1_1","","","","","","","","","","","",""
"null","<span style='color:GreenYellow; font-size: 70px;'>正确! </span>","null","html-keyboard-response","82","437293","0.0-7.0-0.0-1.0-0.0-1.36","3","3","3","3","2","3","3","3","3","3","3","2","2","3","2","4","3","1","3","4","3","4","3","4","4","3","4","4","5","1","0","1","1","0","0","1","1","1","1","1","0","1","0","1","4","4","3","2","5","3","2","4","2","4","5","689594271669420032","李","592","","","","","","","","","","","","","","","","","","","","","","","","","","","","","","feedback_test","","","","","","","","","","","",""
"594","","j","psychophysics","83","438890","0.0-7.0-0.0-1.0-0.0-0.37","3","3","3","3","2","3","3","3","3","3","3","2","2","3","2","4","3","1","3","4","3","4","3","4","4","3","4","4","5","1","0","1","1","0","0","1","1","1","1","1","0","1","0","1","4","4","3","2","5","3","2","4","2","4","5","689594271669420032","李","592","","","","nonmatch","","","","","","","","","","","","","","key","j","16.66842105263158","747","463","j","true","nonmatch","img/circle.png","方形","圆形","ALT1_1","prac_ALT1_1","","","","","","","","","","","",""
"null","<span style='color:GreenYellow; font-size: 70px;'>正确! </span>","null","html-keyboard-response","84","439410","0.0-7.0-0.0-1.0-0.0-1.37","3","3","3","3","2","3","3","3","3","3","3","2","2","3","2","4","3","1","3","4","3","4","3","4","4","3","4","4","5","1","0","1","1","0","0","1","1","1","1","1","0","1","0","1","4","4","3","2","5","3","2","4","2","4","5","689594271669420032","李","592","","","","","","","","","","","","","","","","","","","","","","","","","","","","","","feedback_test","","","","","","","","","","","",""
"787","","f","psychophysics","85","441216","0.0-7.0-0.0-1.0-0.0-0.38","3","3","3","3","2","3","3","3","3","3","3","2","2","3","2","4","3","1","3","4","3","4","3","4","4","3","4","4","5","1","0","1","1","0","0","1","1","1","1","1","0","1","0","1","4","4","3","2","5","3","2","4","2","4","5","689594271669420032","李","592","","","","match","","","","","","","","","","","","","","key","f","16.610280373831667","747","463","f","true","match","img/square.png","方形","方形","ALT1_1","prac_ALT1_1","","","","","","","","","","","",""
"null","<span style='color:GreenYellow; font-size: 70px;'>正确! </span>","null","html-keyboard-response","86","441731","0.0-7.0-0.0-1.0-0.0-1.38","3","3","3","3","2","3","3","3","3","3","3","2","2","3","2","4","3","1","3","4","3","4","3","4","4","3","4","4","5","1","0","1","1","0","0","1","1","1","1","1","0","1","0","1","4","4","3","2","5","3","2","4","2","4","5","689594271669420032","李","592","","","","","","","","","","","","","","","","","","","","","","","","","","","","","","feedback_test","","","","","","","","","","","",""
"536","","j","psychophysics","87","443279","0.0-7.0-0.0-1.0-0.0-0.39","3","3","3","3","2","3","3","3","3","3","3","2","2","3","2","4","3","1","3","4","3","4","3","4","4","3","4","4","5","1","0","1","1","0","0","1","1","1","1","1","0","1","0","1","4","4","3","2","5","3","2","4","2","4","5","689594271669420032","李","592","","","","nonmatch","","","","","","","","","","","","","","key","j","16.66813186813174","747","463","f","false","match","img/hexagon.png","六边","六边","ALT1_1","prac_ALT1_1","","","","","","","","","","","",""
"null","<span style='color:red; font-size: 70px;'>错误! </span>","null","html-keyboard-response","88","443784","0.0-7.0-0.0-1.0-0.0-1.39","3","3","3","3","2","3","3","3","3","3","3","2","2","3","2","4","3","1","3","4","3","4","3","4","4","3","4","4","5","1","0","1","1","0","0","1","1","1","1","1","0","1","0","1","4","4","3","2","5","3","2","4","2","4","5","689594271669420032","李","592","","","","","","","","","","","","","","","","","","","","","","","","","","","","","","feedback_test","","","","","","","","","","","",""
"701","","f","psychophysics","89","445497","0.0-7.0-0.0-1.0-0.0-0.40","3","3","3","3","2","3","3","3","3","3","3","2","2","3","2","4","3","1","3","4","3","4","3","4","4","3","4","4","5","1","0","1","1","0","0","1","1","1","1","1","0","1","0","1","4","4","3","2","5","3","2","4","2","4","5","689594271669420032","李","592","","","","match","","","","","","","","","","","","","","key","f","16.66568627450946","747","463","f","true","match","img/square.png","方形","方形","ALT1_1","prac_ALT1_1","","","","","","","","","","","",""
"null","<span style='color:GreenYellow; font-size: 70px;'>正确! </span>","null","html-keyboard-response","90","446002","0.0-7.0-0.0-1.0-0.0-1.40","3","3","3","3","2","3","3","3","3","3","3","2","2","3","2","4","3","1","3","4","3","4","3","4","4","3","4","4","5","1","0","1","1","0","0","1","1","1","1","1","0","1","0","1","4","4","3","2","5","3","2","4","2","4","5","689594271669420032","李","592","","","","","","","","","","","","","","","","","","","","","","","","","","","","","","feedback_test","","","","","","","","","","","",""
"702","","f","psychophysics","91","447731","0.0-7.0-0.0-1.0-0.0-0.41","3","3","3","3","2","3","3","3","3","3","3","2","2","3","2","4","3","1","3","4","3","4","3","4","4","3","4","4","5","1","0","1","1","0","0","1","1","1","1","1","0","1","0","1","4","4","3","2","5","3","2","4","2","4","5","689594271669420032","李","592","","","","match","","","","","","","","","","","","","","key","f","16.62233009708772","747","463","f","true","match","img/triangle.png","三角","三角","ALT1_1","prac_ALT1_1","","","","","","","","","","","",""
"null","<span style='color:GreenYellow; font-size: 70px;'>正确! </span>","null","html-keyboard-response","92","448236","0.0-7.0-0.0-1.0-0.0-1.41","3","3","3","3","2","3","3","3","3","3","3","2","2","3","2","4","3","1","3","4","3","4","3","4","4","3","4","4","5","1","0","1","1","0","0","1","1","1","1","1","0","1","0","1","4","4","3","2","5","3","2","4","2","4","5","689594271669420032","李","592","","","","","","","","","","","","","","","","","","","","","","","","","","","","","","feedback_test","","","","","","","","","","","",""
"752","","j","psychophysics","93","449997","0.0-7.0-0.0-1.0-0.0-0.42","3","3","3","3","2","3","3","3","3","3","3","2","2","3","2","4","3","1","3","4","3","4","3","4","4","3","4","4","5","1","0","1","1","0","0","1","1","1","1","1","0","1","0","1","4","4","3","2","5","3","2","4","2","4","5","689594271669420032","李","592","","","","nonmatch","","","","","","","","","","","","","","key","j","16.620192307692307","747","463","j","true","nonmatch","img/square.png","圆形","方形","ALT1_1","prac_ALT1_1","","","","","","","","","","","",""
"null","<span style='color:GreenYellow; font-size: 70px;'>正确! </span>","null","html-keyboard-response","94","450509","0.0-7.0-0.0-1.0-0.0-1.42","3","3","3","3","2","3","3","3","3","3","3","2","2","3","2","4","3","1","3","4","3","4","3","4","4","3","4","4","5","1","0","1","1","0","0","1","1","1","1","1","0","1","0","1","4","4","3","2","5","3","2","4","2","4","5","689594271669420032","李","592","","","","","","","","","","","","","","","","","","","","","","","","","","","","","","feedback_test","","","","","","","","","","","",""
"744","","f","psychophysics","95","452256","0.0-7.0-0.0-1.0-0.0-0.43","3","3","3","3","2","3","3","3","3","3","3","2","2","3","2","4","3","1","3","4","3","4","3","4","4","3","4","4","5","1","0","1","1","0","0","1","1","1","1","1","0","1","0","1","4","4","3","2","5","3","2","4","2","4","5","689594271669420032","李","592","","","","match","","","","","","","","","","","","","","key","f","16.575961538461204","747","463","f","true","match","img/circle.png","圆形","圆形","ALT1_1","prac_ALT1_1","","","","","","","","","","","",""
"null","<span style='color:GreenYellow; font-size: 70px;'>正确! </span>","null","html-keyboard-response","96","452769","0.0-7.0-0.0-1.0-0.0-1.43","3","3","3","3","2","3","3","3","3","3","3","2","2","3","2","4","3","1","3","4","3","4","3","4","4","3","4","4","5","1","0","1","1","0","0","1","1","1","1","1","0","1","0","1","4","4","3","2","5","3","2","4","2","4","5","689594271669420032","李","592","","","","","","","","","","","","","","","","","","","","","","","","","","","","","","feedback_test","","","","","","","","","","","",""
"795","","f","psychophysics","97","454575","0.0-7.0-0.0-1.0-0.0-0.44","3","3","3","3","2","3","3","3","3","3","3","2","2","3","2","4","3","1","3","4","3","4","3","4","4","3","4","4","5","1","0","1","1","0","0","1","1","1","1","1","0","1","0","1","4","4","3","2","5","3","2","4","2","4","5","689594271669420032","李","592","","","","match","","","","","","","","","","","","","","key","f","16.65514018691567","747","463","f","true","match","img/triangle.png","三角","三角","ALT1_1","prac_ALT1_1","","","","","","","","","","","",""
"null","<span style='color:GreenYellow; font-size: 70px;'>正确! </span>","null","html-keyboard-response","98","455085","0.0-7.0-0.0-1.0-0.0-1.44","3","3","3","3","2","3","3","3","3","3","3","2","2","3","2","4","3","1","3","4","3","4","3","4","4","3","4","4","5","1","0","1","1","0","0","1","1","1","1","1","0","1","0","1","4","4","3","2","5","3","2","4","2","4","5","689594271669420032","李","592","","","","","","","","","","","","","","","","","","","","","","","","","","","","","","feedback_test","","","","","","","","","","","",""
"612","","f","psychophysics","99","456708","0.0-7.0-0.0-1.0-0.0-0.45","3","3","3","3","2","3","3","3","3","3","3","2","2","3","2","4","3","1","3","4","3","4","3","4","4","3","4","4","5","1","0","1","1","0","0","1","1","1","1","1","0","1","0","1","4","4","3","2","5","3","2","4","2","4","5","689594271669420032","李","592","","","","match","","","","","","","","","","","","","","key","f","16.668749999999516","747","463","f","true","match","img/circle.png","圆形","圆形","ALT1_1","prac_ALT1_1","","","","","","","","","","","",""
"null","<span style='color:GreenYellow; font-size: 70px;'>正确! </span>","null","html-keyboard-response","100","457221","0.0-7.0-0.0-1.0-0.0-1.45","3","3","3","3","2","3","3","3","3","3","3","2","2","3","2","4","3","1","3","4","3","4","3","4","4","3","4","4","5","1","0","1","1","0","0","1","1","1","1","1","0","1","0","1","4","4","3","2","5","3","2","4","2","4","5","689594271669420032","李","592","","","","","","","","","","","","","","","","","","","","","","","","","","","","","","feedback_test","","","","","","","","","","","",""
"813","","j","psychophysics","101","459042","0.0-7.0-0.0-1.0-0.0-0.46","3","3","3","3","2","3","3","3","3","3","3","2","2","3","2","4","3","1","3","4","3","4","3","4","4","3","4","4","5","1","0","1","1","0","0","1","1","1","1","1","0","1","0","1","4","4","3","2","5","3","2","4","2","4","5","689594271669420032","李","592","","","","nonmatch","","","","","","","","","","","","","","key","j","16.672222222222008","747","463","j","true","nonmatch","img/triangle.png","圆形","三角","ALT1_1","prac_ALT1_1","","","","","","","","","","","",""
"null","<span style='color:GreenYellow; font-size: 70px;'>正确! </span>","null","html-keyboard-response","102","459552","0.0-7.0-0.0-1.0-0.0-1.46","3","3","3","3","2","3","3","3","3","3","3","2","2","3","2","4","3","1","3","4","3","4","3","4","4","3","4","4","5","1","0","1","1","0","0","1","1","1","1","1","0","1","0","1","4","4","3","2","5","3","2","4","2","4","5","689594271669420032","李","592","","","","","","","","","","","","","","","","","","","","","","","","","","","","","","feedback_test","","","","","","","","","","","",""
"799","","f","psychophysics","103","461362","0.0-7.0-0.0-1.0-0.0-0.47","3","3","3","3","2","3","3","3","3","3","3","2","2","3","2","4","3","1","3","4","3","4","3","4","4","3","4","4","5","1","0","1","1","0","0","1","1","1","1","1","0","1","0","1","4","4","3","2","5","3","2","4","2","4","5","689594271669420032","李","592","","","","match","","","","","","","","","","","","","","key","f","16.66822429906542","747","463","j","false","nonmatch","img/hexagon.png","圆形","六边","ALT1_1","prac_ALT1_1","","","","","","","","","","","",""
"null","<span style='color:red; font-size: 70px;'>错误! </span>","null","html-keyboard-response","104","461864","0.0-7.0-0.0-1.0-0.0-1.47","3","3","3","3","2","3","3","3","3","3","3","2","2","3","2","4","3","1","3","4","3","4","3","4","4","3","4","4","5","1","0","1","1","0","0","1","1","1","1","1","0","1","0","1","4","4","3","2","5","3","2","4","2","4","5","689594271669420032","李","592","","","","","","","","","","","","","","","","","","","","","","","","","","","","","","feedback_test","","","","","","","","","","","",""
"22255","<style>.context{color:white; font-size: 35px; line-height:40px}</style>                            <div><p class='context'>您正确回答了69% 的试次。</p><p class='context'>您的平均反应时为699毫秒。</p><p class='context'>恭喜您完成练习。按空格键进入正式实验。</p><p class='footer' style='font-size: 35px; line-height:40px;'>请在进入正式实验之前将您的<span style='color: lightgreen;'>食指</span>放在电脑键盘的相应键位上进行按键。</p>"," ","html-keyboard-response","105","484125","0.0-7.0-0.0-2.0","3","3","3","3","2","3","3","3","3","3","3","2","2","3","2","4","3","1","3","4","3","4","3","4","4","3","4","4","5","1","0","1","1","0","0","1","1","1","1","1","0","1","0","1","4","4","3","2","5","3","2","4","2","4","5","689594271669420032","李","592","","","","","","","","","","","","","","","","","","","","","","","","","","","","","","","","","","","","","","","","","",""
"3455","
    <p style='color: white; font-size: 22px'>请您将手指放在按键上，准备进入正式的匹配任务。</p>
    <p> <div style = ""color: green""><按空格键进入下一阶段的匹配任务></div></p>
    "," ","html-keyboard-response","106","487586","0.0-7.0-0.0-3.0","3","3","3","3","2","3","3","3","3","3","3","2","2","3","2","4","3","1","3","4","3","4","3","4","4","3","4","4","5","1","0","1","1","0","0","1","1","1","1","1","0","1","0","1","4","4","3","2","5","3","2","4","2","4","5","689594271669420032","李","592","","","","","","","","","","","","","","","","","","","","","","","","","","","","","","","","","","","","","","","","","",""
"702","","f","psychophysics","107","489293","0.0-7.0-0.0-4.0-0.0-0.0","3","3","3","3","2","3","3","3","3","3","3","2","2","3","2","4","3","1","3","4","3","4","3","4","4","3","4","4","5","1","0","1","1","0","0","1","1","1","1","1","0","1","0","1","4","4","3","2","5","3","2","4","2","4","5","689594271669420032","李","592","","","","match","","","","","","","","","","","","","","key","f","16.64059405940548","747","463","f","true","match","img/hexagon.png","六边","六边","ALT1","formal_ALT1_1","","","","","","","","","","","",""
"null","<span style='color:GreenYellow; font-size: 70px;'>正确! </span>","null","html-keyboard-response","108","489806","0.0-7.0-0.0-4.0-0.0-1.0","3","3","3","3","2","3","3","3","3","3","3","2","2","3","2","4","3","1","3","4","3","4","3","4","4","3","4","4","5","1","0","1","1","0","0","1","1","1","1","1","0","1","0","1","4","4","3","2","5","3","2","4","2","4","5","689594271669420032","李","592","","","","","","","","","","","","","","","","","","","","","","","","","","","","","","feedback_test","","","","","","","","","","","",""
"657","","f","psychophysics","109","491471","0.0-7.0-0.0-4.0-0.0-0.1","3","3","3","3","2","3","3","3","3","3","3","2","2","3","2","4","3","1","3","4","3","4","3","4","4","3","4","4","5","1","0","1","1","0","0","1","1","1","1","1","0","1","0","1","4","4","3","2","5","3","2","4","2","4","5","689594271669420032","李","592","","","","match","","","","","","","","","","","","","","key","f","16.668686868686397","747","463","j","false","nonmatch","img/hexagon.png","三角","六边","ALT1","formal_ALT1_1","","","","","","","","","","","",""
"null","<span style='color:red; font-size: 70px;'>错误! </span>","null","html-keyboard-response","110","491985","0.0-7.0-0.0-4.0-0.0-1.1","3","3","3","3","2","3","3","3","3","3","3","2","2","3","2","4","3","1","3","4","3","4","3","4","4","3","4","4","5","1","0","1","1","0","0","1","1","1","1","1","0","1","0","1","4","4","3","2","5","3","2","4","2","4","5","689594271669420032","李","592","","","","","","","","","","","","","","","","","","","","","","","","","","","","","","feedback_test","","","","","","","","","","","",""
"709","","f","psychophysics","111","493706","0.0-7.0-0.0-4.0-0.0-0.2","3","3","3","3","2","3","3","3","3","3","3","2","2","3","2","4","3","1","3","4","3","4","3","4","4","3","4","4","5","1","0","1","1","0","0","1","1","1","1","1","0","1","0","1","4","4","3","2","5","3","2","4","2","4","5","689594271669420032","李","592","","","","match","","","","","","","","","","","","","","key","f","16.665686274510033","747","463","f","true","match","img/hexagon.png","六边","六边","ALT1","formal_ALT1_1","","","","","","","","","","","",""
"null","<span style='color:GreenYellow; font-size: 70px;'>正确! </span>","null","html-keyboard-response","112","494217","0.0-7.0-0.0-4.0-0.0-1.2","3","3","3","3","2","3","3","3","3","3","3","2","2","3","2","4","3","1","3","4","3","4","3","4","4","3","4","4","5","1","0","1","1","0","0","1","1","1","1","1","0","1","0","1","4","4","3","2","5","3","2","4","2","4","5","689594271669420032","李","592","","","","","","","","","","","","","","","","","","","","","","","","","","","","","","feedback_test","","","","","","","","","","","",""
"624","","j","psychophysics","113","495871","0.0-7.0-0.0-4.0-0.0-0.3","3","3","3","3","2","3","3","3","3","3","3","2","2","3","2","4","3","1","3","4","3","4","3","4","4","3","4","4","5","1","0","1","1","0","0","1","1","1","1","1","0","1","0","1","4","4","3","2","5","3","2","4","2","4","5","689594271669420032","李","592","","","","nonmatch","","","","","","","","","","","","","","key","j","16.663265306122447","747","463","j","true","nonmatch","img/circle.png","六边","圆形","ALT1","formal_ALT1_1","","","","","","","","","","","",""
"null","<span style='color:GreenYellow; font-size: 70px;'>正确! </span>","null","html-keyboard-response","114","496385","0.0-7.0-0.0-4.0-0.0-1.3","3","3","3","3","2","3","3","3","3","3","3","2","2","3","2","4","3","1","3","4","3","4","3","4","4","3","4","4","5","1","0","1","1","0","0","1","1","1","1","1","0","1","0","1","4","4","3","2","5","3","2","4","2","4","5","689594271669420032","李","592","","","","","","","","","","","","","","","","","","","","","","","","","","","","","","feedback_test","","","","","","","","","","","",""
"644","","j","psychophysics","115","498039","0.0-7.0-0.0-4.0-0.0-0.4","3","3","3","3","2","3","3","3","3","3","3","2","2","3","2","4","3","1","3","4","3","4","3","4","4","3","4","4","5","1","0","1","1","0","0","1","1","1","1","1","0","1","0","1","4","4","3","2","5","3","2","4","2","4","5","689594271669420032","李","592","","","","nonmatch","","","","","","","","","","","","","","key","j","16.671428571428454","747","463","j","true","nonmatch","img/circle.png","三角","圆形","ALT1","formal_ALT1_1","","","","","","","","","","","",""
"null","<span style='color:GreenYellow; font-size: 70px;'>正确! </span>","null","html-keyboard-response","116","498549","0.0-7.0-0.0-4.0-0.0-1.4","3","3","3","3","2","3","3","3","3","3","3","2","2","3","2","4","3","1","3","4","3","4","3","4","4","3","4","4","5","1","0","1","1","0","0","1","1","1","1","1","0","1","0","1","4","4","3","2","5","3","2","4","2","4","5","689594271669420032","李","592","","","","","","","","","","","","","","","","","","","","","","","","","","","","","","feedback_test","","","","","","","","","","","",""
"759","","f","psychophysics","117","500318","0.0-7.0-0.0-4.0-0.0-0.5","3","3","3","3","2","3","3","3","3","3","3","2","2","3","2","4","3","1","3","4","3","4","3","4","4","3","4","4","5","1","0","1","1","0","0","1","1","1","1","1","0","1","0","1","4","4","3","2","5","3","2","4","2","4","5","689594271669420032","李","592","","","","match","","","","","","","","","","","","","","key","f","16.6695238095237","747","463","j","false","nonmatch","img/hexagon.png","圆形","六边","ALT1","formal_ALT1_1","","","","","","","","","","","",""
"null","<span style='color:red; font-size: 70px;'>错误! </span>","null","html-keyboard-response","118","500823","0.0-7.0-0.0-4.0-0.0-1.5","3","3","3","3","2","3","3","3","3","3","3","2","2","3","2","4","3","1","3","4","3","4","3","4","4","3","4","4","5","1","0","1","1","0","0","1","1","1","1","1","0","1","0","1","4","4","3","2","5","3","2","4","2","4","5","689594271669420032","李","592","","","","","","","","","","","","","","","","","","","","","","","","","","","","","","feedback_test","","","","","","","","","","","",""
"644","","j","psychophysics","119","502492","0.0-7.0-0.0-4.0-0.0-0.6","3","3","3","3","2","3","3","3","3","3","3","2","2","3","2","4","3","1","3","4","3","4","3","4","4","3","4","4","5","1","0","1","1","0","0","1","1","1","1","1","0","1","0","1","4","4","3","2","5","3","2","4","2","4","5","689594271669420032","李","592","","","","nonmatch","","","","","","","","","","","","","","key","j","16.672727272727037","747","463","j","true","nonmatch","img/circle.png","方形","圆形","ALT1","formal_ALT1_1","","","","","","","","","","","",""
"null","<span style='color:GreenYellow; font-size: 70px;'>正确! </span>","null","html-keyboard-response","120","503005","0.0-7.0-0.0-4.0-0.0-1.6","3","3","3","3","2","3","3","3","3","3","3","2","2","3","2","4","3","1","3","4","3","4","3","4","4","3","4","4","5","1","0","1","1","0","0","1","1","1","1","1","0","1","0","1","4","4","3","2","5","3","2","4","2","4","5","689594271669420032","李","592","","","","","","","","","","","","","","","","","","","","","","","","","","","","","","feedback_test","","","","","","","","","","","",""
"868","","j","psychophysics","121","504883","0.0-7.0-0.0-4.0-0.0-0.7","3","3","3","3","2","3","3","3","3","3","3","2","2","3","2","4","3","1","3","4","3","4","3","4","4","3","4","4","5","1","0","1","1","0","0","1","1","1","1","1","0","1","0","1","4","4","3","2","5","3","2","4","2","4","5","689594271669420032","李","592","","","","nonmatch","","","","","","","","","","","","","","key","j","16.646846846846742","747","463","j","true","nonmatch","img/triangle.png","圆形","三角","ALT1","formal_ALT1_1","","","","","","","","","","","",""
"null","<span style='color:GreenYellow; font-size: 70px;'>正确! </span>","null","html-keyboard-response","122","505395","0.0-7.0-0.0-4.0-0.0-1.7","3","3","3","3","2","3","3","3","3","3","3","2","2","3","2","4","3","1","3","4","3","4","3","4","4","3","4","4","5","1","0","1","1","0","0","1","1","1","1","1","0","1","0","1","4","4","3","2","5","3","2","4","2","4","5","689594271669420032","李","592","","","","","","","","","","","","","","","","","","","","","","","","","","","","","","feedback_test","","","","","","","","","","","",""
"564","","f","psychophysics","123","506961","0.0-7.0-0.0-4.0-0.0-0.8","3","3","3","3","2","3","3","3","3","3","3","2","2","3","2","4","3","1","3","4","3","4","3","4","4","3","4","4","5","1","0","1","1","0","0","1","1","1","1","1","0","1","0","1","4","4","3","2","5","3","2","4","2","4","5","689594271669420032","李","592","","","","match","","","","","","","","","","","","","","key","f","16.670473118279485","747","463","f","true","match","img/square.png","方形","方形","ALT1","formal_ALT1_1","","","","","","","","","","","",""
"null","<span style='color:GreenYellow; font-size: 70px;'>正确! </span>","null","html-keyboard-response","124","507463","0.0-7.0-0.0-4.0-0.0-1.8","3","3","3","3","2","3","3","3","3","3","3","2","2","3","2","4","3","1","3","4","3","4","3","4","4","3","4","4","5","1","0","1","1","0","0","1","1","1","1","1","0","1","0","1","4","4","3","2","5","3","2","4","2","4","5","689594271669420032","李","592","","","","","","","","","","","","","","","","","","","","","","","","","","","","","","feedback_test","","","","","","","","","","","",""
"662","","f","psychophysics","125","509144","0.0-7.0-0.0-4.0-0.0-0.9","3","3","3","3","2","3","3","3","3","3","3","2","2","3","2","4","3","1","3","4","3","4","3","4","4","3","4","4","5","1","0","1","1","0","0","1","1","1","1","1","0","1","0","1","4","4","3","2","5","3","2","4","2","4","5","689594271669420032","李","592","","","","match","","","","","","","","","","","","","","key","f","16.60505050505074","747","463","f","true","match","img/square.png","方形","方形","ALT1","formal_ALT1_1","","","","","","","","","","","",""
"null","<span style='color:GreenYellow; font-size: 70px;'>正确! </span>","null","html-keyboard-response","126","509652","0.0-7.0-0.0-4.0-0.0-1.9","3","3","3","3","2","3","3","3","3","3","3","2","2","3","2","4","3","1","3","4","3","4","3","4","4","3","4","4","5","1","0","1","1","0","0","1","1","1","1","1","0","1","0","1","4","4","3","2","5","3","2","4","2","4","5","689594271669420032","李","592","","","","","","","","","","","","","","","","","","","","","","","","","","","","","","feedback_test","","","","","","","","","","","",""
"570","","j","psychophysics","127","511234","0.0-7.0-0.0-4.0-0.0-0.10","3","3","3","3","2","3","3","3","3","3","3","2","2","3","2","4","3","1","3","4","3","4","3","4","4","3","4","4","5","1","0","1","1","0","0","1","1","1","1","1","0","1","0","1","4","4","3","2","5","3","2","4","2","4","5","689594271669420032","李","592","","","","nonmatch","","","","","","","","","","","","","","key","j","16.67234042553142","747","463","j","true","nonmatch","img/square.png","六边","方形","ALT1","formal_ALT1_1","","","","","","","","","","","",""
"null","<span style='color:GreenYellow; font-size: 70px;'>正确! </span>","null","html-keyboard-response","128","511740","0.0-7.0-0.0-4.0-0.0-1.10","3","3","3","3","2","3","3","3","3","3","3","2","2","3","2","4","3","1","3","4","3","4","3","4","4","3","4","4","5","1","0","1","1","0","0","1","1","1","1","1","0","1","0","1","4","4","3","2","5","3","2","4","2","4","5","689594271669420032","李","592","","","","","","","","","","","","","","","","","","","","","","","","","","","","","","feedback_test","","","","","","","","","","","",""
"638","","j","psychophysics","129","513386","0.0-7.0-0.0-4.0-0.0-0.11","3","3","3","3","2","3","3","3","3","3","3","2","2","3","2","4","3","1","3","4","3","4","3","4","4","3","4","4","5","1","0","1","1","0","0","1","1","1","1","1","0","1","0","1","4","4","3","2","5","3","2","4","2","4","5","689594271669420032","李","592","","","","nonmatch","","","","","","","","","","","","","","key","j","16.613265306122212","747","463","j","true","nonmatch","img/square.png","三角","方形","ALT1","formal_ALT1_1","","","","","","","","","","","",""
"null","<span style='color:GreenYellow; font-size: 70px;'>正确! </span>","null","html-keyboard-response","130","513900","0.0-7.0-0.0-4.0-0.0-1.11","3","3","3","3","2","3","3","3","3","3","3","2","2","3","2","4","3","1","3","4","3","4","3","4","4","3","4","4","5","1","0","1","1","0","0","1","1","1","1","1","0","1","0","1","4","4","3","2","5","3","2","4","2","4","5","689594271669420032","李","592","","","","","","","","","","","","","","","","","","","","","","","","","","","","","","feedback_test","","","","","","","","","","","",""
"550","","f","psychophysics","131","515476","0.0-7.0-0.0-4.0-0.0-0.12","3","3","3","3","2","3","3","3","3","3","3","2","2","3","2","4","3","1","3","4","3","4","3","4","4","3","4","4","5","1","0","1","1","0","0","1","1","1","1","1","0","1","0","1","4","4","3","2","5","3","2","4","2","4","5","689594271669420032","李","592","","","","match","","","","","","","","","","","","","","key","f","16.665591397849088","747","463","f","true","match","img/triangle.png","三角","三角","ALT1","formal_ALT1_1","","","","","","","","","","","",""
"null","<span style='color:GreenYellow; font-size: 70px;'>正确! </span>","null","html-keyboard-response","132","515987","0.0-7.0-0.0-4.0-0.0-1.12","3","3","3","3","2","3","3","3","3","3","3","2","2","3","2","4","3","1","3","4","3","4","3","4","4","3","4","4","5","1","0","1","1","0","0","1","1","1","1","1","0","1","0","1","4","4","3","2","5","3","2","4","2","4","5","689594271669420032","李","592","","","","","","","","","","","","","","","","","","","","","","","","","","","","","","feedback_test","","","","","","","","","","","",""
"693","","f","psychophysics","133","517690","0.0-7.0-0.0-4.0-0.0-0.13","3","3","3","3","2","3","3","3","3","3","3","2","2","3","2","4","3","1","3","4","3","4","3","4","4","3","4","4","5","1","0","1","1","0","0","1","1","1","1","1","0","1","0","1","4","4","3","2","5","3","2","4","2","4","5","689594271669420032","李","592","","","","match","","","","","","","","","","","","","","key","f","16.659405940593828","747","463","f","true","match","img/hexagon.png","六边","六边","ALT1","formal_ALT1_1","","","","","","","","","","","",""
"null","<span style='color:GreenYellow; font-size: 70px;'>正确! </span>","null","html-keyboard-response","134","518199","0.0-7.0-0.0-4.0-0.0-1.13","3","3","3","3","2","3","3","3","3","3","3","2","2","3","2","4","3","1","3","4","3","4","3","4","4","3","4","4","5","1","0","1","1","0","0","1","1","1","1","1","0","1","0","1","4","4","3","2","5","3","2","4","2","4","5","689594271669420032","李","592","","","","","","","","","","","","","","","","","","","","","","","","","","","","","","feedback_test","","","","","","","","","","","",""
"627","","f","psychophysics","135","519840","0.0-7.0-0.0-4.0-0.0-0.14","3","3","3","3","2","3","3","3","3","3","3","2","2","3","2","4","3","1","3","4","3","4","3","4","4","3","4","4","5","1","0","1","1","0","0","1","1","1","1","1","0","1","0","1","4","4","3","2","5","3","2","4","2","4","5","689594271669420032","李","592","","","","match","","","","","","","","","","","","","","key","f","16.668041237113282","747","463","f","true","match","img/square.png","方形","方形","ALT1","formal_ALT1_1","","","","","","","","","","","",""
"null","<span style='color:GreenYellow; font-size: 70px;'>正确! </span>","null","html-keyboard-response","136","520352","0.0-7.0-0.0-4.0-0.0-1.14","3","3","3","3","2","3","3","3","3","3","3","2","2","3","2","4","3","1","3","4","3","4","3","4","4","3","4","4","5","1","0","1","1","0","0","1","1","1","1","1","0","1","0","1","4","4","3","2","5","3","2","4","2","4","5","689594271669420032","李","592","","","","","","","","","","","","","","","","","","","","","","","","","","","","","","feedback_test","","","","","","","","","","","",""
"600","","f","psychophysics","137","521983","0.0-7.0-0.0-4.0-0.0-0.15","3","3","3","3","2","3","3","3","3","3","3","2","2","3","2","4","3","1","3","4","3","4","3","4","4","3","4","4","5","1","0","1","1","0","0","1","1","1","1","1","0","1","0","1","4","4","3","2","5","3","2","4","2","4","5","689594271669420032","李","592","","","","match","","","","","","","","","","","","","","key","f","16.65625","747","463","f","true","match","img/triangle.png","三角","三角","ALT1","formal_ALT1_1","","","","","","","","","","","",""
"null","<span style='color:GreenYellow; font-size: 70px;'>正确! </span>","null","html-keyboard-response","138","522486","0.0-7.0-0.0-4.0-0.0-1.15","3","3","3","3","2","3","3","3","3","3","3","2","2","3","2","4","3","1","3","4","3","4","3","4","4","3","4","4","5","1","0","1","1","0","0","1","1","1","1","1","0","1","0","1","4","4","3","2","5","3","2","4","2","4","5","689594271669420032","李","592","","","","","","","","","","","","","","","","","","","","","","","","","","","","","","feedback_test","","","","","","","","","","","",""
"700","","f","psychophysics","139","524197","0.0-7.0-0.0-4.0-0.0-0.16","3","3","3","3","2","3","3","3","3","3","3","2","2","3","2","4","3","1","3","4","3","4","3","4","4","3","4","4","5","1","0","1","1","0","0","1","1","1","1","1","0","1","0","1","4","4","3","2","5","3","2","4","2","4","5","689594271669420032","李","592","","","","match","","","","","","","","","","","","","","key","f","16.671287128712756","747","463","f","true","match","img/triangle.png","三角","三角","ALT1","formal_ALT1_1","","","","","","","","","","","",""
"null","<span style='color:GreenYellow; font-size: 70px;'>正确! </span>","null","html-keyboard-response","140","524703","0.0-7.0-0.0-4.0-0.0-1.16","3","3","3","3","2","3","3","3","3","3","3","2","2","3","2","4","3","1","3","4","3","4","3","4","4","3","4","4","5","1","0","1","1","0","0","1","1","1","1","1","0","1","0","1","4","4","3","2","5","3","2","4","2","4","5","689594271669420032","李","592","","","","","","","","","","","","","","","","","","","","","","","","","","","","","","feedback_test","","","","","","","","","","","",""
"580","","j","psychophysics","141","526295","0.0-7.0-0.0-4.0-0.0-0.17","3","3","3","3","2","3","3","3","3","3","3","2","2","3","2","4","3","1","3","4","3","4","3","4","4","3","4","4","5","1","0","1","1","0","0","1","1","1","1","1","0","1","0","1","4","4","3","2","5","3","2","4","2","4","5","689594271669420032","李","592","","","","nonmatch","","","","","","","","","","","","","","key","j","16.668085106382236","747","463","j","true","nonmatch","img/triangle.png","方形","三角","ALT1","formal_ALT1_1","","","","","","","","","","","",""
"null","<span style='color:GreenYellow; font-size: 70px;'>正确! </span>","null","html-keyboard-response","142","526807","0.0-7.0-0.0-4.0-0.0-1.17","3","3","3","3","2","3","3","3","3","3","3","2","2","3","2","4","3","1","3","4","3","4","3","4","4","3","4","4","5","1","0","1","1","0","0","1","1","1","1","1","0","1","0","1","4","4","3","2","5","3","2","4","2","4","5","689594271669420032","李","592","","","","","","","","","","","","","","","","","","","","","","","","","","","","","","feedback_test","","","","","","","","","","","",""
"541","","f","psychophysics","143","528360","0.0-7.0-0.0-4.0-0.0-0.18","3","3","3","3","2","3","3","3","3","3","3","2","2","3","2","4","3","1","3","4","3","4","3","4","4","3","4","4","5","1","0","1","1","0","0","1","1","1","1","1","0","1","0","1","4","4","3","2","5","3","2","4","2","4","5","689594271669420032","李","592","","","","match","","","","","","","","","","","","","","key","f","16.6706521739138","747","463","f","true","match","img/circle.png","圆形","圆形","ALT1","formal_ALT1_1","","","","","","","","","","","",""
"null","<span style='color:GreenYellow; font-size: 70px;'>正确! </span>","null","html-keyboard-response","144","528869","0.0-7.0-0.0-4.0-0.0-1.18","3","3","3","3","2","3","3","3","3","3","3","2","2","3","2","4","3","1","3","4","3","4","3","4","4","3","4","4","5","1","0","1","1","0","0","1","1","1","1","1","0","1","0","1","4","4","3","2","5","3","2","4","2","4","5","689594271669420032","李","592","","","","","","","","","","","","","","","","","","","","","","","","","","","","","","feedback_test","","","","","","","","","","","",""
"659","","f","psychophysics","145","530542","0.0-7.0-0.0-4.0-0.0-0.19","3","3","3","3","2","3","3","3","3","3","3","2","2","3","2","4","3","1","3","4","3","4","3","4","4","3","4","4","5","1","0","1","1","0","0","1","1","1","1","1","0","1","0","1","4","4","3","2","5","3","2","4","2","4","5","689594271669420032","李","592","","","","match","","","","","","","","","","","","","","key","f","16.662626262626027","747","463","j","false","nonmatch","img/triangle.png","六边","三角","ALT1","formal_ALT1_1","","","","","","","","","","","",""
"null","<span style='color:red; font-size: 70px;'>错误! </span>","null","html-keyboard-response","146","531044","0.0-7.0-0.0-4.0-0.0-1.19","3","3","3","3","2","3","3","3","3","3","3","2","2","3","2","4","3","1","3","4","3","4","3","4","4","3","4","4","5","1","0","1","1","0","0","1","1","1","1","1","0","1","0","1","4","4","3","2","5","3","2","4","2","4","5","689594271669420032","李","592","","","","","","","","","","","","","","","","","","","","","","","","","","","","","","feedback_test","","","","","","","","","","","",""
"591","","f","psychophysics","147","532640","0.0-7.0-0.0-4.0-0.0-0.20","3","3","3","3","2","3","3","3","3","3","3","2","2","3","2","4","3","1","3","4","3","4","3","4","4","3","4","4","5","1","0","1","1","0","0","1","1","1","1","1","0","1","0","1","4","4","3","2","5","3","2","4","2","4","5","689594271669420032","李","592","","","","match","","","","","","","","","","","","","","key","f","16.669684210526267","747","463","f","true","match","img/circle.png","圆形","圆形","ALT1","formal_ALT1_1","","","","","","","","","","","",""
"null","<span style='color:GreenYellow; font-size: 70px;'>正确! </span>","null","html-keyboard-response","148","533149","0.0-7.0-0.0-4.0-0.0-1.20","3","3","3","3","2","3","3","3","3","3","3","2","2","3","2","4","3","1","3","4","3","4","3","4","4","3","4","4","5","1","0","1","1","0","0","1","1","1","1","1","0","1","0","1","4","4","3","2","5","3","2","4","2","4","5","689594271669420032","李","592","","","","","","","","","","","","","","","","","","","","","","","","","","","","","","feedback_test","","","","","","","","","","","",""
"487","","f","psychophysics","149","534669","0.0-7.0-0.0-4.0-0.0-0.21","3","3","3","3","2","3","3","3","3","3","3","2","2","3","2","4","3","1","3","4","3","4","3","4","4","3","4","4","5","1","0","1","1","0","0","1","1","1","1","1","0","1","0","1","4","4","3","2","5","3","2","4","2","4","5","689594271669420032","李","592","","","","match","","","","","","","","","","","","","","key","f","16.66888888888837","747","463","f","true","match","img/circle.png","圆形","圆形","ALT1","formal_ALT1_1","","","","","","","","","","","",""
"null","<span style='color:GreenYellow; font-size: 70px;'>正确! </span>","null","html-keyboard-response","150","535185","0.0-7.0-0.0-4.0-0.0-1.21","3","3","3","3","2","3","3","3","3","3","3","2","2","3","2","4","3","1","3","4","3","4","3","4","4","3","4","4","5","1","0","1","1","0","0","1","1","1","1","1","0","1","0","1","4","4","3","2","5","3","2","4","2","4","5","689594271669420032","李","592","","","","","","","","","","","","","","","","","","","","","","","","","","","","","","feedback_test","","","","","","","","","","","",""
"729","","j","psychophysics","151","536928","0.0-7.0-0.0-4.0-0.0-0.22","3","3","3","3","2","3","3","3","3","3","3","2","2","3","2","4","3","1","3","4","3","4","3","4","4","3","4","4","5","1","0","1","1","0","0","1","1","1","1","1","0","1","0","1","4","4","3","2","5","3","2","4","2","4","5","689594271669420032","李","592","","","","nonmatch","","","","","","","","","","","","","","key","j","16.666990291261683","747","463","j","true","nonmatch","img/square.png","圆形","方形","ALT1","formal_ALT1_1","","","","","","","","","","","",""
"null","<span style='color:GreenYellow; font-size: 70px;'>正确! </span>","null","html-keyboard-response","152","537434","0.0-7.0-0.0-4.0-0.0-1.22","3","3","3","3","2","3","3","3","3","3","3","2","2","3","2","4","3","1","3","4","3","4","3","4","4","3","4","4","5","1","0","1","1","0","0","1","1","1","1","1","0","1","0","1","4","4","3","2","5","3","2","4","2","4","5","689594271669420032","李","592","","","","","","","","","","","","","","","","","","","","","","","","","","","","","","feedback_test","","","","","","","","","","","",""
"755","","f","psychophysics","153","539204","0.0-7.0-0.0-4.0-0.0-0.23","3","3","3","3","2","3","3","3","3","3","3","2","2","3","2","4","3","1","3","4","3","4","3","4","4","3","4","4","5","1","0","1","1","0","0","1","1","1","1","1","0","1","0","1","4","4","3","2","5","3","2","4","2","4","5","689594271669420032","李","592","","","","match","","","","","","","","","","","","","","key","f","16.663809523809082","747","463","j","false","nonmatch","img/hexagon.png","方形","六边","ALT1","formal_ALT1_1","","","","","","","","","","","",""
"null","<span style='color:red; font-size: 70px;'>错误! </span>","null","html-keyboard-response","154","539737","0.0-7.0-0.0-4.0-0.0-1.23","3","3","3","3","2","3","3","3","3","3","3","2","2","3","2","4","3","1","3","4","3","4","3","4","4","3","4","4","5","1","0","1","1","0","0","1","1","1","1","1","0","1","0","1","4","4","3","2","5","3","2","4","2","4","5","689594271669420032","李","592","","","","","","","","","","","","","","","","","","","","","","","","","","","","","","feedback_test","","","","","","","","","","","",""
"712","","j","psychophysics","155","541463","0.0-7.0-0.0-4.0-0.0-0.24","3","3","3","3","2","3","3","3","3","3","3","2","2","3","2","4","3","1","3","4","3","4","3","4","4","3","4","4","5","1","0","1","1","0","0","1","1","1","1","1","0","1","0","1","4","4","3","2","5","3","2","4","2","4","5","689594271669420032","李","592","","","","nonmatch","","","","","","","","","","","","","","key","j","16.628431372548793","747","463","j","true","nonmatch","img/circle.png","方形","圆形","ALT1","formal_ALT1_1","","","","","","","","","","","",""
"null","<span style='color:GreenYellow; font-size: 70px;'>正确! </span>","null","html-keyboard-response","156","541970","0.0-7.0-0.0-4.0-0.0-1.24","3","3","3","3","2","3","3","3","3","3","3","2","2","3","2","4","3","1","3","4","3","4","3","4","4","3","4","4","5","1","0","1","1","0","0","1","1","1","1","1","0","1","0","1","4","4","3","2","5","3","2","4","2","4","5","689594271669420032","李","592","","","","","","","","","","","","","","","","","","","","","","","","","","","","","","feedback_test","","","","","","","","","","","",""
"595","","f","psychophysics","157","543576","0.0-7.0-0.0-4.0-0.0-0.25","3","3","3","3","2","3","3","3","3","3","3","2","2","3","2","4","3","1","3","4","3","4","3","4","4","3","4","4","5","1","0","1","1","0","0","1","1","1","1","1","0","1","0","1","4","4","3","2","5","3","2","4","2","4","5","689594271669420032","李","592","","","","match","","","","","","","","","","","","","","key","f","16.667368421052878","747","463","f","true","match","img/square.png","方形","方形","ALT1","formal_ALT1_1","","","","","","","","","","","",""
"null","<span style='color:GreenYellow; font-size: 70px;'>正确! </span>","null","html-keyboard-response","158","544089","0.0-7.0-0.0-4.0-0.0-1.25","3","3","3","3","2","3","3","3","3","3","3","2","2","3","2","4","3","1","3","4","3","4","3","4","4","3","4","4","5","1","0","1","1","0","0","1","1","1","1","1","0","1","0","1","4","4","3","2","5","3","2","4","2","4","5","689594271669420032","李","592","","","","","","","","","","","","","","","","","","","","","","","","","","","","","","feedback_test","","","","","","","","","","","",""
"650","","f","psychophysics","159","545751","0.0-7.0-0.0-4.0-0.0-0.26","3","3","3","3","2","3","3","3","3","3","3","2","2","3","2","4","3","1","3","4","3","4","3","4","4","3","4","4","5","1","0","1","1","0","0","1","1","1","1","1","0","1","0","1","4","4","3","2","5","3","2","4","2","4","5","689594271669420032","李","592","","","","match","","","","","","","","","","","","","","key","f","16.589795918366633","747","463","f","true","match","img/hexagon.png","六边","六边","ALT1","formal_ALT1_1","","","","","","","","","","","",""
"null","<span style='color:GreenYellow; font-size: 70px;'>正确! </span>","null","html-keyboard-response","160","546262","0.0-7.0-0.0-4.0-0.0-1.26","3","3","3","3","2","3","3","3","3","3","3","2","2","3","2","4","3","1","3","4","3","4","3","4","4","3","4","4","5","1","0","1","1","0","0","1","1","1","1","1","0","1","0","1","4","4","3","2","5","3","2","4","2","4","5","689594271669420032","李","592","","","","","","","","","","","","","","","","","","","","","","","","","","","","","","feedback_test","","","","","","","","","","","",""
"583","","j","psychophysics","161","547879","0.0-7.0-0.0-4.0-0.0-0.27","3","3","3","3","2","3","3","3","3","3","3","2","2","3","2","4","3","1","3","4","3","4","3","4","4","3","4","4","5","1","0","1","1","0","0","1","1","1","1","1","0","1","0","1","4","4","3","2","5","3","2","4","2","4","5","689594271669420032","李","592","","","","nonmatch","","","","","","","","","","","","","","key","j","16.547916666666424","747","463","j","true","nonmatch","img/hexagon.png","圆形","六边","ALT1","formal_ALT1_1","","","","","","","","","","","",""
"null","<span style='color:GreenYellow; font-size: 70px;'>正确! </span>","null","html-keyboard-response","162","548389","0.0-7.0-0.0-4.0-0.0-1.27","3","3","3","3","2","3","3","3","3","3","3","2","2","3","2","4","3","1","3","4","3","4","3","4","4","3","4","4","5","1","0","1","1","0","0","1","1","1","1","1","0","1","0","1","4","4","3","2","5","3","2","4","2","4","5","689594271669420032","李","592","","","","","","","","","","","","","","","","","","","","","","","","","","","","","","feedback_test","","","","","","","","","","","",""
"728","","j","psychophysics","163","550129","0.0-7.0-0.0-4.0-0.0-0.28","3","3","3","3","2","3","3","3","3","3","3","2","2","3","2","4","3","1","3","4","3","4","3","4","4","3","4","4","5","1","0","1","1","0","0","1","1","1","1","1","0","1","0","1","4","4","3","2","5","3","2","4","2","4","5","689594271669420032","李","592","","","","nonmatch","","","","","","","","","","","","","","key","j","16.616504854368934","747","463","j","true","nonmatch","img/square.png","圆形","方形","ALT1","formal_ALT1_1","","","","","","","","","","","",""
"null","<span style='color:GreenYellow; font-size: 70px;'>正确! </span>","null","html-keyboard-response","164","550641","0.0-7.0-0.0-4.0-0.0-1.28","3","3","3","3","2","3","3","3","3","3","3","2","2","3","2","4","3","1","3","4","3","4","3","4","4","3","4","4","5","1","0","1","1","0","0","1","1","1","1","1","0","1","0","1","4","4","3","2","5","3","2","4","2","4","5","689594271669420032","李","592","","","","","","","","","","","","","","","","","","","","","","","","","","","","","","feedback_test","","","","","","","","","","","",""
"957","","f","psychophysics","165","552608","0.0-7.0-0.0-4.0-0.0-0.29","3","3","3","3","2","3","3","3","3","3","3","2","2","3","2","4","3","1","3","4","3","4","3","4","4","3","4","4","5","1","0","1","1","0","0","1","1","1","1","1","0","1","0","1","4","4","3","2","5","3","2","4","2","4","5","689594271669420032","李","592","","","","match","","","","","","","","","","","","","","key","f","16.67008547008567","747","463","j","false","nonmatch","img/triangle.png","圆形","三角","ALT1","formal_ALT1_1","","","","","","","","","","","",""
"null","<span style='color:red; font-size: 70px;'>错误! </span>","null","html-keyboard-response","166","553144","0.0-7.0-0.0-4.0-0.0-1.29","3","3","3","3","2","3","3","3","3","3","3","2","2","3","2","4","3","1","3","4","3","4","3","4","4","3","4","4","5","1","0","1","1","0","0","1","1","1","1","1","0","1","0","1","4","4","3","2","5","3","2","4","2","4","5","689594271669420032","李","592","","","","","","","","","","","","","","","","","","","","","","","","","","","","","","feedback_test","","","","","","","","","","","",""
"970","","j","psychophysics","167","555129","0.0-7.0-0.0-4.0-0.0-0.30","3","3","3","3","2","3","3","3","3","3","3","2","2","3","2","4","3","1","3","4","3","4","3","4","4","3","4","4","5","1","0","1","1","0","0","1","1","1","1","1","0","1","0","1","4","4","3","2","5","3","2","4","2","4","5","689594271669420032","李","592","","","","nonmatch","","","","","","","","","","","","","","key","j","16.603389830509066","747","463","j","true","nonmatch","img/hexagon.png","三角","六边","ALT1","formal_ALT1_1","","","","","","","","","","","",""
"null","<span style='color:GreenYellow; font-size: 70px;'>正确! </span>","null","html-keyboard-response","168","555633","0.0-7.0-0.0-4.0-0.0-1.30","3","3","3","3","2","3","3","3","3","3","3","2","2","3","2","4","3","1","3","4","3","4","3","4","4","3","4","4","5","1","0","1","1","0","0","1","1","1","1","1","0","1","0","1","4","4","3","2","5","3","2","4","2","4","5","689594271669420032","李","592","","","","","","","","","","","","","","","","","","","","","","","","","","","","","","feedback_test","","","","","","","","","","","",""
"446","","f","psychophysics","169","557082","0.0-7.0-0.0-4.0-0.0-0.31","3","3","3","3","2","3","3","3","3","3","3","2","2","3","2","4","3","1","3","4","3","4","3","4","4","3","4","4","5","1","0","1","1","0","0","1","1","1","1","1","0","1","0","1","4","4","3","2","5","3","2","4","2","4","5","689594271669420032","李","592","","","","match","","","","","","","","","","","","","","key","f","16.669411764706155","747","463","j","false","nonmatch","img/square.png","三角","方形","ALT1","formal_ALT1_1","","","","","","","","","","","",""
"null","<span style='color:red; font-size: 70px;'>错误! </span>","null","html-keyboard-response","170","557591","0.0-7.0-0.0-4.0-0.0-1.31","3","3","3","3","2","3","3","3","3","3","3","2","2","3","2","4","3","1","3","4","3","4","3","4","4","3","4","4","5","1","0","1","1","0","0","1","1","1","1","1","0","1","0","1","4","4","3","2","5","3","2","4","2","4","5","689594271669420032","李","592","","","","","","","","","","","","","","","","","","","","","","","","","","","","","","feedback_test","","","","","","","","","","","",""
"786","","j","psychophysics","171","559387","0.0-7.0-0.0-4.0-0.0-0.32","3","3","3","3","2","3","3","3","3","3","3","2","2","3","2","4","3","1","3","4","3","4","3","4","4","3","4","4","5","1","0","1","1","0","0","1","1","1","1","1","0","1","0","1","4","4","3","2","5","3","2","4","2","4","5","689594271669420032","李","592","","","","nonmatch","","","","","","","","","","","","","","key","j","16.599999999999564","747","463","j","true","nonmatch","img/square.png","六边","方形","ALT1","formal_ALT1_1","","","","","","","","","","","",""
"null","<span style='color:GreenYellow; font-size: 70px;'>正确! </span>","null","html-keyboard-response","172","559904","0.0-7.0-0.0-4.0-0.0-1.32","3","3","3","3","2","3","3","3","3","3","3","2","2","3","2","4","3","1","3","4","3","4","3","4","4","3","4","4","5","1","0","1","1","0","0","1","1","1","1","1","0","1","0","1","4","4","3","2","5","3","2","4","2","4","5","689594271669420032","李","592","","","","","","","","","","","","","","","","","","","","","","","","","","","","","","feedback_test","","","","","","","","","","","",""
"618","","f","psychophysics","173","561530","0.0-7.0-0.0-4.0-0.0-0.33","3","3","3","3","2","3","3","3","3","3","3","2","2","3","2","4","3","1","3","4","3","4","3","4","4","3","4","4","5","1","0","1","1","0","0","1","1","1","1","1","0","1","0","1","4","4","3","2","5","3","2","4","2","4","5","689594271669420032","李","592","","","","match","","","","","","","","","","","","","","key","f","16.666666666666668","747","463","f","true","match","img/hexagon.png","六边","六边","ALT1","formal_ALT1_1","","","","","","","","","","","",""
"null","<span style='color:GreenYellow; font-size: 70px;'>正确! </span>","null","html-keyboard-response","174","562038","0.0-7.0-0.0-4.0-0.0-1.33","3","3","3","3","2","3","3","3","3","3","3","2","2","3","2","4","3","1","3","4","3","4","3","4","4","3","4","4","5","1","0","1","1","0","0","1","1","1","1","1","0","1","0","1","4","4","3","2","5","3","2","4","2","4","5","689594271669420032","李","592","","","","","","","","","","","","","","","","","","","","","","","","","","","","","","feedback_test","","","","","","","","","","","",""
"708","","f","psychophysics","175","563759","0.0-7.0-0.0-4.0-0.0-0.34","3","3","3","3","2","3","3","3","3","3","3","2","2","3","2","4","3","1","3","4","3","4","3","4","4","3","4","4","5","1","0","1","1","0","0","1","1","1","1","1","0","1","0","1","4","4","3","2","5","3","2","4","2","4","5","689594271669420032","李","592","","","","match","","","","","","","","","","","","","","key","f","16.658823529411308","747","463","f","true","match","img/circle.png","圆形","圆形","ALT1","formal_ALT1_1","","","","","","","","","","","",""
"null","<span style='color:GreenYellow; font-size: 70px;'>正确! </span>","null","html-keyboard-response","176","564261","0.0-7.0-0.0-4.0-0.0-1.34","3","3","3","3","2","3","3","3","3","3","3","2","2","3","2","4","3","1","3","4","3","4","3","4","4","3","4","4","5","1","0","1","1","0","0","1","1","1","1","1","0","1","0","1","4","4","3","2","5","3","2","4","2","4","5","689594271669420032","李","592","","","","","","","","","","","","","","","","","","","","","","","","","","","","","","feedback_test","","","","","","","","","","","",""
"705","","j","psychophysics","177","565973","0.0-7.0-0.0-4.0-0.0-0.35","3","3","3","3","2","3","3","3","3","3","3","2","2","3","2","4","3","1","3","4","3","4","3","4","4","3","4","4","5","1","0","1","1","0","0","1","1","1","1","1","0","1","0","1","4","4","3","2","5","3","2","4","2","4","5","689594271669420032","李","592","","","","nonmatch","","","","","","","","","","","","","","key","j","16.612745098039216","747","463","j","true","nonmatch","img/triangle.png","六边","三角","ALT1","formal_ALT1_1","","","","","","","","","","","",""
"null","<span style='color:GreenYellow; font-size: 70px;'>正确! </span>","null","html-keyboard-response","178","566479","0.0-7.0-0.0-4.0-0.0-1.35","3","3","3","3","2","3","3","3","3","3","3","2","2","3","2","4","3","1","3","4","3","4","3","4","4","3","4","4","5","1","0","1","1","0","0","1","1","1","1","1","0","1","0","1","4","4","3","2","5","3","2","4","2","4","5","689594271669420032","李","592","","","","","","","","","","","","","","","","","","","","","","","","","","","","","","feedback_test","","","","","","","","","","","",""
"685","","j","psychophysics","179","568202","0.0-7.0-0.0-4.0-0.0-0.36","3","3","3","3","2","3","3","3","3","3","3","2","2","3","2","4","3","1","3","4","3","4","3","4","4","3","4","4","5","1","0","1","1","0","0","1","1","1","1","1","0","1","0","1","4","4","3","2","5","3","2","4","2","4","5","689594271669420032","李","592","","","","nonmatch","","","","","","","","","","","","","","key","j","16.66960784313657","747","463","j","true","nonmatch","img/triangle.png","方形","三角","ALT1","formal_ALT1_1","","","","","","","","","","","",""
"null","<span style='color:GreenYellow; font-size: 70px;'>正确! </span>","null","html-keyboard-response","180","568706","0.0-7.0-0.0-4.0-0.0-1.36","3","3","3","3","2","3","3","3","3","3","3","2","2","3","2","4","3","1","3","4","3","4","3","4","4","3","4","4","5","1","0","1","1","0","0","1","1","1","1","1","0","1","0","1","4","4","3","2","5","3","2","4","2","4","5","689594271669420032","李","592","","","","","","","","","","","","","","","","","","","","","","","","","","","","","","feedback_test","","","","","","","","","","","",""
"964","","f","psychophysics","181","570677","0.0-7.0-0.0-4.0-0.0-0.37","3","3","3","3","2","3","3","3","3","3","3","2","2","3","2","4","3","1","3","4","3","4","3","4","4","3","4","4","5","1","0","1","1","0","0","1","1","1","1","1","0","1","0","1","4","4","3","2","5","3","2","4","2","4","5","689594271669420032","李","592","","","","match","","","","","","","","","","","","","","key","f","16.65213675213715","747","463","f","true","match","img/square.png","方形","方形","ALT1","formal_ALT1_1","","","","","","","","","","","",""
