"rt","stimulus","response","trial_type","trial_index","time_elapsed","internal_node_id","ses_1","ses_2","ses_3","ses_4","ses_5","ses_6","ses_7","ses_8","ses_9","ses_10","coreself_1","coreself_2","coreself_3","coreself_4","coreself_5","coreself_6","coreself_7","coreself_8","coreself_9","coreself_10","SGPS_1","SGPS_2","SGPS_3","SGPS_4","SGPS_5","SGPS_6","SGPS_7","SGPS_8","SGPS_9","NPI1","NPI2","NPI3","NPI4","NPI5","NPI6","NPI7","NPI8","NPI9","NPI10","NPI11","NPI12","NPI13","NPI14","NPI15","hsns_1","hsns_2","hsns_3","hsns_4","hsns_5","trap1","hsns_6","hsns_7","hsns_8","hsns_9","hsns_10","subj_idx","friend_name","ParticipantID","value","success","user_agent","responses","item_order","radio_event_ids","radio_event_times","key_event_times","mouse_event_times","straightlining","zigzagging","honeypot","timeout","failed_images","failed_audio","failed_video","version_attrib2","version_target2","correct","IAT","screen_id","task_id","RT","condition","word","varname","summary","version_attrib","version_target","time_stamp","view_history","response_type","key_press","avg_frame_time","center_x","center_y","correct_response","identity","Image","question_order","correct_answer","trap1_item"
"5364","
   <p><div style = ""color: white;font-size:25px;"">您好，欢迎参加本次实验。</div> </p>
   <p><div style = ""color: white;font-size:25px;"">为充分保障您的权利，请确保您已经知晓并同意《参与实验同意书》以及《数据公开知情同意书》。</div></p>
   <p><div style = ""color: white;font-size:25px;"">如果您未见过上述内容，请咨询实验员。</div></p>
   <p><div style = ""color: white;font-size:25px;"">如果您选择继续实验，则表示您已经清楚两份知情同意书的内容并同意。</div></p>
   <p><div style = ""color: pink;font-size:30px;"">请确保您记得day0的实验编号，您将在本次实验输入该编号，若您忘记，请咨询实验员后作答。</div></p>
   <p><div style = ""color: lightblue;font-size:25px;"">请您尽可能认真地作答，我们将依据您在各问卷和按键任务中的作答质量发放报酬。</div></p>
   <p> <div style = ""color: green;font-size:25px;""><按空格键至下页></div> </p>
   "," ","html-keyboard-response","0","5367","0.0-0.0","3","4","4","3","4","4","4","3","4","4","4","4","2","4","4","5","4","2","4","5","3","3","3","1","2","2","2","3","1","1","0","0","0","0","0","1","1","0","1","1","1","0","0","1","5","5","5","5","5","2","2","2","4","1","3","723128810265903104","张","621","","","","","","","","","","","","","","","","","","","","","","","","","","","","","","","","","","","","","","","","","",""
"","","","call-function","1","5369","0.0-1.0-0.0","3","4","4","3","4","4","4","3","4","4","4","4","2","4","4","5","4","2","4","5","3","3","3","1","2","2","2","3","1","1","0","0","0","0","0","1","1","0","1","1","1","0","0","1","5","5","5","5","5","2","2","2","4","1","3","723128810265903104","张","621","","","","","","","","","","","","","","","","","","","","","","","","","","","","","","","","","","","","","","","","","",""
"16500","","{""friend_name"":""张"",""ParticipantID"":""621""}","survey-html-form","2","21869","0.0-1.0-1.0","3","4","4","3","4","4","4","3","4","4","4","4","2","4","4","5","4","2","4","5","3","3","3","1","2","2","2","3","1","1","0","0","0","0","0","1","1","0","1","1","1","0","0","1","5","5","5","5","5","2","2","2","4","1","3","723128810265903104","张","621","","","","","","","","","","","","","","","","","","","","","","","","","","","","","","","","","","","","","","","","","",""
"","","","fullscreen","3","24611","0.0-2.0","3","4","4","3","4","4","4","3","4","4","4","4","2","4","4","5","4","2","4","5","3","3","3","1","2","2","2","3","1","1","0","0","0","0","0","1","1","0","1","1","1","0","0","1","5","5","5","5","5","2","2","2","4","1","3","723128810265903104","张","621","","true","{}","","","","","","","","","","","","","","","","","","","","","","","","","","","","","","","","","","","","","","",""
"70115.30000001192","","{""Q01"":""3"",""Q02"":""4"",""Q03"":""4"",""Q04"":""3"",""Q05"":""4"",""Q06"":""4"",""Q07"":""4"",""Q08"":""3"",""Q09"":""4"",""Q10"":""4""}","survey-template","4","94731","0.0-3.0","3","4","4","3","4","4","4","3","4","4","4","4","2","4","4","5","4","2","4","5","3","3","3","1","2","2","2","3","1","1","0","0","0","0","0","1","1","0","1","1","1","0","0","1","5","5","5","5","5","2","2","2","4","1","3","723128810265903104","张","621","","","","{""Q01"":""3"",""Q02"":""4"",""Q03"":""4"",""Q04"":""3"",""Q05"":""4"",""Q06"":""4"",""Q07"":""4"",""Q08"":""3"",""Q09"":""4"",""Q10"":""4""}","[0,1,2,3,4,5,6,7,8,9]","[""Q01"",""Q02"",""Q03"",""Q04"",""Q05"",""Q06"",""Q07"",""Q08"",""Q09"",""Q10""]","[41804.19999998808,43139,44563.30000001192,51347.30000001192,52584.80000001192,55293.10000002384,56476.19999998808,60026.10000002384,66054.30000001192,68961.10000002384]","[]","[40117.60000002384,41804.19999998808,43139,44563.30000001192,51347.30000001192,52584.80000001192,55293.10000002384,56476.19999998808,60026.10000002384,66054.30000001192,67127.19999998808,68961.10000002384,70114.10000002384]","0.4","0.4444444444444444","0","","","","","","","","","","","","","","","","","","","","","","","","","","","","","",""
"57132","","{""Q01"":""4"",""Q02"":""4"",""Q03"":""2"",""Q04"":""4"",""Q05"":""4"",""Q06"":""5"",""Q07"":""4"",""Q08"":""2"",""Q09"":""4"",""Q10"":""5""}","survey-template","5","151869","0.0-4.0","3","4","4","3","4","4","4","3","4","4","4","4","2","4","4","5","4","2","4","5","3","3","3","1","2","2","2","3","1","1","0","0","0","0","0","1","1","0","1","1","1","0","0","1","5","5","5","5","5","2","2","2","4","1","3","723128810265903104","张","621","","","","{""Q01"":""4"",""Q02"":""4"",""Q03"":""2"",""Q04"":""4"",""Q05"":""4"",""Q06"":""5"",""Q07"":""4"",""Q08"":""2"",""Q09"":""4"",""Q10"":""5""}","[0,1,2,3,4,5,6,7,8,9]","[""Q01"",""Q02"",""Q03"",""Q04"",""Q05"",""Q06"",""Q07"",""Q08"",""Q09"",""Q10""]","[17824.5,19107.69999998808,29266.100000023842,30570.30000001192,33494.30000001192,35103.30000001192,42039.69999998808,44030.5,45601.39999997616,55951.69999998808]","[]","[17824.5,19107.69999998808,29266.100000023842,30570.30000001192,33494.30000001192,35103.30000001192,42039.69999998808,44030.5,45601.39999997616,55951.69999998808,57130.69999998808]","0.5","0","0","","","","","","","","","","","","","","","","","","","","","","","","","","","","","",""
"","","","preload","6","152275","0.0-5.0","3","4","4","3","4","4","4","3","4","4","4","4","2","4","4","5","4","2","4","5","3","3","3","1","2","2","2","3","1","1","0","0","0","0","0","1","1","0","1","1","1","0","0","1","5","5","5","5","5","2","2","2","4","1","3","723128810265903104","张","621","","true","","","","","","","","","","","false","[]","[]","[]","","","","","","","","","","","","","","","","","","","","","","","","","",""
"29363","
    <h3>词语分类任务</h3>
    <p>在接下来的任务中，你需要对一系列词语进行分类。<p/>
    请先熟悉这些词语，这有利于你完成接下来的任务。</p>
    <table align=""center"" border=1 cellpadding=3 cellspacing=0>
    <tr> <th>类别</th> <th>词语</th> </tr>
    <tr> <td>&emsp;积极&emsp;</td> <td>&emsp;高尚、诚信、善良、君子、廉正、正直&emsp;</td> </tr>
    <tr> <td>&emsp;消极&emsp;</td> <td>&emsp;缺德、卑鄙、不孝、不仁、小人、黑心&emsp;</td> </tr>
    <tr> <td>&emsp;自我&emsp;</td> <td>&emsp;我、我的、自己、自己的、本人、本人的&emsp;</td> </tr>
    <tr> <td>&emsp;他人&emsp;</td> <td>&emsp;他、他的、别人、别人的、他人、他人的&emsp;</td> </tr>
    </table><br/>","0","html-button-response","7","181640","0.0-6.0-1.0-0.0","3","4","4","3","4","4","4","3","4","4","4","4","2","4","4","5","4","2","4","5","3","3","3","1","2","2","2","3","1","1","0","0","0","0","0","1","1","0","1","1","1","0","0","1","5","5","5","5","5","2","2","2","4","1","3","723128810265903104","张","621","","","","","","","","","","","","","","","","","2","1","","","","","","","","","","","","","","","","","","","","","","","",""
"20564","
    <div class=""tag-bottom""><p>
    —— 任务1：对“自我”词和“他人”词分类 ——<p/>
    不同词语会出现在屏幕中央，类别标签将始终显示在屏幕上方<p/>   
    <span style=""color:#FFD866""><b>请根据上方标签的提示，尽可能正确并且快速地做出按键反应</b></span><p/>
    当按键错误时屏幕中会出现<span style=""color:red""> X </span>，需要按另一个键纠正才能继续<br/><p/>
    请把双手食指分别放在键盘的“E”键和“I”键上<p/>
    按<空格键>开始
    </p></div>"," ","html-keyboard-response","8","202209","0.0-6.0-1.0-1.0","3","4","4","3","4","4","4","3","4","4","4","4","2","4","4","5","4","2","4","5","3","3","3","1","2","2","2","3","1","1","0","0","0","0","0","1","1","0","1","1","1","0","0","1","5","5","5","5","5","2","2","2","4","1","3","723128810265903104","张","621","","","","","","","","","","","","","","","","","","","","","","","","","","","","","","","","","","","","","","","","","",""
"null","","null","html-keyboard-response","9","202462","0.0-6.0-1.0-2.0-0.0","3","4","4","3","4","4","4","3","4","4","4","4","2","4","4","5","4","2","4","5","3","3","3","1","2","2","2","3","1","1","0","0","0","0","0","1","1","0","1","1","1","0","0","1","5","5","5","5","5","2","2","2","4","1","3","723128810265903104","张","621","","","","","","","","","","","","","","","","","","","","","","","","","","","","","","","","","","","","","","","","","",""
"1114","<p style=""color:rgb(150, 250, 100); font-size: 35px;"">本人的</p>","e","categorize-html","10","203580","0.0-6.0-1.0-2.0-1.0","3","4","4","3","4","4","4","3","4","4","4","4","2","4","4","5","4","2","4","5","3","3","3","1","2","2","2","3","1","1","0","0","0","0","0","1","1","0","1","1","1","0","0","1","5","5","5","5","5","2","2","2","4","1","3","723128810265903104","张","621","","","","","","","","","","","","","","","","","","","true","11","1","moral","1114","self","本人的","","","","","","","","","","","","","","","","",""
"null","","null","html-keyboard-response","11","203838","0.0-6.0-1.0-2.0-0.1","3","4","4","3","4","4","4","3","4","4","4","4","2","4","4","5","4","2","4","5","3","3","3","1","2","2","2","3","1","1","0","0","0","0","0","1","1","0","1","1","1","0","0","1","5","5","5","5","5","2","2","2","4","1","3","723128810265903104","张","621","","","","","","","","","","","","","","","","","","","","","","","","","","","","","","","","","","","","","","","","","",""
"658","<p style=""color:rgb(150, 250, 100); font-size: 35px;"">自己的</p>","e","categorize-html","12","204501","0.0-6.0-1.0-2.0-1.1","3","4","4","3","4","4","4","3","4","4","4","4","2","4","4","5","4","2","4","5","3","3","3","1","2","2","2","3","1","1","0","0","0","0","0","1","1","0","1","1","1","0","0","1","5","5","5","5","5","2","2","2","4","1","3","723128810265903104","张","621","","","","","","","","","","","","","","","","","","","true","11","1","moral","658","self","自己的","","","","","","","","","","","","","","","","",""
"null","","null","html-keyboard-response","13","204756","0.0-6.0-1.0-2.0-0.2","3","4","4","3","4","4","4","3","4","4","4","4","2","4","4","5","4","2","4","5","3","3","3","1","2","2","2","3","1","1","0","0","0","0","0","1","1","0","1","1","1","0","0","1","5","5","5","5","5","2","2","2","4","1","3","723128810265903104","张","621","","","","","","","","","","","","","","","","","","","","","","","","","","","","","","","","","","","","","","","","","",""
"275","<p style=""color:rgb(150, 250, 100); font-size: 35px;"">我的</p>","e","categorize-html","14","205034","0.0-6.0-1.0-2.0-1.2","3","4","4","3","4","4","4","3","4","4","4","4","2","4","4","5","4","2","4","5","3","3","3","1","2","2","2","3","1","1","0","0","0","0","0","1","1","0","1","1","1","0","0","1","5","5","5","5","5","2","2","2","4","1","3","723128810265903104","张","621","","","","","","","","","","","","","","","","","","","true","11","1","moral","275","self","我的","","","","","","","","","","","","","","","","",""
"null","","null","html-keyboard-response","15","205293","0.0-6.0-1.0-2.0-0.3","3","4","4","3","4","4","4","3","4","4","4","4","2","4","4","5","4","2","4","5","3","3","3","1","2","2","2","3","1","1","0","0","0","0","0","1","1","0","1","1","1","0","0","1","5","5","5","5","5","2","2","2","4","1","3","723128810265903104","张","621","","","","","","","","","","","","","","","","","","","","","","","","","","","","","","","","","","","","","","","","","",""
"307","<p style=""color:rgb(150, 250, 100); font-size: 35px;"">别人</p>","e","categorize-html","16","214061","0.0-6.0-1.0-2.0-1.3","3","4","4","3","4","4","4","3","4","4","4","4","2","4","4","5","4","2","4","5","3","3","3","1","2","2","2","3","1","1","0","0","0","0","0","1","1","0","1","1","1","0","0","1","5","5","5","5","5","2","2","2","4","1","3","723128810265903104","张","621","","","","","","","","","","","","","","","","","","","false","11","1","moral","307","other","别人","","","","","","","","","","","","","","","","",""
"null","","null","html-keyboard-response","17","214324","0.0-6.0-1.0-2.0-0.4","3","4","4","3","4","4","4","3","4","4","4","4","2","4","4","5","4","2","4","5","3","3","3","1","2","2","2","3","1","1","0","0","0","0","0","1","1","0","1","1","1","0","0","1","5","5","5","5","5","2","2","2","4","1","3","723128810265903104","张","621","","","","","","","","","","","","","","","","","","","","","","","","","","","","","","","","","","","","","","","","","",""
"592","<p style=""color:rgb(150, 250, 100); font-size: 35px;"">他</p>","i","categorize-html","18","214922","0.0-6.0-1.0-2.0-1.4","3","4","4","3","4","4","4","3","4","4","4","4","2","4","4","5","4","2","4","5","3","3","3","1","2","2","2","3","1","1","0","0","0","0","0","1","1","0","1","1","1","0","0","1","5","5","5","5","5","2","2","2","4","1","3","723128810265903104","张","621","","","","","","","","","","","","","","","","","","","true","11","1","moral","592","other","他","","","","","","","","","","","","","","","","",""
"null","","null","html-keyboard-response","19","215176","0.0-6.0-1.0-2.0-0.5","3","4","4","3","4","4","4","3","4","4","4","4","2","4","4","5","4","2","4","5","3","3","3","1","2","2","2","3","1","1","0","0","0","0","0","1","1","0","1","1","1","0","0","1","5","5","5","5","5","2","2","2","4","1","3","723128810265903104","张","621","","","","","","","","","","","","","","","","","","","","","","","","","","","","","","","","","","","","","","","","","",""
"527","<p style=""color:rgb(150, 250, 100); font-size: 35px;"">他人</p>","i","categorize-html","20","215709","0.0-6.0-1.0-2.0-1.5","3","4","4","3","4","4","4","3","4","4","4","4","2","4","4","5","4","2","4","5","3","3","3","1","2","2","2","3","1","1","0","0","0","0","0","1","1","0","1","1","1","0","0","1","5","5","5","5","5","2","2","2","4","1","3","723128810265903104","张","621","","","","","","","","","","","","","","","","","","","true","11","1","moral","527","other","他人","","","","","","","","","","","","","","","","",""
"null","","null","html-keyboard-response","21","215961","0.0-6.0-1.0-2.0-0.6","3","4","4","3","4","4","4","3","4","4","4","4","2","4","4","5","4","2","4","5","3","3","3","1","2","2","2","3","1","1","0","0","0","0","0","1","1","0","1","1","1","0","0","1","5","5","5","5","5","2","2","2","4","1","3","723128810265903104","张","621","","","","","","","","","","","","","","","","","","","","","","","","","","","","","","","","","","","","","","","","","",""
"514","<p style=""color:rgb(150, 250, 100); font-size: 35px;"">别人的</p>","i","categorize-html","22","216481","0.0-6.0-1.0-2.0-1.6","3","4","4","3","4","4","4","3","4","4","4","4","2","4","4","5","4","2","4","5","3","3","3","1","2","2","2","3","1","1","0","0","0","0","0","1","1","0","1","1","1","0","0","1","5","5","5","5","5","2","2","2","4","1","3","723128810265903104","张","621","","","","","","","","","","","","","","","","","","","true","11","1","moral","514","other","别人的","","","","","","","","","","","","","","","","",""
"null","","null","html-keyboard-response","23","216737","0.0-6.0-1.0-2.0-0.7","3","4","4","3","4","4","4","3","4","4","4","4","2","4","4","5","4","2","4","5","3","3","3","1","2","2","2","3","1","1","0","0","0","0","0","1","1","0","1","1","1","0","0","1","5","5","5","5","5","2","2","2","4","1","3","723128810265903104","张","621","","","","","","","","","","","","","","","","","","","","","","","","","","","","","","","","","","","","","","","","","",""
"428","<p style=""color:rgb(150, 250, 100); font-size: 35px;"">他人的</p>","i","categorize-html","24","217170","0.0-6.0-1.0-2.0-1.7","3","4","4","3","4","4","4","3","4","4","4","4","2","4","4","5","4","2","4","5","3","3","3","1","2","2","2","3","1","1","0","0","0","0","0","1","1","0","1","1","1","0","0","1","5","5","5","5","5","2","2","2","4","1","3","723128810265903104","张","621","","","","","","","","","","","","","","","","","","","true","11","1","moral","428","other","他人的","","","","","","","","","","","","","","","","",""
"null","","null","html-keyboard-response","25","217427","0.0-6.0-1.0-2.0-0.8","3","4","4","3","4","4","4","3","4","4","4","4","2","4","4","5","4","2","4","5","3","3","3","1","2","2","2","3","1","1","0","0","0","0","0","1","1","0","1","1","1","0","0","1","5","5","5","5","5","2","2","2","4","1","3","723128810265903104","张","621","","","","","","","","","","","","","","","","","","","","","","","","","","","","","","","","","","","","","","","","","",""
"438","<p style=""color:rgb(150, 250, 100); font-size: 35px;"">自己</p>","e","categorize-html","26","217873","0.0-6.0-1.0-2.0-1.8","3","4","4","3","4","4","4","3","4","4","4","4","2","4","4","5","4","2","4","5","3","3","3","1","2","2","2","3","1","1","0","0","0","0","0","1","1","0","1","1","1","0","0","1","5","5","5","5","5","2","2","2","4","1","3","723128810265903104","张","621","","","","","","","","","","","","","","","","","","","true","11","1","moral","438","self","自己","","","","","","","","","","","","","","","","",""
"null","","null","html-keyboard-response","27","218128","0.0-6.0-1.0-2.0-0.9","3","4","4","3","4","4","4","3","4","4","4","4","2","4","4","5","4","2","4","5","3","3","3","1","2","2","2","3","1","1","0","0","0","0","0","1","1","0","1","1","1","0","0","1","5","5","5","5","5","2","2","2","4","1","3","723128810265903104","张","621","","","","","","","","","","","","","","","","","","","","","","","","","","","","","","","","","","","","","","","","","",""
"550","<p style=""color:rgb(150, 250, 100); font-size: 35px;"">他的</p>","i","categorize-html","28","218684","0.0-6.0-1.0-2.0-1.9","3","4","4","3","4","4","4","3","4","4","4","4","2","4","4","5","4","2","4","5","3","3","3","1","2","2","2","3","1","1","0","0","0","0","0","1","1","0","1","1","1","0","0","1","5","5","5","5","5","2","2","2","4","1","3","723128810265903104","张","621","","","","","","","","","","","","","","","","","","","true","11","1","moral","550","other","他的","","","","","","","","","","","","","","","","",""
"null","","null","html-keyboard-response","29","218936","0.0-6.0-1.0-2.0-0.10","3","4","4","3","4","4","4","3","4","4","4","4","2","4","4","5","4","2","4","5","3","3","3","1","2","2","2","3","1","1","0","0","0","0","0","1","1","0","1","1","1","0","0","1","5","5","5","5","5","2","2","2","4","1","3","723128810265903104","张","621","","","","","","","","","","","","","","","","","","","","","","","","","","","","","","","","","","","","","","","","","",""
"682","<p style=""color:rgb(150, 250, 100); font-size: 35px;"">本人</p>","e","categorize-html","30","219624","0.0-6.0-1.0-2.0-1.10","3","4","4","3","4","4","4","3","4","4","4","4","2","4","4","5","4","2","4","5","3","3","3","1","2","2","2","3","1","1","0","0","0","0","0","1","1","0","1","1","1","0","0","1","5","5","5","5","5","2","2","2","4","1","3","723128810265903104","张","621","","","","","","","","","","","","","","","","","","","true","11","1","moral","682","self","本人","","","","","","","","","","","","","","","","",""
"null","","null","html-keyboard-response","31","219882","0.0-6.0-1.0-2.0-0.11","3","4","4","3","4","4","4","3","4","4","4","4","2","4","4","5","4","2","4","5","3","3","3","1","2","2","2","3","1","1","0","0","0","0","0","1","1","0","1","1","1","0","0","1","5","5","5","5","5","2","2","2","4","1","3","723128810265903104","张","621","","","","","","","","","","","","","","","","","","","","","","","","","","","","","","","","","","","","","","","","","",""
"442","<p style=""color:rgb(150, 250, 100); font-size: 35px;"">我</p>","e","categorize-html","32","220330","0.0-6.0-1.0-2.0-1.11","3","4","4","3","4","4","4","3","4","4","4","4","2","4","4","5","4","2","4","5","3","3","3","1","2","2","2","3","1","1","0","0","0","0","0","1","1","0","1","1","1","0","0","1","5","5","5","5","5","2","2","2","4","1","3","723128810265903104","张","621","","","","","","","","","","","","","","","","","","","true","11","1","moral","442","self","我","","","","","","","","","","","","","","","","",""
"34161","
    <div class=""tag-bottom""><p>
    —— 任务2：对“消极”词和“积极”词分类 ——<p/>   
    <span style=""color:#78DCE8""><b>注意上方，类别标签和需要分类的词语都已经改变</b></span><p/>
    <span style=""color:#FFD866""><b>请根据上方标签的提示，尽可能正确并且快速地做出按键反应</b></span><p/>
    当按键错误时屏幕中会出现<span style=""color:red""> X </span>，需要按另一个键纠正才能继续<br/><p/>
    请把双手食指分别放在键盘的“E”键和“I”键上<p/>
    按<空格键>开始
    </p></div>"," ","html-keyboard-response","33","254493","0.0-6.0-1.0-3.0","3","4","4","3","4","4","4","3","4","4","4","4","2","4","4","5","4","2","4","5","3","3","3","1","2","2","2","3","1","1","0","0","0","0","0","1","1","0","1","1","1","0","0","1","5","5","5","5","5","2","2","2","4","1","3","723128810265903104","张","621","","","","","","","","","","","","","","","","","","","","","","","","","","","","","","","","","","","","","","","","","",""
"null","","null","html-keyboard-response","34","254749","0.0-6.0-1.0-4.0-0.0","3","4","4","3","4","4","4","3","4","4","4","4","2","4","4","5","4","2","4","5","3","3","3","1","2","2","2","3","1","1","0","0","0","0","0","1","1","0","1","1","1","0","0","1","5","5","5","5","5","2","2","2","4","1","3","723128810265903104","张","621","","","","","","","","","","","","","","","","","","","","","","","","","","","","","","","","","","","","","","","","","",""
"710","<p style=""color:white; font-size: 35px;"">廉正</p>","i","categorize-html","35","255462","0.0-6.0-1.0-4.0-1.0","3","4","4","3","4","4","4","3","4","4","4","4","2","4","4","5","4","2","4","5","3","3","3","1","2","2","2","3","1","1","0","0","0","0","0","1","1","0","1","1","1","0","0","1","5","5","5","5","5","2","2","2","4","1","3","723128810265903104","张","621","","","","","","","","","","","","","","","","","","","true","12","2","moral","710","positive","廉正","","","","","","","","","","","","","","","","",""
"null","","null","html-keyboard-response","36","255729","0.0-6.0-1.0-4.0-0.1","3","4","4","3","4","4","4","3","4","4","4","4","2","4","4","5","4","2","4","5","3","3","3","1","2","2","2","3","1","1","0","0","0","0","0","1","1","0","1","1","1","0","0","1","5","5","5","5","5","2","2","2","4","1","3","723128810265903104","张","621","","","","","","","","","","","","","","","","","","","","","","","","","","","","","","","","","","","","","","","","","",""
"576","<p style=""color:white; font-size: 35px;"">不仁</p>","e","categorize-html","37","256308","0.0-6.0-1.0-4.0-1.1","3","4","4","3","4","4","4","3","4","4","4","4","2","4","4","5","4","2","4","5","3","3","3","1","2","2","2","3","1","1","0","0","0","0","0","1","1","0","1","1","1","0","0","1","5","5","5","5","5","2","2","2","4","1","3","723128810265903104","张","621","","","","","","","","","","","","","","","","","","","true","12","2","moral","576","negative","不仁","","","","","","","","","","","","","","","","",""
"null","","null","html-keyboard-response","38","256562","0.0-6.0-1.0-4.0-0.2","3","4","4","3","4","4","4","3","4","4","4","4","2","4","4","5","4","2","4","5","3","3","3","1","2","2","2","3","1","1","0","0","0","0","0","1","1","0","1","1","1","0","0","1","5","5","5","5","5","2","2","2","4","1","3","723128810265903104","张","621","","","","","","","","","","","","","","","","","","","","","","","","","","","","","","","","","","","","","","","","","",""
"541","<p style=""color:white; font-size: 35px;"">小人</p>","e","categorize-html","39","257107","0.0-6.0-1.0-4.0-1.2","3","4","4","3","4","4","4","3","4","4","4","4","2","4","4","5","4","2","4","5","3","3","3","1","2","2","2","3","1","1","0","0","0","0","0","1","1","0","1","1","1","0","0","1","5","5","5","5","5","2","2","2","4","1","3","723128810265903104","张","621","","","","","","","","","","","","","","","","","","","true","12","2","moral","541","negative","小人","","","","","","","","","","","","","","","","",""
"null","","null","html-keyboard-response","40","257364","0.0-6.0-1.0-4.0-0.3","3","4","4","3","4","4","4","3","4","4","4","4","2","4","4","5","4","2","4","5","3","3","3","1","2","2","2","3","1","1","0","0","0","0","0","1","1","0","1","1","1","0","0","1","5","5","5","5","5","2","2","2","4","1","3","723128810265903104","张","621","","","","","","","","","","","","","","","","","","","","","","","","","","","","","","","","","","","","","","","","","",""
"516","<p style=""color:white; font-size: 35px;"">高尚</p>","i","categorize-html","41","257883","0.0-6.0-1.0-4.0-1.3","3","4","4","3","4","4","4","3","4","4","4","4","2","4","4","5","4","2","4","5","3","3","3","1","2","2","2","3","1","1","0","0","0","0","0","1","1","0","1","1","1","0","0","1","5","5","5","5","5","2","2","2","4","1","3","723128810265903104","张","621","","","","","","","","","","","","","","","","","","","true","12","2","moral","516","positive","高尚","","","","","","","","","","","","","","","","",""
"null","","null","html-keyboard-response","42","258139","0.0-6.0-1.0-4.0-0.4","3","4","4","3","4","4","4","3","4","4","4","4","2","4","4","5","4","2","4","5","3","3","3","1","2","2","2","3","1","1","0","0","0","0","0","1","1","0","1","1","1","0","0","1","5","5","5","5","5","2","2","2","4","1","3","723128810265903104","张","621","","","","","","","","","","","","","","","","","","","","","","","","","","","","","","","","","","","","","","","","","",""
"385","<p style=""color:white; font-size: 35px;"">诚信</p>","i","categorize-html","43","258527","0.0-6.0-1.0-4.0-1.4","3","4","4","3","4","4","4","3","4","4","4","4","2","4","4","5","4","2","4","5","3","3","3","1","2","2","2","3","1","1","0","0","0","0","0","1","1","0","1","1","1","0","0","1","5","5","5","5","5","2","2","2","4","1","3","723128810265903104","张","621","","","","","","","","","","","","","","","","","","","true","12","2","moral","385","positive","诚信","","","","","","","","","","","","","","","","",""
"null","","null","html-keyboard-response","44","258793","0.0-6.0-1.0-4.0-0.5","3","4","4","3","4","4","4","3","4","4","4","4","2","4","4","5","4","2","4","5","3","3","3","1","2","2","2","3","1","1","0","0","0","0","0","1","1","0","1","1","1","0","0","1","5","5","5","5","5","2","2","2","4","1","3","723128810265903104","张","621","","","","","","","","","","","","","","","","","","","","","","","","","","","","","","","","","","","","","","","","","",""
"448","<p style=""color:white; font-size: 35px;"">正直</p>","i","categorize-html","45","259245","0.0-6.0-1.0-4.0-1.5","3","4","4","3","4","4","4","3","4","4","4","4","2","4","4","5","4","2","4","5","3","3","3","1","2","2","2","3","1","1","0","0","0","0","0","1","1","0","1","1","1","0","0","1","5","5","5","5","5","2","2","2","4","1","3","723128810265903104","张","621","","","","","","","","","","","","","","","","","","","true","12","2","moral","448","positive","正直","","","","","","","","","","","","","","","","",""
"null","","null","html-keyboard-response","46","259500","0.0-6.0-1.0-4.0-0.6","3","4","4","3","4","4","4","3","4","4","4","4","2","4","4","5","4","2","4","5","3","3","3","1","2","2","2","3","1","1","0","0","0","0","0","1","1","0","1","1","1","0","0","1","5","5","5","5","5","2","2","2","4","1","3","723128810265903104","张","621","","","","","","","","","","","","","","","","","","","","","","","","","","","","","","","","","","","","","","","","","",""
"366","<p style=""color:white; font-size: 35px;"">卑鄙</p>","i","categorize-html","47","260613","0.0-6.0-1.0-4.0-1.6","3","4","4","3","4","4","4","3","4","4","4","4","2","4","4","5","4","2","4","5","3","3","3","1","2","2","2","3","1","1","0","0","0","0","0","1","1","0","1","1","1","0","0","1","5","5","5","5","5","2","2","2","4","1","3","723128810265903104","张","621","","","","","","","","","","","","","","","","","","","false","12","2","moral","366","negative","卑鄙","","","","","","","","","","","","","","","","",""
"null","","null","html-keyboard-response","48","260868","0.0-6.0-1.0-4.0-0.7","3","4","4","3","4","4","4","3","4","4","4","4","2","4","4","5","4","2","4","5","3","3","3","1","2","2","2","3","1","1","0","0","0","0","0","1","1","0","1","1","1","0","0","1","5","5","5","5","5","2","2","2","4","1","3","723128810265903104","张","621","","","","","","","","","","","","","","","","","","","","","","","","","","","","","","","","","","","","","","","","","",""
"554","<p style=""color:white; font-size: 35px;"">缺德</p>","e","categorize-html","49","261426","0.0-6.0-1.0-4.0-1.7","3","4","4","3","4","4","4","3","4","4","4","4","2","4","4","5","4","2","4","5","3","3","3","1","2","2","2","3","1","1","0","0","0","0","0","1","1","0","1","1","1","0","0","1","5","5","5","5","5","2","2","2","4","1","3","723128810265903104","张","621","","","","","","","","","","","","","","","","","","","true","12","2","moral","554","negative","缺德","","","","","","","","","","","","","","","","",""
"null","","null","html-keyboard-response","50","261686","0.0-6.0-1.0-4.0-0.8","3","4","4","3","4","4","4","3","4","4","4","4","2","4","4","5","4","2","4","5","3","3","3","1","2","2","2","3","1","1","0","0","0","0","0","1","1","0","1","1","1","0","0","1","5","5","5","5","5","2","2","2","4","1","3","723128810265903104","张","621","","","","","","","","","","","","","","","","","","","","","","","","","","","","","","","","","","","","","","","","","",""
"1299","<p style=""color:white; font-size: 35px;"">不孝</p>","e","categorize-html","51","262988","0.0-6.0-1.0-4.0-1.8","3","4","4","3","4","4","4","3","4","4","4","4","2","4","4","5","4","2","4","5","3","3","3","1","2","2","2","3","1","1","0","0","0","0","0","1","1","0","1","1","1","0","0","1","5","5","5","5","5","2","2","2","4","1","3","723128810265903104","张","621","","","","","","","","","","","","","","","","","","","true","12","2","moral","1299","negative","不孝","","","","","","","","","","","","","","","","",""
"null","","null","html-keyboard-response","52","263240","0.0-6.0-1.0-4.0-0.9","3","4","4","3","4","4","4","3","4","4","4","4","2","4","4","5","4","2","4","5","3","3","3","1","2","2","2","3","1","1","0","0","0","0","0","1","1","0","1","1","1","0","0","1","5","5","5","5","5","2","2","2","4","1","3","723128810265903104","张","621","","","","","","","","","","","","","","","","","","","","","","","","","","","","","","","","","","","","","","","","","",""
"548","<p style=""color:white; font-size: 35px;"">黑心</p>","e","categorize-html","53","263792","0.0-6.0-1.0-4.0-1.9","3","4","4","3","4","4","4","3","4","4","4","4","2","4","4","5","4","2","4","5","3","3","3","1","2","2","2","3","1","1","0","0","0","0","0","1","1","0","1","1","1","0","0","1","5","5","5","5","5","2","2","2","4","1","3","723128810265903104","张","621","","","","","","","","","","","","","","","","","","","true","12","2","moral","548","negative","黑心","","","","","","","","","","","","","","","","",""
"null","","null","html-keyboard-response","54","264047","0.0-6.0-1.0-4.0-0.10","3","4","4","3","4","4","4","3","4","4","4","4","2","4","4","5","4","2","4","5","3","3","3","1","2","2","2","3","1","1","0","0","0","0","0","1","1","0","1","1","1","0","0","1","5","5","5","5","5","2","2","2","4","1","3","723128810265903104","张","621","","","","","","","","","","","","","","","","","","","","","","","","","","","","","","","","","","","","","","","","","",""
"537","<p style=""color:white; font-size: 35px;"">君子</p>","i","categorize-html","55","264588","0.0-6.0-1.0-4.0-1.10","3","4","4","3","4","4","4","3","4","4","4","4","2","4","4","5","4","2","4","5","3","3","3","1","2","2","2","3","1","1","0","0","0","0","0","1","1","0","1","1","1","0","0","1","5","5","5","5","5","2","2","2","4","1","3","723128810265903104","张","621","","","","","","","","","","","","","","","","","","","true","12","2","moral","537","positive","君子","","","","","","","","","","","","","","","","",""
"null","","null","html-keyboard-response","56","264847","0.0-6.0-1.0-4.0-0.11","3","4","4","3","4","4","4","3","4","4","4","4","2","4","4","5","4","2","4","5","3","3","3","1","2","2","2","3","1","1","0","0","0","0","0","1","1","0","1","1","1","0","0","1","5","5","5","5","5","2","2","2","4","1","3","723128810265903104","张","621","","","","","","","","","","","","","","","","","","","","","","","","","","","","","","","","","","","","","","","","","",""
"323","<p style=""color:white; font-size: 35px;"">善良</p>","i","categorize-html","57","265174","0.0-6.0-1.0-4.0-1.11","3","4","4","3","4","4","4","3","4","4","4","4","2","4","4","5","4","2","4","5","3","3","3","1","2","2","2","3","1","1","0","0","0","0","0","1","1","0","1","1","1","0","0","1","5","5","5","5","5","2","2","2","4","1","3","723128810265903104","张","621","","","","","","","","","","","","","","","","","","","true","12","2","moral","323","positive","善良","","","","","","","","","","","","","","","","",""
"3540","
    <div class=""tag-bottom""><p>
    —— 任务3：对“自我/消极”词和“他人/积极”词分类 ——<p/>
    <span style=""color:#78DCE8""><b>注意上方，之前的四类词语将混合在一起交替呈现</b></span><p/>
    <span style=""color:#FFD866""><b>请根据上方标签的提示，尽可能正确并且快速地做出按键反应</b></span><p/>
    当按键错误时屏幕中会出现<span style=""color:red""> X </span>，需要按另一个键纠正才能继续<br/><p/>
    请把双手食指分别放在键盘的“E”键和“I”键上<p/>
    按<空格键>开始
    </p></div>"," ","html-keyboard-response","58","268715","0.0-6.0-1.0-5.0","3","4","4","3","4","4","4","3","4","4","4","4","2","4","4","5","4","2","4","5","3","3","3","1","2","2","2","3","1","1","0","0","0","0","0","1","1","0","1","1","1","0","0","1","5","5","5","5","5","2","2","2","4","1","3","723128810265903104","张","621","","","","","","","","","","","","","","","","","","","","","","","","","","","","","","","","","","","","","","","","","",""
"null","","null","html-keyboard-response","59","268966","0.0-6.0-1.0-6.0-0.0","3","4","4","3","4","4","4","3","4","4","4","4","2","4","4","5","4","2","4","5","3","3","3","1","2","2","2","3","1","1","0","0","0","0","0","1","1","0","1","1","1","0","0","1","5","5","5","5","5","2","2","2","4","1","3","723128810265903104","张","621","","","","","","","","","","","","","","","","","","","","","","","","","","","","","","","","","","","","","","","","","",""
"1006","<p style=""color:rgb(150, 250, 100); font-size: 35px;"">他的</p>","e","categorize-html","60","270775","0.0-6.0-1.0-6.0-1.0","3","4","4","3","4","4","4","3","4","4","4","4","2","4","4","5","4","2","4","5","3","3","3","1","2","2","2","3","1","1","0","0","0","0","0","1","1","0","1","1","1","0","0","1","5","5","5","5","5","2","2","2","4","1","3","723128810265903104","张","621","","","","","","","","","","","","","","","","","","","false","13","3","moral","1482.95","other","他的","","","","","","","","","","","","","","","","",""
"null","","null","html-keyboard-response","61","271027","0.0-6.0-1.0-6.0-0.1","3","4","4","3","4","4","4","3","4","4","4","4","2","4","4","5","4","2","4","5","3","3","3","1","2","2","2","3","1","1","0","0","0","0","0","1","1","0","1","1","1","0","0","1","5","5","5","5","5","2","2","2","4","1","3","723128810265903104","张","621","","","","","","","","","","","","","","","","","","","","","","","","","","","","","","","","","","","","","","","","","",""
"716","<p style=""color:white; font-size: 35px;"">不孝</p>","i","categorize-html","62","272709","0.0-6.0-1.0-6.0-1.1","3","4","4","3","4","4","4","3","4","4","4","4","2","4","4","5","4","2","4","5","3","3","3","1","2","2","2","3","1","1","0","0","0","0","0","1","1","0","1","1","1","0","0","1","5","5","5","5","5","2","2","2","4","1","3","723128810265903104","张","621","","","","","","","","","","","","","","","","","","","false","13","3","moral","1482.95","negative","不孝","","","","","","","","","","","","","","","","",""
"null","","null","html-keyboard-response","63","272960","0.0-6.0-1.0-6.0-0.2","3","4","4","3","4","4","4","3","4","4","4","4","2","4","4","5","4","2","4","5","3","3","3","1","2","2","2","3","1","1","0","0","0","0","0","1","1","0","1","1","1","0","0","1","5","5","5","5","5","2","2","2","4","1","3","723128810265903104","张","621","","","","","","","","","","","","","","","","","","","","","","","","","","","","","","","","","","","","","","","","","",""
"928","<p style=""color:rgb(150, 250, 100); font-size: 35px;"">我的</p>","e","categorize-html","64","273893","0.0-6.0-1.0-6.0-1.2","3","4","4","3","4","4","4","3","4","4","4","4","2","4","4","5","4","2","4","5","3","3","3","1","2","2","2","3","1","1","0","0","0","0","0","1","1","0","1","1","1","0","0","1","5","5","5","5","5","2","2","2","4","1","3","723128810265903104","张","621","","","","","","","","","","","","","","","","","","","true","13","3","moral","928","self","我的","","","","","","","","","","","","","","","","",""
"null","","null","html-keyboard-response","65","274146","0.0-6.0-1.0-6.0-0.3","3","4","4","3","4","4","4","3","4","4","4","4","2","4","4","5","4","2","4","5","3","3","3","1","2","2","2","3","1","1","0","0","0","0","0","1","1","0","1","1","1","0","0","1","5","5","5","5","5","2","2","2","4","1","3","723128810265903104","张","621","","","","","","","","","","","","","","","","","","","","","","","","","","","","","","","","","","","","","","","","","",""
"1053","<p style=""color:white; font-size: 35px;"">诚信</p>","i","categorize-html","66","275203","0.0-6.0-1.0-6.0-1.3","3","4","4","3","4","4","4","3","4","4","4","4","2","4","4","5","4","2","4","5","3","3","3","1","2","2","2","3","1","1","0","0","0","0","0","1","1","0","1","1","1","0","0","1","5","5","5","5","5","2","2","2","4","1","3","723128810265903104","张","621","","","","","","","","","","","","","","","","","","","true","13","3","moral","1053","positive","诚信","","","","","","","","","","","","","","","","",""
"null","","null","html-keyboard-response","67","275457","0.0-6.0-1.0-6.0-0.4","3","4","4","3","4","4","4","3","4","4","4","4","2","4","4","5","4","2","4","5","3","3","3","1","2","2","2","3","1","1","0","0","0","0","0","1","1","0","1","1","1","0","0","1","5","5","5","5","5","2","2","2","4","1","3","723128810265903104","张","621","","","","","","","","","","","","","","","","","","","","","","","","","","","","","","","","","","","","","","","","","",""
"1178","<p style=""color:rgb(150, 250, 100); font-size: 35px;"">别人的</p>","i","categorize-html","68","276639","0.0-6.0-1.0-6.0-1.4","3","4","4","3","4","4","4","3","4","4","4","4","2","4","4","5","4","2","4","5","3","3","3","1","2","2","2","3","1","1","0","0","0","0","0","1","1","0","1","1","1","0","0","1","5","5","5","5","5","2","2","2","4","1","3","723128810265903104","张","621","","","","","","","","","","","","","","","","","","","true","13","3","moral","1178","other","别人的","","","","","","","","","","","","","","","","",""
"null","","null","html-keyboard-response","69","276893","0.0-6.0-1.0-6.0-0.5","3","4","4","3","4","4","4","3","4","4","4","4","2","4","4","5","4","2","4","5","3","3","3","1","2","2","2","3","1","1","0","0","0","0","0","1","1","0","1","1","1","0","0","1","5","5","5","5","5","2","2","2","4","1","3","723128810265903104","张","621","","","","","","","","","","","","","","","","","","","","","","","","","","","","","","","","","","","","","","","","","",""
"1857","<p style=""color:white; font-size: 35px;"">正直</p>","i","categorize-html","70","278754","0.0-6.0-1.0-6.0-1.5","3","4","4","3","4","4","4","3","4","4","4","4","2","4","4","5","4","2","4","5","3","3","3","1","2","2","2","3","1","1","0","0","0","0","0","1","1","0","1","1","1","0","0","1","5","5","5","5","5","2","2","2","4","1","3","723128810265903104","张","621","","","","","","","","","","","","","","","","","","","true","13","3","moral","1857","positive","正直","","","","","","","","","","","","","","","","",""
"null","","null","html-keyboard-response","71","279014","0.0-6.0-1.0-6.0-0.6","3","4","4","3","4","4","4","3","4","4","4","4","2","4","4","5","4","2","4","5","3","3","3","1","2","2","2","3","1","1","0","0","0","0","0","1","1","0","1","1","1","0","0","1","5","5","5","5","5","2","2","2","4","1","3","723128810265903104","张","621","","","","","","","","","","","","","","","","","","","","","","","","","","","","","","","","","","","","","","","","","",""
"586","<p style=""color:rgb(150, 250, 100); font-size: 35px;"">自己的</p>","e","categorize-html","72","279604","0.0-6.0-1.0-6.0-1.6","3","4","4","3","4","4","4","3","4","4","4","4","2","4","4","5","4","2","4","5","3","3","3","1","2","2","2","3","1","1","0","0","0","0","0","1","1","0","1","1","1","0","0","1","5","5","5","5","5","2","2","2","4","1","3","723128810265903104","张","621","","","","","","","","","","","","","","","","","","","true","13","3","moral","586","self","自己的","","","","","","","","","","","","","","","","",""
"null","","null","html-keyboard-response","73","279865","0.0-6.0-1.0-6.0-0.7","3","4","4","3","4","4","4","3","4","4","4","4","2","4","4","5","4","2","4","5","3","3","3","1","2","2","2","3","1","1","0","0","0","0","0","1","1","0","1","1","1","0","0","1","5","5","5","5","5","2","2","2","4","1","3","723128810265903104","张","621","","","","","","","","","","","","","","","","","","","","","","","","","","","","","","","","","","","","","","","","","",""
"1492","<p style=""color:white; font-size: 35px;"">黑心</p>","i","categorize-html","74","281993","0.0-6.0-1.0-6.0-1.7","3","4","4","3","4","4","4","3","4","4","4","4","2","4","4","5","4","2","4","5","3","3","3","1","2","2","2","3","1","1","0","0","0","0","0","1","1","0","1","1","1","0","0","1","5","5","5","5","5","2","2","2","4","1","3","723128810265903104","张","621","","","","","","","","","","","","","","","","","","","false","13","3","moral","1482.95","negative","黑心","","","","","","","","","","","","","","","","",""
"null","","null","html-keyboard-response","75","282246","0.0-6.0-1.0-6.0-0.8","3","4","4","3","4","4","4","3","4","4","4","4","2","4","4","5","4","2","4","5","3","3","3","1","2","2","2","3","1","1","0","0","0","0","0","1","1","0","1","1","1","0","0","1","5","5","5","5","5","2","2","2","4","1","3","723128810265903104","张","621","","","","","","","","","","","","","","","","","","","","","","","","","","","","","","","","","","","","","","","","","",""
"839","<p style=""color:rgb(150, 250, 100); font-size: 35px;"">我</p>","e","categorize-html","76","283089","0.0-6.0-1.0-6.0-1.8","3","4","4","3","4","4","4","3","4","4","4","4","2","4","4","5","4","2","4","5","3","3","3","1","2","2","2","3","1","1","0","0","0","0","0","1","1","0","1","1","1","0","0","1","5","5","5","5","5","2","2","2","4","1","3","723128810265903104","张","621","","","","","","","","","","","","","","","","","","","true","13","3","moral","839","self","我","","","","","","","","","","","","","","","","",""
"null","","null","html-keyboard-response","77","283342","0.0-6.0-1.0-6.0-0.9","3","4","4","3","4","4","4","3","4","4","4","4","2","4","4","5","4","2","4","5","3","3","3","1","2","2","2","3","1","1","0","0","0","0","0","1","1","0","1","1","1","0","0","1","5","5","5","5","5","2","2","2","4","1","3","723128810265903104","张","621","","","","","","","","","","","","","","","","","","","","","","","","","","","","","","","","","","","","","","","","","",""
"2143","<p style=""color:white; font-size: 35px;"">缺德</p>","e","categorize-html","78","285489","0.0-6.0-1.0-6.0-1.9","3","4","4","3","4","4","4","3","4","4","4","4","2","4","4","5","4","2","4","5","3","3","3","1","2","2","2","3","1","1","0","0","0","0","0","1","1","0","1","1","1","0","0","1","5","5","5","5","5","2","2","2","4","1","3","723128810265903104","张","621","","","","","","","","","","","","","","","","","","","true","13","3","moral","2143","negative","缺德","","","","","","","","","","","","","","","","",""
"null","","null","html-keyboard-response","79","285747","0.0-6.0-1.0-6.0-0.10","3","4","4","3","4","4","4","3","4","4","4","4","2","4","4","5","4","2","4","5","3","3","3","1","2","2","2","3","1","1","0","0","0","0","0","1","1","0","1","1","1","0","0","1","5","5","5","5","5","2","2","2","4","1","3","723128810265903104","张","621","","","","","","","","","","","","","","","","","","","","","","","","","","","","","","","","","","","","","","","","","",""
"929","<p style=""color:rgb(150, 250, 100); font-size: 35px;"">别人</p>","i","categorize-html","80","286682","0.0-6.0-1.0-6.0-1.10","3","4","4","3","4","4","4","3","4","4","4","4","2","4","4","5","4","2","4","5","3","3","3","1","2","2","2","3","1","1","0","0","0","0","0","1","1","0","1","1","1","0","0","1","5","5","5","5","5","2","2","2","4","1","3","723128810265903104","张","621","","","","","","","","","","","","","","","","","","","true","13","3","moral","929","other","别人","","","","","","","","","","","","","","","","",""
"null","","null","html-keyboard-response","81","286933","0.0-6.0-1.0-6.0-0.11","3","4","4","3","4","4","4","3","4","4","4","4","2","4","4","5","4","2","4","5","3","3","3","1","2","2","2","3","1","1","0","0","0","0","0","1","1","0","1","1","1","0","0","1","5","5","5","5","5","2","2","2","4","1","3","723128810265903104","张","621","","","","","","","","","","","","","","","","","","","","","","","","","","","","","","","","","","","","","","","","","",""
"1139","<p style=""color:white; font-size: 35px;"">高尚</p>","i","categorize-html","82","288079","0.0-6.0-1.0-6.0-1.11","3","4","4","3","4","4","4","3","4","4","4","4","2","4","4","5","4","2","4","5","3","3","3","1","2","2","2","3","1","1","0","0","0","0","0","1","1","0","1","1","1","0","0","1","5","5","5","5","5","2","2","2","4","1","3","723128810265903104","张","621","","","","","","","","","","","","","","","","","","","true","13","3","moral","1139","positive","高尚","","","","","","","","","","","","","","","","",""
"null","","null","html-keyboard-response","83","288332","0.0-6.0-1.0-6.0-0.12","3","4","4","3","4","4","4","3","4","4","4","4","2","4","4","5","4","2","4","5","3","3","3","1","2","2","2","3","1","1","0","0","0","0","0","1","1","0","1","1","1","0","0","1","5","5","5","5","5","2","2","2","4","1","3","723128810265903104","张","621","","","","","","","","","","","","","","","","","","","","","","","","","","","","","","","","","","","","","","","","","",""
"536","<p style=""color:rgb(150, 250, 100); font-size: 35px;"">他</p>","i","categorize-html","84","288875","0.0-6.0-1.0-6.0-1.12","3","4","4","3","4","4","4","3","4","4","4","4","2","4","4","5","4","2","4","5","3","3","3","1","2","2","2","3","1","1","0","0","0","0","0","1","1","0","1","1","1","0","0","1","5","5","5","5","5","2","2","2","4","1","3","723128810265903104","张","621","","","","","","","","","","","","","","","","","","","true","13","3","moral","536","other","他","","","","","","","","","","","","","","","","",""
"null","","null","html-keyboard-response","85","289126","0.0-6.0-1.0-6.0-0.13","3","4","4","3","4","4","4","3","4","4","4","4","2","4","4","5","4","2","4","5","3","3","3","1","2","2","2","3","1","1","0","0","0","0","0","1","1","0","1","1","1","0","0","1","5","5","5","5","5","2","2","2","4","1","3","723128810265903104","张","621","","","","","","","","","","","","","","","","","","","","","","","","","","","","","","","","","","","","","","","","","",""
"497","<p style=""color:white; font-size: 35px;"">小人</p>","i","categorize-html","86","290477","0.0-6.0-1.0-6.0-1.13","3","4","4","3","4","4","4","3","4","4","4","4","2","4","4","5","4","2","4","5","3","3","3","1","2","2","2","3","1","1","0","0","0","0","0","1","1","0","1","1","1","0","0","1","5","5","5","5","5","2","2","2","4","1","3","723128810265903104","张","621","","","","","","","","","","","","","","","","","","","false","13","3","moral","1482.95","negative","小人","","","","","","","","","","","","","","","","",""
"null","","null","html-keyboard-response","87","290736","0.0-6.0-1.0-6.0-0.14","3","4","4","3","4","4","4","3","4","4","4","4","2","4","4","5","4","2","4","5","3","3","3","1","2","2","2","3","1","1","0","0","0","0","0","1","1","0","1","1","1","0","0","1","5","5","5","5","5","2","2","2","4","1","3","723128810265903104","张","621","","","","","","","","","","","","","","","","","","","","","","","","","","","","","","","","","","","","","","","","","",""
"687","<p style=""color:rgb(150, 250, 100); font-size: 35px;"">本人的</p>","e","categorize-html","88","291430","0.0-6.0-1.0-6.0-1.14","3","4","4","3","4","4","4","3","4","4","4","4","2","4","4","5","4","2","4","5","3","3","3","1","2","2","2","3","1","1","0","0","0","0","0","1","1","0","1","1","1","0","0","1","5","5","5","5","5","2","2","2","4","1","3","723128810265903104","张","621","","","","","","","","","","","","","","","","","","","true","13","3","moral","687","self","本人的","","","","","","","","","","","","","","","","",""
"null","","null","html-keyboard-response","89","291684","0.0-6.0-1.0-6.0-0.15","3","4","4","3","4","4","4","3","4","4","4","4","2","4","4","5","4","2","4","5","3","3","3","1","2","2","2","3","1","1","0","0","0","0","0","1","1","0","1","1","1","0","0","1","5","5","5","5","5","2","2","2","4","1","3","723128810265903104","张","621","","","","","","","","","","","","","","","","","","","","","","","","","","","","","","","","","","","","","","","","","",""
"905","<p style=""color:white; font-size: 35px;"">君子</p>","i","categorize-html","90","292592","0.0-6.0-1.0-6.0-1.15","3","4","4","3","4","4","4","3","4","4","4","4","2","4","4","5","4","2","4","5","3","3","3","1","2","2","2","3","1","1","0","0","0","0","0","1","1","0","1","1","1","0","0","1","5","5","5","5","5","2","2","2","4","1","3","723128810265903104","张","621","","","","","","","","","","","","","","","","","","","true","13","3","moral","905","positive","君子","","","","","","","","","","","","","","","","",""
"null","","null","html-keyboard-response","91","292848","0.0-6.0-1.0-6.0-0.16","3","4","4","3","4","4","4","3","4","4","4","4","2","4","4","5","4","2","4","5","3","3","3","1","2","2","2","3","1","1","0","0","0","0","0","1","1","0","1","1","1","0","0","1","5","5","5","5","5","2","2","2","4","1","3","723128810265903104","张","621","","","","","","","","","","","","","","","","","","","","","","","","","","","","","","","","","","","","","","","","","",""
"549","<p style=""color:rgb(150, 250, 100); font-size: 35px;"">他人</p>","i","categorize-html","92","293401","0.0-6.0-1.0-6.0-1.16","3","4","4","3","4","4","4","3","4","4","4","4","2","4","4","5","4","2","4","5","3","3","3","1","2","2","2","3","1","1","0","0","0","0","0","1","1","0","1","1","1","0","0","1","5","5","5","5","5","2","2","2","4","1","3","723128810265903104","张","621","","","","","","","","","","","","","","","","","","","true","13","3","moral","549","other","他人","","","","","","","","","","","","","","","","",""
"null","","null","html-keyboard-response","93","293659","0.0-6.0-1.0-6.0-0.17","3","4","4","3","4","4","4","3","4","4","4","4","2","4","4","5","4","2","4","5","3","3","3","1","2","2","2","3","1","1","0","0","0","0","0","1","1","0","1","1","1","0","0","1","5","5","5","5","5","2","2","2","4","1","3","723128810265903104","张","621","","","","","","","","","","","","","","","","","","","","","","","","","","","","","","","","","","","","","","","","","",""
"1026","<p style=""color:white; font-size: 35px;"">善良</p>","i","categorize-html","94","294689","0.0-6.0-1.0-6.0-1.17","3","4","4","3","4","4","4","3","4","4","4","4","2","4","4","5","4","2","4","5","3","3","3","1","2","2","2","3","1","1","0","0","0","0","0","1","1","0","1","1","1","0","0","1","5","5","5","5","5","2","2","2","4","1","3","723128810265903104","张","621","","","","","","","","","","","","","","","","","","","true","13","3","moral","1026","positive","善良","","","","","","","","","","","","","","","","",""
"null","","null","html-keyboard-response","95","294947","0.0-6.0-1.0-6.0-0.18","3","4","4","3","4","4","4","3","4","4","4","4","2","4","4","5","4","2","4","5","3","3","3","1","2","2","2","3","1","1","0","0","0","0","0","1","1","0","1","1","1","0","0","1","5","5","5","5","5","2","2","2","4","1","3","723128810265903104","张","621","","","","","","","","","","","","","","","","","","","","","","","","","","","","","","","","","","","","","","","","","",""
"678","<p style=""color:rgb(150, 250, 100); font-size: 35px;"">本人</p>","e","categorize-html","96","295630","0.0-6.0-1.0-6.0-1.18","3","4","4","3","4","4","4","3","4","4","4","4","2","4","4","5","4","2","4","5","3","3","3","1","2","2","2","3","1","1","0","0","0","0","0","1","1","0","1","1","1","0","0","1","5","5","5","5","5","2","2","2","4","1","3","723128810265903104","张","621","","","","","","","","","","","","","","","","","","","true","13","3","moral","678","self","本人","","","","","","","","","","","","","","","","",""
"null","","null","html-keyboard-response","97","295885","0.0-6.0-1.0-6.0-0.19","3","4","4","3","4","4","4","3","4","4","4","4","2","4","4","5","4","2","4","5","3","3","3","1","2","2","2","3","1","1","0","0","0","0","0","1","1","0","1","1","1","0","0","1","5","5","5","5","5","2","2","2","4","1","3","723128810265903104","张","621","","","","","","","","","","","","","","","","","","","","","","","","","","","","","","","","","","","","","","","","","",""
"417","<p style=""color:white; font-size: 35px;"">不仁</p>","e","categorize-html","98","296306","0.0-6.0-1.0-6.0-1.19","3","4","4","3","4","4","4","3","4","4","4","4","2","4","4","5","4","2","4","5","3","3","3","1","2","2","2","3","1","1","0","0","0","0","0","1","1","0","1","1","1","0","0","1","5","5","5","5","5","2","2","2","4","1","3","723128810265903104","张","621","","","","","","","","","","","","","","","","","","","true","13","3","moral","417","negative","不仁","","","","","","","","","","","","","","","","",""
"null","","null","html-keyboard-response","99","296559","0.0-6.0-1.0-6.0-0.20","3","4","4","3","4","4","4","3","4","4","4","4","2","4","4","5","4","2","4","5","3","3","3","1","2","2","2","3","1","1","0","0","0","0","0","1","1","0","1","1","1","0","0","1","5","5","5","5","5","2","2","2","4","1","3","723128810265903104","张","621","","","","","","","","","","","","","","","","","","","","","","","","","","","","","","","","","","","","","","","","","",""
"647","<p style=""color:rgb(150, 250, 100); font-size: 35px;"">他人的</p>","i","categorize-html","100","297210","0.0-6.0-1.0-6.0-1.20","3","4","4","3","4","4","4","3","4","4","4","4","2","4","4","5","4","2","4","5","3","3","3","1","2","2","2","3","1","1","0","0","0","0","0","1","1","0","1","1","1","0","0","1","5","5","5","5","5","2","2","2","4","1","3","723128810265903104","张","621","","","","","","","","","","","","","","","","","","","true","13","3","moral","647","other","他人的","","","","","","","","","","","","","","","","",""
"null","","null","html-keyboard-response","101","297467","0.0-6.0-1.0-6.0-0.21","3","4","4","3","4","4","4","3","4","4","4","4","2","4","4","5","4","2","4","5","3","3","3","1","2","2","2","3","1","1","0","0","0","0","0","1","1","0","1","1","1","0","0","1","5","5","5","5","5","2","2","2","4","1","3","723128810265903104","张","621","","","","","","","","","","","","","","","","","","","","","","","","","","","","","","","","","","","","","","","","","",""
"501","<p style=""color:white; font-size: 35px;"">卑鄙</p>","e","categorize-html","102","297973","0.0-6.0-1.0-6.0-1.21","3","4","4","3","4","4","4","3","4","4","4","4","2","4","4","5","4","2","4","5","3","3","3","1","2","2","2","3","1","1","0","0","0","0","0","1","1","0","1","1","1","0","0","1","5","5","5","5","5","2","2","2","4","1","3","723128810265903104","张","621","","","","","","","","","","","","","","","","","","","true","13","3","moral","501","negative","卑鄙","","","","","","","","","","","","","","","","",""
"null","","null","html-keyboard-response","103","298226","0.0-6.0-1.0-6.0-0.22","3","4","4","3","4","4","4","3","4","4","4","4","2","4","4","5","4","2","4","5","3","3","3","1","2","2","2","3","1","1","0","0","0","0","0","1","1","0","1","1","1","0","0","1","5","5","5","5","5","2","2","2","4","1","3","723128810265903104","张","621","","","","","","","","","","","","","","","","","","","","","","","","","","","","","","","","","","","","","","","","","",""
"480","<p style=""color:rgb(150, 250, 100); font-size: 35px;"">自己</p>","e","categorize-html","104","298709","0.0-6.0-1.0-6.0-1.22","3","4","4","3","4","4","4","3","4","4","4","4","2","4","4","5","4","2","4","5","3","3","3","1","2","2","2","3","1","1","0","0","0","0","0","1","1","0","1","1","1","0","0","1","5","5","5","5","5","2","2","2","4","1","3","723128810265903104","张","621","","","","","","","","","","","","","","","","","","","true","13","3","moral","480","self","自己","","","","","","","","","","","","","","","","",""
"null","","null","html-keyboard-response","105","298967","0.0-6.0-1.0-6.0-0.23","3","4","4","3","4","4","4","3","4","4","4","4","2","4","4","5","4","2","4","5","3","3","3","1","2","2","2","3","1","1","0","0","0","0","0","1","1","0","1","1","1","0","0","1","5","5","5","5","5","2","2","2","4","1","3","723128810265903104","张","621","","","","","","","","","","","","","","","","","","","","","","","","","","","","","","","","","","","","","","","","","",""
"581","<p style=""color:white; font-size: 35px;"">廉正</p>","i","categorize-html","106","299552","0.0-6.0-1.0-6.0-1.23","3","4","4","3","4","4","4","3","4","4","4","4","2","4","4","5","4","2","4","5","3","3","3","1","2","2","2","3","1","1","0","0","0","0","0","1","1","0","1","1","1","0","0","1","5","5","5","5","5","2","2","2","4","1","3","723128810265903104","张","621","","","","","","","","","","","","","","","","","","","true","13","3","moral","581","positive","廉正","","","","","","","","","","","","","","","","",""
"9587","
    <div class=""tag-bottom""><p>
    —— 任务4：对“自我/消极”词和“他人/积极”词分类 ——<p/>
    <span style=""color:#78DCE8""><b>与刚才的任务完全相同，请再次对这四类词语分类</b></span><p/>
    <span style=""color:#FFD866""><b>请根据上方标签的提示，尽可能正确并且快速地做出按键反应</b></span><p/>
    当按键错误时屏幕中会出现<span style=""color:red""> X </span>，需要按另一个键纠正才能继续<br/><p/>
    请把双手食指分别放在键盘的“E”键和“I”键上<p/>
    按<空格键>开始
    </p></div>"," ","html-keyboard-response","107","309139","0.0-6.0-1.0-7.0","3","4","4","3","4","4","4","3","4","4","4","4","2","4","4","5","4","2","4","5","3","3","3","1","2","2","2","3","1","1","0","0","0","0","0","1","1","0","1","1","1","0","0","1","5","5","5","5","5","2","2","2","4","1","3","723128810265903104","张","621","","","","","","","","","","","","","","","","","","","","","","","","","","","","","","","","","","","","","","","","","",""
"null","","null","html-keyboard-response","108","309391","0.0-6.0-1.0-8.0-0.0","3","4","4","3","4","4","4","3","4","4","4","4","2","4","4","5","4","2","4","5","3","3","3","1","2","2","2","3","1","1","0","0","0","0","0","1","1","0","1","1","1","0","0","1","5","5","5","5","5","2","2","2","4","1","3","723128810265903104","张","621","","","","","","","","","","","","","","","","","","","","","","","","","","","","","","","","","","","","","","","","","",""
"646","<p style=""color:rgb(150, 250, 100); font-size: 35px;"">本人</p>","e","categorize-html","109","310041","0.0-6.0-1.0-8.0-1.0","3","4","4","3","4","4","4","3","4","4","4","4","2","4","4","5","4","2","4","5","3","3","3","1","2","2","2","3","1","1","0","0","0","0","0","1","1","0","1","1","1","0","0","1","5","5","5","5","5","2","2","2","4","1","3","723128810265903104","张","621","","","","","","","","","","","","","","","","","","","true","14","4","moral","646","self","本人","","","","","","","","","","","","","","","","",""
"null","","null","html-keyboard-response","110","310299","0.0-6.0-1.0-8.0-0.1","3","4","4","3","4","4","4","3","4","4","4","4","2","4","4","5","4","2","4","5","3","3","3","1","2","2","2","3","1","1","0","0","0","0","0","1","1","0","1","1","1","0","0","1","5","5","5","5","5","2","2","2","4","1","3","723128810265903104","张","621","","","","","","","","","","","","","","","","","","","","","","","","","","","","","","","","","","","","","","","","","",""
"614","<p style=""color:white; font-size: 35px;"">君子</p>","i","categorize-html","111","310917","0.0-6.0-1.0-8.0-1.1","3","4","4","3","4","4","4","3","4","4","4","4","2","4","4","5","4","2","4","5","3","3","3","1","2","2","2","3","1","1","0","0","0","0","0","1","1","0","1","1","1","0","0","1","5","5","5","5","5","2","2","2","4","1","3","723128810265903104","张","621","","","","","","","","","","","","","","","","","","","true","14","4","moral","614","positive","君子","","","","","","","","","","","","","","","","",""
"null","","null","html-keyboard-response","112","311183","0.0-6.0-1.0-8.0-0.2","3","4","4","3","4","4","4","3","4","4","4","4","2","4","4","5","4","2","4","5","3","3","3","1","2","2","2","3","1","1","0","0","0","0","0","1","1","0","1","1","1","0","0","1","5","5","5","5","5","2","2","2","4","1","3","723128810265903104","张","621","","","","","","","","","","","","","","","","","","","","","","","","","","","","","","","","","","","","","","","","","",""
"607","<p style=""color:rgb(150, 250, 100); font-size: 35px;"">他人</p>","i","categorize-html","113","311793","0.0-6.0-1.0-8.0-1.2","3","4","4","3","4","4","4","3","4","4","4","4","2","4","4","5","4","2","4","5","3","3","3","1","2","2","2","3","1","1","0","0","0","0","0","1","1","0","1","1","1","0","0","1","5","5","5","5","5","2","2","2","4","1","3","723128810265903104","张","621","","","","","","","","","","","","","","","","","","","true","14","4","moral","607","other","他人","","","","","","","","","","","","","","","","",""
"null","","null","html-keyboard-response","114","312047","0.0-6.0-1.0-8.0-0.3","3","4","4","3","4","4","4","3","4","4","4","4","2","4","4","5","4","2","4","5","3","3","3","1","2","2","2","3","1","1","0","0","0","0","0","1","1","0","1","1","1","0","0","1","5","5","5","5","5","2","2","2","4","1","3","723128810265903104","张","621","","","","","","","","","","","","","","","","","","","","","","","","","","","","","","","","","","","","","","","","","",""
"509","<p style=""color:white; font-size: 35px;"">缺德</p>","i","categorize-html","115","312927","0.0-6.0-1.0-8.0-1.3","3","4","4","3","4","4","4","3","4","4","4","4","2","4","4","5","4","2","4","5","3","3","3","1","2","2","2","3","1","1","0","0","0","0","0","1","1","0","1","1","1","0","0","1","5","5","5","5","5","2","2","2","4","1","3","723128810265903104","张","621","","","","","","","","","","","","","","","","","","","false","14","4","moral","1158.4722222222222","negative","缺德","","","","","","","","","","","","","","","","",""
"null","","null","html-keyboard-response","116","313184","0.0-6.0-1.0-8.0-0.4","3","4","4","3","4","4","4","3","4","4","4","4","2","4","4","5","4","2","4","5","3","3","3","1","2","2","2","3","1","1","0","0","0","0","0","1","1","0","1","1","1","0","0","1","5","5","5","5","5","2","2","2","4","1","3","723128810265903104","张","621","","","","","","","","","","","","","","","","","","","","","","","","","","","","","","","","","","","","","","","","","",""
"549","<p style=""color:rgb(150, 250, 100); font-size: 35px;"">他</p>","i","categorize-html","117","313736","0.0-6.0-1.0-8.0-1.4","3","4","4","3","4","4","4","3","4","4","4","4","2","4","4","5","4","2","4","5","3","3","3","1","2","2","2","3","1","1","0","0","0","0","0","1","1","0","1","1","1","0","0","1","5","5","5","5","5","2","2","2","4","1","3","723128810265903104","张","621","","","","","","","","","","","","","","","","","","","true","14","4","moral","549","other","他","","","","","","","","","","","","","","","","",""
"null","","null","html-keyboard-response","118","313989","0.0-6.0-1.0-8.0-0.5","3","4","4","3","4","4","4","3","4","4","4","4","2","4","4","5","4","2","4","5","3","3","3","1","2","2","2","3","1","1","0","0","0","0","0","1","1","0","1","1","1","0","0","1","5","5","5","5","5","2","2","2","4","1","3","723128810265903104","张","621","","","","","","","","","","","","","","","","","","","","","","","","","","","","","","","","","","","","","","","","","",""
"376","<p style=""color:white; font-size: 35px;"">善良</p>","i","categorize-html","119","314368","0.0-6.0-1.0-8.0-1.5","3","4","4","3","4","4","4","3","4","4","4","4","2","4","4","5","4","2","4","5","3","3","3","1","2","2","2","3","1","1","0","0","0","0","0","1","1","0","1","1","1","0","0","1","5","5","5","5","5","2","2","2","4","1","3","723128810265903104","张","621","","","","","","","","","","","","","","","","","","","true","14","4","moral","376","positive","善良","","","","","","","","","","","","","","","","",""
"null","","null","html-keyboard-response","120","314625","0.0-6.0-1.0-8.0-0.6","3","4","4","3","4","4","4","3","4","4","4","4","2","4","4","5","4","2","4","5","3","3","3","1","2","2","2","3","1","1","0","0","0","0","0","1","1","0","1","1","1","0","0","1","5","5","5","5","5","2","2","2","4","1","3","723128810265903104","张","621","","","","","","","","","","","","","","","","","","","","","","","","","","","","","","","","","","","","","","","","","",""
"531","<p style=""color:rgb(150, 250, 100); font-size: 35px;"">本人的</p>","e","categorize-html","121","315166","0.0-6.0-1.0-8.0-1.6","3","4","4","3","4","4","4","3","4","4","4","4","2","4","4","5","4","2","4","5","3","3","3","1","2","2","2","3","1","1","0","0","0","0","0","1","1","0","1","1","1","0","0","1","5","5","5","5","5","2","2","2","4","1","3","723128810265903104","张","621","","","","","","","","","","","","","","","","","","","true","14","4","moral","531","self","本人的","","","","","","","","","","","","","","","","",""
"null","","null","html-keyboard-response","122","315420","0.0-6.0-1.0-8.0-0.7","3","4","4","3","4","4","4","3","4","4","4","4","2","4","4","5","4","2","4","5","3","3","3","1","2","2","2","3","1","1","0","0","0","0","0","1","1","0","1","1","1","0","0","1","5","5","5","5","5","2","2","2","4","1","3","723128810265903104","张","621","","","","","","","","","","","","","","","","","","","","","","","","","","","","","","","","","","","","","","","","","",""
"479","<p style=""color:white; font-size: 35px;"">缺德</p>","e","categorize-html","123","315904","0.0-6.0-1.0-8.0-1.7","3","4","4","3","4","4","4","3","4","4","4","4","2","4","4","5","4","2","4","5","3","3","3","1","2","2","2","3","1","1","0","0","0","0","0","1","1","0","1","1","1","0","0","1","5","5","5","5","5","2","2","2","4","1","3","723128810265903104","张","621","","","","","","","","","","","","","","","","","","","true","14","4","moral","479","negative","缺德","","","","","","","","","","","","","","","","",""
"null","","null","html-keyboard-response","124","316158","0.0-6.0-1.0-8.0-0.8","3","4","4","3","4","4","4","3","4","4","4","4","2","4","4","5","4","2","4","5","3","3","3","1","2","2","2","3","1","1","0","0","0","0","0","1","1","0","1","1","1","0","0","1","5","5","5","5","5","2","2","2","4","1","3","723128810265903104","张","621","","","","","","","","","","","","","","","","","","","","","","","","","","","","","","","","","","","","","","","","","",""
"563","<p style=""color:rgb(150, 250, 100); font-size: 35px;"">自己</p>","e","categorize-html","125","316728","0.0-6.0-1.0-8.0-1.8","3","4","4","3","4","4","4","3","4","4","4","4","2","4","4","5","4","2","4","5","3","3","3","1","2","2","2","3","1","1","0","0","0","0","0","1","1","0","1","1","1","0","0","1","5","5","5","5","5","2","2","2","4","1","3","723128810265903104","张","621","","","","","","","","","","","","","","","","","","","true","14","4","moral","563","self","自己","","","","","","","","","","","","","","","","",""
"null","","null","html-keyboard-response","126","316980","0.0-6.0-1.0-8.0-0.9","3","4","4","3","4","4","4","3","4","4","4","4","2","4","4","5","4","2","4","5","3","3","3","1","2","2","2","3","1","1","0","0","0","0","0","1","1","0","1","1","1","0","0","1","5","5","5","5","5","2","2","2","4","1","3","723128810265903104","张","621","","","","","","","","","","","","","","","","","","","","","","","","","","","","","","","","","","","","","","","","","",""
"1210","<p style=""color:white; font-size: 35px;"">廉正</p>","i","categorize-html","127","318194","0.0-6.0-1.0-8.0-1.9","3","4","4","3","4","4","4","3","4","4","4","4","2","4","4","5","4","2","4","5","3","3","3","1","2","2","2","3","1","1","0","0","0","0","0","1","1","0","1","1","1","0","0","1","5","5","5","5","5","2","2","2","4","1","3","723128810265903104","张","621","","","","","","","","","","","","","","","","","","","true","14","4","moral","1210","positive","廉正","","","","","","","","","","","","","","","","",""
"null","","null","html-keyboard-response","128","318451","0.0-6.0-1.0-8.0-0.10","3","4","4","3","4","4","4","3","4","4","4","4","2","4","4","5","4","2","4","5","3","3","3","1","2","2","2","3","1","1","0","0","0","0","0","1","1","0","1","1","1","0","0","1","5","5","5","5","5","2","2","2","4","1","3","723128810265903104","张","621","","","","","","","","","","","","","","","","","","","","","","","","","","","","","","","","","","","","","","","","","",""
"373","<p style=""color:rgb(150, 250, 100); font-size: 35px;"">他的</p>","i","categorize-html","129","318827","0.0-6.0-1.0-8.0-1.10","3","4","4","3","4","4","4","3","4","4","4","4","2","4","4","5","4","2","4","5","3","3","3","1","2","2","2","3","1","1","0","0","0","0","0","1","1","0","1","1","1","0","0","1","5","5","5","5","5","2","2","2","4","1","3","723128810265903104","张","621","","","","","","","","","","","","","","","","","","","true","14","4","moral","373","other","他的","","","","","","","","","","","","","","","","",""
"null","","null","html-keyboard-response","130","319082","0.0-6.0-1.0-8.0-0.11","3","4","4","3","4","4","4","3","4","4","4","4","2","4","4","5","4","2","4","5","3","3","3","1","2","2","2","3","1","1","0","0","0","0","0","1","1","0","1","1","1","0","0","1","5","5","5","5","5","2","2","2","4","1","3","723128810265903104","张","621","","","","","","","","","","","","","","","","","","","","","","","","","","","","","","","","","","","","","","","","","",""
"506","<p style=""color:white; font-size: 35px;"">小人</p>","i","categorize-html","131","319994","0.0-6.0-1.0-8.0-1.11","3","4","4","3","4","4","4","3","4","4","4","4","2","4","4","5","4","2","4","5","3","3","3","1","2","2","2","3","1","1","0","0","0","0","0","1","1","0","1","1","1","0","0","1","5","5","5","5","5","2","2","2","4","1","3","723128810265903104","张","621","","","","","","","","","","","","","","","","","","","false","14","4","moral","1158.4722222222222","negative","小人","","","","","","","","","","","","","","","","",""
"null","","null","html-keyboard-response","132","320248","0.0-6.0-1.0-8.0-0.12","3","4","4","3","4","4","4","3","4","4","4","4","2","4","4","5","4","2","4","5","3","3","3","1","2","2","2","3","1","1","0","0","0","0","0","1","1","0","1","1","1","0","0","1","5","5","5","5","5","2","2","2","4","1","3","723128810265903104","张","621","","","","","","","","","","","","","","","","","","","","","","","","","","","","","","","","","","","","","","","","","",""
"421","<p style=""color:rgb(150, 250, 100); font-size: 35px;"">本人的</p>","e","categorize-html","133","320670","0.0-6.0-1.0-8.0-1.12","3","4","4","3","4","4","4","3","4","4","4","4","2","4","4","5","4","2","4","5","3","3","3","1","2","2","2","3","1","1","0","0","0","0","0","1","1","0","1","1","1","0","0","1","5","5","5","5","5","2","2","2","4","1","3","723128810265903104","张","621","","","","","","","","","","","","","","","","","","","true","14","4","moral","421","self","本人的","","","","","","","","","","","","","","","","",""
"null","","null","html-keyboard-response","134","320926","0.0-6.0-1.0-8.0-0.13","3","4","4","3","4","4","4","3","4","4","4","4","2","4","4","5","4","2","4","5","3","3","3","1","2","2","2","3","1","1","0","0","0","0","0","1","1","0","1","1","1","0","0","1","5","5","5","5","5","2","2","2","4","1","3","723128810265903104","张","621","","","","","","","","","","","","","","","","","","","","","","","","","","","","","","","","","","","","","","","","","",""
"718","<p style=""color:white; font-size: 35px;"">诚信</p>","e","categorize-html","135","322198","0.0-6.0-1.0-8.0-1.13","3","4","4","3","4","4","4","3","4","4","4","4","2","4","4","5","4","2","4","5","3","3","3","1","2","2","2","3","1","1","0","0","0","0","0","1","1","0","1","1","1","0","0","1","5","5","5","5","5","2","2","2","4","1","3","723128810265903104","张","621","","","","","","","","","","","","","","","","","","","false","14","4","moral","1158.4722222222222","positive","诚信","","","","","","","","","","","","","","","","",""
"null","","null","html-keyboard-response","136","322450","0.0-6.0-1.0-8.0-0.14","3","4","4","3","4","4","4","3","4","4","4","4","2","4","4","5","4","2","4","5","3","3","3","1","2","2","2","3","1","1","0","0","0","0","0","1","1","0","1","1","1","0","0","1","5","5","5","5","5","2","2","2","4","1","3","723128810265903104","张","621","","","","","","","","","","","","","","","","","","","","","","","","","","","","","","","","","","","","","","","","","",""
"384","<p style=""color:rgb(150, 250, 100); font-size: 35px;"">他人</p>","i","categorize-html","137","322837","0.0-6.0-1.0-8.0-1.14","3","4","4","3","4","4","4","3","4","4","4","4","2","4","4","5","4","2","4","5","3","3","3","1","2","2","2","3","1","1","0","0","0","0","0","1","1","0","1","1","1","0","0","1","5","5","5","5","5","2","2","2","4","1","3","723128810265903104","张","621","","","","","","","","","","","","","","","","","","","true","14","4","moral","384","other","他人","","","","","","","","","","","","","","","","",""
"null","","null","html-keyboard-response","138","323088","0.0-6.0-1.0-8.0-0.15","3","4","4","3","4","4","4","3","4","4","4","4","2","4","4","5","4","2","4","5","3","3","3","1","2","2","2","3","1","1","0","0","0","0","0","1","1","0","1","1","1","0","0","1","5","5","5","5","5","2","2","2","4","1","3","723128810265903104","张","621","","","","","","","","","","","","","","","","","","","","","","","","","","","","","","","","","","","","","","","","","",""
"559","<p style=""color:white; font-size: 35px;"">不孝</p>","e","categorize-html","139","323652","0.0-6.0-1.0-8.0-1.15","3","4","4","3","4","4","4","3","4","4","4","4","2","4","4","5","4","2","4","5","3","3","3","1","2","2","2","3","1","1","0","0","0","0","0","1","1","0","1","1","1","0","0","1","5","5","5","5","5","2","2","2","4","1","3","723128810265903104","张","621","","","","","","","","","","","","","","","","","","","true","14","4","moral","559","negative","不孝","","","","","","","","","","","","","","","","",""
"null","","null","html-keyboard-response","140","323908","0.0-6.0-1.0-8.0-0.16","3","4","4","3","4","4","4","3","4","4","4","4","2","4","4","5","4","2","4","5","3","3","3","1","2","2","2","3","1","1","0","0","0","0","0","1","1","0","1","1","1","0","0","1","5","5","5","5","5","2","2","2","4","1","3","723128810265903104","张","621","","","","","","","","","","","","","","","","","","","","","","","","","","","","","","","","","","","","","","","","","",""
"355","<p style=""color:rgb(150, 250, 100); font-size: 35px;"">别人</p>","e","categorize-html","141","324638","0.0-6.0-1.0-8.0-1.16","3","4","4","3","4","4","4","3","4","4","4","4","2","4","4","5","4","2","4","5","3","3","3","1","2","2","2","3","1","1","0","0","0","0","0","1","1","0","1","1","1","0","0","1","5","5","5","5","5","2","2","2","4","1","3","723128810265903104","张","621","","","","","","","","","","","","","","","","","","","false","14","4","moral","1158.4722222222222","other","别人","","","","","","","","","","","","","","","","",""
"null","","null","html-keyboard-response","142","324892","0.0-6.0-1.0-8.0-0.17","3","4","4","3","4","4","4","3","4","4","4","4","2","4","4","5","4","2","4","5","3","3","3","1","2","2","2","3","1","1","0","0","0","0","0","1","1","0","1","1","1","0","0","1","5","5","5","5","5","2","2","2","4","1","3","723128810265903104","张","621","","","","","","","","","","","","","","","","","","","","","","","","","","","","","","","","","","","","","","","","","",""
"995","<p style=""color:white; font-size: 35px;"">君子</p>","i","categorize-html","143","325890","0.0-6.0-1.0-8.0-1.17","3","4","4","3","4","4","4","3","4","4","4","4","2","4","4","5","4","2","4","5","3","3","3","1","2","2","2","3","1","1","0","0","0","0","0","1","1","0","1","1","1","0","0","1","5","5","5","5","5","2","2","2","4","1","3","723128810265903104","张","621","","","","","","","","","","","","","","","","","","","true","14","4","moral","995","positive","君子","","","","","","","","","","","","","","","","",""
"null","","null","html-keyboard-response","144","326143","0.0-6.0-1.0-8.0-0.18","3","4","4","3","4","4","4","3","4","4","4","4","2","4","4","5","4","2","4","5","3","3","3","1","2","2","2","3","1","1","0","0","0","0","0","1","1","0","1","1","1","0","0","1","5","5","5","5","5","2","2","2","4","1","3","723128810265903104","张","621","","","","","","","","","","","","","","","","","","","","","","","","","","","","","","","","","","","","","","","","","",""
"441","<p style=""color:rgb(150, 250, 100); font-size: 35px;"">自己的</p>","i","categorize-html","145","326936","0.0-6.0-1.0-8.0-1.18","3","4","4","3","4","4","4","3","4","4","4","4","2","4","4","5","4","2","4","5","3","3","3","1","2","2","2","3","1","1","0","0","0","0","0","1","1","0","1","1","1","0","0","1","5","5","5","5","5","2","2","2","4","1","3","723128810265903104","张","621","","","","","","","","","","","","","","","","","","","false","14","4","moral","1158.4722222222222","self","自己的","","","","","","","","","","","","","","","","",""
"null","","null","html-keyboard-response","146","327191","0.0-6.0-1.0-8.0-0.19","3","4","4","3","4","4","4","3","4","4","4","4","2","4","4","5","4","2","4","5","3","3","3","1","2","2","2","3","1","1","0","0","0","0","0","1","1","0","1","1","1","0","0","1","5","5","5","5","5","2","2","2","4","1","3","723128810265903104","张","621","","","","","","","","","","","","","","","","","","","","","","","","","","","","","","","","","","","","","","","","","",""
"1055","<p style=""color:white; font-size: 35px;"">不仁</p>","e","categorize-html","147","328251","0.0-6.0-1.0-8.0-1.19","3","4","4","3","4","4","4","3","4","4","4","4","2","4","4","5","4","2","4","5","3","3","3","1","2","2","2","3","1","1","0","0","0","0","0","1","1","0","1","1","1","0","0","1","5","5","5","5","5","2","2","2","4","1","3","723128810265903104","张","621","","","","","","","","","","","","","","","","","","","true","14","4","moral","1055","negative","不仁","","","","","","","","","","","","","","","","",""
"null","","null","html-keyboard-response","148","328504","0.0-6.0-1.0-8.0-0.20","3","4","4","3","4","4","4","3","4","4","4","4","2","4","4","5","4","2","4","5","3","3","3","1","2","2","2","3","1","1","0","0","0","0","0","1","1","0","1","1","1","0","0","1","5","5","5","5","5","2","2","2","4","1","3","723128810265903104","张","621","","","","","","","","","","","","","","","","","","","","","","","","","","","","","","","","","","","","","","","","","",""
"451","<p style=""color:rgb(150, 250, 100); font-size: 35px;"">我的</p>","e","categorize-html","149","328958","0.0-6.0-1.0-8.0-1.20","3","4","4","3","4","4","4","3","4","4","4","4","2","4","4","5","4","2","4","5","3","3","3","1","2","2","2","3","1","1","0","0","0","0","0","1","1","0","1","1","1","0","0","1","5","5","5","5","5","2","2","2","4","1","3","723128810265903104","张","621","","","","","","","","","","","","","","","","","","","true","14","4","moral","451","self","我的","","","","","","","","","","","","","","","","",""
"null","","null","html-keyboard-response","150","329211","0.0-6.0-1.0-8.0-0.21","3","4","4","3","4","4","4","3","4","4","4","4","2","4","4","5","4","2","4","5","3","3","3","1","2","2","2","3","1","1","0","0","0","0","0","1","1","0","1","1","1","0","0","1","5","5","5","5","5","2","2","2","4","1","3","723128810265903104","张","621","","","","","","","","","","","","","","","","","","","","","","","","","","","","","","","","","","","","","","","","","",""
"465","<p style=""color:white; font-size: 35px;"">卑鄙</p>","e","categorize-html","151","329680","0.0-6.0-1.0-8.0-1.21","3","4","4","3","4","4","4","3","4","4","4","4","2","4","4","5","4","2","4","5","3","3","3","1","2","2","2","3","1","1","0","0","0","0","0","1","1","0","1","1","1","0","0","1","5","5","5","5","5","2","2","2","4","1","3","723128810265903104","张","621","","","","","","","","","","","","","","","","","","","true","14","4","moral","465","negative","卑鄙","","","","","","","","","","","","","","","","",""
"null","","null","html-keyboard-response","152","329936","0.0-6.0-1.0-8.0-0.22","3","4","4","3","4","4","4","3","4","4","4","4","2","4","4","5","4","2","4","5","3","3","3","1","2","2","2","3","1","1","0","0","0","0","0","1","1","0","1","1","1","0","0","1","5","5","5","5","5","2","2","2","4","1","3","723128810265903104","张","621","","","","","","","","","","","","","","","","","","","","","","","","","","","","","","","","","","","","","","","","","",""
"484","<p style=""color:rgb(150, 250, 100); font-size: 35px;"">别人的</p>","i","categorize-html","153","330424","0.0-6.0-1.0-8.0-1.22","3","4","4","3","4","4","4","3","4","4","4","4","2","4","4","5","4","2","4","5","3","3","3","1","2","2","2","3","1","1","0","0","0","0","0","1","1","0","1","1","1","0","0","1","5","5","5","5","5","2","2","2","4","1","3","723128810265903104","张","621","","","","","","","","","","","","","","","","","","","true","14","4","moral","484","other","别人的","","","","","","","","","","","","","","","","",""
"null","","null","html-keyboard-response","154","330678","0.0-6.0-1.0-8.0-0.23","3","4","4","3","4","4","4","3","4","4","4","4","2","4","4","5","4","2","4","5","3","3","3","1","2","2","2","3","1","1","0","0","0","0","0","1","1","0","1","1","1","0","0","1","5","5","5","5","5","2","2","2","4","1","3","723128810265903104","张","621","","","","","","","","","","","","","","","","","","","","","","","","","","","","","","","","","","","","","","","","","",""
"851","<p style=""color:white; font-size: 35px;"">正直</p>","e","categorize-html","155","331984","0.0-6.0-1.0-8.0-1.23","3","4","4","3","4","4","4","3","4","4","4","4","2","4","4","5","4","2","4","5","3","3","3","1","2","2","2","3","1","1","0","0","0","0","0","1","1","0","1","1","1","0","0","1","5","5","5","5","5","2","2","2","4","1","3","723128810265903104","张","621","","","","","","","","","","","","","","","","","","","false","14","4","moral","1158.4722222222222","positive","正直","","","","","","","","","","","","","","","","",""
"null","","null","html-keyboard-response","156","332235","0.0-6.0-1.0-8.0-0.24","3","4","4","3","4","4","4","3","4","4","4","4","2","4","4","5","4","2","4","5","3","3","3","1","2","2","2","3","1","1","0","0","0","0","0","1","1","0","1","1","1","0","0","1","5","5","5","5","5","2","2","2","4","1","3","723128810265903104","张","621","","","","","","","","","","","","","","","","","","","","","","","","","","","","","","","","","","","","","","","","","",""
"731","<p style=""color:rgb(150, 250, 100); font-size: 35px;"">自己</p>","e","categorize-html","157","332970","0.0-6.0-1.0-8.0-1.24","3","4","4","3","4","4","4","3","4","4","4","4","2","4","4","5","4","2","4","5","3","3","3","1","2","2","2","3","1","1","0","0","0","0","0","1","1","0","1","1","1","0","0","1","5","5","5","5","5","2","2","2","4","1","3","723128810265903104","张","621","","","","","","","","","","","","","","","","","","","true","14","4","moral","731","self","自己","","","","","","","","","","","","","","","","",""
"null","","null","html-keyboard-response","158","333221","0.0-6.0-1.0-8.0-0.25","3","4","4","3","4","4","4","3","4","4","4","4","2","4","4","5","4","2","4","5","3","3","3","1","2","2","2","3","1","1","0","0","0","0","0","1","1","0","1","1","1","0","0","1","5","5","5","5","5","2","2","2","4","1","3","723128810265903104","张","621","","","","","","","","","","","","","","","","","","","","","","","","","","","","","","","","","","","","","","","","","",""
"862","<p style=""color:white; font-size: 35px;"">小人</p>","e","categorize-html","159","334088","0.0-6.0-1.0-8.0-1.25","3","4","4","3","4","4","4","3","4","4","4","4","2","4","4","5","4","2","4","5","3","3","3","1","2","2","2","3","1","1","0","0","0","0","0","1","1","0","1","1","1","0","0","1","5","5","5","5","5","2","2","2","4","1","3","723128810265903104","张","621","","","","","","","","","","","","","","","","","","","true","14","4","moral","862","negative","小人","","","","","","","","","","","","","","","","",""
"null","","null","html-keyboard-response","160","334348","0.0-6.0-1.0-8.0-0.26","3","4","4","3","4","4","4","3","4","4","4","4","2","4","4","5","4","2","4","5","3","3","3","1","2","2","2","3","1","1","0","0","0","0","0","1","1","0","1","1","1","0","0","1","5","5","5","5","5","2","2","2","4","1","3","723128810265903104","张","621","","","","","","","","","","","","","","","","","","","","","","","","","","","","","","","","","","","","","","","","","",""
"609","<p style=""color:rgb(150, 250, 100); font-size: 35px;"">他人的</p>","i","categorize-html","161","334960","0.0-6.0-1.0-8.0-1.26","3","4","4","3","4","4","4","3","4","4","4","4","2","4","4","5","4","2","4","5","3","3","3","1","2","2","2","3","1","1","0","0","0","0","0","1","1","0","1","1","1","0","0","1","5","5","5","5","5","2","2","2","4","1","3","723128810265903104","张","621","","","","","","","","","","","","","","","","","","","true","14","4","moral","609","other","他人的","","","","","","","","","","","","","","","","",""
"null","","null","html-keyboard-response","162","335217","0.0-6.0-1.0-8.0-0.27","3","4","4","3","4","4","4","3","4","4","4","4","2","4","4","5","4","2","4","5","3","3","3","1","2","2","2","3","1","1","0","0","0","0","0","1","1","0","1","1","1","0","0","1","5","5","5","5","5","2","2","2","4","1","3","723128810265903104","张","621","","","","","","","","","","","","","","","","","","","","","","","","","","","","","","","","","","","","","","","","","",""
"624","<p style=""color:white; font-size: 35px;"">正直</p>","i","categorize-html","163","335845","0.0-6.0-1.0-8.0-1.27","3","4","4","3","4","4","4","3","4","4","4","4","2","4","4","5","4","2","4","5","3","3","3","1","2","2","2","3","1","1","0","0","0","0","0","1","1","0","1","1","1","0","0","1","5","5","5","5","5","2","2","2","4","1","3","723128810265903104","张","621","","","","","","","","","","","","","","","","","","","true","14","4","moral","624","positive","正直","","","","","","","","","","","","","","","","",""
"null","","null","html-keyboard-response","164","336099","0.0-6.0-1.0-8.0-0.28","3","4","4","3","4","4","4","3","4","4","4","4","2","4","4","5","4","2","4","5","3","3","3","1","2","2","2","3","1","1","0","0","0","0","0","1","1","0","1","1","1","0","0","1","5","5","5","5","5","2","2","2","4","1","3","723128810265903104","张","621","","","","","","","","","","","","","","","","","","","","","","","","","","","","","","","","","","","","","","","","","",""
"566","<p style=""color:rgb(150, 250, 100); font-size: 35px;"">别人的</p>","i","categorize-html","165","336669","0.0-6.0-1.0-8.0-1.28","3","4","4","3","4","4","4","3","4","4","4","4","2","4","4","5","4","2","4","5","3","3","3","1","2","2","2","3","1","1","0","0","0","0","0","1","1","0","1","1","1","0","0","1","5","5","5","5","5","2","2","2","4","1","3","723128810265903104","张","621","","","","","","","","","","","","","","","","","","","true","14","4","moral","566","other","别人的","","","","","","","","","","","","","","","","",""
"null","","null","html-keyboard-response","166","336926","0.0-6.0-1.0-8.0-0.29","3","4","4","3","4","4","4","3","4","4","4","4","2","4","4","5","4","2","4","5","3","3","3","1","2","2","2","3","1","1","0","0","0","0","0","1","1","0","1","1","1","0","0","1","5","5","5","5","5","2","2","2","4","1","3","723128810265903104","张","621","","","","","","","","","","","","","","","","","","","","","","","","","","","","","","","","","","","","","","","","","",""
"501","<p style=""color:white; font-size: 35px;"">廉正</p>","e","categorize-html","167","337836","0.0-6.0-1.0-8.0-1.29","3","4","4","3","4","4","4","3","4","4","4","4","2","4","4","5","4","2","4","5","3","3","3","1","2","2","2","3","1","1","0","0","0","0","0","1","1","0","1","1","1","0","0","1","5","5","5","5","5","2","2","2","4","1","3","723128810265903104","张","621","","","","","","","","","","","","","","","","","","","false","14","4","moral","1158.4722222222222","positive","廉正","","","","","","","","","","","","","","","","",""
"null","","null","html-keyboard-response","168","338093","0.0-6.0-1.0-8.0-0.30","3","4","4","3","4","4","4","3","4","4","4","4","2","4","4","5","4","2","4","5","3","3","3","1","2","2","2","3","1","1","0","0","0","0","0","1","1","0","1","1","1","0","0","1","5","5","5","5","5","2","2","2","4","1","3","723128810265903104","张","621","","","","","","","","","","","","","","","","","","","","","","","","","","","","","","","","","","","","","","","","","",""
"502","<p style=""color:rgb(150, 250, 100); font-size: 35px;"">自己的</p>","e","categorize-html","169","338599","0.0-6.0-1.0-8.0-1.30","3","4","4","3","4","4","4","3","4","4","4","4","2","4","4","5","4","2","4","5","3","3","3","1","2","2","2","3","1","1","0","0","0","0","0","1","1","0","1","1","1","0","0","1","5","5","5","5","5","2","2","2","4","1","3","723128810265903104","张","621","","","","","","","","","","","","","","","","","","","true","14","4","moral","502","self","自己的","","","","","","","","","","","","","","","","",""
"null","","null","html-keyboard-response","170","338854","0.0-6.0-1.0-8.0-0.31","3","4","4","3","4","4","4","3","4","4","4","4","2","4","4","5","4","2","4","5","3","3","3","1","2","2","2","3","1","1","0","0","0","0","0","1","1","0","1","1","1","0","0","1","5","5","5","5","5","2","2","2","4","1","3","723128810265903104","张","621","","","","","","","","","","","","","","","","","","","","","","","","","","","","","","","","","","","","","","","","","",""
"355","<p style=""color:white; font-size: 35px;"">黑心</p>","e","categorize-html","171","339213","0.0-6.0-1.0-8.0-1.31","3","4","4","3","4","4","4","3","4","4","4","4","2","4","4","5","4","2","4","5","3","3","3","1","2","2","2","3","1","1","0","0","0","0","0","1","1","0","1","1","1","0","0","1","5","5","5","5","5","2","2","2","4","1","3","723128810265903104","张","621","","","","","","","","","","","","","","","","","","","true","14","4","moral","355","negative","黑心","","","","","","","","","","","","","","","","",""
"null","","null","html-keyboard-response","172","339469","0.0-6.0-1.0-8.0-0.32","3","4","4","3","4","4","4","3","4","4","4","4","2","4","4","5","4","2","4","5","3","3","3","1","2","2","2","3","1","1","0","0","0","0","0","1","1","0","1","1","1","0","0","1","5","5","5","5","5","2","2","2","4","1","3","723128810265903104","张","621","","","","","","","","","","","","","","","","","","","","","","","","","","","","","","","","","","","","","","","","","",""
"348","<p style=""color:rgb(150, 250, 100); font-size: 35px;"">我</p>","e","categorize-html","173","339821","0.0-6.0-1.0-8.0-1.32","3","4","4","3","4","4","4","3","4","4","4","4","2","4","4","5","4","2","4","5","3","3","3","1","2","2","2","3","1","1","0","0","0","0","0","1","1","0","1","1","1","0","0","1","5","5","5","5","5","2","2","2","4","1","3","723128810265903104","张","621","","","","","","","","","","","","","","","","","","","true","14","4","moral","348","self","我","","","","","","","","","","","","","","","","",""
"null","","null","html-keyboard-response","174","340100","0.0-6.0-1.0-8.0-0.33","3","4","4","3","4","4","4","3","4","4","4","4","2","4","4","5","4","2","4","5","3","3","3","1","2","2","2","3","1","1","0","0","0","0","0","1","1","0","1","1","1","0","0","1","5","5","5","5","5","2","2","2","4","1","3","723128810265903104","张","621","","","","","","","","","","","","","","","","","","","","","","","","","","","","","","","","","","","","","","","","","",""
"318","<p style=""color:white; font-size: 35px;"">不仁</p>","e","categorize-html","175","340422","0.0-6.0-1.0-8.0-1.33","3","4","4","3","4","4","4","3","4","4","4","4","2","4","4","5","4","2","4","5","3","3","3","1","2","2","2","3","1","1","0","0","0","0","0","1","1","0","1","1","1","0","0","1","5","5","5","5","5","2","2","2","4","1","3","723128810265903104","张","621","","","","","","","","","","","","","","","","","","","true","14","4","moral","318","negative","不仁","","","","","","","","","","","","","","","","",""
"null","","null","html-keyboard-response","176","340676","0.0-6.0-1.0-8.0-0.34","3","4","4","3","4","4","4","3","4","4","4","4","2","4","4","5","4","2","4","5","3","3","3","1","2","2","2","3","1","1","0","0","0","0","0","1","1","0","1","1","1","0","0","1","5","5","5","5","5","2","2","2","4","1","3","723128810265903104","张","621","","","","","","","","","","","","","","","","","","","","","","","","","","","","","","","","","","","","","","","","","",""
"468","<p style=""color:rgb(150, 250, 100); font-size: 35px;"">别人</p>","i","categorize-html","177","341148","0.0-6.0-1.0-8.0-1.34","3","4","4","3","4","4","4","3","4","4","4","4","2","4","4","5","4","2","4","5","3","3","3","1","2","2","2","3","1","1","0","0","0","0","0","1","1","0","1","1","1","0","0","1","5","5","5","5","5","2","2","2","4","1","3","723128810265903104","张","621","","","","","","","","","","","","","","","","","","","true","14","4","moral","468","other","别人","","","","","","","","","","","","","","","","",""
"null","","null","html-keyboard-response","178","341406","0.0-6.0-1.0-8.0-0.35","3","4","4","3","4","4","4","3","4","4","4","4","2","4","4","5","4","2","4","5","3","3","3","1","2","2","2","3","1","1","0","0","0","0","0","1","1","0","1","1","1","0","0","1","5","5","5","5","5","2","2","2","4","1","3","723128810265903104","张","621","","","","","","","","","","","","","","","","","","","","","","","","","","","","","","","","","","","","","","","","","",""
"353","<p style=""color:white; font-size: 35px;"">诚信</p>","i","categorize-html","179","341764","0.0-6.0-1.0-8.0-1.35","3","4","4","3","4","4","4","3","4","4","4","4","2","4","4","5","4","2","4","5","3","3","3","1","2","2","2","3","1","1","0","0","0","0","0","1","1","0","1","1","1","0","0","1","5","5","5","5","5","2","2","2","4","1","3","723128810265903104","张","621","","","","","","","","","","","","","","","","","","","true","14","4","moral","353","positive","诚信","","","","","","","","","","","","","","","","",""
"null","","null","html-keyboard-response","180","342031","0.0-6.0-1.0-8.0-0.36","3","4","4","3","4","4","4","3","4","4","4","4","2","4","4","5","4","2","4","5","3","3","3","1","2","2","2","3","1","1","0","0","0","0","0","1","1","0","1","1","1","0","0","1","5","5","5","5","5","2","2","2","4","1","3","723128810265903104","张","621","","","","","","","","","","","","","","","","","","","","","","","","","","","","","","","","","","","","","","","","","",""
"334","<p style=""color:rgb(150, 250, 100); font-size: 35px;"">我</p>","i","categorize-html","181","342808","0.0-6.0-1.0-8.0-1.36","3","4","4","3","4","4","4","3","4","4","4","4","2","4","4","5","4","2","4","5","3","3","3","1","2","2","2","3","1","1","0","0","0","0","0","1","1","0","1","1","1","0","0","1","5","5","5","5","5","2","2","2","4","1","3","723128810265903104","张","621","","","","","","","","","","","","","","","","","","","false","14","4","moral","1158.4722222222222","self","我","","","","","","","","","","","","","","","","",""
"null","","null","html-keyboard-response","182","343061","0.0-6.0-1.0-8.0-0.37","3","4","4","3","4","4","4","3","4","4","4","4","2","4","4","5","4","2","4","5","3","3","3","1","2","2","2","3","1","1","0","0","0","0","0","1","1","0","1","1","1","0","0","1","5","5","5","5","5","2","2","2","4","1","3","723128810265903104","张","621","","","","","","","","","","","","","","","","","","","","","","","","","","","","","","","","","","","","","","","","","",""
"775","<p style=""color:white; font-size: 35px;"">高尚</p>","e","categorize-html","183","344251","0.0-6.0-1.0-8.0-1.37","3","4","4","3","4","4","4","3","4","4","4","4","2","4","4","5","4","2","4","5","3","3","3","1","2","2","2","3","1","1","0","0","0","0","0","1","1","0","1","1","1","0","0","1","5","5","5","5","5","2","2","2","4","1","3","723128810265903104","张","621","","","","","","","","","","","","","","","","","","","false","14","4","moral","1158.4722222222222","positive","高尚","","","","","","","","","","","","","","","","",""
"null","","null","html-keyboard-response","184","344505","0.0-6.0-1.0-8.0-0.38","3","4","4","3","4","4","4","3","4","4","4","4","2","4","4","5","4","2","4","5","3","3","3","1","2","2","2","3","1","1","0","0","0","0","0","1","1","0","1","1","1","0","0","1","5","5","5","5","5","2","2","2","4","1","3","723128810265903104","张","621","","","","","","","","","","","","","","","","","","","","","","","","","","","","","","","","","","","","","","","","","",""
"364","<p style=""color:rgb(150, 250, 100); font-size: 35px;"">他的</p>","e","categorize-html","185","345198","0.0-6.0-1.0-8.0-1.38","3","4","4","3","4","4","4","3","4","4","4","4","2","4","4","5","4","2","4","5","3","3","3","1","2","2","2","3","1","1","0","0","0","0","0","1","1","0","1","1","1","0","0","1","5","5","5","5","5","2","2","2","4","1","3","723128810265903104","张","621","","","","","","","","","","","","","","","","","","","false","14","4","moral","1158.4722222222222","other","他的","","","","","","","","","","","","","","","","",""
"null","","null","html-keyboard-response","186","345470","0.0-6.0-1.0-8.0-0.39","3","4","4","3","4","4","4","3","4","4","4","4","2","4","4","5","4","2","4","5","3","3","3","1","2","2","2","3","1","1","0","0","0","0","0","1","1","0","1","1","1","0","0","1","5","5","5","5","5","2","2","2","4","1","3","723128810265903104","张","621","","","","","","","","","","","","","","","","","","","","","","","","","","","","","","","","","","","","","","","","","",""
"777","<p style=""color:white; font-size: 35px;"">黑心</p>","e","categorize-html","187","346251","0.0-6.0-1.0-8.0-1.39","3","4","4","3","4","4","4","3","4","4","4","4","2","4","4","5","4","2","4","5","3","3","3","1","2","2","2","3","1","1","0","0","0","0","0","1","1","0","1","1","1","0","0","1","5","5","5","5","5","2","2","2","4","1","3","723128810265903104","张","621","","","","","","","","","","","","","","","","","","","true","14","4","moral","777","negative","黑心","","","","","","","","","","","","","","","","",""
"null","","null","html-keyboard-response","188","346508","0.0-6.0-1.0-8.0-0.40","3","4","4","3","4","4","4","3","4","4","4","4","2","4","4","5","4","2","4","5","3","3","3","1","2","2","2","3","1","1","0","0","0","0","0","1","1","0","1","1","1","0","0","1","5","5","5","5","5","2","2","2","4","1","3","723128810265903104","张","621","","","","","","","","","","","","","","","","","","","","","","","","","","","","","","","","","","","","","","","","","",""
"496","<p style=""color:rgb(150, 250, 100); font-size: 35px;"">本人</p>","e","categorize-html","189","347008","0.0-6.0-1.0-8.0-1.40","3","4","4","3","4","4","4","3","4","4","4","4","2","4","4","5","4","2","4","5","3","3","3","1","2","2","2","3","1","1","0","0","0","0","0","1","1","0","1","1","1","0","0","1","5","5","5","5","5","2","2","2","4","1","3","723128810265903104","张","621","","","","","","","","","","","","","","","","","","","true","14","4","moral","496","self","本人","","","","","","","","","","","","","","","","",""
"null","","null","html-keyboard-response","190","347260","0.0-6.0-1.0-8.0-0.41","3","4","4","3","4","4","4","3","4","4","4","4","2","4","4","5","4","2","4","5","3","3","3","1","2","2","2","3","1","1","0","0","0","0","0","1","1","0","1","1","1","0","0","1","5","5","5","5","5","2","2","2","4","1","3","723128810265903104","张","621","","","","","","","","","","","","","","","","","","","","","","","","","","","","","","","","","","","","","","","","","",""
"421","<p style=""color:white; font-size: 35px;"">卑鄙</p>","e","categorize-html","191","347685","0.0-6.0-1.0-8.0-1.41","3","4","4","3","4","4","4","3","4","4","4","4","2","4","4","5","4","2","4","5","3","3","3","1","2","2","2","3","1","1","0","0","0","0","0","1","1","0","1","1","1","0","0","1","5","5","5","5","5","2","2","2","4","1","3","723128810265903104","张","621","","","","","","","","","","","","","","","","","","","true","14","4","moral","421","negative","卑鄙","","","","","","","","","","","","","","","","",""
"null","","null","html-keyboard-response","192","347944","0.0-6.0-1.0-8.0-0.42","3","4","4","3","4","4","4","3","4","4","4","4","2","4","4","5","4","2","4","5","3","3","3","1","2","2","2","3","1","1","0","0","0","0","0","1","1","0","1","1","1","0","0","1","5","5","5","5","5","2","2","2","4","1","3","723128810265903104","张","621","","","","","","","","","","","","","","","","","","","","","","","","","","","","","","","","","","","","","","","","","",""
