"rt","stimulus","response","trial_type","trial_index","time_elapsed","internal_node_id","ses_1","ses_2","ses_3","ses_4","ses_5","ses_6","ses_7","ses_8","ses_9","ses_10","coreself_1","coreself_2","coreself_3","coreself_4","coreself_5","coreself_6","coreself_7","coreself_8","coreself_9","coreself_10","SGPS_1","SGPS_2","SGPS_3","SGPS_4","SGPS_5","SGPS_6","SGPS_7","SGPS_8","SGPS_9","NPI1","NPI2","NPI3","NPI4","NPI5","NPI6","NPI7","NPI8","NPI9","NPI10","NPI11","NPI12","NPI13","NPI14","NPI15","hsns_1","hsns_2","hsns_3","hsns_4","hsns_5","trap1","hsns_6","hsns_7","hsns_8","hsns_9","hsns_10","subj_idx","friend_name","ParticipantID","value","success","user_agent","responses","item_order","radio_event_ids","radio_event_times","key_event_times","mouse_event_times","straightlining","zigzagging","honeypot","timeout","failed_images","failed_audio","failed_video","version_attrib","version_target","correct","IAT","screen_id","task_id","RT","condition","word","varname","summary","version_attrib2","version_target2","time_stamp","view_history","response_type","key_press","avg_frame_time","center_x","center_y","correct_response","identity","Image","question_order","correct_answer","trap1_item"
"7208","
   <p><div style = ""color: white;font-size:25px;"">您好，欢迎参加本次实验。</div> </p>
   <p><div style = ""color: white;font-size:25px;"">为充分保障您的权利，请确保您已经知晓并同意《参与实验同意书》以及《数据公开知情同意书》。</div></p>
   <p><div style = ""color: white;font-size:25px;"">如果您未见过上述内容，请咨询实验员。</div></p>
   <p><div style = ""color: white;font-size:25px;"">如果您选择继续实验，则表示您已经清楚两份知情同意书的内容并同意。</div></p>
   <p><div style = ""color: pink;font-size:30px;"">请确保您记得day0的实验编号，您将在本次实验输入该编号，若您忘记，请咨询实验员后作答。</div></p>
   <p><div style = ""color: lightblue;font-size:25px;"">请您尽可能认真地作答，我们将依据您在各问卷和按键任务中的作答质量发放报酬。</div></p>
   <p> <div style = ""color: green;font-size:25px;""><按空格键至下页></div> </p>
   "," ","html-keyboard-response","0","7213","0.0-0.0","3","3","4","4","4","3","3","4","4","4","4","4","4","4","4","4","5","2","4","4","1","2","1","1","2","2","1","1","2","1","0","1","1","0","0","0","1","0","1","1","0","1","0","1","4","1","4","2","3","1","4","4","2","1","3","572562214427295744","R","79","","","","","","","","","","","","","","","","","","","","","","","","","","","","","","","","","","","","","","","","","",""
"","","","call-function","1","7216","0.0-1.0-0.0","3","3","4","4","4","3","3","4","4","4","4","4","4","4","4","4","5","2","4","4","1","2","1","1","2","2","1","1","2","1","0","1","1","0","0","0","1","0","1","1","0","1","0","1","4","1","4","2","3","1","4","4","2","1","3","572562214427295744","R","79","","","","","","","","","","","","","","","","","","","","","","","","","","","","","","","","","","","","","","","","","",""
"36469","","{""friend_name"":""R"",""ParticipantID"":""79""}","survey-html-form","2","43687","0.0-1.0-1.0","3","3","4","4","4","3","3","4","4","4","4","4","4","4","4","4","5","2","4","4","1","2","1","1","2","2","1","1","2","1","0","1","1","0","0","0","1","0","1","1","0","1","0","1","4","1","4","2","3","1","4","4","2","1","3","572562214427295744","R","79","","","","","","","","","","","","","","","","","","","","","","","","","","","","","","","","","","","","","","","","","",""
"","","","fullscreen","3","48541","0.0-2.0","3","3","4","4","4","3","3","4","4","4","4","4","4","4","4","4","5","2","4","4","1","2","1","1","2","2","1","1","2","1","0","1","1","0","0","0","1","0","1","1","0","1","0","1","4","1","4","2","3","1","4","4","2","1","3","572562214427295744","R","79","","true","{}","","","","","","","","","","","","","","","","","","","","","","","","","","","","","","","","","","","","","","",""
"37885.59999990463","","{""Q01"":""3"",""Q02"":""3"",""Q03"":""4"",""Q04"":""4"",""Q05"":""4"",""Q06"":""3"",""Q07"":""3"",""Q08"":""4"",""Q09"":""4"",""Q10"":""4""}","survey-template","4","86432","0.0-3.0","3","3","4","4","4","3","3","4","4","4","4","4","4","4","4","4","5","2","4","4","1","2","1","1","2","2","1","1","2","1","0","1","1","0","0","0","1","0","1","1","0","1","0","1","4","1","4","2","3","1","4","4","2","1","3","572562214427295744","R","79","","","","{""Q01"":""3"",""Q02"":""3"",""Q03"":""4"",""Q04"":""4"",""Q05"":""4"",""Q06"":""3"",""Q07"":""3"",""Q08"":""4"",""Q09"":""4"",""Q10"":""4""}","[0,1,2,3,4,5,6,7,8,9]","[""Q01"",""Q02"",""Q03"",""Q04"",""Q04"",""Q05"",""Q06"",""Q07"",""Q08"",""Q09"",""Q10"",""Q04""]","[3877.399999976158,6837.099999904633,9117.099999904633,11332.899999976158,12948.899999976158,13836.899999976158,16316.799999952316,18228.799999952316,22380.699999928474,24452.599999904633,29652.5,36452.299999952316]","[]","[3877.399999976158,6837.099999904633,8837.099999904633,9117.099999904633,10709.299999952316,11332.899999976158,12572.899999976158,12948.899999976158,13836.899999976158,16316.799999952316,17924.799999952316,18228.799999952316,21764.599999904633,22380.699999928474,24452.599999904633,27796.599999904633,28316.5,29108.399999976158,29652.5,36452.299999952316,37884.199999928474]","0.5","0.2222222222222222","0","","","","","","","","","","","","","","","","","","","","","","","","","","","","","",""
"48628.5","","{""Q01"":""4"",""Q02"":""4"",""Q03"":""4"",""Q04"":""4"",""Q05"":""4"",""Q06"":""4"",""Q07"":""5"",""Q08"":""2"",""Q09"":""4"",""Q10"":""4""}","survey-template","5","135071","0.0-4.0","3","3","4","4","4","3","3","4","4","4","4","4","4","4","4","4","5","2","4","4","1","2","1","1","2","2","1","1","2","1","0","1","1","0","0","0","1","0","1","1","0","1","0","1","4","1","4","2","3","1","4","4","2","1","3","572562214427295744","R","79","","","","{""Q01"":""4"",""Q02"":""4"",""Q03"":""4"",""Q04"":""4"",""Q05"":""4"",""Q06"":""4"",""Q07"":""5"",""Q08"":""2"",""Q09"":""4"",""Q10"":""4""}","[0,1,2,3,4,5,6,7,8,9]","[""Q01"",""Q02"",""Q03"",""Q03"",""Q03"",""Q04"",""Q05"",""Q06"",""Q07"",""Q05"",""Q08"",""Q09"",""Q10""]","[8228.300000071526,10156.300000071526,16436.200000047684,17404.200000047684,19132.200000047684,22596,27267.800000071526,29324.100000023842,30883.900000095367,33147.800000071526,36515.5,41755.60000002384,46299.5]","[]","[8228.300000071526,10156.300000071526,16436.200000047684,17404.200000047684,19132.200000047684,22596,27267.800000071526,29324.100000023842,30883.900000095367,33147.800000071526,36515.5,41403.5,41755.60000002384,46299.5,48627.300000071526]","0.5","0","0","","","","","","","","","","","","","","","","","","","","","","","","","","","","","",""
"","","","preload","6","137734","0.0-5.0","3","3","4","4","4","3","3","4","4","4","4","4","4","4","4","4","5","2","4","4","1","2","1","1","2","2","1","1","2","1","0","1","1","0","0","0","1","0","1","1","0","1","0","1","4","1","4","2","3","1","4","4","2","1","3","572562214427295744","R","79","","true","","","","","","","","","","","false","[]","[]","[]","","","","","","","","","","","","","","","","","","","","","","","","","",""
"27381","
    <h3>词语分类任务</h3>
    <p>在接下来的任务中，你需要对一系列词语进行分类。</p>
    <p>请先熟悉这些词语，这有利于你完成接下来的任务。</p>
    <table align=""center"" border=1 cellpadding=3 cellspacing=0>
    <tr> <th>类别</th> <th>词语</th> </tr>
    <tr> <td>&emsp;积极&emsp;</td> <td>&emsp;能干、全能、全才、高效、精干、天才&emsp;</td> </tr>
    <tr> <td>&emsp;消极&emsp;</td> <td>&emsp;无能、低能、废物、拙笨、愚钝、蠢笨&emsp;</td> </tr>
    <tr> <td>&emsp;自我&emsp;</td> <td>&emsp;我、我的、自己、自己的、本人、本人的&emsp;</td> </tr>
    <tr> <td>&emsp;他人&emsp;</td> <td>&emsp;他、他的、别人、别人的、他人、他人的&emsp;</td> </tr>
    </table><br/>","0","html-button-response","7","165117","0.0-6.0-0.0-0.0","3","3","4","4","4","3","3","4","4","4","4","4","4","4","4","4","5","2","4","4","1","2","1","1","2","2","1","1","2","1","0","1","1","0","0","0","1","0","1","1","0","1","0","1","4","1","4","2","3","1","4","4","2","1","3","572562214427295744","R","79","","","","","","","","","","","","","","","","","1","2","","","","","","","","","","","","","","","","","","","","","","","",""
"17730","
    <div class=""tag-bottom"">
    <p> —— 任务1：对“他人”词和“自我”词分类 ——<p/>
    不同词语会出现在屏幕中央，类别标签将始终显示在屏幕上方<p/>   
    <span style=""color:#FFD866""><b>请根据上方标签的提示，尽可能正确并且快速地做出按键反应</b></span><p/>
    当按键错误时屏幕中会出现<span style=""color:red""> X </span>，需要按另一个键纠正才能继续<br/><p/>
    请把双手食指分别放在键盘的“E”键和“I”键上<p/>
    按<空格键>开始
    </p></div>"," ","html-keyboard-response","8","182851","0.0-6.0-0.0-1.0","3","3","4","4","4","3","3","4","4","4","4","4","4","4","4","4","5","2","4","4","1","2","1","1","2","2","1","1","2","1","0","1","1","0","0","0","1","0","1","1","0","1","0","1","4","1","4","2","3","1","4","4","2","1","3","572562214427295744","R","79","","","","","","","","","","","","","","","","","","","","","","","","","","","","","","","","","","","","","","","","","",""
"null","","null","html-keyboard-response","9","183103","0.0-6.0-0.0-2.0-0.0","3","3","4","4","4","3","3","4","4","4","4","4","4","4","4","4","5","2","4","4","1","2","1","1","2","2","1","1","2","1","0","1","1","0","0","0","1","0","1","1","0","1","0","1","4","1","4","2","3","1","4","4","2","1","3","572562214427295744","R","79","","","","","","","","","","","","","","","","","","","","","","","","","","","","","","","","","","","","","","","","","",""
"795","<p style=""color:rgb(150, 250, 100); font-size: 35px;"">别人的</p>","e","categorize-html","10","183904","0.0-6.0-0.0-2.0-1.0","3","3","4","4","4","3","3","4","4","4","4","4","4","4","4","4","5","2","4","4","1","2","1","1","2","2","1","1","2","1","0","1","1","0","0","0","1","0","1","1","0","1","0","1","4","1","4","2","3","1","4","4","2","1","3","572562214427295744","R","79","","","","","","","","","","","","","","","","","","","true","1","1","ability","795","other","别人的","","","","","","","","","","","","","","","","",""
"null","","null","html-keyboard-response","11","184157","0.0-6.0-0.0-2.0-0.1","3","3","4","4","4","3","3","4","4","4","4","4","4","4","4","4","5","2","4","4","1","2","1","1","2","2","1","1","2","1","0","1","1","0","0","0","1","0","1","1","0","1","0","1","4","1","4","2","3","1","4","4","2","1","3","572562214427295744","R","79","","","","","","","","","","","","","","","","","","","","","","","","","","","","","","","","","","","","","","","","","",""
"493","<p style=""color:rgb(150, 250, 100); font-size: 35px;"">我</p>","i","categorize-html","12","184652","0.0-6.0-0.0-2.0-1.1","3","3","4","4","4","3","3","4","4","4","4","4","4","4","4","4","5","2","4","4","1","2","1","1","2","2","1","1","2","1","0","1","1","0","0","0","1","0","1","1","0","1","0","1","4","1","4","2","3","1","4","4","2","1","3","572562214427295744","R","79","","","","","","","","","","","","","","","","","","","true","1","1","ability","493","self","我","","","","","","","","","","","","","","","","",""
"null","","null","html-keyboard-response","13","184905","0.0-6.0-0.0-2.0-0.2","3","3","4","4","4","3","3","4","4","4","4","4","4","4","4","4","5","2","4","4","1","2","1","1","2","2","1","1","2","1","0","1","1","0","0","0","1","0","1","1","0","1","0","1","4","1","4","2","3","1","4","4","2","1","3","572562214427295744","R","79","","","","","","","","","","","","","","","","","","","","","","","","","","","","","","","","","","","","","","","","","",""
"511","<p style=""color:rgb(150, 250, 100); font-size: 35px;"">他人的</p>","e","categorize-html","14","185419","0.0-6.0-0.0-2.0-1.2","3","3","4","4","4","3","3","4","4","4","4","4","4","4","4","4","5","2","4","4","1","2","1","1","2","2","1","1","2","1","0","1","1","0","0","0","1","0","1","1","0","1","0","1","4","1","4","2","3","1","4","4","2","1","3","572562214427295744","R","79","","","","","","","","","","","","","","","","","","","true","1","1","ability","511","other","他人的","","","","","","","","","","","","","","","","",""
"null","","null","html-keyboard-response","15","185671","0.0-6.0-0.0-2.0-0.3","3","3","4","4","4","3","3","4","4","4","4","4","4","4","4","4","5","2","4","4","1","2","1","1","2","2","1","1","2","1","0","1","1","0","0","0","1","0","1","1","0","1","0","1","4","1","4","2","3","1","4","4","2","1","3","572562214427295744","R","79","","","","","","","","","","","","","","","","","","","","","","","","","","","","","","","","","","","","","","","","","",""
"442","<p style=""color:rgb(150, 250, 100); font-size: 35px;"">自己的</p>","i","categorize-html","16","186115","0.0-6.0-0.0-2.0-1.3","3","3","4","4","4","3","3","4","4","4","4","4","4","4","4","4","5","2","4","4","1","2","1","1","2","2","1","1","2","1","0","1","1","0","0","0","1","0","1","1","0","1","0","1","4","1","4","2","3","1","4","4","2","1","3","572562214427295744","R","79","","","","","","","","","","","","","","","","","","","true","1","1","ability","442","self","自己的","","","","","","","","","","","","","","","","",""
"null","","null","html-keyboard-response","17","186368","0.0-6.0-0.0-2.0-0.4","3","3","4","4","4","3","3","4","4","4","4","4","4","4","4","4","5","2","4","4","1","2","1","1","2","2","1","1","2","1","0","1","1","0","0","0","1","0","1","1","0","1","0","1","4","1","4","2","3","1","4","4","2","1","3","572562214427295744","R","79","","","","","","","","","","","","","","","","","","","","","","","","","","","","","","","","","","","","","","","","","",""
"458","<p style=""color:rgb(150, 250, 100); font-size: 35px;"">他的</p>","e","categorize-html","18","186829","0.0-6.0-0.0-2.0-1.4","3","3","4","4","4","3","3","4","4","4","4","4","4","4","4","4","5","2","4","4","1","2","1","1","2","2","1","1","2","1","0","1","1","0","0","0","1","0","1","1","0","1","0","1","4","1","4","2","3","1","4","4","2","1","3","572562214427295744","R","79","","","","","","","","","","","","","","","","","","","true","1","1","ability","458","other","他的","","","","","","","","","","","","","","","","",""
"null","","null","html-keyboard-response","19","187081","0.0-6.0-0.0-2.0-0.5","3","3","4","4","4","3","3","4","4","4","4","4","4","4","4","4","5","2","4","4","1","2","1","1","2","2","1","1","2","1","0","1","1","0","0","0","1","0","1","1","0","1","0","1","4","1","4","2","3","1","4","4","2","1","3","572562214427295744","R","79","","","","","","","","","","","","","","","","","","","","","","","","","","","","","","","","","","","","","","","","","",""
"458","<p style=""color:rgb(150, 250, 100); font-size: 35px;"">他人</p>","e","categorize-html","20","187542","0.0-6.0-0.0-2.0-1.5","3","3","4","4","4","3","3","4","4","4","4","4","4","4","4","4","5","2","4","4","1","2","1","1","2","2","1","1","2","1","0","1","1","0","0","0","1","0","1","1","0","1","0","1","4","1","4","2","3","1","4","4","2","1","3","572562214427295744","R","79","","","","","","","","","","","","","","","","","","","true","1","1","ability","458","other","他人","","","","","","","","","","","","","","","","",""
"null","","null","html-keyboard-response","21","187794","0.0-6.0-0.0-2.0-0.6","3","3","4","4","4","3","3","4","4","4","4","4","4","4","4","4","5","2","4","4","1","2","1","1","2","2","1","1","2","1","0","1","1","0","0","0","1","0","1","1","0","1","0","1","4","1","4","2","3","1","4","4","2","1","3","572562214427295744","R","79","","","","","","","","","","","","","","","","","","","","","","","","","","","","","","","","","","","","","","","","","",""
"453","<p style=""color:rgb(150, 250, 100); font-size: 35px;"">自己</p>","i","categorize-html","22","188251","0.0-6.0-0.0-2.0-1.6","3","3","4","4","4","3","3","4","4","4","4","4","4","4","4","4","5","2","4","4","1","2","1","1","2","2","1","1","2","1","0","1","1","0","0","0","1","0","1","1","0","1","0","1","4","1","4","2","3","1","4","4","2","1","3","572562214427295744","R","79","","","","","","","","","","","","","","","","","","","true","1","1","ability","453","self","自己","","","","","","","","","","","","","","","","",""
"null","","null","html-keyboard-response","23","188503","0.0-6.0-0.0-2.0-0.7","3","3","4","4","4","3","3","4","4","4","4","4","4","4","4","4","5","2","4","4","1","2","1","1","2","2","1","1","2","1","0","1","1","0","0","0","1","0","1","1","0","1","0","1","4","1","4","2","3","1","4","4","2","1","3","572562214427295744","R","79","","","","","","","","","","","","","","","","","","","","","","","","","","","","","","","","","","","","","","","","","",""
"463","<p style=""color:rgb(150, 250, 100); font-size: 35px;"">他</p>","e","categorize-html","24","188969","0.0-6.0-0.0-2.0-1.7","3","3","4","4","4","3","3","4","4","4","4","4","4","4","4","4","5","2","4","4","1","2","1","1","2","2","1","1","2","1","0","1","1","0","0","0","1","0","1","1","0","1","0","1","4","1","4","2","3","1","4","4","2","1","3","572562214427295744","R","79","","","","","","","","","","","","","","","","","","","true","1","1","ability","463","other","他","","","","","","","","","","","","","","","","",""
"null","","null","html-keyboard-response","25","189221","0.0-6.0-0.0-2.0-0.8","3","3","4","4","4","3","3","4","4","4","4","4","4","4","4","4","5","2","4","4","1","2","1","1","2","2","1","1","2","1","0","1","1","0","0","0","1","0","1","1","0","1","0","1","4","1","4","2","3","1","4","4","2","1","3","572562214427295744","R","79","","","","","","","","","","","","","","","","","","","","","","","","","","","","","","","","","","","","","","","","","",""
"453","<p style=""color:rgb(150, 250, 100); font-size: 35px;"">本人的</p>","i","categorize-html","26","189676","0.0-6.0-0.0-2.0-1.8","3","3","4","4","4","3","3","4","4","4","4","4","4","4","4","4","5","2","4","4","1","2","1","1","2","2","1","1","2","1","0","1","1","0","0","0","1","0","1","1","0","1","0","1","4","1","4","2","3","1","4","4","2","1","3","572562214427295744","R","79","","","","","","","","","","","","","","","","","","","true","1","1","ability","453","self","本人的","","","","","","","","","","","","","","","","",""
"null","","null","html-keyboard-response","27","189928","0.0-6.0-0.0-2.0-0.9","3","3","4","4","4","3","3","4","4","4","4","4","4","4","4","4","5","2","4","4","1","2","1","1","2","2","1","1","2","1","0","1","1","0","0","0","1","0","1","1","0","1","0","1","4","1","4","2","3","1","4","4","2","1","3","572562214427295744","R","79","","","","","","","","","","","","","","","","","","","","","","","","","","","","","","","","","","","","","","","","","",""
"494","<p style=""color:rgb(150, 250, 100); font-size: 35px;"">别人</p>","e","categorize-html","28","190424","0.0-6.0-0.0-2.0-1.9","3","3","4","4","4","3","3","4","4","4","4","4","4","4","4","4","5","2","4","4","1","2","1","1","2","2","1","1","2","1","0","1","1","0","0","0","1","0","1","1","0","1","0","1","4","1","4","2","3","1","4","4","2","1","3","572562214427295744","R","79","","","","","","","","","","","","","","","","","","","true","1","1","ability","494","other","别人","","","","","","","","","","","","","","","","",""
"null","","null","html-keyboard-response","29","190677","0.0-6.0-0.0-2.0-0.10","3","3","4","4","4","3","3","4","4","4","4","4","4","4","4","4","5","2","4","4","1","2","1","1","2","2","1","1","2","1","0","1","1","0","0","0","1","0","1","1","0","1","0","1","4","1","4","2","3","1","4","4","2","1","3","572562214427295744","R","79","","","","","","","","","","","","","","","","","","","","","","","","","","","","","","","","","","","","","","","","","",""
"433","<p style=""color:rgb(150, 250, 100); font-size: 35px;"">本人</p>","i","categorize-html","30","191113","0.0-6.0-0.0-2.0-1.10","3","3","4","4","4","3","3","4","4","4","4","4","4","4","4","4","5","2","4","4","1","2","1","1","2","2","1","1","2","1","0","1","1","0","0","0","1","0","1","1","0","1","0","1","4","1","4","2","3","1","4","4","2","1","3","572562214427295744","R","79","","","","","","","","","","","","","","","","","","","true","1","1","ability","433","self","本人","","","","","","","","","","","","","","","","",""
"null","","null","html-keyboard-response","31","191365","0.0-6.0-0.0-2.0-0.11","3","3","4","4","4","3","3","4","4","4","4","4","4","4","4","4","5","2","4","4","1","2","1","1","2","2","1","1","2","1","0","1","1","0","0","0","1","0","1","1","0","1","0","1","4","1","4","2","3","1","4","4","2","1","3","572562214427295744","R","79","","","","","","","","","","","","","","","","","","","","","","","","","","","","","","","","","","","","","","","","","",""
"404","<p style=""color:rgb(150, 250, 100); font-size: 35px;"">我的</p>","i","categorize-html","32","191771","0.0-6.0-0.0-2.0-1.11","3","3","4","4","4","3","3","4","4","4","4","4","4","4","4","4","5","2","4","4","1","2","1","1","2","2","1","1","2","1","0","1","1","0","0","0","1","0","1","1","0","1","0","1","4","1","4","2","3","1","4","4","2","1","3","572562214427295744","R","79","","","","","","","","","","","","","","","","","","","true","1","1","ability","404","self","我的","","","","","","","","","","","","","","","","",""
"14138","
    <div class=""tag-bottom""><p>
    —— 任务2：对“积极”词和“消极”词分类 ——<p/>   
    <span style=""color:#78DCE8""><b>注意上方，类别标签和需要分类的词语都已经改变</b></span><p/>
    <span style=""color:#FFD866""><b>请根据上方标签的提示，尽可能正确并且快速地做出按键反应</b></span><p/>
    当按键错误时屏幕中会出现<span style=""color:red""> X </span>，需要按另一个键纠正才能继续<br/><p/>
    请把双手食指分别放在键盘的“E”键和“I”键上<p/>
    按<空格键>开始
    </p></div>"," ","html-keyboard-response","33","205912","0.0-6.0-0.0-3.0","3","3","4","4","4","3","3","4","4","4","4","4","4","4","4","4","5","2","4","4","1","2","1","1","2","2","1","1","2","1","0","1","1","0","0","0","1","0","1","1","0","1","0","1","4","1","4","2","3","1","4","4","2","1","3","572562214427295744","R","79","","","","","","","","","","","","","","","","","","","","","","","","","","","","","","","","","","","","","","","","","",""
"null","","null","html-keyboard-response","34","206162","0.0-6.0-0.0-4.0-0.0","3","3","4","4","4","3","3","4","4","4","4","4","4","4","4","4","5","2","4","4","1","2","1","1","2","2","1","1","2","1","0","1","1","0","0","0","1","0","1","1","0","1","0","1","4","1","4","2","3","1","4","4","2","1","3","572562214427295744","R","79","","","","","","","","","","","","","","","","","","","","","","","","","","","","","","","","","","","","","","","","","",""
"599","<p style=""color:white; font-size: 35px;"">拙笨</p>","i","categorize-html","35","206764","0.0-6.0-0.0-4.0-1.0","3","3","4","4","4","3","3","4","4","4","4","4","4","4","4","4","5","2","4","4","1","2","1","1","2","2","1","1","2","1","0","1","1","0","0","0","1","0","1","1","0","1","0","1","4","1","4","2","3","1","4","4","2","1","3","572562214427295744","R","79","","","","","","","","","","","","","","","","","","","true","2","2","ability","599","negative","拙笨","","","","","","","","","","","","","","","","",""
"null","","null","html-keyboard-response","36","207016","0.0-6.0-0.0-4.0-0.1","3","3","4","4","4","3","3","4","4","4","4","4","4","4","4","4","5","2","4","4","1","2","1","1","2","2","1","1","2","1","0","1","1","0","0","0","1","0","1","1","0","1","0","1","4","1","4","2","3","1","4","4","2","1","3","572562214427295744","R","79","","","","","","","","","","","","","","","","","","","","","","","","","","","","","","","","","","","","","","","","","",""
"705","<p style=""color:white; font-size: 35px;"">全能</p>","e","categorize-html","37","207723","0.0-6.0-0.0-4.0-1.1","3","3","4","4","4","3","3","4","4","4","4","4","4","4","4","4","5","2","4","4","1","2","1","1","2","2","1","1","2","1","0","1","1","0","0","0","1","0","1","1","0","1","0","1","4","1","4","2","3","1","4","4","2","1","3","572562214427295744","R","79","","","","","","","","","","","","","","","","","","","true","2","2","ability","705","positive","全能","","","","","","","","","","","","","","","","",""
"null","","null","html-keyboard-response","38","207975","0.0-6.0-0.0-4.0-0.2","3","3","4","4","4","3","3","4","4","4","4","4","4","4","4","4","5","2","4","4","1","2","1","1","2","2","1","1","2","1","0","1","1","0","0","0","1","0","1","1","0","1","0","1","4","1","4","2","3","1","4","4","2","1","3","572562214427295744","R","79","","","","","","","","","","","","","","","","","","","","","","","","","","","","","","","","","","","","","","","","","",""
"600","<p style=""color:white; font-size: 35px;"">废物</p>","i","categorize-html","39","208578","0.0-6.0-0.0-4.0-1.2","3","3","4","4","4","3","3","4","4","4","4","4","4","4","4","4","5","2","4","4","1","2","1","1","2","2","1","1","2","1","0","1","1","0","0","0","1","0","1","1","0","1","0","1","4","1","4","2","3","1","4","4","2","1","3","572562214427295744","R","79","","","","","","","","","","","","","","","","","","","true","2","2","ability","600","negative","废物","","","","","","","","","","","","","","","","",""
"null","","null","html-keyboard-response","40","208830","0.0-6.0-0.0-4.0-0.3","3","3","4","4","4","3","3","4","4","4","4","4","4","4","4","4","5","2","4","4","1","2","1","1","2","2","1","1","2","1","0","1","1","0","0","0","1","0","1","1","0","1","0","1","4","1","4","2","3","1","4","4","2","1","3","572562214427295744","R","79","","","","","","","","","","","","","","","","","","","","","","","","","","","","","","","","","","","","","","","","","",""
"643","<p style=""color:white; font-size: 35px;"">能干</p>","e","categorize-html","41","209474","0.0-6.0-0.0-4.0-1.3","3","3","4","4","4","3","3","4","4","4","4","4","4","4","4","4","5","2","4","4","1","2","1","1","2","2","1","1","2","1","0","1","1","0","0","0","1","0","1","1","0","1","0","1","4","1","4","2","3","1","4","4","2","1","3","572562214427295744","R","79","","","","","","","","","","","","","","","","","","","true","2","2","ability","643","positive","能干","","","","","","","","","","","","","","","","",""
"null","","null","html-keyboard-response","42","209726","0.0-6.0-0.0-4.0-0.4","3","3","4","4","4","3","3","4","4","4","4","4","4","4","4","4","5","2","4","4","1","2","1","1","2","2","1","1","2","1","0","1","1","0","0","0","1","0","1","1","0","1","0","1","4","1","4","2","3","1","4","4","2","1","3","572562214427295744","R","79","","","","","","","","","","","","","","","","","","","","","","","","","","","","","","","","","","","","","","","","","",""
"541","<p style=""color:white; font-size: 35px;"">蠢笨</p>","i","categorize-html","43","210270","0.0-6.0-0.0-4.0-1.4","3","3","4","4","4","3","3","4","4","4","4","4","4","4","4","4","5","2","4","4","1","2","1","1","2","2","1","1","2","1","0","1","1","0","0","0","1","0","1","1","0","1","0","1","4","1","4","2","3","1","4","4","2","1","3","572562214427295744","R","79","","","","","","","","","","","","","","","","","","","true","2","2","ability","541","negative","蠢笨","","","","","","","","","","","","","","","","",""
"null","","null","html-keyboard-response","44","210523","0.0-6.0-0.0-4.0-0.5","3","3","4","4","4","3","3","4","4","4","4","4","4","4","4","4","5","2","4","4","1","2","1","1","2","2","1","1","2","1","0","1","1","0","0","0","1","0","1","1","0","1","0","1","4","1","4","2","3","1","4","4","2","1","3","572562214427295744","R","79","","","","","","","","","","","","","","","","","","","","","","","","","","","","","","","","","","","","","","","","","",""
"647","<p style=""color:white; font-size: 35px;"">高效</p>","e","categorize-html","45","211173","0.0-6.0-0.0-4.0-1.5","3","3","4","4","4","3","3","4","4","4","4","4","4","4","4","4","5","2","4","4","1","2","1","1","2","2","1","1","2","1","0","1","1","0","0","0","1","0","1","1","0","1","0","1","4","1","4","2","3","1","4","4","2","1","3","572562214427295744","R","79","","","","","","","","","","","","","","","","","","","true","2","2","ability","647","positive","高效","","","","","","","","","","","","","","","","",""
"null","","null","html-keyboard-response","46","211425","0.0-6.0-0.0-4.0-0.6","3","3","4","4","4","3","3","4","4","4","4","4","4","4","4","4","5","2","4","4","1","2","1","1","2","2","1","1","2","1","0","1","1","0","0","0","1","0","1","1","0","1","0","1","4","1","4","2","3","1","4","4","2","1","3","572562214427295744","R","79","","","","","","","","","","","","","","","","","","","","","","","","","","","","","","","","","","","","","","","","","",""
"506","<p style=""color:white; font-size: 35px;"">天才</p>","e","categorize-html","47","211933","0.0-6.0-0.0-4.0-1.6","3","3","4","4","4","3","3","4","4","4","4","4","4","4","4","4","5","2","4","4","1","2","1","1","2","2","1","1","2","1","0","1","1","0","0","0","1","0","1","1","0","1","0","1","4","1","4","2","3","1","4","4","2","1","3","572562214427295744","R","79","","","","","","","","","","","","","","","","","","","true","2","2","ability","506","positive","天才","","","","","","","","","","","","","","","","",""
"null","","null","html-keyboard-response","48","212186","0.0-6.0-0.0-4.0-0.7","3","3","4","4","4","3","3","4","4","4","4","4","4","4","4","4","5","2","4","4","1","2","1","1","2","2","1","1","2","1","0","1","1","0","0","0","1","0","1","1","0","1","0","1","4","1","4","2","3","1","4","4","2","1","3","572562214427295744","R","79","","","","","","","","","","","","","","","","","","","","","","","","","","","","","","","","","","","","","","","","","",""
"505","<p style=""color:white; font-size: 35px;"">精干</p>","e","categorize-html","49","212693","0.0-6.0-0.0-4.0-1.7","3","3","4","4","4","3","3","4","4","4","4","4","4","4","4","4","5","2","4","4","1","2","1","1","2","2","1","1","2","1","0","1","1","0","0","0","1","0","1","1","0","1","0","1","4","1","4","2","3","1","4","4","2","1","3","572562214427295744","R","79","","","","","","","","","","","","","","","","","","","true","2","2","ability","505","positive","精干","","","","","","","","","","","","","","","","",""
"null","","null","html-keyboard-response","50","212946","0.0-6.0-0.0-4.0-0.8","3","3","4","4","4","3","3","4","4","4","4","4","4","4","4","4","5","2","4","4","1","2","1","1","2","2","1","1","2","1","0","1","1","0","0","0","1","0","1","1","0","1","0","1","4","1","4","2","3","1","4","4","2","1","3","572562214427295744","R","79","","","","","","","","","","","","","","","","","","","","","","","","","","","","","","","","","","","","","","","","","",""
"507","<p style=""color:white; font-size: 35px;"">愚钝</p>","i","categorize-html","51","213455","0.0-6.0-0.0-4.0-1.8","3","3","4","4","4","3","3","4","4","4","4","4","4","4","4","4","5","2","4","4","1","2","1","1","2","2","1","1","2","1","0","1","1","0","0","0","1","0","1","1","0","1","0","1","4","1","4","2","3","1","4","4","2","1","3","572562214427295744","R","79","","","","","","","","","","","","","","","","","","","true","2","2","ability","507","negative","愚钝","","","","","","","","","","","","","","","","",""
"null","","null","html-keyboard-response","52","213707","0.0-6.0-0.0-4.0-0.9","3","3","4","4","4","3","3","4","4","4","4","4","4","4","4","4","5","2","4","4","1","2","1","1","2","2","1","1","2","1","0","1","1","0","0","0","1","0","1","1","0","1","0","1","4","1","4","2","3","1","4","4","2","1","3","572562214427295744","R","79","","","","","","","","","","","","","","","","","","","","","","","","","","","","","","","","","","","","","","","","","",""
"525","<p style=""color:white; font-size: 35px;"">低能</p>","i","categorize-html","53","214234","0.0-6.0-0.0-4.0-1.9","3","3","4","4","4","3","3","4","4","4","4","4","4","4","4","4","5","2","4","4","1","2","1","1","2","2","1","1","2","1","0","1","1","0","0","0","1","0","1","1","0","1","0","1","4","1","4","2","3","1","4","4","2","1","3","572562214427295744","R","79","","","","","","","","","","","","","","","","","","","true","2","2","ability","525","negative","低能","","","","","","","","","","","","","","","","",""
"null","","null","html-keyboard-response","54","214487","0.0-6.0-0.0-4.0-0.10","3","3","4","4","4","3","3","4","4","4","4","4","4","4","4","4","5","2","4","4","1","2","1","1","2","2","1","1","2","1","0","1","1","0","0","0","1","0","1","1","0","1","0","1","4","1","4","2","3","1","4","4","2","1","3","572562214427295744","R","79","","","","","","","","","","","","","","","","","","","","","","","","","","","","","","","","","","","","","","","","","",""
"707","<p style=""color:white; font-size: 35px;"">无能</p>","i","categorize-html","55","215196","0.0-6.0-0.0-4.0-1.10","3","3","4","4","4","3","3","4","4","4","4","4","4","4","4","4","5","2","4","4","1","2","1","1","2","2","1","1","2","1","0","1","1","0","0","0","1","0","1","1","0","1","0","1","4","1","4","2","3","1","4","4","2","1","3","572562214427295744","R","79","","","","","","","","","","","","","","","","","","","true","2","2","ability","707","negative","无能","","","","","","","","","","","","","","","","",""
"null","","null","html-keyboard-response","56","215448","0.0-6.0-0.0-4.0-0.11","3","3","4","4","4","3","3","4","4","4","4","4","4","4","4","4","5","2","4","4","1","2","1","1","2","2","1","1","2","1","0","1","1","0","0","0","1","0","1","1","0","1","0","1","4","1","4","2","3","1","4","4","2","1","3","572562214427295744","R","79","","","","","","","","","","","","","","","","","","","","","","","","","","","","","","","","","","","","","","","","","",""
"507","<p style=""color:white; font-size: 35px;"">全才</p>","e","categorize-html","57","215957","0.0-6.0-0.0-4.0-1.11","3","3","4","4","4","3","3","4","4","4","4","4","4","4","4","4","5","2","4","4","1","2","1","1","2","2","1","1","2","1","0","1","1","0","0","0","1","0","1","1","0","1","0","1","4","1","4","2","3","1","4","4","2","1","3","572562214427295744","R","79","","","","","","","","","","","","","","","","","","","true","2","2","ability","507","positive","全才","","","","","","","","","","","","","","","","",""
"7787","
    <div class=""tag-bottom""><p>
    —— 任务3：对“他人/积极”词和“自我/消极”词分类 ——<p/>
    <span style=""color:#78DCE8""><b>注意上方，之前的四类词语将混合在一起交替呈现</b></span><p/>
    <span style=""color:#FFD866""><b>请根据上方标签的提示，尽可能正确并且快速地做出按键反应</b></span><p/>
    当按键错误时屏幕中会出现<span style=""color:red""> X </span>，需要按另一个键纠正才能继续<br/><p/>
    请把双手食指分别放在键盘的“E”键和“I”键上<p/>
    按<空格键>开始
    </p></div>"," ","html-keyboard-response","58","223746","0.0-6.0-0.0-5.0","3","3","4","4","4","3","3","4","4","4","4","4","4","4","4","4","5","2","4","4","1","2","1","1","2","2","1","1","2","1","0","1","1","0","0","0","1","0","1","1","0","1","0","1","4","1","4","2","3","1","4","4","2","1","3","572562214427295744","R","79","","","","","","","","","","","","","","","","","","","","","","","","","","","","","","","","","","","","","","","","","",""
"null","","null","html-keyboard-response","59","223997","0.0-6.0-0.0-6.0-0.0","3","3","4","4","4","3","3","4","4","4","4","4","4","4","4","4","5","2","4","4","1","2","1","1","2","2","1","1","2","1","0","1","1","0","0","0","1","0","1","1","0","1","0","1","4","1","4","2","3","1","4","4","2","1","3","572562214427295744","R","79","","","","","","","","","","","","","","","","","","","","","","","","","","","","","","","","","","","","","","","","","",""
"626","<p style=""color:rgb(150, 250, 100); font-size: 35px;"">本人</p>","i","categorize-html","60","224626","0.0-6.0-0.0-6.0-1.0","3","3","4","4","4","3","3","4","4","4","4","4","4","4","4","4","5","2","4","4","1","2","1","1","2","2","1","1","2","1","0","1","1","0","0","0","1","0","1","1","0","1","0","1","4","1","4","2","3","1","4","4","2","1","3","572562214427295744","R","79","","","","","","","","","","","","","","","","","","","true","3","3","ability","626","self","本人","","","","","","","","","","","","","","","","",""
"null","","null","html-keyboard-response","61","224877","0.0-6.0-0.0-6.0-0.1","3","3","4","4","4","3","3","4","4","4","4","4","4","4","4","4","5","2","4","4","1","2","1","1","2","2","1","1","2","1","0","1","1","0","0","0","1","0","1","1","0","1","0","1","4","1","4","2","3","1","4","4","2","1","3","572562214427295744","R","79","","","","","","","","","","","","","","","","","","","","","","","","","","","","","","","","","","","","","","","","","",""
"712","<p style=""color:white; font-size: 35px;"">愚钝</p>","i","categorize-html","62","225592","0.0-6.0-0.0-6.0-1.1","3","3","4","4","4","3","3","4","4","4","4","4","4","4","4","4","5","2","4","4","1","2","1","1","2","2","1","1","2","1","0","1","1","0","0","0","1","0","1","1","0","1","0","1","4","1","4","2","3","1","4","4","2","1","3","572562214427295744","R","79","","","","","","","","","","","","","","","","","","","true","3","3","ability","712","negative","愚钝","","","","","","","","","","","","","","","","",""
"null","","null","html-keyboard-response","63","225843","0.0-6.0-0.0-6.0-0.2","3","3","4","4","4","3","3","4","4","4","4","4","4","4","4","4","5","2","4","4","1","2","1","1","2","2","1","1","2","1","0","1","1","0","0","0","1","0","1","1","0","1","0","1","4","1","4","2","3","1","4","4","2","1","3","572562214427295744","R","79","","","","","","","","","","","","","","","","","","","","","","","","","","","","","","","","","","","","","","","","","",""
"706","<p style=""color:rgb(150, 250, 100); font-size: 35px;"">他的</p>","e","categorize-html","64","226552","0.0-6.0-0.0-6.0-1.2","3","3","4","4","4","3","3","4","4","4","4","4","4","4","4","4","5","2","4","4","1","2","1","1","2","2","1","1","2","1","0","1","1","0","0","0","1","0","1","1","0","1","0","1","4","1","4","2","3","1","4","4","2","1","3","572562214427295744","R","79","","","","","","","","","","","","","","","","","","","true","3","3","ability","706","other","他的","","","","","","","","","","","","","","","","",""
"null","","null","html-keyboard-response","65","226803","0.0-6.0-0.0-6.0-0.3","3","3","4","4","4","3","3","4","4","4","4","4","4","4","4","4","5","2","4","4","1","2","1","1","2","2","1","1","2","1","0","1","1","0","0","0","1","0","1","1","0","1","0","1","4","1","4","2","3","1","4","4","2","1","3","572562214427295744","R","79","","","","","","","","","","","","","","","","","","","","","","","","","","","","","","","","","","","","","","","","","",""
"560","<p style=""color:white; font-size: 35px;"">全能</p>","e","categorize-html","66","227366","0.0-6.0-0.0-6.0-1.3","3","3","4","4","4","3","3","4","4","4","4","4","4","4","4","4","5","2","4","4","1","2","1","1","2","2","1","1","2","1","0","1","1","0","0","0","1","0","1","1","0","1","0","1","4","1","4","2","3","1","4","4","2","1","3","572562214427295744","R","79","","","","","","","","","","","","","","","","","","","true","3","3","ability","560","positive","全能","","","","","","","","","","","","","","","","",""
"null","","null","html-keyboard-response","67","227617","0.0-6.0-0.0-6.0-0.4","3","3","4","4","4","3","3","4","4","4","4","4","4","4","4","4","5","2","4","4","1","2","1","1","2","2","1","1","2","1","0","1","1","0","0","0","1","0","1","1","0","1","0","1","4","1","4","2","3","1","4","4","2","1","3","572562214427295744","R","79","","","","","","","","","","","","","","","","","","","","","","","","","","","","","","","","","","","","","","","","","",""
"640","<p style=""color:rgb(150, 250, 100); font-size: 35px;"">别人的</p>","e","categorize-html","68","228260","0.0-6.0-0.0-6.0-1.4","3","3","4","4","4","3","3","4","4","4","4","4","4","4","4","4","5","2","4","4","1","2","1","1","2","2","1","1","2","1","0","1","1","0","0","0","1","0","1","1","0","1","0","1","4","1","4","2","3","1","4","4","2","1","3","572562214427295744","R","79","","","","","","","","","","","","","","","","","","","true","3","3","ability","640","other","别人的","","","","","","","","","","","","","","","","",""
"null","","null","html-keyboard-response","69","228511","0.0-6.0-0.0-6.0-0.5","3","3","4","4","4","3","3","4","4","4","4","4","4","4","4","4","5","2","4","4","1","2","1","1","2","2","1","1","2","1","0","1","1","0","0","0","1","0","1","1","0","1","0","1","4","1","4","2","3","1","4","4","2","1","3","572562214427295744","R","79","","","","","","","","","","","","","","","","","","","","","","","","","","","","","","","","","","","","","","","","","",""
"634","<p style=""color:white; font-size: 35px;"">天才</p>","e","categorize-html","70","229148","0.0-6.0-0.0-6.0-1.5","3","3","4","4","4","3","3","4","4","4","4","4","4","4","4","4","5","2","4","4","1","2","1","1","2","2","1","1","2","1","0","1","1","0","0","0","1","0","1","1","0","1","0","1","4","1","4","2","3","1","4","4","2","1","3","572562214427295744","R","79","","","","","","","","","","","","","","","","","","","true","3","3","ability","634","positive","天才","","","","","","","","","","","","","","","","",""
"null","","null","html-keyboard-response","71","229399","0.0-6.0-0.0-6.0-0.6","3","3","4","4","4","3","3","4","4","4","4","4","4","4","4","4","5","2","4","4","1","2","1","1","2","2","1","1","2","1","0","1","1","0","0","0","1","0","1","1","0","1","0","1","4","1","4","2","3","1","4","4","2","1","3","572562214427295744","R","79","","","","","","","","","","","","","","","","","","","","","","","","","","","","","","","","","","","","","","","","","",""
"584","<p style=""color:rgb(150, 250, 100); font-size: 35px;"">我</p>","i","categorize-html","72","229986","0.0-6.0-0.0-6.0-1.6","3","3","4","4","4","3","3","4","4","4","4","4","4","4","4","4","5","2","4","4","1","2","1","1","2","2","1","1","2","1","0","1","1","0","0","0","1","0","1","1","0","1","0","1","4","1","4","2","3","1","4","4","2","1","3","572562214427295744","R","79","","","","","","","","","","","","","","","","","","","true","3","3","ability","584","self","我","","","","","","","","","","","","","","","","",""
"null","","null","html-keyboard-response","73","230237","0.0-6.0-0.0-6.0-0.7","3","3","4","4","4","3","3","4","4","4","4","4","4","4","4","4","5","2","4","4","1","2","1","1","2","2","1","1","2","1","0","1","1","0","0","0","1","0","1","1","0","1","0","1","4","1","4","2","3","1","4","4","2","1","3","572562214427295744","R","79","","","","","","","","","","","","","","","","","","","","","","","","","","","","","","","","","","","","","","","","","",""
"556","<p style=""color:white; font-size: 35px;"">废物</p>","i","categorize-html","74","230796","0.0-6.0-0.0-6.0-1.7","3","3","4","4","4","3","3","4","4","4","4","4","4","4","4","4","5","2","4","4","1","2","1","1","2","2","1","1","2","1","0","1","1","0","0","0","1","0","1","1","0","1","0","1","4","1","4","2","3","1","4","4","2","1","3","572562214427295744","R","79","","","","","","","","","","","","","","","","","","","true","3","3","ability","556","negative","废物","","","","","","","","","","","","","","","","",""
"null","","null","html-keyboard-response","75","231047","0.0-6.0-0.0-6.0-0.8","3","3","4","4","4","3","3","4","4","4","4","4","4","4","4","4","5","2","4","4","1","2","1","1","2","2","1","1","2","1","0","1","1","0","0","0","1","0","1","1","0","1","0","1","4","1","4","2","3","1","4","4","2","1","3","572562214427295744","R","79","","","","","","","","","","","","","","","","","","","","","","","","","","","","","","","","","","","","","","","","","",""
"575","<p style=""color:rgb(150, 250, 100); font-size: 35px;"">别人</p>","e","categorize-html","76","231625","0.0-6.0-0.0-6.0-1.8","3","3","4","4","4","3","3","4","4","4","4","4","4","4","4","4","5","2","4","4","1","2","1","1","2","2","1","1","2","1","0","1","1","0","0","0","1","0","1","1","0","1","0","1","4","1","4","2","3","1","4","4","2","1","3","572562214427295744","R","79","","","","","","","","","","","","","","","","","","","true","3","3","ability","575","other","别人","","","","","","","","","","","","","","","","",""
"null","","null","html-keyboard-response","77","231876","0.0-6.0-0.0-6.0-0.9","3","3","4","4","4","3","3","4","4","4","4","4","4","4","4","4","5","2","4","4","1","2","1","1","2","2","1","1","2","1","0","1","1","0","0","0","1","0","1","1","0","1","0","1","4","1","4","2","3","1","4","4","2","1","3","572562214427295744","R","79","","","","","","","","","","","","","","","","","","","","","","","","","","","","","","","","","","","","","","","","","",""
"516","<p style=""color:white; font-size: 35px;"">蠢笨</p>","i","categorize-html","78","232395","0.0-6.0-0.0-6.0-1.9","3","3","4","4","4","3","3","4","4","4","4","4","4","4","4","4","5","2","4","4","1","2","1","1","2","2","1","1","2","1","0","1","1","0","0","0","1","0","1","1","0","1","0","1","4","1","4","2","3","1","4","4","2","1","3","572562214427295744","R","79","","","","","","","","","","","","","","","","","","","true","3","3","ability","516","negative","蠢笨","","","","","","","","","","","","","","","","",""
"null","","null","html-keyboard-response","79","232646","0.0-6.0-0.0-6.0-0.10","3","3","4","4","4","3","3","4","4","4","4","4","4","4","4","4","5","2","4","4","1","2","1","1","2","2","1","1","2","1","0","1","1","0","0","0","1","0","1","1","0","1","0","1","4","1","4","2","3","1","4","4","2","1","3","572562214427295744","R","79","","","","","","","","","","","","","","","","","","","","","","","","","","","","","","","","","","","","","","","","","",""
"573","<p style=""color:rgb(150, 250, 100); font-size: 35px;"">自己的</p>","i","categorize-html","80","233222","0.0-6.0-0.0-6.0-1.10","3","3","4","4","4","3","3","4","4","4","4","4","4","4","4","4","5","2","4","4","1","2","1","1","2","2","1","1","2","1","0","1","1","0","0","0","1","0","1","1","0","1","0","1","4","1","4","2","3","1","4","4","2","1","3","572562214427295744","R","79","","","","","","","","","","","","","","","","","","","true","3","3","ability","573","self","自己的","","","","","","","","","","","","","","","","",""
"null","","null","html-keyboard-response","81","233475","0.0-6.0-0.0-6.0-0.11","3","3","4","4","4","3","3","4","4","4","4","4","4","4","4","4","5","2","4","4","1","2","1","1","2","2","1","1","2","1","0","1","1","0","0","0","1","0","1","1","0","1","0","1","4","1","4","2","3","1","4","4","2","1","3","572562214427295744","R","79","","","","","","","","","","","","","","","","","","","","","","","","","","","","","","","","","","","","","","","","","",""
"690","<p style=""color:white; font-size: 35px;"">能干</p>","e","categorize-html","82","234168","0.0-6.0-0.0-6.0-1.11","3","3","4","4","4","3","3","4","4","4","4","4","4","4","4","4","5","2","4","4","1","2","1","1","2","2","1","1","2","1","0","1","1","0","0","0","1","0","1","1","0","1","0","1","4","1","4","2","3","1","4","4","2","1","3","572562214427295744","R","79","","","","","","","","","","","","","","","","","","","true","3","3","ability","690","positive","能干","","","","","","","","","","","","","","","","",""
"null","","null","html-keyboard-response","83","234421","0.0-6.0-0.0-6.0-0.12","3","3","4","4","4","3","3","4","4","4","4","4","4","4","4","4","5","2","4","4","1","2","1","1","2","2","1","1","2","1","0","1","1","0","0","0","1","0","1","1","0","1","0","1","4","1","4","2","3","1","4","4","2","1","3","572562214427295744","R","79","","","","","","","","","","","","","","","","","","","","","","","","","","","","","","","","","","","","","","","","","",""
"537","<p style=""color:rgb(150, 250, 100); font-size: 35px;"">自己</p>","i","categorize-html","84","234961","0.0-6.0-0.0-6.0-1.12","3","3","4","4","4","3","3","4","4","4","4","4","4","4","4","4","5","2","4","4","1","2","1","1","2","2","1","1","2","1","0","1","1","0","0","0","1","0","1","1","0","1","0","1","4","1","4","2","3","1","4","4","2","1","3","572562214427295744","R","79","","","","","","","","","","","","","","","","","","","true","3","3","ability","537","self","自己","","","","","","","","","","","","","","","","",""
"null","","null","html-keyboard-response","85","235212","0.0-6.0-0.0-6.0-0.13","3","3","4","4","4","3","3","4","4","4","4","4","4","4","4","4","5","2","4","4","1","2","1","1","2","2","1","1","2","1","0","1","1","0","0","0","1","0","1","1","0","1","0","1","4","1","4","2","3","1","4","4","2","1","3","572562214427295744","R","79","","","","","","","","","","","","","","","","","","","","","","","","","","","","","","","","","","","","","","","","","",""
"776","<p style=""color:white; font-size: 35px;"">无能</p>","i","categorize-html","86","235991","0.0-6.0-0.0-6.0-1.13","3","3","4","4","4","3","3","4","4","4","4","4","4","4","4","4","5","2","4","4","1","2","1","1","2","2","1","1","2","1","0","1","1","0","0","0","1","0","1","1","0","1","0","1","4","1","4","2","3","1","4","4","2","1","3","572562214427295744","R","79","","","","","","","","","","","","","","","","","","","true","3","3","ability","776","negative","无能","","","","","","","","","","","","","","","","",""
"null","","null","html-keyboard-response","87","236245","0.0-6.0-0.0-6.0-0.14","3","3","4","4","4","3","3","4","4","4","4","4","4","4","4","4","5","2","4","4","1","2","1","1","2","2","1","1","2","1","0","1","1","0","0","0","1","0","1","1","0","1","0","1","4","1","4","2","3","1","4","4","2","1","3","572562214427295744","R","79","","","","","","","","","","","","","","","","","","","","","","","","","","","","","","","","","","","","","","","","","",""
"608","<p style=""color:rgb(150, 250, 100); font-size: 35px;"">他人的</p>","e","categorize-html","88","236855","0.0-6.0-0.0-6.0-1.14","3","3","4","4","4","3","3","4","4","4","4","4","4","4","4","4","5","2","4","4","1","2","1","1","2","2","1","1","2","1","0","1","1","0","0","0","1","0","1","1","0","1","0","1","4","1","4","2","3","1","4","4","2","1","3","572562214427295744","R","79","","","","","","","","","","","","","","","","","","","true","3","3","ability","608","other","他人的","","","","","","","","","","","","","","","","",""
"null","","null","html-keyboard-response","89","237108","0.0-6.0-0.0-6.0-0.15","3","3","4","4","4","3","3","4","4","4","4","4","4","4","4","4","5","2","4","4","1","2","1","1","2","2","1","1","2","1","0","1","1","0","0","0","1","0","1","1","0","1","0","1","4","1","4","2","3","1","4","4","2","1","3","572562214427295744","R","79","","","","","","","","","","","","","","","","","","","","","","","","","","","","","","","","","","","","","","","","","",""
"571","<p style=""color:white; font-size: 35px;"">精干</p>","e","categorize-html","90","237681","0.0-6.0-0.0-6.0-1.15","3","3","4","4","4","3","3","4","4","4","4","4","4","4","4","4","5","2","4","4","1","2","1","1","2","2","1","1","2","1","0","1","1","0","0","0","1","0","1","1","0","1","0","1","4","1","4","2","3","1","4","4","2","1","3","572562214427295744","R","79","","","","","","","","","","","","","","","","","","","true","3","3","ability","571","positive","精干","","","","","","","","","","","","","","","","",""
"null","","null","html-keyboard-response","91","237934","0.0-6.0-0.0-6.0-0.16","3","3","4","4","4","3","3","4","4","4","4","4","4","4","4","4","5","2","4","4","1","2","1","1","2","2","1","1","2","1","0","1","1","0","0","0","1","0","1","1","0","1","0","1","4","1","4","2","3","1","4","4","2","1","3","572562214427295744","R","79","","","","","","","","","","","","","","","","","","","","","","","","","","","","","","","","","","","","","","","","","",""
"525","<p style=""color:rgb(150, 250, 100); font-size: 35px;"">我的</p>","i","categorize-html","92","238461","0.0-6.0-0.0-6.0-1.16","3","3","4","4","4","3","3","4","4","4","4","4","4","4","4","4","5","2","4","4","1","2","1","1","2","2","1","1","2","1","0","1","1","0","0","0","1","0","1","1","0","1","0","1","4","1","4","2","3","1","4","4","2","1","3","572562214427295744","R","79","","","","","","","","","","","","","","","","","","","true","3","3","ability","525","self","我的","","","","","","","","","","","","","","","","",""
"null","","null","html-keyboard-response","93","238713","0.0-6.0-0.0-6.0-0.17","3","3","4","4","4","3","3","4","4","4","4","4","4","4","4","4","5","2","4","4","1","2","1","1","2","2","1","1","2","1","0","1","1","0","0","0","1","0","1","1","0","1","0","1","4","1","4","2","3","1","4","4","2","1","3","572562214427295744","R","79","","","","","","","","","","","","","","","","","","","","","","","","","","","","","","","","","","","","","","","","","",""
"715","<p style=""color:white; font-size: 35px;"">低能</p>","i","categorize-html","94","239430","0.0-6.0-0.0-6.0-1.17","3","3","4","4","4","3","3","4","4","4","4","4","4","4","4","4","5","2","4","4","1","2","1","1","2","2","1","1","2","1","0","1","1","0","0","0","1","0","1","1","0","1","0","1","4","1","4","2","3","1","4","4","2","1","3","572562214427295744","R","79","","","","","","","","","","","","","","","","","","","true","3","3","ability","715","negative","低能","","","","","","","","","","","","","","","","",""
"null","","null","html-keyboard-response","95","239682","0.0-6.0-0.0-6.0-0.18","3","3","4","4","4","3","3","4","4","4","4","4","4","4","4","4","5","2","4","4","1","2","1","1","2","2","1","1","2","1","0","1","1","0","0","0","1","0","1","1","0","1","0","1","4","1","4","2","3","1","4","4","2","1","3","572562214427295744","R","79","","","","","","","","","","","","","","","","","","","","","","","","","","","","","","","","","","","","","","","","","",""
"687","<p style=""color:rgb(150, 250, 100); font-size: 35px;"">他人</p>","e","categorize-html","96","240371","0.0-6.0-0.0-6.0-1.18","3","3","4","4","4","3","3","4","4","4","4","4","4","4","4","4","5","2","4","4","1","2","1","1","2","2","1","1","2","1","0","1","1","0","0","0","1","0","1","1","0","1","0","1","4","1","4","2","3","1","4","4","2","1","3","572562214427295744","R","79","","","","","","","","","","","","","","","","","","","true","3","3","ability","687","other","他人","","","","","","","","","","","","","","","","",""
"null","","null","html-keyboard-response","97","240624","0.0-6.0-0.0-6.0-0.19","3","3","4","4","4","3","3","4","4","4","4","4","4","4","4","4","5","2","4","4","1","2","1","1","2","2","1","1","2","1","0","1","1","0","0","0","1","0","1","1","0","1","0","1","4","1","4","2","3","1","4","4","2","1","3","572562214427295744","R","79","","","","","","","","","","","","","","","","","","","","","","","","","","","","","","","","","","","","","","","","","",""
"571","<p style=""color:white; font-size: 35px;"">全才</p>","e","categorize-html","98","241197","0.0-6.0-0.0-6.0-1.19","3","3","4","4","4","3","3","4","4","4","4","4","4","4","4","4","5","2","4","4","1","2","1","1","2","2","1","1","2","1","0","1","1","0","0","0","1","0","1","1","0","1","0","1","4","1","4","2","3","1","4","4","2","1","3","572562214427295744","R","79","","","","","","","","","","","","","","","","","","","true","3","3","ability","571","positive","全才","","","","","","","","","","","","","","","","",""
"null","","null","html-keyboard-response","99","241449","0.0-6.0-0.0-6.0-0.20","3","3","4","4","4","3","3","4","4","4","4","4","4","4","4","4","5","2","4","4","1","2","1","1","2","2","1","1","2","1","0","1","1","0","0","0","1","0","1","1","0","1","0","1","4","1","4","2","3","1","4","4","2","1","3","572562214427295744","R","79","","","","","","","","","","","","","","","","","","","","","","","","","","","","","","","","","","","","","","","","","",""
"561","<p style=""color:rgb(150, 250, 100); font-size: 35px;"">他</p>","e","categorize-html","100","242013","0.0-6.0-0.0-6.0-1.20","3","3","4","4","4","3","3","4","4","4","4","4","4","4","4","4","5","2","4","4","1","2","1","1","2","2","1","1","2","1","0","1","1","0","0","0","1","0","1","1","0","1","0","1","4","1","4","2","3","1","4","4","2","1","3","572562214427295744","R","79","","","","","","","","","","","","","","","","","","","true","3","3","ability","561","other","他","","","","","","","","","","","","","","","","",""
"null","","null","html-keyboard-response","101","242266","0.0-6.0-0.0-6.0-0.21","3","3","4","4","4","3","3","4","4","4","4","4","4","4","4","4","5","2","4","4","1","2","1","1","2","2","1","1","2","1","0","1","1","0","0","0","1","0","1","1","0","1","0","1","4","1","4","2","3","1","4","4","2","1","3","572562214427295744","R","79","","","","","","","","","","","","","","","","","","","","","","","","","","","","","","","","","","","","","","","","","",""
"673","<p style=""color:white; font-size: 35px;"">拙笨</p>","i","categorize-html","102","242941","0.0-6.0-0.0-6.0-1.21","3","3","4","4","4","3","3","4","4","4","4","4","4","4","4","4","5","2","4","4","1","2","1","1","2","2","1","1","2","1","0","1","1","0","0","0","1","0","1","1","0","1","0","1","4","1","4","2","3","1","4","4","2","1","3","572562214427295744","R","79","","","","","","","","","","","","","","","","","","","true","3","3","ability","673","negative","拙笨","","","","","","","","","","","","","","","","",""
"null","","null","html-keyboard-response","103","243194","0.0-6.0-0.0-6.0-0.22","3","3","4","4","4","3","3","4","4","4","4","4","4","4","4","4","5","2","4","4","1","2","1","1","2","2","1","1","2","1","0","1","1","0","0","0","1","0","1","1","0","1","0","1","4","1","4","2","3","1","4","4","2","1","3","572562214427295744","R","79","","","","","","","","","","","","","","","","","","","","","","","","","","","","","","","","","","","","","","","","","",""
"593","<p style=""color:rgb(150, 250, 100); font-size: 35px;"">本人的</p>","i","categorize-html","104","243790","0.0-6.0-0.0-6.0-1.22","3","3","4","4","4","3","3","4","4","4","4","4","4","4","4","4","5","2","4","4","1","2","1","1","2","2","1","1","2","1","0","1","1","0","0","0","1","0","1","1","0","1","0","1","4","1","4","2","3","1","4","4","2","1","3","572562214427295744","R","79","","","","","","","","","","","","","","","","","","","true","3","3","ability","593","self","本人的","","","","","","","","","","","","","","","","",""
"null","","null","html-keyboard-response","105","244042","0.0-6.0-0.0-6.0-0.23","3","3","4","4","4","3","3","4","4","4","4","4","4","4","4","4","5","2","4","4","1","2","1","1","2","2","1","1","2","1","0","1","1","0","0","0","1","0","1","1","0","1","0","1","4","1","4","2","3","1","4","4","2","1","3","572562214427295744","R","79","","","","","","","","","","","","","","","","","","","","","","","","","","","","","","","","","","","","","","","","","",""
"559","<p style=""color:white; font-size: 35px;"">高效</p>","e","categorize-html","106","244603","0.0-6.0-0.0-6.0-1.23","3","3","4","4","4","3","3","4","4","4","4","4","4","4","4","4","5","2","4","4","1","2","1","1","2","2","1","1","2","1","0","1","1","0","0","0","1","0","1","1","0","1","0","1","4","1","4","2","3","1","4","4","2","1","3","572562214427295744","R","79","","","","","","","","","","","","","","","","","","","true","3","3","ability","559","positive","高效","","","","","","","","","","","","","","","","",""
"6739","
    <div class=""tag-bottom""><p>
    —— 任务4：对“他人/积极”词和“自我/消极”词分类 ——<p/>
    <span style=""color:#78DCE8""><b>与刚才的任务完全相同，请再次对这四类词语分类</b></span><p/>
    <span style=""color:#FFD866""><b>请根据上方标签的提示，尽可能正确并且快速地做出按键反应</b></span><p/>
    当按键错误时屏幕中会出现<span style=""color:red""> X </span>，需要按另一个键纠正才能继续<br/><p/>
    请把双手食指分别放在键盘的“E”键和“I”键上<p/>
    按<空格键>开始
    </p></div>"," ","html-keyboard-response","107","251345","0.0-6.0-0.0-7.0","3","3","4","4","4","3","3","4","4","4","4","4","4","4","4","4","5","2","4","4","1","2","1","1","2","2","1","1","2","1","0","1","1","0","0","0","1","0","1","1","0","1","0","1","4","1","4","2","3","1","4","4","2","1","3","572562214427295744","R","79","","","","","","","","","","","","","","","","","","","","","","","","","","","","","","","","","","","","","","","","","",""
"null","","null","html-keyboard-response","108","251596","0.0-6.0-0.0-8.0-0.0","3","3","4","4","4","3","3","4","4","4","4","4","4","4","4","4","5","2","4","4","1","2","1","1","2","2","1","1","2","1","0","1","1","0","0","0","1","0","1","1","0","1","0","1","4","1","4","2","3","1","4","4","2","1","3","572562214427295744","R","79","","","","","","","","","","","","","","","","","","","","","","","","","","","","","","","","","","","","","","","","","",""
"588","<p style=""color:rgb(150, 250, 100); font-size: 35px;"">他</p>","e","categorize-html","109","252188","0.0-6.0-0.0-8.0-1.0","3","3","4","4","4","3","3","4","4","4","4","4","4","4","4","4","5","2","4","4","1","2","1","1","2","2","1","1","2","1","0","1","1","0","0","0","1","0","1","1","0","1","0","1","4","1","4","2","3","1","4","4","2","1","3","572562214427295744","R","79","","","","","","","","","","","","","","","","","","","true","4","4","ability","588","other","他","","","","","","","","","","","","","","","","",""
"null","","null","html-keyboard-response","110","252440","0.0-6.0-0.0-8.0-0.1","3","3","4","4","4","3","3","4","4","4","4","4","4","4","4","4","5","2","4","4","1","2","1","1","2","2","1","1","2","1","0","1","1","0","0","0","1","0","1","1","0","1","0","1","4","1","4","2","3","1","4","4","2","1","3","572562214427295744","R","79","","","","","","","","","","","","","","","","","","","","","","","","","","","","","","","","","","","","","","","","","",""
"587","<p style=""color:white; font-size: 35px;"">高效</p>","e","categorize-html","111","253030","0.0-6.0-0.0-8.0-1.1","3","3","4","4","4","3","3","4","4","4","4","4","4","4","4","4","5","2","4","4","1","2","1","1","2","2","1","1","2","1","0","1","1","0","0","0","1","0","1","1","0","1","0","1","4","1","4","2","3","1","4","4","2","1","3","572562214427295744","R","79","","","","","","","","","","","","","","","","","","","true","4","4","ability","587","positive","高效","","","","","","","","","","","","","","","","",""
"null","","null","html-keyboard-response","112","253281","0.0-6.0-0.0-8.0-0.2","3","3","4","4","4","3","3","4","4","4","4","4","4","4","4","4","5","2","4","4","1","2","1","1","2","2","1","1","2","1","0","1","1","0","0","0","1","0","1","1","0","1","0","1","4","1","4","2","3","1","4","4","2","1","3","572562214427295744","R","79","","","","","","","","","","","","","","","","","","","","","","","","","","","","","","","","","","","","","","","","","",""
"556","<p style=""color:rgb(150, 250, 100); font-size: 35px;"">自己的</p>","i","categorize-html","113","253839","0.0-6.0-0.0-8.0-1.2","3","3","4","4","4","3","3","4","4","4","4","4","4","4","4","4","5","2","4","4","1","2","1","1","2","2","1","1","2","1","0","1","1","0","0","0","1","0","1","1","0","1","0","1","4","1","4","2","3","1","4","4","2","1","3","572562214427295744","R","79","","","","","","","","","","","","","","","","","","","true","4","4","ability","556","self","自己的","","","","","","","","","","","","","","","","",""
"null","","null","html-keyboard-response","114","254090","0.0-6.0-0.0-8.0-0.3","3","3","4","4","4","3","3","4","4","4","4","4","4","4","4","4","5","2","4","4","1","2","1","1","2","2","1","1","2","1","0","1","1","0","0","0","1","0","1","1","0","1","0","1","4","1","4","2","3","1","4","4","2","1","3","572562214427295744","R","79","","","","","","","","","","","","","","","","","","","","","","","","","","","","","","","","","","","","","","","","","",""
"564","<p style=""color:white; font-size: 35px;"">无能</p>","i","categorize-html","115","254657","0.0-6.0-0.0-8.0-1.3","3","3","4","4","4","3","3","4","4","4","4","4","4","4","4","4","5","2","4","4","1","2","1","1","2","2","1","1","2","1","0","1","1","0","0","0","1","0","1","1","0","1","0","1","4","1","4","2","3","1","4","4","2","1","3","572562214427295744","R","79","","","","","","","","","","","","","","","","","","","true","4","4","ability","564","negative","无能","","","","","","","","","","","","","","","","",""
"null","","null","html-keyboard-response","116","254909","0.0-6.0-0.0-8.0-0.4","3","3","4","4","4","3","3","4","4","4","4","4","4","4","4","4","5","2","4","4","1","2","1","1","2","2","1","1","2","1","0","1","1","0","0","0","1","0","1","1","0","1","0","1","4","1","4","2","3","1","4","4","2","1","3","572562214427295744","R","79","","","","","","","","","","","","","","","","","","","","","","","","","","","","","","","","","","","","","","","","","",""
"548","<p style=""color:rgb(150, 250, 100); font-size: 35px;"">本人的</p>","i","categorize-html","117","255459","0.0-6.0-0.0-8.0-1.4","3","3","4","4","4","3","3","4","4","4","4","4","4","4","4","4","5","2","4","4","1","2","1","1","2","2","1","1","2","1","0","1","1","0","0","0","1","0","1","1","0","1","0","1","4","1","4","2","3","1","4","4","2","1","3","572562214427295744","R","79","","","","","","","","","","","","","","","","","","","true","4","4","ability","548","self","本人的","","","","","","","","","","","","","","","","",""
"null","","null","html-keyboard-response","118","255712","0.0-6.0-0.0-8.0-0.5","3","3","4","4","4","3","3","4","4","4","4","4","4","4","4","4","5","2","4","4","1","2","1","1","2","2","1","1","2","1","0","1","1","0","0","0","1","0","1","1","0","1","0","1","4","1","4","2","3","1","4","4","2","1","3","572562214427295744","R","79","","","","","","","","","","","","","","","","","","","","","","","","","","","","","","","","","","","","","","","","","",""
"492","<p style=""color:white; font-size: 35px;"">高效</p>","e","categorize-html","119","256206","0.0-6.0-0.0-8.0-1.5","3","3","4","4","4","3","3","4","4","4","4","4","4","4","4","4","5","2","4","4","1","2","1","1","2","2","1","1","2","1","0","1","1","0","0","0","1","0","1","1","0","1","0","1","4","1","4","2","3","1","4","4","2","1","3","572562214427295744","R","79","","","","","","","","","","","","","","","","","","","true","4","4","ability","492","positive","高效","","","","","","","","","","","","","","","","",""
"null","","null","html-keyboard-response","120","256459","0.0-6.0-0.0-8.0-0.6","3","3","4","4","4","3","3","4","4","4","4","4","4","4","4","4","5","2","4","4","1","2","1","1","2","2","1","1","2","1","0","1","1","0","0","0","1","0","1","1","0","1","0","1","4","1","4","2","3","1","4","4","2","1","3","572562214427295744","R","79","","","","","","","","","","","","","","","","","","","","","","","","","","","","","","","","","","","","","","","","","",""
"612","<p style=""color:rgb(150, 250, 100); font-size: 35px;"">别人的</p>","e","categorize-html","121","257073","0.0-6.0-0.0-8.0-1.6","3","3","4","4","4","3","3","4","4","4","4","4","4","4","4","4","5","2","4","4","1","2","1","1","2","2","1","1","2","1","0","1","1","0","0","0","1","0","1","1","0","1","0","1","4","1","4","2","3","1","4","4","2","1","3","572562214427295744","R","79","","","","","","","","","","","","","","","","","","","true","4","4","ability","612","other","别人的","","","","","","","","","","","","","","","","",""
"null","","null","html-keyboard-response","122","257325","0.0-6.0-0.0-8.0-0.7","3","3","4","4","4","3","3","4","4","4","4","4","4","4","4","4","5","2","4","4","1","2","1","1","2","2","1","1","2","1","0","1","1","0","0","0","1","0","1","1","0","1","0","1","4","1","4","2","3","1","4","4","2","1","3","572562214427295744","R","79","","","","","","","","","","","","","","","","","","","","","","","","","","","","","","","","","","","","","","","","","",""
"586","<p style=""color:white; font-size: 35px;"">蠢笨</p>","i","categorize-html","123","257913","0.0-6.0-0.0-8.0-1.7","3","3","4","4","4","3","3","4","4","4","4","4","4","4","4","4","5","2","4","4","1","2","1","1","2","2","1","1","2","1","0","1","1","0","0","0","1","0","1","1","0","1","0","1","4","1","4","2","3","1","4","4","2","1","3","572562214427295744","R","79","","","","","","","","","","","","","","","","","","","true","4","4","ability","586","negative","蠢笨","","","","","","","","","","","","","","","","",""
"null","","null","html-keyboard-response","124","258165","0.0-6.0-0.0-8.0-0.8","3","3","4","4","4","3","3","4","4","4","4","4","4","4","4","4","5","2","4","4","1","2","1","1","2","2","1","1","2","1","0","1","1","0","0","0","1","0","1","1","0","1","0","1","4","1","4","2","3","1","4","4","2","1","3","572562214427295744","R","79","","","","","","","","","","","","","","","","","","","","","","","","","","","","","","","","","","","","","","","","","",""
"534","<p style=""color:rgb(150, 250, 100); font-size: 35px;"">本人的</p>","i","categorize-html","125","258701","0.0-6.0-0.0-8.0-1.8","3","3","4","4","4","3","3","4","4","4","4","4","4","4","4","4","5","2","4","4","1","2","1","1","2","2","1","1","2","1","0","1","1","0","0","0","1","0","1","1","0","1","0","1","4","1","4","2","3","1","4","4","2","1","3","572562214427295744","R","79","","","","","","","","","","","","","","","","","","","true","4","4","ability","534","self","本人的","","","","","","","","","","","","","","","","",""
"null","","null","html-keyboard-response","126","258954","0.0-6.0-0.0-8.0-0.9","3","3","4","4","4","3","3","4","4","4","4","4","4","4","4","4","5","2","4","4","1","2","1","1","2","2","1","1","2","1","0","1","1","0","0","0","1","0","1","1","0","1","0","1","4","1","4","2","3","1","4","4","2","1","3","572562214427295744","R","79","","","","","","","","","","","","","","","","","","","","","","","","","","","","","","","","","","","","","","","","","",""
"466","<p style=""color:white; font-size: 35px;"">全才</p>","e","categorize-html","127","259423","0.0-6.0-0.0-8.0-1.9","3","3","4","4","4","3","3","4","4","4","4","4","4","4","4","4","5","2","4","4","1","2","1","1","2","2","1","1","2","1","0","1","1","0","0","0","1","0","1","1","0","1","0","1","4","1","4","2","3","1","4","4","2","1","3","572562214427295744","R","79","","","","","","","","","","","","","","","","","","","true","4","4","ability","466","positive","全才","","","","","","","","","","","","","","","","",""
"null","","null","html-keyboard-response","128","259674","0.0-6.0-0.0-8.0-0.10","3","3","4","4","4","3","3","4","4","4","4","4","4","4","4","4","5","2","4","4","1","2","1","1","2","2","1","1","2","1","0","1","1","0","0","0","1","0","1","1","0","1","0","1","4","1","4","2","3","1","4","4","2","1","3","572562214427295744","R","79","","","","","","","","","","","","","","","","","","","","","","","","","","","","","","","","","","","","","","","","","",""
"493","<p style=""color:rgb(150, 250, 100); font-size: 35px;"">他的</p>","e","categorize-html","129","260169","0.0-6.0-0.0-8.0-1.10","3","3","4","4","4","3","3","4","4","4","4","4","4","4","4","4","5","2","4","4","1","2","1","1","2","2","1","1","2","1","0","1","1","0","0","0","1","0","1","1","0","1","0","1","4","1","4","2","3","1","4","4","2","1","3","572562214427295744","R","79","","","","","","","","","","","","","","","","","","","true","4","4","ability","493","other","他的","","","","","","","","","","","","","","","","",""
"null","","null","html-keyboard-response","130","260422","0.0-6.0-0.0-8.0-0.11","3","3","4","4","4","3","3","4","4","4","4","4","4","4","4","4","5","2","4","4","1","2","1","1","2","2","1","1","2","1","0","1","1","0","0","0","1","0","1","1","0","1","0","1","4","1","4","2","3","1","4","4","2","1","3","572562214427295744","R","79","","","","","","","","","","","","","","","","","","","","","","","","","","","","","","","","","","","","","","","","","",""
"615","<p style=""color:white; font-size: 35px;"">拙笨</p>","i","categorize-html","131","261039","0.0-6.0-0.0-8.0-1.11","3","3","4","4","4","3","3","4","4","4","4","4","4","4","4","4","5","2","4","4","1","2","1","1","2","2","1","1","2","1","0","1","1","0","0","0","1","0","1","1","0","1","0","1","4","1","4","2","3","1","4","4","2","1","3","572562214427295744","R","79","","","","","","","","","","","","","","","","","","","true","4","4","ability","615","negative","拙笨","","","","","","","","","","","","","","","","",""
"null","","null","html-keyboard-response","132","261291","0.0-6.0-0.0-8.0-0.12","3","3","4","4","4","3","3","4","4","4","4","4","4","4","4","4","5","2","4","4","1","2","1","1","2","2","1","1","2","1","0","1","1","0","0","0","1","0","1","1","0","1","0","1","4","1","4","2","3","1","4","4","2","1","3","572562214427295744","R","79","","","","","","","","","","","","","","","","","","","","","","","","","","","","","","","","","","","","","","","","","",""
"505","<p style=""color:rgb(150, 250, 100); font-size: 35px;"">我</p>","i","categorize-html","133","261798","0.0-6.0-0.0-8.0-1.12","3","3","4","4","4","3","3","4","4","4","4","4","4","4","4","4","5","2","4","4","1","2","1","1","2","2","1","1","2","1","0","1","1","0","0","0","1","0","1","1","0","1","0","1","4","1","4","2","3","1","4","4","2","1","3","572562214427295744","R","79","","","","","","","","","","","","","","","","","","","true","4","4","ability","505","self","我","","","","","","","","","","","","","","","","",""
"null","","null","html-keyboard-response","134","262049","0.0-6.0-0.0-8.0-0.13","3","3","4","4","4","3","3","4","4","4","4","4","4","4","4","4","5","2","4","4","1","2","1","1","2","2","1","1","2","1","0","1","1","0","0","0","1","0","1","1","0","1","0","1","4","1","4","2","3","1","4","4","2","1","3","572562214427295744","R","79","","","","","","","","","","","","","","","","","","","","","","","","","","","","","","","","","","","","","","","","","",""
"581","<p style=""color:white; font-size: 35px;"">精干</p>","e","categorize-html","135","262633","0.0-6.0-0.0-8.0-1.13","3","3","4","4","4","3","3","4","4","4","4","4","4","4","4","4","5","2","4","4","1","2","1","1","2","2","1","1","2","1","0","1","1","0","0","0","1","0","1","1","0","1","0","1","4","1","4","2","3","1","4","4","2","1","3","572562214427295744","R","79","","","","","","","","","","","","","","","","","","","true","4","4","ability","581","positive","精干","","","","","","","","","","","","","","","","",""
"null","","null","html-keyboard-response","136","262886","0.0-6.0-0.0-8.0-0.14","3","3","4","4","4","3","3","4","4","4","4","4","4","4","4","4","5","2","4","4","1","2","1","1","2","2","1","1","2","1","0","1","1","0","0","0","1","0","1","1","0","1","0","1","4","1","4","2","3","1","4","4","2","1","3","572562214427295744","R","79","","","","","","","","","","","","","","","","","","","","","","","","","","","","","","","","","","","","","","","","","",""
"500","<p style=""color:rgb(150, 250, 100); font-size: 35px;"">别人的</p>","e","categorize-html","137","263388","0.0-6.0-0.0-8.0-1.14","3","3","4","4","4","3","3","4","4","4","4","4","4","4","4","4","5","2","4","4","1","2","1","1","2","2","1","1","2","1","0","1","1","0","0","0","1","0","1","1","0","1","0","1","4","1","4","2","3","1","4","4","2","1","3","572562214427295744","R","79","","","","","","","","","","","","","","","","","","","true","4","4","ability","500","other","别人的","","","","","","","","","","","","","","","","",""
"null","","null","html-keyboard-response","138","263639","0.0-6.0-0.0-8.0-0.15","3","3","4","4","4","3","3","4","4","4","4","4","4","4","4","4","5","2","4","4","1","2","1","1","2","2","1","1","2","1","0","1","1","0","0","0","1","0","1","1","0","1","0","1","4","1","4","2","3","1","4","4","2","1","3","572562214427295744","R","79","","","","","","","","","","","","","","","","","","","","","","","","","","","","","","","","","","","","","","","","","",""
"573","<p style=""color:white; font-size: 35px;"">愚钝</p>","i","categorize-html","139","264215","0.0-6.0-0.0-8.0-1.15","3","3","4","4","4","3","3","4","4","4","4","4","4","4","4","4","5","2","4","4","1","2","1","1","2","2","1","1","2","1","0","1","1","0","0","0","1","0","1","1","0","1","0","1","4","1","4","2","3","1","4","4","2","1","3","572562214427295744","R","79","","","","","","","","","","","","","","","","","","","true","4","4","ability","573","negative","愚钝","","","","","","","","","","","","","","","","",""
"null","","null","html-keyboard-response","140","264468","0.0-6.0-0.0-8.0-0.16","3","3","4","4","4","3","3","4","4","4","4","4","4","4","4","4","5","2","4","4","1","2","1","1","2","2","1","1","2","1","0","1","1","0","0","0","1","0","1","1","0","1","0","1","4","1","4","2","3","1","4","4","2","1","3","572562214427295744","R","79","","","","","","","","","","","","","","","","","","","","","","","","","","","","","","","","","","","","","","","","","",""
"503","<p style=""color:rgb(150, 250, 100); font-size: 35px;"">他的</p>","e","categorize-html","141","264974","0.0-6.0-0.0-8.0-1.16","3","3","4","4","4","3","3","4","4","4","4","4","4","4","4","4","5","2","4","4","1","2","1","1","2","2","1","1","2","1","0","1","1","0","0","0","1","0","1","1","0","1","0","1","4","1","4","2","3","1","4","4","2","1","3","572562214427295744","R","79","","","","","","","","","","","","","","","","","","","true","4","4","ability","503","other","他的","","","","","","","","","","","","","","","","",""
"null","","null","html-keyboard-response","142","265226","0.0-6.0-0.0-8.0-0.17","3","3","4","4","4","3","3","4","4","4","4","4","4","4","4","4","5","2","4","4","1","2","1","1","2","2","1","1","2","1","0","1","1","0","0","0","1","0","1","1","0","1","0","1","4","1","4","2","3","1","4","4","2","1","3","572562214427295744","R","79","","","","","","","","","","","","","","","","","","","","","","","","","","","","","","","","","","","","","","","","","",""
"680","<p style=""color:white; font-size: 35px;"">能干</p>","e","categorize-html","143","265908","0.0-6.0-0.0-8.0-1.17","3","3","4","4","4","3","3","4","4","4","4","4","4","4","4","4","5","2","4","4","1","2","1","1","2","2","1","1","2","1","0","1","1","0","0","0","1","0","1","1","0","1","0","1","4","1","4","2","3","1","4","4","2","1","3","572562214427295744","R","79","","","","","","","","","","","","","","","","","","","true","4","4","ability","680","positive","能干","","","","","","","","","","","","","","","","",""
"null","","null","html-keyboard-response","144","266162","0.0-6.0-0.0-8.0-0.18","3","3","4","4","4","3","3","4","4","4","4","4","4","4","4","4","5","2","4","4","1","2","1","1","2","2","1","1","2","1","0","1","1","0","0","0","1","0","1","1","0","1","0","1","4","1","4","2","3","1","4","4","2","1","3","572562214427295744","R","79","","","","","","","","","","","","","","","","","","","","","","","","","","","","","","","","","","","","","","","","","",""
"559","<p style=""color:rgb(150, 250, 100); font-size: 35px;"">本人</p>","i","categorize-html","145","266724","0.0-6.0-0.0-8.0-1.18","3","3","4","4","4","3","3","4","4","4","4","4","4","4","4","4","5","2","4","4","1","2","1","1","2","2","1","1","2","1","0","1","1","0","0","0","1","0","1","1","0","1","0","1","4","1","4","2","3","1","4","4","2","1","3","572562214427295744","R","79","","","","","","","","","","","","","","","","","","","true","4","4","ability","559","self","本人","","","","","","","","","","","","","","","","",""
"null","","null","html-keyboard-response","146","266976","0.0-6.0-0.0-8.0-0.19","3","3","4","4","4","3","3","4","4","4","4","4","4","4","4","4","5","2","4","4","1","2","1","1","2","2","1","1","2","1","0","1","1","0","0","0","1","0","1","1","0","1","0","1","4","1","4","2","3","1","4","4","2","1","3","572562214427295744","R","79","","","","","","","","","","","","","","","","","","","","","","","","","","","","","","","","","","","","","","","","","",""
"612","<p style=""color:white; font-size: 35px;"">蠢笨</p>","i","categorize-html","147","267591","0.0-6.0-0.0-8.0-1.19","3","3","4","4","4","3","3","4","4","4","4","4","4","4","4","4","5","2","4","4","1","2","1","1","2","2","1","1","2","1","0","1","1","0","0","0","1","0","1","1","0","1","0","1","4","1","4","2","3","1","4","4","2","1","3","572562214427295744","R","79","","","","","","","","","","","","","","","","","","","true","4","4","ability","612","negative","蠢笨","","","","","","","","","","","","","","","","",""
"null","","null","html-keyboard-response","148","267842","0.0-6.0-0.0-8.0-0.20","3","3","4","4","4","3","3","4","4","4","4","4","4","4","4","4","5","2","4","4","1","2","1","1","2","2","1","1","2","1","0","1","1","0","0","0","1","0","1","1","0","1","0","1","4","1","4","2","3","1","4","4","2","1","3","572562214427295744","R","79","","","","","","","","","","","","","","","","","","","","","","","","","","","","","","","","","","","","","","","","","",""
"596","<p style=""color:rgb(150, 250, 100); font-size: 35px;"">他</p>","e","categorize-html","149","268440","0.0-6.0-0.0-8.0-1.20","3","3","4","4","4","3","3","4","4","4","4","4","4","4","4","4","5","2","4","4","1","2","1","1","2","2","1","1","2","1","0","1","1","0","0","0","1","0","1","1","0","1","0","1","4","1","4","2","3","1","4","4","2","1","3","572562214427295744","R","79","","","","","","","","","","","","","","","","","","","true","4","4","ability","596","other","他","","","","","","","","","","","","","","","","",""
"null","","null","html-keyboard-response","150","268693","0.0-6.0-0.0-8.0-0.21","3","3","4","4","4","3","3","4","4","4","4","4","4","4","4","4","5","2","4","4","1","2","1","1","2","2","1","1","2","1","0","1","1","0","0","0","1","0","1","1","0","1","0","1","4","1","4","2","3","1","4","4","2","1","3","572562214427295744","R","79","","","","","","","","","","","","","","","","","","","","","","","","","","","","","","","","","","","","","","","","","",""
"799","<p style=""color:white; font-size: 35px;"">愚钝</p>","i","categorize-html","151","269495","0.0-6.0-0.0-8.0-1.21","3","3","4","4","4","3","3","4","4","4","4","4","4","4","4","4","5","2","4","4","1","2","1","1","2","2","1","1","2","1","0","1","1","0","0","0","1","0","1","1","0","1","0","1","4","1","4","2","3","1","4","4","2","1","3","572562214427295744","R","79","","","","","","","","","","","","","","","","","","","true","4","4","ability","799","negative","愚钝","","","","","","","","","","","","","","","","",""
"null","","null","html-keyboard-response","152","269746","0.0-6.0-0.0-8.0-0.22","3","3","4","4","4","3","3","4","4","4","4","4","4","4","4","4","5","2","4","4","1","2","1","1","2","2","1","1","2","1","0","1","1","0","0","0","1","0","1","1","0","1","0","1","4","1","4","2","3","1","4","4","2","1","3","572562214427295744","R","79","","","","","","","","","","","","","","","","","","","","","","","","","","","","","","","","","","","","","","","","","",""
"525","<p style=""color:rgb(150, 250, 100); font-size: 35px;"">自己</p>","i","categorize-html","153","270273","0.0-6.0-0.0-8.0-1.22","3","3","4","4","4","3","3","4","4","4","4","4","4","4","4","4","5","2","4","4","1","2","1","1","2","2","1","1","2","1","0","1","1","0","0","0","1","0","1","1","0","1","0","1","4","1","4","2","3","1","4","4","2","1","3","572562214427295744","R","79","","","","","","","","","","","","","","","","","","","true","4","4","ability","525","self","自己","","","","","","","","","","","","","","","","",""
"null","","null","html-keyboard-response","154","270525","0.0-6.0-0.0-8.0-0.23","3","3","4","4","4","3","3","4","4","4","4","4","4","4","4","4","5","2","4","4","1","2","1","1","2","2","1","1","2","1","0","1","1","0","0","0","1","0","1","1","0","1","0","1","4","1","4","2","3","1","4","4","2","1","3","572562214427295744","R","79","","","","","","","","","","","","","","","","","","","","","","","","","","","","","","","","","","","","","","","","","",""
"523","<p style=""color:white; font-size: 35px;"">天才</p>","e","categorize-html","155","271051","0.0-6.0-0.0-8.0-1.23","3","3","4","4","4","3","3","4","4","4","4","4","4","4","4","4","5","2","4","4","1","2","1","1","2","2","1","1","2","1","0","1","1","0","0","0","1","0","1","1","0","1","0","1","4","1","4","2","3","1","4","4","2","1","3","572562214427295744","R","79","","","","","","","","","","","","","","","","","","","true","4","4","ability","523","positive","天才","","","","","","","","","","","","","","","","",""
"null","","null","html-keyboard-response","156","271304","0.0-6.0-0.0-8.0-0.24","3","3","4","4","4","3","3","4","4","4","4","4","4","4","4","4","5","2","4","4","1","2","1","1","2","2","1","1","2","1","0","1","1","0","0","0","1","0","1","1","0","1","0","1","4","1","4","2","3","1","4","4","2","1","3","572562214427295744","R","79","","","","","","","","","","","","","","","","","","","","","","","","","","","","","","","","","","","","","","","","","",""
"520","<p style=""color:rgb(150, 250, 100); font-size: 35px;"">我</p>","i","categorize-html","157","271827","0.0-6.0-0.0-8.0-1.24","3","3","4","4","4","3","3","4","4","4","4","4","4","4","4","4","5","2","4","4","1","2","1","1","2","2","1","1","2","1","0","1","1","0","0","0","1","0","1","1","0","1","0","1","4","1","4","2","3","1","4","4","2","1","3","572562214427295744","R","79","","","","","","","","","","","","","","","","","","","true","4","4","ability","520","self","我","","","","","","","","","","","","","","","","",""
"null","","null","html-keyboard-response","158","272080","0.0-6.0-0.0-8.0-0.25","3","3","4","4","4","3","3","4","4","4","4","4","4","4","4","4","5","2","4","4","1","2","1","1","2","2","1","1","2","1","0","1","1","0","0","0","1","0","1","1","0","1","0","1","4","1","4","2","3","1","4","4","2","1","3","572562214427295744","R","79","","","","","","","","","","","","","","","","","","","","","","","","","","","","","","","","","","","","","","","","","",""
"608","<p style=""color:white; font-size: 35px;"">废物</p>","i","categorize-html","159","272690","0.0-6.0-0.0-8.0-1.25","3","3","4","4","4","3","3","4","4","4","4","4","4","4","4","4","5","2","4","4","1","2","1","1","2","2","1","1","2","1","0","1","1","0","0","0","1","0","1","1","0","1","0","1","4","1","4","2","3","1","4","4","2","1","3","572562214427295744","R","79","","","","","","","","","","","","","","","","","","","true","4","4","ability","608","negative","废物","","","","","","","","","","","","","","","","",""
"null","","null","html-keyboard-response","160","272942","0.0-6.0-0.0-8.0-0.26","3","3","4","4","4","3","3","4","4","4","4","4","4","4","4","4","5","2","4","4","1","2","1","1","2","2","1","1","2","1","0","1","1","0","0","0","1","0","1","1","0","1","0","1","4","1","4","2","3","1","4","4","2","1","3","572562214427295744","R","79","","","","","","","","","","","","","","","","","","","","","","","","","","","","","","","","","","","","","","","","","",""
"511","<p style=""color:rgb(150, 250, 100); font-size: 35px;"">他人</p>","e","categorize-html","161","273455","0.0-6.0-0.0-8.0-1.26","3","3","4","4","4","3","3","4","4","4","4","4","4","4","4","4","5","2","4","4","1","2","1","1","2","2","1","1","2","1","0","1","1","0","0","0","1","0","1","1","0","1","0","1","4","1","4","2","3","1","4","4","2","1","3","572562214427295744","R","79","","","","","","","","","","","","","","","","","","","true","4","4","ability","511","other","他人","","","","","","","","","","","","","","","","",""
"null","","null","html-keyboard-response","162","273708","0.0-6.0-0.0-8.0-0.27","3","3","4","4","4","3","3","4","4","4","4","4","4","4","4","4","5","2","4","4","1","2","1","1","2","2","1","1","2","1","0","1","1","0","0","0","1","0","1","1","0","1","0","1","4","1","4","2","3","1","4","4","2","1","3","572562214427295744","R","79","","","","","","","","","","","","","","","","","","","","","","","","","","","","","","","","","","","","","","","","","",""
"541","<p style=""color:white; font-size: 35px;"">全才</p>","e","categorize-html","163","274252","0.0-6.0-0.0-8.0-1.27","3","3","4","4","4","3","3","4","4","4","4","4","4","4","4","4","5","2","4","4","1","2","1","1","2","2","1","1","2","1","0","1","1","0","0","0","1","0","1","1","0","1","0","1","4","1","4","2","3","1","4","4","2","1","3","572562214427295744","R","79","","","","","","","","","","","","","","","","","","","true","4","4","ability","541","positive","全才","","","","","","","","","","","","","","","","",""
"null","","null","html-keyboard-response","164","274503","0.0-6.0-0.0-8.0-0.28","3","3","4","4","4","3","3","4","4","4","4","4","4","4","4","4","5","2","4","4","1","2","1","1","2","2","1","1","2","1","0","1","1","0","0","0","1","0","1","1","0","1","0","1","4","1","4","2","3","1","4","4","2","1","3","572562214427295744","R","79","","","","","","","","","","","","","","","","","","","","","","","","","","","","","","","","","","","","","","","","","",""
"572","<p style=""color:rgb(150, 250, 100); font-size: 35px;"">别人</p>","e","categorize-html","165","275078","0.0-6.0-0.0-8.0-1.28","3","3","4","4","4","3","3","4","4","4","4","4","4","4","4","4","5","2","4","4","1","2","1","1","2","2","1","1","2","1","0","1","1","0","0","0","1","0","1","1","0","1","0","1","4","1","4","2","3","1","4","4","2","1","3","572562214427295744","R","79","","","","","","","","","","","","","","","","","","","true","4","4","ability","572","other","别人","","","","","","","","","","","","","","","","",""
"null","","null","html-keyboard-response","166","275330","0.0-6.0-0.0-8.0-0.29","3","3","4","4","4","3","3","4","4","4","4","4","4","4","4","4","5","2","4","4","1","2","1","1","2","2","1","1","2","1","0","1","1","0","0","0","1","0","1","1","0","1","0","1","4","1","4","2","3","1","4","4","2","1","3","572562214427295744","R","79","","","","","","","","","","","","","","","","","","","","","","","","","","","","","","","","","","","","","","","","","",""
"530","<p style=""color:white; font-size: 35px;"">全能</p>","e","categorize-html","167","275863","0.0-6.0-0.0-8.0-1.29","3","3","4","4","4","3","3","4","4","4","4","4","4","4","4","4","5","2","4","4","1","2","1","1","2","2","1","1","2","1","0","1","1","0","0","0","1","0","1","1","0","1","0","1","4","1","4","2","3","1","4","4","2","1","3","572562214427295744","R","79","","","","","","","","","","","","","","","","","","","true","4","4","ability","530","positive","全能","","","","","","","","","","","","","","","","",""
"null","","null","html-keyboard-response","168","276114","0.0-6.0-0.0-8.0-0.30","3","3","4","4","4","3","3","4","4","4","4","4","4","4","4","4","5","2","4","4","1","2","1","1","2","2","1","1","2","1","0","1","1","0","0","0","1","0","1","1","0","1","0","1","4","1","4","2","3","1","4","4","2","1","3","572562214427295744","R","79","","","","","","","","","","","","","","","","","","","","","","","","","","","","","","","","","","","","","","","","","",""
"749","<p style=""color:rgb(150, 250, 100); font-size: 35px;"">自己</p>","i","categorize-html","169","276867","0.0-6.0-0.0-8.0-1.30","3","3","4","4","4","3","3","4","4","4","4","4","4","4","4","4","5","2","4","4","1","2","1","1","2","2","1","1","2","1","0","1","1","0","0","0","1","0","1","1","0","1","0","1","4","1","4","2","3","1","4","4","2","1","3","572562214427295744","R","79","","","","","","","","","","","","","","","","","","","true","4","4","ability","749","self","自己","","","","","","","","","","","","","","","","",""
"null","","null","html-keyboard-response","170","277119","0.0-6.0-0.0-8.0-0.31","3","3","4","4","4","3","3","4","4","4","4","4","4","4","4","4","5","2","4","4","1","2","1","1","2","2","1","1","2","1","0","1","1","0","0","0","1","0","1","1","0","1","0","1","4","1","4","2","3","1","4","4","2","1","3","572562214427295744","R","79","","","","","","","","","","","","","","","","","","","","","","","","","","","","","","","","","","","","","","","","","",""
"560","<p style=""color:white; font-size: 35px;"">无能</p>","e","categorize-html","171","277762","0.0-6.0-0.0-8.0-1.31","3","3","4","4","4","3","3","4","4","4","4","4","4","4","4","4","5","2","4","4","1","2","1","1","2","2","1","1","2","1","0","1","1","0","0","0","1","0","1","1","0","1","0","1","4","1","4","2","3","1","4","4","2","1","3","572562214427295744","R","79","","","","","","","","","","","","","","","","","","","false","4","4","ability","1187.8297872340427","negative","无能","","","","","","","","","","","","","","","","",""
"null","","null","html-keyboard-response","172","278013","0.0-6.0-0.0-8.0-0.32","3","3","4","4","4","3","3","4","4","4","4","4","4","4","4","4","5","2","4","4","1","2","1","1","2","2","1","1","2","1","0","1","1","0","0","0","1","0","1","1","0","1","0","1","4","1","4","2","3","1","4","4","2","1","3","572562214427295744","R","79","","","","","","","","","","","","","","","","","","","","","","","","","","","","","","","","","","","","","","","","","",""
"1014","<p style=""color:rgb(150, 250, 100); font-size: 35px;"">我的</p>","i","categorize-html","173","279031","0.0-6.0-0.0-8.0-1.32","3","3","4","4","4","3","3","4","4","4","4","4","4","4","4","4","5","2","4","4","1","2","1","1","2","2","1","1","2","1","0","1","1","0","0","0","1","0","1","1","0","1","0","1","4","1","4","2","3","1","4","4","2","1","3","572562214427295744","R","79","","","","","","","","","","","","","","","","","","","true","4","4","ability","1014","self","我的","","","","","","","","","","","","","","","","",""
"null","","null","html-keyboard-response","174","279282","0.0-6.0-0.0-8.0-0.33","3","3","4","4","4","3","3","4","4","4","4","4","4","4","4","4","5","2","4","4","1","2","1","1","2","2","1","1","2","1","0","1","1","0","0","0","1","0","1","1","0","1","0","1","4","1","4","2","3","1","4","4","2","1","3","572562214427295744","R","79","","","","","","","","","","","","","","","","","","","","","","","","","","","","","","","","","","","","","","","","","",""
"645","<p style=""color:white; font-size: 35px;"">废物</p>","i","categorize-html","175","279929","0.0-6.0-0.0-8.0-1.33","3","3","4","4","4","3","3","4","4","4","4","4","4","4","4","4","5","2","4","4","1","2","1","1","2","2","1","1","2","1","0","1","1","0","0","0","1","0","1","1","0","1","0","1","4","1","4","2","3","1","4","4","2","1","3","572562214427295744","R","79","","","","","","","","","","","","","","","","","","","true","4","4","ability","645","negative","废物","","","","","","","","","","","","","","","","",""
"null","","null","html-keyboard-response","176","280180","0.0-6.0-0.0-8.0-0.34","3","3","4","4","4","3","3","4","4","4","4","4","4","4","4","4","5","2","4","4","1","2","1","1","2","2","1","1","2","1","0","1","1","0","0","0","1","0","1","1","0","1","0","1","4","1","4","2","3","1","4","4","2","1","3","572562214427295744","R","79","","","","","","","","","","","","","","","","","","","","","","","","","","","","","","","","","","","","","","","","","",""
"758","<p style=""color:rgb(150, 250, 100); font-size: 35px;"">他人的</p>","e","categorize-html","177","280941","0.0-6.0-0.0-8.0-1.34","3","3","4","4","4","3","3","4","4","4","4","4","4","4","4","4","5","2","4","4","1","2","1","1","2","2","1","1","2","1","0","1","1","0","0","0","1","0","1","1","0","1","0","1","4","1","4","2","3","1","4","4","2","1","3","572562214427295744","R","79","","","","","","","","","","","","","","","","","","","true","4","4","ability","758","other","他人的","","","","","","","","","","","","","","","","",""
"null","","null","html-keyboard-response","178","281192","0.0-6.0-0.0-8.0-0.35","3","3","4","4","4","3","3","4","4","4","4","4","4","4","4","4","5","2","4","4","1","2","1","1","2","2","1","1","2","1","0","1","1","0","0","0","1","0","1","1","0","1","0","1","4","1","4","2","3","1","4","4","2","1","3","572562214427295744","R","79","","","","","","","","","","","","","","","","","","","","","","","","","","","","","","","","","","","","","","","","","",""
"556","<p style=""color:white; font-size: 35px;"">能干</p>","e","categorize-html","179","281751","0.0-6.0-0.0-8.0-1.35","3","3","4","4","4","3","3","4","4","4","4","4","4","4","4","4","5","2","4","4","1","2","1","1","2","2","1","1","2","1","0","1","1","0","0","0","1","0","1","1","0","1","0","1","4","1","4","2","3","1","4","4","2","1","3","572562214427295744","R","79","","","","","","","","","","","","","","","","","","","true","4","4","ability","556","positive","能干","","","","","","","","","","","","","","","","",""
"null","","null","html-keyboard-response","180","282002","0.0-6.0-0.0-8.0-0.36","3","3","4","4","4","3","3","4","4","4","4","4","4","4","4","4","5","2","4","4","1","2","1","1","2","2","1","1","2","1","0","1","1","0","0","0","1","0","1","1","0","1","0","1","4","1","4","2","3","1","4","4","2","1","3","572562214427295744","R","79","","","","","","","","","","","","","","","","","","","","","","","","","","","","","","","","","","","","","","","","","",""
"493","<p style=""color:rgb(150, 250, 100); font-size: 35px;"">本人</p>","i","categorize-html","181","282498","0.0-6.0-0.0-8.0-1.36","3","3","4","4","4","3","3","4","4","4","4","4","4","4","4","4","5","2","4","4","1","2","1","1","2","2","1","1","2","1","0","1","1","0","0","0","1","0","1","1","0","1","0","1","4","1","4","2","3","1","4","4","2","1","3","572562214427295744","R","79","","","","","","","","","","","","","","","","","","","true","4","4","ability","493","self","本人","","","","","","","","","","","","","","","","",""
"null","","null","html-keyboard-response","182","282750","0.0-6.0-0.0-8.0-0.37","3","3","4","4","4","3","3","4","4","4","4","4","4","4","4","4","5","2","4","4","1","2","1","1","2","2","1","1","2","1","0","1","1","0","0","0","1","0","1","1","0","1","0","1","4","1","4","2","3","1","4","4","2","1","3","572562214427295744","R","79","","","","","","","","","","","","","","","","","","","","","","","","","","","","","","","","","","","","","","","","","",""
"541","<p style=""color:white; font-size: 35px;"">低能</p>","i","categorize-html","183","283294","0.0-6.0-0.0-8.0-1.37","3","3","4","4","4","3","3","4","4","4","4","4","4","4","4","4","5","2","4","4","1","2","1","1","2","2","1","1","2","1","0","1","1","0","0","0","1","0","1","1","0","1","0","1","4","1","4","2","3","1","4","4","2","1","3","572562214427295744","R","79","","","","","","","","","","","","","","","","","","","true","4","4","ability","541","negative","低能","","","","","","","","","","","","","","","","",""
"null","","null","html-keyboard-response","184","283545","0.0-6.0-0.0-8.0-0.38","3","3","4","4","4","3","3","4","4","4","4","4","4","4","4","4","5","2","4","4","1","2","1","1","2","2","1","1","2","1","0","1","1","0","0","0","1","0","1","1","0","1","0","1","4","1","4","2","3","1","4","4","2","1","3","572562214427295744","R","79","","","","","","","","","","","","","","","","","","","","","","","","","","","","","","","","","","","","","","","","","",""
"629","<p style=""color:rgb(150, 250, 100); font-size: 35px;"">他人的</p>","e","categorize-html","185","284176","0.0-6.0-0.0-8.0-1.38","3","3","4","4","4","3","3","4","4","4","4","4","4","4","4","4","5","2","4","4","1","2","1","1","2","2","1","1","2","1","0","1","1","0","0","0","1","0","1","1","0","1","0","1","4","1","4","2","3","1","4","4","2","1","3","572562214427295744","R","79","","","","","","","","","","","","","","","","","","","true","4","4","ability","629","other","他人的","","","","","","","","","","","","","","","","",""
"null","","null","html-keyboard-response","186","284428","0.0-6.0-0.0-8.0-0.39","3","3","4","4","4","3","3","4","4","4","4","4","4","4","4","4","5","2","4","4","1","2","1","1","2","2","1","1","2","1","0","1","1","0","0","0","1","0","1","1","0","1","0","1","4","1","4","2","3","1","4","4","2","1","3","572562214427295744","R","79","","","","","","","","","","","","","","","","","","","","","","","","","","","","","","","","","","","","","","","","","",""
"866","<p style=""color:white; font-size: 35px;"">全能</p>","e","categorize-html","187","285297","0.0-6.0-0.0-8.0-1.39","3","3","4","4","4","3","3","4","4","4","4","4","4","4","4","4","5","2","4","4","1","2","1","1","2","2","1","1","2","1","0","1","1","0","0","0","1","0","1","1","0","1","0","1","4","1","4","2","3","1","4","4","2","1","3","572562214427295744","R","79","","","","","","","","","","","","","","","","","","","true","4","4","ability","866","positive","全能","","","","","","","","","","","","","","","","",""
"null","","null","html-keyboard-response","188","285548","0.0-6.0-0.0-8.0-0.40","3","3","4","4","4","3","3","4","4","4","4","4","4","4","4","4","5","2","4","4","1","2","1","1","2","2","1","1","2","1","0","1","1","0","0","0","1","0","1","1","0","1","0","1","4","1","4","2","3","1","4","4","2","1","3","572562214427295744","R","79","","","","","","","","","","","","","","","","","","","","","","","","","","","","","","","","","","","","","","","","","",""
"562","<p style=""color:rgb(150, 250, 100); font-size: 35px;"">我的</p>","i","categorize-html","189","286113","0.0-6.0-0.0-8.0-1.40","3","3","4","4","4","3","3","4","4","4","4","4","4","4","4","4","5","2","4","4","1","2","1","1","2","2","1","1","2","1","0","1","1","0","0","0","1","0","1","1","0","1","0","1","4","1","4","2","3","1","4","4","2","1","3","572562214427295744","R","79","","","","","","","","","","","","","","","","","","","true","4","4","ability","562","self","我的","","","","","","","","","","","","","","","","",""
"null","","null","html-keyboard-response","190","286366","0.0-6.0-0.0-8.0-0.41","3","3","4","4","4","3","3","4","4","4","4","4","4","4","4","4","5","2","4","4","1","2","1","1","2","2","1","1","2","1","0","1","1","0","0","0","1","0","1","1","0","1","0","1","4","1","4","2","3","1","4","4","2","1","3","572562214427295744","R","79","","","","","","","","","","","","","","","","","","","","","","","","","","","","","","","","","","","","","","","","","",""
"567","<p style=""color:white; font-size: 35px;"">精干</p>","e","categorize-html","191","286936","0.0-6.0-0.0-8.0-1.41","3","3","4","4","4","3","3","4","4","4","4","4","4","4","4","4","5","2","4","4","1","2","1","1","2","2","1","1","2","1","0","1","1","0","0","0","1","0","1","1","0","1","0","1","4","1","4","2","3","1","4","4","2","1","3","572562214427295744","R","79","","","","","","","","","","","","","","","","","","","true","4","4","ability","567","positive","精干","","","","","","","","","","","","","","","","",""
"null","","null","html-keyboard-response","192","287189","0.0-6.0-0.0-8.0-0.42","3","3","4","4","4","3","3","4","4","4","4","4","4","4","4","4","5","2","4","4","1","2","1","1","2","2","1","1","2","1","0","1","1","0","0","0","1","0","1","1","0","1","0","1","4","1","4","2","3","1","4","4","2","1","3","572562214427295744","R","79","","","","","","","","","","","","","","","","","","","","","","","","","","","","","","","","","","","","","","","","","",""
