"rt","stimulus","response","trial_type","trial_index","time_elapsed","internal_node_id","ses_1","ses_2","ses_3","ses_4","ses_5","ses_6","ses_7","ses_8","ses_9","ses_10","coreself_1","coreself_2","coreself_3","coreself_4","coreself_5","coreself_6","coreself_7","coreself_8","coreself_9","coreself_10","SGPS_1","SGPS_2","SGPS_3","SGPS_4","SGPS_5","SGPS_6","SGPS_7","SGPS_8","SGPS_9","NPI1","NPI2","NPI3","NPI4","NPI5","NPI6","NPI7","NPI8","NPI9","NPI10","NPI11","NPI12","NPI13","NPI14","NPI15","hsns_1","hsns_2","hsns_3","hsns_4","hsns_5","trap1","hsns_6","hsns_7","hsns_8","hsns_9","hsns_10","subj_idx","friend_name","ParticipantID","value","success","user_agent","responses","item_order","radio_event_ids","radio_event_times","key_event_times","mouse_event_times","straightlining","zigzagging","honeypot","timeout","failed_images","failed_audio","failed_video","version_attrib2","version_target2","correct","IAT","screen_id","task_id","RT","condition","word","varname","summary","version_attrib","version_target","time_stamp","view_history","response_type","key_press","avg_frame_time","center_x","center_y","correct_response","identity","Image","question_order","correct_answer","trap1_item"
"330864","
   <p><div style = ""color: white;font-size:25px;"">您好，欢迎参加本次实验。</div> </p>
   <p><div style = ""color: white;font-size:25px;"">为充分保障您的权利，请确保您已经知晓并同意《参与实验同意书》以及《数据公开知情同意书》。</div></p>
   <p><div style = ""color: white;font-size:25px;"">如果您未见过上述内容，请咨询实验员。</div></p>
   <p><div style = ""color: white;font-size:25px;"">如果您选择继续实验，则表示您已经清楚两份知情同意书的内容并同意。</div></p>
   <p><div style = ""color: pink;font-size:30px;"">请确保您记得day0的实验编号，您将在本次实验输入该编号，若您忘记，请咨询实验员后作答。</div></p>
   <p><div style = ""color: lightblue;font-size:25px;"">请您尽可能认真地作答，我们将依据您在各问卷和按键任务中的作答质量发放报酬。</div></p>
   <p> <div style = ""color: green;font-size:25px;""><按空格键至下页></div> </p>
   "," ","html-keyboard-response","0","330868","0.0-0.0","3","3","4","3","4","3","3","4","4","4","5","4","4","4","4","4","4","4","4","5","1","1","2","1","2","2","1","1","1","0","1","0","0","1","1","0","1","0","0","0","0","0","0","0","5","2","3","2","1","3","4","4","5","3","2","751465309353021442","何","223","","","","","","","","","","","","","","","","","","","","","","","","","","","","","","","","","","","","","","","","","",""
"","","","call-function","1","330869","0.0-1.0-0.0","3","3","4","3","4","3","3","4","4","4","5","4","4","4","4","4","4","4","4","5","1","1","2","1","2","2","1","1","1","0","1","0","0","1","1","0","1","0","0","0","0","0","0","0","5","2","3","2","1","3","4","4","5","3","2","751465309353021442","何","223","","","","","","","","","","","","","","","","","","","","","","","","","","","","","","","","","","","","","","","","","",""
"50262","","{""friend_name"":""何"",""ParticipantID"":""223""}","survey-html-form","2","381132","0.0-1.0-1.0","3","3","4","3","4","3","3","4","4","4","5","4","4","4","4","4","4","4","4","5","1","1","2","1","2","2","1","1","1","0","1","0","0","1","1","0","1","0","0","0","0","0","0","0","5","2","3","2","1","3","4","4","5","3","2","751465309353021442","何","223","","","","","","","","","","","","","","","","","","","","","","","","","","","","","","","","","","","","","","","","","",""
"","","","fullscreen","3","392880","0.0-2.0","3","3","4","3","4","3","3","4","4","4","5","4","4","4","4","4","4","4","4","5","1","1","2","1","2","2","1","1","1","0","1","0","0","1","1","0","1","0","0","0","0","0","0","0","5","2","3","2","1","3","4","4","5","3","2","751465309353021442","何","223","","true","{}","","","","","","","","","","","","","","","","","","","","","","","","","","","","","","","","","","","","","","",""
"42822.60000002384","","{""Q01"":""3"",""Q02"":""3"",""Q03"":""4"",""Q04"":""3"",""Q05"":""4"",""Q06"":""3"",""Q07"":""3"",""Q08"":""4"",""Q09"":""4"",""Q10"":""4""}","survey-template","4","435705","0.0-3.0","3","3","4","3","4","3","3","4","4","4","5","4","4","4","4","4","4","4","4","5","1","1","2","1","2","2","1","1","1","0","1","0","0","1","1","0","1","0","0","0","0","0","0","0","5","2","3","2","1","3","4","4","5","3","2","751465309353021442","何","223","","","","{""Q01"":""3"",""Q02"":""3"",""Q03"":""4"",""Q04"":""3"",""Q05"":""4"",""Q06"":""3"",""Q07"":""3"",""Q08"":""4"",""Q09"":""4"",""Q10"":""4""}","[0,1,2,3,4,5,6,7,8,9]","[""Q01"",""Q02"",""Q03"",""Q04"",""Q05"",""Q06"",""Q07"",""Q08"",""Q09"",""Q10""]","[10758.699999928474,13225.299999952316,15475.199999928474,19511.199999928474,24753.299999952316,27423.399999976158,29743.199999928474,36896.60000002384,39343.199999928474,40864.10000002384]","[]","[10758.699999928474,13225.299999952316,15475.199999928474,19511.199999928474,23576.199999928474,24753.299999952316,27423.399999976158,29743.199999928474,36896.60000002384,39343.199999928474,40864.10000002384,42821.5]","0.5","0","0","","","","","","","","","","","","","","","","","","","","","","","","","","","","","",""
"133229","","{""Q01"":""5"",""Q02"":""4"",""Q03"":""4"",""Q04"":""4"",""Q05"":""4"",""Q06"":""4"",""Q07"":""4"",""Q08"":""4"",""Q09"":""4"",""Q10"":""5""}","survey-template","5","568938","0.0-4.0","3","3","4","3","4","3","3","4","4","4","5","4","4","4","4","4","4","4","4","5","1","1","2","1","2","2","1","1","1","0","1","0","0","1","1","0","1","0","0","0","0","0","0","0","5","2","3","2","1","3","4","4","5","3","2","751465309353021442","何","223","","","","{""Q01"":""5"",""Q02"":""4"",""Q03"":""4"",""Q04"":""4"",""Q05"":""4"",""Q06"":""4"",""Q07"":""4"",""Q08"":""4"",""Q09"":""4"",""Q10"":""5""}","[0,1,2,3,4,5,6,7,8,9]","[""Q01"",""Q02"",""Q03"",""Q04"",""Q05"",""Q06"",""Q07"",""Q08"",""Q09"",""Q10""]","[7321.899999976158,13059.799999952316,15744.399999976158,19119.5,23379.799999952316,25195.100000023842,27805,34900.200000047684,129103.20000004768,131541]","[]","[7321.899999976158,13059.799999952316,15744.399999976158,19119.5,23379.799999952316,25195.100000023842,27805,34900.200000047684,129103.20000004768,131541,133228.20000004768]","0.5","0","0","","","","","","","","","","","","","","","","","","","","","","","","","","","","","",""
"","","","preload","6","569210","0.0-5.0","3","3","4","3","4","3","3","4","4","4","5","4","4","4","4","4","4","4","4","5","1","1","2","1","2","2","1","1","1","0","1","0","0","1","1","0","1","0","0","0","0","0","0","0","5","2","3","2","1","3","4","4","5","3","2","751465309353021442","何","223","","true","","","","","","","","","","","false","[]","[]","[]","","","","","","","","","","","","","","","","","","","","","","","","","",""
"20412","
    <h3>词语分类任务</h3>
    <p>在接下来的任务中，你需要对一系列词语进行分类。<p/>
    请先熟悉这些词语，这有利于你完成接下来的任务。</p>
    <table align=""center"" border=1 cellpadding=3 cellspacing=0>
    <tr> <th>类别</th> <th>词语</th> </tr>
    <tr> <td>&emsp;积极&emsp;</td> <td>&emsp;高尚、诚信、善良、君子、廉正、正直&emsp;</td> </tr>
    <tr> <td>&emsp;消极&emsp;</td> <td>&emsp;缺德、卑鄙、不孝、不仁、小人、黑心&emsp;</td> </tr>
    <tr> <td>&emsp;自我&emsp;</td> <td>&emsp;我、我的、自己、自己的、本人、本人的&emsp;</td> </tr>
    <tr> <td>&emsp;他人&emsp;</td> <td>&emsp;他、他的、别人、别人的、他人、他人的&emsp;</td> </tr>
    </table><br/>","0","html-button-response","7","589623","0.0-6.0-1.0-0.0","3","3","4","3","4","3","3","4","4","4","5","4","4","4","4","4","4","4","4","5","1","1","2","1","2","2","1","1","1","0","1","0","0","1","1","0","1","0","0","0","0","0","0","0","5","2","3","2","1","3","4","4","5","3","2","751465309353021442","何","223","","","","","","","","","","","","","","","","","2","2","","","","","","","","","","","","","","","","","","","","","","","",""
"26296","
    <div class=""tag-bottom""><p>
    —— 任务1：对“他人”词和“自我”词分类 ——<p/>
    不同词语会出现在屏幕中央，类别标签将始终显示在屏幕上方<p/>   
    <span style=""color:#FFD866""><b>请根据上方标签的提示，尽可能正确并且快速地做出按键反应</b></span><p/>
    当按键错误时屏幕中会出现<span style=""color:red""> X </span>，需要按另一个键纠正才能继续<br/><p/>
    请把双手食指分别放在键盘的“E”键和“I”键上<p/>
    按<空格键>开始
    </p></div>"," ","html-keyboard-response","8","615921","0.0-6.0-1.0-1.0","3","3","4","3","4","3","3","4","4","4","5","4","4","4","4","4","4","4","4","5","1","1","2","1","2","2","1","1","1","0","1","0","0","1","1","0","1","0","0","0","0","0","0","0","5","2","3","2","1","3","4","4","5","3","2","751465309353021442","何","223","","","","","","","","","","","","","","","","","","","","","","","","","","","","","","","","","","","","","","","","","",""
"null","","null","html-keyboard-response","9","616173","0.0-6.0-1.0-2.0-0.0","3","3","4","3","4","3","3","4","4","4","5","4","4","4","4","4","4","4","4","5","1","1","2","1","2","2","1","1","1","0","1","0","0","1","1","0","1","0","0","0","0","0","0","0","5","2","3","2","1","3","4","4","5","3","2","751465309353021442","何","223","","","","","","","","","","","","","","","","","","","","","","","","","","","","","","","","","","","","","","","","","",""
"1582","<p style=""color:rgb(150, 250, 100); font-size: 35px;"">他人的</p>","e","categorize-html","10","617758","0.0-6.0-1.0-2.0-1.0","3","3","4","3","4","3","3","4","4","4","5","4","4","4","4","4","4","4","4","5","1","1","2","1","2","2","1","1","1","0","1","0","0","1","1","0","1","0","0","0","0","0","0","0","5","2","3","2","1","3","4","4","5","3","2","751465309353021442","何","223","","","","","","","","","","","","","","","","","","","true","11","1","moral","1582","other","他人的","","","","","","","","","","","","","","","","",""
"null","","null","html-keyboard-response","11","618009","0.0-6.0-1.0-2.0-0.1","3","3","4","3","4","3","3","4","4","4","5","4","4","4","4","4","4","4","4","5","1","1","2","1","2","2","1","1","1","0","1","0","0","1","1","0","1","0","0","0","0","0","0","0","5","2","3","2","1","3","4","4","5","3","2","751465309353021442","何","223","","","","","","","","","","","","","","","","","","","","","","","","","","","","","","","","","","","","","","","","","",""
"1127","<p style=""color:rgb(150, 250, 100); font-size: 35px;"">他</p>","e","categorize-html","12","619137","0.0-6.0-1.0-2.0-1.1","3","3","4","3","4","3","3","4","4","4","5","4","4","4","4","4","4","4","4","5","1","1","2","1","2","2","1","1","1","0","1","0","0","1","1","0","1","0","0","0","0","0","0","0","5","2","3","2","1","3","4","4","5","3","2","751465309353021442","何","223","","","","","","","","","","","","","","","","","","","true","11","1","moral","1127","other","他","","","","","","","","","","","","","","","","",""
"null","","null","html-keyboard-response","13","619388","0.0-6.0-1.0-2.0-0.2","3","3","4","3","4","3","3","4","4","4","5","4","4","4","4","4","4","4","4","5","1","1","2","1","2","2","1","1","1","0","1","0","0","1","1","0","1","0","0","0","0","0","0","0","5","2","3","2","1","3","4","4","5","3","2","751465309353021442","何","223","","","","","","","","","","","","","","","","","","","","","","","","","","","","","","","","","","","","","","","","","",""
"2544","<p style=""color:rgb(150, 250, 100); font-size: 35px;"">我的</p>","i","categorize-html","14","621933","0.0-6.0-1.0-2.0-1.2","3","3","4","3","4","3","3","4","4","4","5","4","4","4","4","4","4","4","4","5","1","1","2","1","2","2","1","1","1","0","1","0","0","1","1","0","1","0","0","0","0","0","0","0","5","2","3","2","1","3","4","4","5","3","2","751465309353021442","何","223","","","","","","","","","","","","","","","","","","","true","11","1","moral","2544","self","我的","","","","","","","","","","","","","","","","",""
"null","","null","html-keyboard-response","15","622184","0.0-6.0-1.0-2.0-0.3","3","3","4","3","4","3","3","4","4","4","5","4","4","4","4","4","4","4","4","5","1","1","2","1","2","2","1","1","1","0","1","0","0","1","1","0","1","0","0","0","0","0","0","0","5","2","3","2","1","3","4","4","5","3","2","751465309353021442","何","223","","","","","","","","","","","","","","","","","","","","","","","","","","","","","","","","","","","","","","","","","",""
"2397","<p style=""color:rgb(150, 250, 100); font-size: 35px;"">自己</p>","i","categorize-html","16","624582","0.0-6.0-1.0-2.0-1.3","3","3","4","3","4","3","3","4","4","4","5","4","4","4","4","4","4","4","4","5","1","1","2","1","2","2","1","1","1","0","1","0","0","1","1","0","1","0","0","0","0","0","0","0","5","2","3","2","1","3","4","4","5","3","2","751465309353021442","何","223","","","","","","","","","","","","","","","","","","","true","11","1","moral","2397","self","自己","","","","","","","","","","","","","","","","",""
"null","","null","html-keyboard-response","17","624833","0.0-6.0-1.0-2.0-0.4","3","3","4","3","4","3","3","4","4","4","5","4","4","4","4","4","4","4","4","5","1","1","2","1","2","2","1","1","1","0","1","0","0","1","1","0","1","0","0","0","0","0","0","0","5","2","3","2","1","3","4","4","5","3","2","751465309353021442","何","223","","","","","","","","","","","","","","","","","","","","","","","","","","","","","","","","","","","","","","","","","",""
"2648","<p style=""color:rgb(150, 250, 100); font-size: 35px;"">他的</p>","e","categorize-html","18","627481","0.0-6.0-1.0-2.0-1.4","3","3","4","3","4","3","3","4","4","4","5","4","4","4","4","4","4","4","4","5","1","1","2","1","2","2","1","1","1","0","1","0","0","1","1","0","1","0","0","0","0","0","0","0","5","2","3","2","1","3","4","4","5","3","2","751465309353021442","何","223","","","","","","","","","","","","","","","","","","","true","11","1","moral","2648","other","他的","","","","","","","","","","","","","","","","",""
"null","","null","html-keyboard-response","19","627747","0.0-6.0-1.0-2.0-0.5","3","3","4","3","4","3","3","4","4","4","5","4","4","4","4","4","4","4","4","5","1","1","2","1","2","2","1","1","1","0","1","0","0","1","1","0","1","0","0","0","0","0","0","0","5","2","3","2","1","3","4","4","5","3","2","751465309353021442","何","223","","","","","","","","","","","","","","","","","","","","","","","","","","","","","","","","","","","","","","","","","",""
"2494","<p style=""color:rgb(150, 250, 100); font-size: 35px;"">本人</p>","i","categorize-html","20","630242","0.0-6.0-1.0-2.0-1.5","3","3","4","3","4","3","3","4","4","4","5","4","4","4","4","4","4","4","4","5","1","1","2","1","2","2","1","1","1","0","1","0","0","1","1","0","1","0","0","0","0","0","0","0","5","2","3","2","1","3","4","4","5","3","2","751465309353021442","何","223","","","","","","","","","","","","","","","","","","","true","11","1","moral","2494","self","本人","","","","","","","","","","","","","","","","",""
"null","","null","html-keyboard-response","21","630494","0.0-6.0-1.0-2.0-0.6","3","3","4","3","4","3","3","4","4","4","5","4","4","4","4","4","4","4","4","5","1","1","2","1","2","2","1","1","1","0","1","0","0","1","1","0","1","0","0","0","0","0","0","0","5","2","3","2","1","3","4","4","5","3","2","751465309353021442","何","223","","","","","","","","","","","","","","","","","","","","","","","","","","","","","","","","","","","","","","","","","",""
"2689","<p style=""color:rgb(150, 250, 100); font-size: 35px;"">自己的</p>","i","categorize-html","22","633184","0.0-6.0-1.0-2.0-1.6","3","3","4","3","4","3","3","4","4","4","5","4","4","4","4","4","4","4","4","5","1","1","2","1","2","2","1","1","1","0","1","0","0","1","1","0","1","0","0","0","0","0","0","0","5","2","3","2","1","3","4","4","5","3","2","751465309353021442","何","223","","","","","","","","","","","","","","","","","","","true","11","1","moral","2689","self","自己的","","","","","","","","","","","","","","","","",""
"null","","null","html-keyboard-response","23","633435","0.0-6.0-1.0-2.0-0.7","3","3","4","3","4","3","3","4","4","4","5","4","4","4","4","4","4","4","4","5","1","1","2","1","2","2","1","1","1","0","1","0","0","1","1","0","1","0","0","0","0","0","0","0","5","2","3","2","1","3","4","4","5","3","2","751465309353021442","何","223","","","","","","","","","","","","","","","","","","","","","","","","","","","","","","","","","","","","","","","","","",""
"2686","<p style=""color:rgb(150, 250, 100); font-size: 35px;"">我</p>","i","categorize-html","24","636121","0.0-6.0-1.0-2.0-1.7","3","3","4","3","4","3","3","4","4","4","5","4","4","4","4","4","4","4","4","5","1","1","2","1","2","2","1","1","1","0","1","0","0","1","1","0","1","0","0","0","0","0","0","0","5","2","3","2","1","3","4","4","5","3","2","751465309353021442","何","223","","","","","","","","","","","","","","","","","","","true","11","1","moral","2686","self","我","","","","","","","","","","","","","","","","",""
"null","","null","html-keyboard-response","25","636372","0.0-6.0-1.0-2.0-0.8","3","3","4","3","4","3","3","4","4","4","5","4","4","4","4","4","4","4","4","5","1","1","2","1","2","2","1","1","1","0","1","0","0","1","1","0","1","0","0","0","0","0","0","0","5","2","3","2","1","3","4","4","5","3","2","751465309353021442","何","223","","","","","","","","","","","","","","","","","","","","","","","","","","","","","","","","","","","","","","","","","",""
"3203","<p style=""color:rgb(150, 250, 100); font-size: 35px;"">他人</p>","e","categorize-html","26","639577","0.0-6.0-1.0-2.0-1.8","3","3","4","3","4","3","3","4","4","4","5","4","4","4","4","4","4","4","4","5","1","1","2","1","2","2","1","1","1","0","1","0","0","1","1","0","1","0","0","0","0","0","0","0","5","2","3","2","1","3","4","4","5","3","2","751465309353021442","何","223","","","","","","","","","","","","","","","","","","","true","11","1","moral","3203","other","他人","","","","","","","","","","","","","","","","",""
"null","","null","html-keyboard-response","27","639828","0.0-6.0-1.0-2.0-0.9","3","3","4","3","4","3","3","4","4","4","5","4","4","4","4","4","4","4","4","5","1","1","2","1","2","2","1","1","1","0","1","0","0","1","1","0","1","0","0","0","0","0","0","0","5","2","3","2","1","3","4","4","5","3","2","751465309353021442","何","223","","","","","","","","","","","","","","","","","","","","","","","","","","","","","","","","","","","","","","","","","",""
"2964","<p style=""color:rgb(150, 250, 100); font-size: 35px;"">本人的</p>","i","categorize-html","28","642793","0.0-6.0-1.0-2.0-1.9","3","3","4","3","4","3","3","4","4","4","5","4","4","4","4","4","4","4","4","5","1","1","2","1","2","2","1","1","1","0","1","0","0","1","1","0","1","0","0","0","0","0","0","0","5","2","3","2","1","3","4","4","5","3","2","751465309353021442","何","223","","","","","","","","","","","","","","","","","","","true","11","1","moral","2964","self","本人的","","","","","","","","","","","","","","","","",""
"null","","null","html-keyboard-response","29","643043","0.0-6.0-1.0-2.0-0.10","3","3","4","3","4","3","3","4","4","4","5","4","4","4","4","4","4","4","4","5","1","1","2","1","2","2","1","1","1","0","1","0","0","1","1","0","1","0","0","0","0","0","0","0","5","2","3","2","1","3","4","4","5","3","2","751465309353021442","何","223","","","","","","","","","","","","","","","","","","","","","","","","","","","","","","","","","","","","","","","","","",""
"2581","<p style=""color:rgb(150, 250, 100); font-size: 35px;"">别人的</p>","e","categorize-html","30","645625","0.0-6.0-1.0-2.0-1.10","3","3","4","3","4","3","3","4","4","4","5","4","4","4","4","4","4","4","4","5","1","1","2","1","2","2","1","1","1","0","1","0","0","1","1","0","1","0","0","0","0","0","0","0","5","2","3","2","1","3","4","4","5","3","2","751465309353021442","何","223","","","","","","","","","","","","","","","","","","","true","11","1","moral","2581","other","别人的","","","","","","","","","","","","","","","","",""
"null","","null","html-keyboard-response","31","645876","0.0-6.0-1.0-2.0-0.11","3","3","4","3","4","3","3","4","4","4","5","4","4","4","4","4","4","4","4","5","1","1","2","1","2","2","1","1","1","0","1","0","0","1","1","0","1","0","0","0","0","0","0","0","5","2","3","2","1","3","4","4","5","3","2","751465309353021442","何","223","","","","","","","","","","","","","","","","","","","","","","","","","","","","","","","","","","","","","","","","","",""
"2324","<p style=""color:rgb(150, 250, 100); font-size: 35px;"">别人</p>","e","categorize-html","32","648200","0.0-6.0-1.0-2.0-1.11","3","3","4","3","4","3","3","4","4","4","5","4","4","4","4","4","4","4","4","5","1","1","2","1","2","2","1","1","1","0","1","0","0","1","1","0","1","0","0","0","0","0","0","0","5","2","3","2","1","3","4","4","5","3","2","751465309353021442","何","223","","","","","","","","","","","","","","","","","","","true","11","1","moral","2324","other","别人","","","","","","","","","","","","","","","","",""
"9313","
    <div class=""tag-bottom""><p>
    —— 任务2：对“消极”词和“积极”词分类 ——<p/>   
    <span style=""color:#78DCE8""><b>注意上方，类别标签和需要分类的词语都已经改变</b></span><p/>
    <span style=""color:#FFD866""><b>请根据上方标签的提示，尽可能正确并且快速地做出按键反应</b></span><p/>
    当按键错误时屏幕中会出现<span style=""color:red""> X </span>，需要按另一个键纠正才能继续<br/><p/>
    请把双手食指分别放在键盘的“E”键和“I”键上<p/>
    按<空格键>开始
    </p></div>"," ","html-keyboard-response","33","657513","0.0-6.0-1.0-3.0","3","3","4","3","4","3","3","4","4","4","5","4","4","4","4","4","4","4","4","5","1","1","2","1","2","2","1","1","1","0","1","0","0","1","1","0","1","0","0","0","0","0","0","0","5","2","3","2","1","3","4","4","5","3","2","751465309353021442","何","223","","","","","","","","","","","","","","","","","","","","","","","","","","","","","","","","","","","","","","","","","",""
"null","","null","html-keyboard-response","34","657765","0.0-6.0-1.0-4.0-0.0","3","3","4","3","4","3","3","4","4","4","5","4","4","4","4","4","4","4","4","5","1","1","2","1","2","2","1","1","1","0","1","0","0","1","1","0","1","0","0","0","0","0","0","0","5","2","3","2","1","3","4","4","5","3","2","751465309353021442","何","223","","","","","","","","","","","","","","","","","","","","","","","","","","","","","","","","","","","","","","","","","",""
"2384","<p style=""color:white; font-size: 35px;"">缺德</p>","e","categorize-html","35","660150","0.0-6.0-1.0-4.0-1.0","3","3","4","3","4","3","3","4","4","4","5","4","4","4","4","4","4","4","4","5","1","1","2","1","2","2","1","1","1","0","1","0","0","1","1","0","1","0","0","0","0","0","0","0","5","2","3","2","1","3","4","4","5","3","2","751465309353021442","何","223","","","","","","","","","","","","","","","","","","","true","12","2","moral","2384","negative","缺德","","","","","","","","","","","","","","","","",""
"null","","null","html-keyboard-response","36","660401","0.0-6.0-1.0-4.0-0.1","3","3","4","3","4","3","3","4","4","4","5","4","4","4","4","4","4","4","4","5","1","1","2","1","2","2","1","1","1","0","1","0","0","1","1","0","1","0","0","0","0","0","0","0","5","2","3","2","1","3","4","4","5","3","2","751465309353021442","何","223","","","","","","","","","","","","","","","","","","","","","","","","","","","","","","","","","","","","","","","","","",""
"3443","<p style=""color:white; font-size: 35px;"">小人</p>","e","categorize-html","37","663845","0.0-6.0-1.0-4.0-1.1","3","3","4","3","4","3","3","4","4","4","5","4","4","4","4","4","4","4","4","5","1","1","2","1","2","2","1","1","1","0","1","0","0","1","1","0","1","0","0","0","0","0","0","0","5","2","3","2","1","3","4","4","5","3","2","751465309353021442","何","223","","","","","","","","","","","","","","","","","","","true","12","2","moral","3443","negative","小人","","","","","","","","","","","","","","","","",""
"null","","null","html-keyboard-response","38","664097","0.0-6.0-1.0-4.0-0.2","3","3","4","3","4","3","3","4","4","4","5","4","4","4","4","4","4","4","4","5","1","1","2","1","2","2","1","1","1","0","1","0","0","1","1","0","1","0","0","0","0","0","0","0","5","2","3","2","1","3","4","4","5","3","2","751465309353021442","何","223","","","","","","","","","","","","","","","","","","","","","","","","","","","","","","","","","","","","","","","","","",""
"2463","<p style=""color:white; font-size: 35px;"">正直</p>","i","categorize-html","39","666560","0.0-6.0-1.0-4.0-1.2","3","3","4","3","4","3","3","4","4","4","5","4","4","4","4","4","4","4","4","5","1","1","2","1","2","2","1","1","1","0","1","0","0","1","1","0","1","0","0","0","0","0","0","0","5","2","3","2","1","3","4","4","5","3","2","751465309353021442","何","223","","","","","","","","","","","","","","","","","","","true","12","2","moral","2463","positive","正直","","","","","","","","","","","","","","","","",""
"null","","null","html-keyboard-response","40","666811","0.0-6.0-1.0-4.0-0.3","3","3","4","3","4","3","3","4","4","4","5","4","4","4","4","4","4","4","4","5","1","1","2","1","2","2","1","1","1","0","1","0","0","1","1","0","1","0","0","0","0","0","0","0","5","2","3","2","1","3","4","4","5","3","2","751465309353021442","何","223","","","","","","","","","","","","","","","","","","","","","","","","","","","","","","","","","","","","","","","","","",""
"2838","<p style=""color:white; font-size: 35px;"">诚信</p>","i","categorize-html","41","669650","0.0-6.0-1.0-4.0-1.3","3","3","4","3","4","3","3","4","4","4","5","4","4","4","4","4","4","4","4","5","1","1","2","1","2","2","1","1","1","0","1","0","0","1","1","0","1","0","0","0","0","0","0","0","5","2","3","2","1","3","4","4","5","3","2","751465309353021442","何","223","","","","","","","","","","","","","","","","","","","true","12","2","moral","2838","positive","诚信","","","","","","","","","","","","","","","","",""
"null","","null","html-keyboard-response","42","669901","0.0-6.0-1.0-4.0-0.4","3","3","4","3","4","3","3","4","4","4","5","4","4","4","4","4","4","4","4","5","1","1","2","1","2","2","1","1","1","0","1","0","0","1","1","0","1","0","0","0","0","0","0","0","5","2","3","2","1","3","4","4","5","3","2","751465309353021442","何","223","","","","","","","","","","","","","","","","","","","","","","","","","","","","","","","","","","","","","","","","","",""
"2603","<p style=""color:white; font-size: 35px;"">君子</p>","i","categorize-html","43","672505","0.0-6.0-1.0-4.0-1.4","3","3","4","3","4","3","3","4","4","4","5","4","4","4","4","4","4","4","4","5","1","1","2","1","2","2","1","1","1","0","1","0","0","1","1","0","1","0","0","0","0","0","0","0","5","2","3","2","1","3","4","4","5","3","2","751465309353021442","何","223","","","","","","","","","","","","","","","","","","","true","12","2","moral","2603","positive","君子","","","","","","","","","","","","","","","","",""
"null","","null","html-keyboard-response","44","672756","0.0-6.0-1.0-4.0-0.5","3","3","4","3","4","3","3","4","4","4","5","4","4","4","4","4","4","4","4","5","1","1","2","1","2","2","1","1","1","0","1","0","0","1","1","0","1","0","0","0","0","0","0","0","5","2","3","2","1","3","4","4","5","3","2","751465309353021442","何","223","","","","","","","","","","","","","","","","","","","","","","","","","","","","","","","","","","","","","","","","","",""
"2570","<p style=""color:white; font-size: 35px;"">善良</p>","i","categorize-html","45","675327","0.0-6.0-1.0-4.0-1.5","3","3","4","3","4","3","3","4","4","4","5","4","4","4","4","4","4","4","4","5","1","1","2","1","2","2","1","1","1","0","1","0","0","1","1","0","1","0","0","0","0","0","0","0","5","2","3","2","1","3","4","4","5","3","2","751465309353021442","何","223","","","","","","","","","","","","","","","","","","","true","12","2","moral","2570","positive","善良","","","","","","","","","","","","","","","","",""
"null","","null","html-keyboard-response","46","675577","0.0-6.0-1.0-4.0-0.6","3","3","4","3","4","3","3","4","4","4","5","4","4","4","4","4","4","4","4","5","1","1","2","1","2","2","1","1","1","0","1","0","0","1","1","0","1","0","0","0","0","0","0","0","5","2","3","2","1","3","4","4","5","3","2","751465309353021442","何","223","","","","","","","","","","","","","","","","","","","","","","","","","","","","","","","","","","","","","","","","","",""
"3108","<p style=""color:white; font-size: 35px;"">高尚</p>","i","categorize-html","47","678686","0.0-6.0-1.0-4.0-1.6","3","3","4","3","4","3","3","4","4","4","5","4","4","4","4","4","4","4","4","5","1","1","2","1","2","2","1","1","1","0","1","0","0","1","1","0","1","0","0","0","0","0","0","0","5","2","3","2","1","3","4","4","5","3","2","751465309353021442","何","223","","","","","","","","","","","","","","","","","","","true","12","2","moral","3108","positive","高尚","","","","","","","","","","","","","","","","",""
"null","","null","html-keyboard-response","48","678937","0.0-6.0-1.0-4.0-0.7","3","3","4","3","4","3","3","4","4","4","5","4","4","4","4","4","4","4","4","5","1","1","2","1","2","2","1","1","1","0","1","0","0","1","1","0","1","0","0","0","0","0","0","0","5","2","3","2","1","3","4","4","5","3","2","751465309353021442","何","223","","","","","","","","","","","","","","","","","","","","","","","","","","","","","","","","","","","","","","","","","",""
"3353","<p style=""color:white; font-size: 35px;"">不仁</p>","e","categorize-html","49","682291","0.0-6.0-1.0-4.0-1.7","3","3","4","3","4","3","3","4","4","4","5","4","4","4","4","4","4","4","4","5","1","1","2","1","2","2","1","1","1","0","1","0","0","1","1","0","1","0","0","0","0","0","0","0","5","2","3","2","1","3","4","4","5","3","2","751465309353021442","何","223","","","","","","","","","","","","","","","","","","","true","12","2","moral","3353","negative","不仁","","","","","","","","","","","","","","","","",""
"null","","null","html-keyboard-response","50","682542","0.0-6.0-1.0-4.0-0.8","3","3","4","3","4","3","3","4","4","4","5","4","4","4","4","4","4","4","4","5","1","1","2","1","2","2","1","1","1","0","1","0","0","1","1","0","1","0","0","0","0","0","0","0","5","2","3","2","1","3","4","4","5","3","2","751465309353021442","何","223","","","","","","","","","","","","","","","","","","","","","","","","","","","","","","","","","","","","","","","","","",""
"3466","<p style=""color:white; font-size: 35px;"">廉正</p>","i","categorize-html","51","686009","0.0-6.0-1.0-4.0-1.8","3","3","4","3","4","3","3","4","4","4","5","4","4","4","4","4","4","4","4","5","1","1","2","1","2","2","1","1","1","0","1","0","0","1","1","0","1","0","0","0","0","0","0","0","5","2","3","2","1","3","4","4","5","3","2","751465309353021442","何","223","","","","","","","","","","","","","","","","","","","true","12","2","moral","3466","positive","廉正","","","","","","","","","","","","","","","","",""
"null","","null","html-keyboard-response","52","686260","0.0-6.0-1.0-4.0-0.9","3","3","4","3","4","3","3","4","4","4","5","4","4","4","4","4","4","4","4","5","1","1","2","1","2","2","1","1","1","0","1","0","0","1","1","0","1","0","0","0","0","0","0","0","5","2","3","2","1","3","4","4","5","3","2","751465309353021442","何","223","","","","","","","","","","","","","","","","","","","","","","","","","","","","","","","","","","","","","","","","","",""
"4339","<p style=""color:white; font-size: 35px;"">卑鄙</p>","e","categorize-html","53","690600","0.0-6.0-1.0-4.0-1.9","3","3","4","3","4","3","3","4","4","4","5","4","4","4","4","4","4","4","4","5","1","1","2","1","2","2","1","1","1","0","1","0","0","1","1","0","1","0","0","0","0","0","0","0","5","2","3","2","1","3","4","4","5","3","2","751465309353021442","何","223","","","","","","","","","","","","","","","","","","","true","12","2","moral","4339","negative","卑鄙","","","","","","","","","","","","","","","","",""
"null","","null","html-keyboard-response","54","690850","0.0-6.0-1.0-4.0-0.10","3","3","4","3","4","3","3","4","4","4","5","4","4","4","4","4","4","4","4","5","1","1","2","1","2","2","1","1","1","0","1","0","0","1","1","0","1","0","0","0","0","0","0","0","5","2","3","2","1","3","4","4","5","3","2","751465309353021442","何","223","","","","","","","","","","","","","","","","","","","","","","","","","","","","","","","","","","","","","","","","","",""
"4559","<p style=""color:white; font-size: 35px;"">黑心</p>","i","categorize-html","55","696981","0.0-6.0-1.0-4.0-1.10","3","3","4","3","4","3","3","4","4","4","5","4","4","4","4","4","4","4","4","5","1","1","2","1","2","2","1","1","1","0","1","0","0","1","1","0","1","0","0","0","0","0","0","0","5","2","3","2","1","3","4","4","5","3","2","751465309353021442","何","223","","","","","","","","","","","","","","","","","","","false","12","2","moral","4559","negative","黑心","","","","","","","","","","","","","","","","",""
"null","","null","html-keyboard-response","56","697231","0.0-6.0-1.0-4.0-0.11","3","3","4","3","4","3","3","4","4","4","5","4","4","4","4","4","4","4","4","5","1","1","2","1","2","2","1","1","1","0","1","0","0","1","1","0","1","0","0","0","0","0","0","0","5","2","3","2","1","3","4","4","5","3","2","751465309353021442","何","223","","","","","","","","","","","","","","","","","","","","","","","","","","","","","","","","","","","","","","","","","",""
"4230","<p style=""color:white; font-size: 35px;"">不孝</p>","e","categorize-html","57","701462","0.0-6.0-1.0-4.0-1.11","3","3","4","3","4","3","3","4","4","4","5","4","4","4","4","4","4","4","4","5","1","1","2","1","2","2","1","1","1","0","1","0","0","1","1","0","1","0","0","0","0","0","0","0","5","2","3","2","1","3","4","4","5","3","2","751465309353021442","何","223","","","","","","","","","","","","","","","","","","","true","12","2","moral","4230","negative","不孝","","","","","","","","","","","","","","","","",""
"18255","
    <div class=""tag-bottom""><p>
    —— 任务3：对“他人/消极”词和“自我/积极”词分类 ——<p/>
    <span style=""color:#78DCE8""><b>注意上方，之前的四类词语将混合在一起交替呈现</b></span><p/>
    <span style=""color:#FFD866""><b>请根据上方标签的提示，尽可能正确并且快速地做出按键反应</b></span><p/>
    当按键错误时屏幕中会出现<span style=""color:red""> X </span>，需要按另一个键纠正才能继续<br/><p/>
    请把双手食指分别放在键盘的“E”键和“I”键上<p/>
    按<空格键>开始
    </p></div>"," ","html-keyboard-response","58","719718","0.0-6.0-1.0-5.0","3","3","4","3","4","3","3","4","4","4","5","4","4","4","4","4","4","4","4","5","1","1","2","1","2","2","1","1","1","0","1","0","0","1","1","0","1","0","0","0","0","0","0","0","5","2","3","2","1","3","4","4","5","3","2","751465309353021442","何","223","","","","","","","","","","","","","","","","","","","","","","","","","","","","","","","","","","","","","","","","","",""
"null","","null","html-keyboard-response","59","719969","0.0-6.0-1.0-6.0-0.0","3","3","4","3","4","3","3","4","4","4","5","4","4","4","4","4","4","4","4","5","1","1","2","1","2","2","1","1","1","0","1","0","0","1","1","0","1","0","0","0","0","0","0","0","5","2","3","2","1","3","4","4","5","3","2","751465309353021442","何","223","","","","","","","","","","","","","","","","","","","","","","","","","","","","","","","","","","","","","","","","","",""
"2468","<p style=""color:rgb(150, 250, 100); font-size: 35px;"">本人</p>","i","categorize-html","60","722438","0.0-6.0-1.0-6.0-1.0","3","3","4","3","4","3","3","4","4","4","5","4","4","4","4","4","4","4","4","5","1","1","2","1","2","2","1","1","1","0","1","0","0","1","1","0","1","0","0","0","0","0","0","0","5","2","3","2","1","3","4","4","5","3","2","751465309353021442","何","223","","","","","","","","","","","","","","","","","","","true","13","3","moral","2468","self","本人","","","","","","","","","","","","","","","","",""
"null","","null","html-keyboard-response","61","722689","0.0-6.0-1.0-6.0-0.1","3","3","4","3","4","3","3","4","4","4","5","4","4","4","4","4","4","4","4","5","1","1","2","1","2","2","1","1","1","0","1","0","0","1","1","0","1","0","0","0","0","0","0","0","5","2","3","2","1","3","4","4","5","3","2","751465309353021442","何","223","","","","","","","","","","","","","","","","","","","","","","","","","","","","","","","","","","","","","","","","","",""
"4139","<p style=""color:white; font-size: 35px;"">君子</p>","i","categorize-html","62","726828","0.0-6.0-1.0-6.0-1.1","3","3","4","3","4","3","3","4","4","4","5","4","4","4","4","4","4","4","4","5","1","1","2","1","2","2","1","1","1","0","1","0","0","1","1","0","1","0","0","0","0","0","0","0","5","2","3","2","1","3","4","4","5","3","2","751465309353021442","何","223","","","","","","","","","","","","","","","","","","","true","13","3","moral","4139","positive","君子","","","","","","","","","","","","","","","","",""
"null","","null","html-keyboard-response","63","727079","0.0-6.0-1.0-6.0-0.2","3","3","4","3","4","3","3","4","4","4","5","4","4","4","4","4","4","4","4","5","1","1","2","1","2","2","1","1","1","0","1","0","0","1","1","0","1","0","0","0","0","0","0","0","5","2","3","2","1","3","4","4","5","3","2","751465309353021442","何","223","","","","","","","","","","","","","","","","","","","","","","","","","","","","","","","","","","","","","","","","","",""
"3229","<p style=""color:rgb(150, 250, 100); font-size: 35px;"">他人的</p>","e","categorize-html","64","730308","0.0-6.0-1.0-6.0-1.2","3","3","4","3","4","3","3","4","4","4","5","4","4","4","4","4","4","4","4","5","1","1","2","1","2","2","1","1","1","0","1","0","0","1","1","0","1","0","0","0","0","0","0","0","5","2","3","2","1","3","4","4","5","3","2","751465309353021442","何","223","","","","","","","","","","","","","","","","","","","true","13","3","moral","3229","other","他人的","","","","","","","","","","","","","","","","",""
"null","","null","html-keyboard-response","65","730559","0.0-6.0-1.0-6.0-0.3","3","3","4","3","4","3","3","4","4","4","5","4","4","4","4","4","4","4","4","5","1","1","2","1","2","2","1","1","1","0","1","0","0","1","1","0","1","0","0","0","0","0","0","0","5","2","3","2","1","3","4","4","5","3","2","751465309353021442","何","223","","","","","","","","","","","","","","","","","","","","","","","","","","","","","","","","","","","","","","","","","",""
"3960","<p style=""color:white; font-size: 35px;"">不孝</p>","e","categorize-html","66","734520","0.0-6.0-1.0-6.0-1.3","3","3","4","3","4","3","3","4","4","4","5","4","4","4","4","4","4","4","4","5","1","1","2","1","2","2","1","1","1","0","1","0","0","1","1","0","1","0","0","0","0","0","0","0","5","2","3","2","1","3","4","4","5","3","2","751465309353021442","何","223","","","","","","","","","","","","","","","","","","","true","13","3","moral","3960","negative","不孝","","","","","","","","","","","","","","","","",""
"null","","null","html-keyboard-response","67","734770","0.0-6.0-1.0-6.0-0.4","3","3","4","3","4","3","3","4","4","4","5","4","4","4","4","4","4","4","4","5","1","1","2","1","2","2","1","1","1","0","1","0","0","1","1","0","1","0","0","0","0","0","0","0","5","2","3","2","1","3","4","4","5","3","2","751465309353021442","何","223","","","","","","","","","","","","","","","","","","","","","","","","","","","","","","","","","","","","","","","","","",""
"2877","<p style=""color:rgb(150, 250, 100); font-size: 35px;"">别人的</p>","e","categorize-html","68","737648","0.0-6.0-1.0-6.0-1.4","3","3","4","3","4","3","3","4","4","4","5","4","4","4","4","4","4","4","4","5","1","1","2","1","2","2","1","1","1","0","1","0","0","1","1","0","1","0","0","0","0","0","0","0","5","2","3","2","1","3","4","4","5","3","2","751465309353021442","何","223","","","","","","","","","","","","","","","","","","","true","13","3","moral","2877","other","别人的","","","","","","","","","","","","","","","","",""
"null","","null","html-keyboard-response","69","737901","0.0-6.0-1.0-6.0-0.5","3","3","4","3","4","3","3","4","4","4","5","4","4","4","4","4","4","4","4","5","1","1","2","1","2","2","1","1","1","0","1","0","0","1","1","0","1","0","0","0","0","0","0","0","5","2","3","2","1","3","4","4","5","3","2","751465309353021442","何","223","","","","","","","","","","","","","","","","","","","","","","","","","","","","","","","","","","","","","","","","","",""
"2609","<p style=""color:white; font-size: 35px;"">诚信</p>","i","categorize-html","70","740511","0.0-6.0-1.0-6.0-1.5","3","3","4","3","4","3","3","4","4","4","5","4","4","4","4","4","4","4","4","5","1","1","2","1","2","2","1","1","1","0","1","0","0","1","1","0","1","0","0","0","0","0","0","0","5","2","3","2","1","3","4","4","5","3","2","751465309353021442","何","223","","","","","","","","","","","","","","","","","","","true","13","3","moral","2609","positive","诚信","","","","","","","","","","","","","","","","",""
"null","","null","html-keyboard-response","71","740762","0.0-6.0-1.0-6.0-0.6","3","3","4","3","4","3","3","4","4","4","5","4","4","4","4","4","4","4","4","5","1","1","2","1","2","2","1","1","1","0","1","0","0","1","1","0","1","0","0","0","0","0","0","0","5","2","3","2","1","3","4","4","5","3","2","751465309353021442","何","223","","","","","","","","","","","","","","","","","","","","","","","","","","","","","","","","","","","","","","","","","",""
"3558","<p style=""color:rgb(150, 250, 100); font-size: 35px;"">本人的</p>","i","categorize-html","72","744321","0.0-6.0-1.0-6.0-1.6","3","3","4","3","4","3","3","4","4","4","5","4","4","4","4","4","4","4","4","5","1","1","2","1","2","2","1","1","1","0","1","0","0","1","1","0","1","0","0","0","0","0","0","0","5","2","3","2","1","3","4","4","5","3","2","751465309353021442","何","223","","","","","","","","","","","","","","","","","","","true","13","3","moral","3558","self","本人的","","","","","","","","","","","","","","","","",""
"null","","null","html-keyboard-response","73","744572","0.0-6.0-1.0-6.0-0.7","3","3","4","3","4","3","3","4","4","4","5","4","4","4","4","4","4","4","4","5","1","1","2","1","2","2","1","1","1","0","1","0","0","1","1","0","1","0","0","0","0","0","0","0","5","2","3","2","1","3","4","4","5","3","2","751465309353021442","何","223","","","","","","","","","","","","","","","","","","","","","","","","","","","","","","","","","","","","","","","","","",""
"3939","<p style=""color:white; font-size: 35px;"">黑心</p>","e","categorize-html","74","748512","0.0-6.0-1.0-6.0-1.7","3","3","4","3","4","3","3","4","4","4","5","4","4","4","4","4","4","4","4","5","1","1","2","1","2","2","1","1","1","0","1","0","0","1","1","0","1","0","0","0","0","0","0","0","5","2","3","2","1","3","4","4","5","3","2","751465309353021442","何","223","","","","","","","","","","","","","","","","","","","true","13","3","moral","3939","negative","黑心","","","","","","","","","","","","","","","","",""
"null","","null","html-keyboard-response","75","748763","0.0-6.0-1.0-6.0-0.8","3","3","4","3","4","3","3","4","4","4","5","4","4","4","4","4","4","4","4","5","1","1","2","1","2","2","1","1","1","0","1","0","0","1","1","0","1","0","0","0","0","0","0","0","5","2","3","2","1","3","4","4","5","3","2","751465309353021442","何","223","","","","","","","","","","","","","","","","","","","","","","","","","","","","","","","","","","","","","","","","","",""
"3406","<p style=""color:rgb(150, 250, 100); font-size: 35px;"">我</p>","i","categorize-html","76","752171","0.0-6.0-1.0-6.0-1.8","3","3","4","3","4","3","3","4","4","4","5","4","4","4","4","4","4","4","4","5","1","1","2","1","2","2","1","1","1","0","1","0","0","1","1","0","1","0","0","0","0","0","0","0","5","2","3","2","1","3","4","4","5","3","2","751465309353021442","何","223","","","","","","","","","","","","","","","","","","","true","13","3","moral","3406","self","我","","","","","","","","","","","","","","","","",""
"null","","null","html-keyboard-response","77","752422","0.0-6.0-1.0-6.0-0.9","3","3","4","3","4","3","3","4","4","4","5","4","4","4","4","4","4","4","4","5","1","1","2","1","2","2","1","1","1","0","1","0","0","1","1","0","1","0","0","0","0","0","0","0","5","2","3","2","1","3","4","4","5","3","2","751465309353021442","何","223","","","","","","","","","","","","","","","","","","","","","","","","","","","","","","","","","","","","","","","","","",""
"3467","<p style=""color:white; font-size: 35px;"">高尚</p>","i","categorize-html","78","755890","0.0-6.0-1.0-6.0-1.9","3","3","4","3","4","3","3","4","4","4","5","4","4","4","4","4","4","4","4","5","1","1","2","1","2","2","1","1","1","0","1","0","0","1","1","0","1","0","0","0","0","0","0","0","5","2","3","2","1","3","4","4","5","3","2","751465309353021442","何","223","","","","","","","","","","","","","","","","","","","true","13","3","moral","3467","positive","高尚","","","","","","","","","","","","","","","","",""
"null","","null","html-keyboard-response","79","756141","0.0-6.0-1.0-6.0-0.10","3","3","4","3","4","3","3","4","4","4","5","4","4","4","4","4","4","4","4","5","1","1","2","1","2","2","1","1","1","0","1","0","0","1","1","0","1","0","0","0","0","0","0","0","5","2","3","2","1","3","4","4","5","3","2","751465309353021442","何","223","","","","","","","","","","","","","","","","","","","","","","","","","","","","","","","","","","","","","","","","","",""
"3414","<p style=""color:rgb(150, 250, 100); font-size: 35px;"">他人</p>","e","categorize-html","80","759557","0.0-6.0-1.0-6.0-1.10","3","3","4","3","4","3","3","4","4","4","5","4","4","4","4","4","4","4","4","5","1","1","2","1","2","2","1","1","1","0","1","0","0","1","1","0","1","0","0","0","0","0","0","0","5","2","3","2","1","3","4","4","5","3","2","751465309353021442","何","223","","","","","","","","","","","","","","","","","","","true","13","3","moral","3414","other","他人","","","","","","","","","","","","","","","","",""
"null","","null","html-keyboard-response","81","759807","0.0-6.0-1.0-6.0-0.11","3","3","4","3","4","3","3","4","4","4","5","4","4","4","4","4","4","4","4","5","1","1","2","1","2","2","1","1","1","0","1","0","0","1","1","0","1","0","0","0","0","0","0","0","5","2","3","2","1","3","4","4","5","3","2","751465309353021442","何","223","","","","","","","","","","","","","","","","","","","","","","","","","","","","","","","","","","","","","","","","","",""
"3421","<p style=""color:white; font-size: 35px;"">缺德</p>","e","categorize-html","82","763229","0.0-6.0-1.0-6.0-1.11","3","3","4","3","4","3","3","4","4","4","5","4","4","4","4","4","4","4","4","5","1","1","2","1","2","2","1","1","1","0","1","0","0","1","1","0","1","0","0","0","0","0","0","0","5","2","3","2","1","3","4","4","5","3","2","751465309353021442","何","223","","","","","","","","","","","","","","","","","","","true","13","3","moral","3421","negative","缺德","","","","","","","","","","","","","","","","",""
"null","","null","html-keyboard-response","83","763480","0.0-6.0-1.0-6.0-0.12","3","3","4","3","4","3","3","4","4","4","5","4","4","4","4","4","4","4","4","5","1","1","2","1","2","2","1","1","1","0","1","0","0","1","1","0","1","0","0","0","0","0","0","0","5","2","3","2","1","3","4","4","5","3","2","751465309353021442","何","223","","","","","","","","","","","","","","","","","","","","","","","","","","","","","","","","","","","","","","","","","",""
"2960","<p style=""color:rgb(150, 250, 100); font-size: 35px;"">自己的</p>","i","categorize-html","84","766441","0.0-6.0-1.0-6.0-1.12","3","3","4","3","4","3","3","4","4","4","5","4","4","4","4","4","4","4","4","5","1","1","2","1","2","2","1","1","1","0","1","0","0","1","1","0","1","0","0","0","0","0","0","0","5","2","3","2","1","3","4","4","5","3","2","751465309353021442","何","223","","","","","","","","","","","","","","","","","","","true","13","3","moral","2960","self","自己的","","","","","","","","","","","","","","","","",""
"null","","null","html-keyboard-response","85","766692","0.0-6.0-1.0-6.0-0.13","3","3","4","3","4","3","3","4","4","4","5","4","4","4","4","4","4","4","4","5","1","1","2","1","2","2","1","1","1","0","1","0","0","1","1","0","1","0","0","0","0","0","0","0","5","2","3","2","1","3","4","4","5","3","2","751465309353021442","何","223","","","","","","","","","","","","","","","","","","","","","","","","","","","","","","","","","","","","","","","","","",""
"3203","<p style=""color:white; font-size: 35px;"">小人</p>","e","categorize-html","86","769896","0.0-6.0-1.0-6.0-1.13","3","3","4","3","4","3","3","4","4","4","5","4","4","4","4","4","4","4","4","5","1","1","2","1","2","2","1","1","1","0","1","0","0","1","1","0","1","0","0","0","0","0","0","0","5","2","3","2","1","3","4","4","5","3","2","751465309353021442","何","223","","","","","","","","","","","","","","","","","","","true","13","3","moral","3203","negative","小人","","","","","","","","","","","","","","","","",""
"null","","null","html-keyboard-response","87","770148","0.0-6.0-1.0-6.0-0.14","3","3","4","3","4","3","3","4","4","4","5","4","4","4","4","4","4","4","4","5","1","1","2","1","2","2","1","1","1","0","1","0","0","1","1","0","1","0","0","0","0","0","0","0","5","2","3","2","1","3","4","4","5","3","2","751465309353021442","何","223","","","","","","","","","","","","","","","","","","","","","","","","","","","","","","","","","","","","","","","","","",""
"2109","<p style=""color:rgb(150, 250, 100); font-size: 35px;"">他</p>","e","categorize-html","88","772258","0.0-6.0-1.0-6.0-1.14","3","3","4","3","4","3","3","4","4","4","5","4","4","4","4","4","4","4","4","5","1","1","2","1","2","2","1","1","1","0","1","0","0","1","1","0","1","0","0","0","0","0","0","0","5","2","3","2","1","3","4","4","5","3","2","751465309353021442","何","223","","","","","","","","","","","","","","","","","","","true","13","3","moral","2109","other","他","","","","","","","","","","","","","","","","",""
"null","","null","html-keyboard-response","89","772509","0.0-6.0-1.0-6.0-0.15","3","3","4","3","4","3","3","4","4","4","5","4","4","4","4","4","4","4","4","5","1","1","2","1","2","2","1","1","1","0","1","0","0","1","1","0","1","0","0","0","0","0","0","0","5","2","3","2","1","3","4","4","5","3","2","751465309353021442","何","223","","","","","","","","","","","","","","","","","","","","","","","","","","","","","","","","","","","","","","","","","",""
"3143","<p style=""color:white; font-size: 35px;"">善良</p>","i","categorize-html","90","775653","0.0-6.0-1.0-6.0-1.15","3","3","4","3","4","3","3","4","4","4","5","4","4","4","4","4","4","4","4","5","1","1","2","1","2","2","1","1","1","0","1","0","0","1","1","0","1","0","0","0","0","0","0","0","5","2","3","2","1","3","4","4","5","3","2","751465309353021442","何","223","","","","","","","","","","","","","","","","","","","true","13","3","moral","3143","positive","善良","","","","","","","","","","","","","","","","",""
"null","","null","html-keyboard-response","91","775905","0.0-6.0-1.0-6.0-0.16","3","3","4","3","4","3","3","4","4","4","5","4","4","4","4","4","4","4","4","5","1","1","2","1","2","2","1","1","1","0","1","0","0","1","1","0","1","0","0","0","0","0","0","0","5","2","3","2","1","3","4","4","5","3","2","751465309353021442","何","223","","","","","","","","","","","","","","","","","","","","","","","","","","","","","","","","","","","","","","","","","",""
"2907","<p style=""color:rgb(150, 250, 100); font-size: 35px;"">我的</p>","i","categorize-html","92","778813","0.0-6.0-1.0-6.0-1.16","3","3","4","3","4","3","3","4","4","4","5","4","4","4","4","4","4","4","4","5","1","1","2","1","2","2","1","1","1","0","1","0","0","1","1","0","1","0","0","0","0","0","0","0","5","2","3","2","1","3","4","4","5","3","2","751465309353021442","何","223","","","","","","","","","","","","","","","","","","","true","13","3","moral","2907","self","我的","","","","","","","","","","","","","","","","",""
"null","","null","html-keyboard-response","93","779063","0.0-6.0-1.0-6.0-0.17","3","3","4","3","4","3","3","4","4","4","5","4","4","4","4","4","4","4","4","5","1","1","2","1","2","2","1","1","1","0","1","0","0","1","1","0","1","0","0","0","0","0","0","0","5","2","3","2","1","3","4","4","5","3","2","751465309353021442","何","223","","","","","","","","","","","","","","","","","","","","","","","","","","","","","","","","","","","","","","","","","",""
"2911","<p style=""color:white; font-size: 35px;"">卑鄙</p>","e","categorize-html","94","781975","0.0-6.0-1.0-6.0-1.17","3","3","4","3","4","3","3","4","4","4","5","4","4","4","4","4","4","4","4","5","1","1","2","1","2","2","1","1","1","0","1","0","0","1","1","0","1","0","0","0","0","0","0","0","5","2","3","2","1","3","4","4","5","3","2","751465309353021442","何","223","","","","","","","","","","","","","","","","","","","true","13","3","moral","2911","negative","卑鄙","","","","","","","","","","","","","","","","",""
"null","","null","html-keyboard-response","95","782226","0.0-6.0-1.0-6.0-0.18","3","3","4","3","4","3","3","4","4","4","5","4","4","4","4","4","4","4","4","5","1","1","2","1","2","2","1","1","1","0","1","0","0","1","1","0","1","0","0","0","0","0","0","0","5","2","3","2","1","3","4","4","5","3","2","751465309353021442","何","223","","","","","","","","","","","","","","","","","","","","","","","","","","","","","","","","","","","","","","","","","",""
"2319","<p style=""color:rgb(150, 250, 100); font-size: 35px;"">他的</p>","e","categorize-html","96","784548","0.0-6.0-1.0-6.0-1.18","3","3","4","3","4","3","3","4","4","4","5","4","4","4","4","4","4","4","4","5","1","1","2","1","2","2","1","1","1","0","1","0","0","1","1","0","1","0","0","0","0","0","0","0","5","2","3","2","1","3","4","4","5","3","2","751465309353021442","何","223","","","","","","","","","","","","","","","","","","","true","13","3","moral","2319","other","他的","","","","","","","","","","","","","","","","",""
"null","","null","html-keyboard-response","97","784799","0.0-6.0-1.0-6.0-0.19","3","3","4","3","4","3","3","4","4","4","5","4","4","4","4","4","4","4","4","5","1","1","2","1","2","2","1","1","1","0","1","0","0","1","1","0","1","0","0","0","0","0","0","0","5","2","3","2","1","3","4","4","5","3","2","751465309353021442","何","223","","","","","","","","","","","","","","","","","","","","","","","","","","","","","","","","","","","","","","","","","",""
"1927","<p style=""color:white; font-size: 35px;"">廉正</p>","i","categorize-html","98","786728","0.0-6.0-1.0-6.0-1.19","3","3","4","3","4","3","3","4","4","4","5","4","4","4","4","4","4","4","4","5","1","1","2","1","2","2","1","1","1","0","1","0","0","1","1","0","1","0","0","0","0","0","0","0","5","2","3","2","1","3","4","4","5","3","2","751465309353021442","何","223","","","","","","","","","","","","","","","","","","","true","13","3","moral","1927","positive","廉正","","","","","","","","","","","","","","","","",""
"null","","null","html-keyboard-response","99","786979","0.0-6.0-1.0-6.0-0.20","3","3","4","3","4","3","3","4","4","4","5","4","4","4","4","4","4","4","4","5","1","1","2","1","2","2","1","1","1","0","1","0","0","1","1","0","1","0","0","0","0","0","0","0","5","2","3","2","1","3","4","4","5","3","2","751465309353021442","何","223","","","","","","","","","","","","","","","","","","","","","","","","","","","","","","","","","","","","","","","","","",""
"2373","<p style=""color:rgb(150, 250, 100); font-size: 35px;"">自己</p>","i","categorize-html","100","789354","0.0-6.0-1.0-6.0-1.20","3","3","4","3","4","3","3","4","4","4","5","4","4","4","4","4","4","4","4","5","1","1","2","1","2","2","1","1","1","0","1","0","0","1","1","0","1","0","0","0","0","0","0","0","5","2","3","2","1","3","4","4","5","3","2","751465309353021442","何","223","","","","","","","","","","","","","","","","","","","true","13","3","moral","2373","self","自己","","","","","","","","","","","","","","","","",""
"null","","null","html-keyboard-response","101","789604","0.0-6.0-1.0-6.0-0.21","3","3","4","3","4","3","3","4","4","4","5","4","4","4","4","4","4","4","4","5","1","1","2","1","2","2","1","1","1","0","1","0","0","1","1","0","1","0","0","0","0","0","0","0","5","2","3","2","1","3","4","4","5","3","2","751465309353021442","何","223","","","","","","","","","","","","","","","","","","","","","","","","","","","","","","","","","","","","","","","","","",""
"2613","<p style=""color:white; font-size: 35px;"">正直</p>","i","categorize-html","102","792220","0.0-6.0-1.0-6.0-1.21","3","3","4","3","4","3","3","4","4","4","5","4","4","4","4","4","4","4","4","5","1","1","2","1","2","2","1","1","1","0","1","0","0","1","1","0","1","0","0","0","0","0","0","0","5","2","3","2","1","3","4","4","5","3","2","751465309353021442","何","223","","","","","","","","","","","","","","","","","","","true","13","3","moral","2613","positive","正直","","","","","","","","","","","","","","","","",""
"null","","null","html-keyboard-response","103","792471","0.0-6.0-1.0-6.0-0.22","3","3","4","3","4","3","3","4","4","4","5","4","4","4","4","4","4","4","4","5","1","1","2","1","2","2","1","1","1","0","1","0","0","1","1","0","1","0","0","0","0","0","0","0","5","2","3","2","1","3","4","4","5","3","2","751465309353021442","何","223","","","","","","","","","","","","","","","","","","","","","","","","","","","","","","","","","","","","","","","","","",""
"3344","<p style=""color:rgb(150, 250, 100); font-size: 35px;"">别人</p>","e","categorize-html","104","795815","0.0-6.0-1.0-6.0-1.22","3","3","4","3","4","3","3","4","4","4","5","4","4","4","4","4","4","4","4","5","1","1","2","1","2","2","1","1","1","0","1","0","0","1","1","0","1","0","0","0","0","0","0","0","5","2","3","2","1","3","4","4","5","3","2","751465309353021442","何","223","","","","","","","","","","","","","","","","","","","true","13","3","moral","3344","other","别人","","","","","","","","","","","","","","","","",""
"null","","null","html-keyboard-response","105","796067","0.0-6.0-1.0-6.0-0.23","3","3","4","3","4","3","3","4","4","4","5","4","4","4","4","4","4","4","4","5","1","1","2","1","2","2","1","1","1","0","1","0","0","1","1","0","1","0","0","0","0","0","0","0","5","2","3","2","1","3","4","4","5","3","2","751465309353021442","何","223","","","","","","","","","","","","","","","","","","","","","","","","","","","","","","","","","","","","","","","","","",""
"3077","<p style=""color:white; font-size: 35px;"">不仁</p>","e","categorize-html","106","799144","0.0-6.0-1.0-6.0-1.23","3","3","4","3","4","3","3","4","4","4","5","4","4","4","4","4","4","4","4","5","1","1","2","1","2","2","1","1","1","0","1","0","0","1","1","0","1","0","0","0","0","0","0","0","5","2","3","2","1","3","4","4","5","3","2","751465309353021442","何","223","","","","","","","","","","","","","","","","","","","true","13","3","moral","3077","negative","不仁","","","","","","","","","","","","","","","","",""
"17954","
    <div class=""tag-bottom""><p>
    —— 任务4：对“他人/消极”词和“自我/积极”词分类 ——<p/>
    <span style=""color:#78DCE8""><b>与刚才的任务完全相同，请再次对这四类词语分类</b></span><p/>
    <span style=""color:#FFD866""><b>请根据上方标签的提示，尽可能正确并且快速地做出按键反应</b></span><p/>
    当按键错误时屏幕中会出现<span style=""color:red""> X </span>，需要按另一个键纠正才能继续<br/><p/>
    请把双手食指分别放在键盘的“E”键和“I”键上<p/>
    按<空格键>开始
    </p></div>"," ","html-keyboard-response","107","817098","0.0-6.0-1.0-7.0","3","3","4","3","4","3","3","4","4","4","5","4","4","4","4","4","4","4","4","5","1","1","2","1","2","2","1","1","1","0","1","0","0","1","1","0","1","0","0","0","0","0","0","0","5","2","3","2","1","3","4","4","5","3","2","751465309353021442","何","223","","","","","","","","","","","","","","","","","","","","","","","","","","","","","","","","","","","","","","","","","",""
"null","","null","html-keyboard-response","108","817349","0.0-6.0-1.0-8.0-0.0","3","3","4","3","4","3","3","4","4","4","5","4","4","4","4","4","4","4","4","5","1","1","2","1","2","2","1","1","1","0","1","0","0","1","1","0","1","0","0","0","0","0","0","0","5","2","3","2","1","3","4","4","5","3","2","751465309353021442","何","223","","","","","","","","","","","","","","","","","","","","","","","","","","","","","","","","","","","","","","","","","",""
"2915","<p style=""color:rgb(150, 250, 100); font-size: 35px;"">我</p>","i","categorize-html","109","820266","0.0-6.0-1.0-8.0-1.0","3","3","4","3","4","3","3","4","4","4","5","4","4","4","4","4","4","4","4","5","1","1","2","1","2","2","1","1","1","0","1","0","0","1","1","0","1","0","0","0","0","0","0","0","5","2","3","2","1","3","4","4","5","3","2","751465309353021442","何","223","","","","","","","","","","","","","","","","","","","true","14","4","moral","2915","self","我","","","","","","","","","","","","","","","","",""
"null","","null","html-keyboard-response","110","820517","0.0-6.0-1.0-8.0-0.1","3","3","4","3","4","3","3","4","4","4","5","4","4","4","4","4","4","4","4","5","1","1","2","1","2","2","1","1","1","0","1","0","0","1","1","0","1","0","0","0","0","0","0","0","5","2","3","2","1","3","4","4","5","3","2","751465309353021442","何","223","","","","","","","","","","","","","","","","","","","","","","","","","","","","","","","","","","","","","","","","","",""
"3317","<p style=""color:white; font-size: 35px;"">卑鄙</p>","e","categorize-html","111","823836","0.0-6.0-1.0-8.0-1.1","3","3","4","3","4","3","3","4","4","4","5","4","4","4","4","4","4","4","4","5","1","1","2","1","2","2","1","1","1","0","1","0","0","1","1","0","1","0","0","0","0","0","0","0","5","2","3","2","1","3","4","4","5","3","2","751465309353021442","何","223","","","","","","","","","","","","","","","","","","","true","14","4","moral","3317","negative","卑鄙","","","","","","","","","","","","","","","","",""
"null","","null","html-keyboard-response","112","824087","0.0-6.0-1.0-8.0-0.2","3","3","4","3","4","3","3","4","4","4","5","4","4","4","4","4","4","4","4","5","1","1","2","1","2","2","1","1","1","0","1","0","0","1","1","0","1","0","0","0","0","0","0","0","5","2","3","2","1","3","4","4","5","3","2","751465309353021442","何","223","","","","","","","","","","","","","","","","","","","","","","","","","","","","","","","","","","","","","","","","","",""
"4800","<p style=""color:rgb(150, 250, 100); font-size: 35px;"">别人</p>","e","categorize-html","113","828888","0.0-6.0-1.0-8.0-1.2","3","3","4","3","4","3","3","4","4","4","5","4","4","4","4","4","4","4","4","5","1","1","2","1","2","2","1","1","1","0","1","0","0","1","1","0","1","0","0","0","0","0","0","0","5","2","3","2","1","3","4","4","5","3","2","751465309353021442","何","223","","","","","","","","","","","","","","","","","","","true","14","4","moral","4800","other","别人","","","","","","","","","","","","","","","","",""
"null","","null","html-keyboard-response","114","829138","0.0-6.0-1.0-8.0-0.3","3","3","4","3","4","3","3","4","4","4","5","4","4","4","4","4","4","4","4","5","1","1","2","1","2","2","1","1","1","0","1","0","0","1","1","0","1","0","0","0","0","0","0","0","5","2","3","2","1","3","4","4","5","3","2","751465309353021442","何","223","","","","","","","","","","","","","","","","","","","","","","","","","","","","","","","","","","","","","","","","","",""
"2276","<p style=""color:white; font-size: 35px;"">高尚</p>","i","categorize-html","115","831417","0.0-6.0-1.0-8.0-1.3","3","3","4","3","4","3","3","4","4","4","5","4","4","4","4","4","4","4","4","5","1","1","2","1","2","2","1","1","1","0","1","0","0","1","1","0","1","0","0","0","0","0","0","0","5","2","3","2","1","3","4","4","5","3","2","751465309353021442","何","223","","","","","","","","","","","","","","","","","","","true","14","4","moral","2276","positive","高尚","","","","","","","","","","","","","","","","",""
"null","","null","html-keyboard-response","116","831667","0.0-6.0-1.0-8.0-0.4","3","3","4","3","4","3","3","4","4","4","5","4","4","4","4","4","4","4","4","5","1","1","2","1","2","2","1","1","1","0","1","0","0","1","1","0","1","0","0","0","0","0","0","0","5","2","3","2","1","3","4","4","5","3","2","751465309353021442","何","223","","","","","","","","","","","","","","","","","","","","","","","","","","","","","","","","","","","","","","","","","",""
"2235","<p style=""color:rgb(150, 250, 100); font-size: 35px;"">我的</p>","i","categorize-html","117","833903","0.0-6.0-1.0-8.0-1.4","3","3","4","3","4","3","3","4","4","4","5","4","4","4","4","4","4","4","4","5","1","1","2","1","2","2","1","1","1","0","1","0","0","1","1","0","1","0","0","0","0","0","0","0","5","2","3","2","1","3","4","4","5","3","2","751465309353021442","何","223","","","","","","","","","","","","","","","","","","","true","14","4","moral","2235","self","我的","","","","","","","","","","","","","","","","",""
"null","","null","html-keyboard-response","118","834154","0.0-6.0-1.0-8.0-0.5","3","3","4","3","4","3","3","4","4","4","5","4","4","4","4","4","4","4","4","5","1","1","2","1","2","2","1","1","1","0","1","0","0","1","1","0","1","0","0","0","0","0","0","0","5","2","3","2","1","3","4","4","5","3","2","751465309353021442","何","223","","","","","","","","","","","","","","","","","","","","","","","","","","","","","","","","","","","","","","","","","",""
"2776","<p style=""color:white; font-size: 35px;"">黑心</p>","e","categorize-html","119","836933","0.0-6.0-1.0-8.0-1.5","3","3","4","3","4","3","3","4","4","4","5","4","4","4","4","4","4","4","4","5","1","1","2","1","2","2","1","1","1","0","1","0","0","1","1","0","1","0","0","0","0","0","0","0","5","2","3","2","1","3","4","4","5","3","2","751465309353021442","何","223","","","","","","","","","","","","","","","","","","","true","14","4","moral","2776","negative","黑心","","","","","","","","","","","","","","","","",""
"null","","null","html-keyboard-response","120","837184","0.0-6.0-1.0-8.0-0.6","3","3","4","3","4","3","3","4","4","4","5","4","4","4","4","4","4","4","4","5","1","1","2","1","2","2","1","1","1","0","1","0","0","1","1","0","1","0","0","0","0","0","0","0","5","2","3","2","1","3","4","4","5","3","2","751465309353021442","何","223","","","","","","","","","","","","","","","","","","","","","","","","","","","","","","","","","","","","","","","","","",""
"2857","<p style=""color:rgb(150, 250, 100); font-size: 35px;"">他的</p>","e","categorize-html","121","840042","0.0-6.0-1.0-8.0-1.6","3","3","4","3","4","3","3","4","4","4","5","4","4","4","4","4","4","4","4","5","1","1","2","1","2","2","1","1","1","0","1","0","0","1","1","0","1","0","0","0","0","0","0","0","5","2","3","2","1","3","4","4","5","3","2","751465309353021442","何","223","","","","","","","","","","","","","","","","","","","true","14","4","moral","2857","other","他的","","","","","","","","","","","","","","","","",""
"null","","null","html-keyboard-response","122","840293","0.0-6.0-1.0-8.0-0.7","3","3","4","3","4","3","3","4","4","4","5","4","4","4","4","4","4","4","4","5","1","1","2","1","2","2","1","1","1","0","1","0","0","1","1","0","1","0","0","0","0","0","0","0","5","2","3","2","1","3","4","4","5","3","2","751465309353021442","何","223","","","","","","","","","","","","","","","","","","","","","","","","","","","","","","","","","","","","","","","","","",""
"6129","<p style=""color:white; font-size: 35px;"">高尚</p>","i","categorize-html","123","846423","0.0-6.0-1.0-8.0-1.7","3","3","4","3","4","3","3","4","4","4","5","4","4","4","4","4","4","4","4","5","1","1","2","1","2","2","1","1","1","0","1","0","0","1","1","0","1","0","0","0","0","0","0","0","5","2","3","2","1","3","4","4","5","3","2","751465309353021442","何","223","","","","","","","","","","","","","","","","","","","true","14","4","moral","6129","positive","高尚","","","","","","","","","","","","","","","","",""
"null","","null","html-keyboard-response","124","846674","0.0-6.0-1.0-8.0-0.8","3","3","4","3","4","3","3","4","4","4","5","4","4","4","4","4","4","4","4","5","1","1","2","1","2","2","1","1","1","0","1","0","0","1","1","0","1","0","0","0","0","0","0","0","5","2","3","2","1","3","4","4","5","3","2","751465309353021442","何","223","","","","","","","","","","","","","","","","","","","","","","","","","","","","","","","","","","","","","","","","","",""
"3726","<p style=""color:rgb(150, 250, 100); font-size: 35px;"">自己</p>","i","categorize-html","125","850402","0.0-6.0-1.0-8.0-1.8","3","3","4","3","4","3","3","4","4","4","5","4","4","4","4","4","4","4","4","5","1","1","2","1","2","2","1","1","1","0","1","0","0","1","1","0","1","0","0","0","0","0","0","0","5","2","3","2","1","3","4","4","5","3","2","751465309353021442","何","223","","","","","","","","","","","","","","","","","","","true","14","4","moral","3726","self","自己","","","","","","","","","","","","","","","","",""
"null","","null","html-keyboard-response","126","850653","0.0-6.0-1.0-8.0-0.9","3","3","4","3","4","3","3","4","4","4","5","4","4","4","4","4","4","4","4","5","1","1","2","1","2","2","1","1","1","0","1","0","0","1","1","0","1","0","0","0","0","0","0","0","5","2","3","2","1","3","4","4","5","3","2","751465309353021442","何","223","","","","","","","","","","","","","","","","","","","","","","","","","","","","","","","","","","","","","","","","","",""
"3264","<p style=""color:white; font-size: 35px;"">善良</p>","i","categorize-html","127","853919","0.0-6.0-1.0-8.0-1.9","3","3","4","3","4","3","3","4","4","4","5","4","4","4","4","4","4","4","4","5","1","1","2","1","2","2","1","1","1","0","1","0","0","1","1","0","1","0","0","0","0","0","0","0","5","2","3","2","1","3","4","4","5","3","2","751465309353021442","何","223","","","","","","","","","","","","","","","","","","","true","14","4","moral","3264","positive","善良","","","","","","","","","","","","","","","","",""
"null","","null","html-keyboard-response","128","854170","0.0-6.0-1.0-8.0-0.10","3","3","4","3","4","3","3","4","4","4","5","4","4","4","4","4","4","4","4","5","1","1","2","1","2","2","1","1","1","0","1","0","0","1","1","0","1","0","0","0","0","0","0","0","5","2","3","2","1","3","4","4","5","3","2","751465309353021442","何","223","","","","","","","","","","","","","","","","","","","","","","","","","","","","","","","","","","","","","","","","","",""
"3840","<p style=""color:rgb(150, 250, 100); font-size: 35px;"">他人</p>","e","categorize-html","129","858012","0.0-6.0-1.0-8.0-1.10","3","3","4","3","4","3","3","4","4","4","5","4","4","4","4","4","4","4","4","5","1","1","2","1","2","2","1","1","1","0","1","0","0","1","1","0","1","0","0","0","0","0","0","0","5","2","3","2","1","3","4","4","5","3","2","751465309353021442","何","223","","","","","","","","","","","","","","","","","","","true","14","4","moral","3840","other","他人","","","","","","","","","","","","","","","","",""
"null","","null","html-keyboard-response","130","858264","0.0-6.0-1.0-8.0-0.11","3","3","4","3","4","3","3","4","4","4","5","4","4","4","4","4","4","4","4","5","1","1","2","1","2","2","1","1","1","0","1","0","0","1","1","0","1","0","0","0","0","0","0","0","5","2","3","2","1","3","4","4","5","3","2","751465309353021442","何","223","","","","","","","","","","","","","","","","","","","","","","","","","","","","","","","","","","","","","","","","","",""
"2912","<p style=""color:white; font-size: 35px;"">缺德</p>","e","categorize-html","131","861178","0.0-6.0-1.0-8.0-1.11","3","3","4","3","4","3","3","4","4","4","5","4","4","4","4","4","4","4","4","5","1","1","2","1","2","2","1","1","1","0","1","0","0","1","1","0","1","0","0","0","0","0","0","0","5","2","3","2","1","3","4","4","5","3","2","751465309353021442","何","223","","","","","","","","","","","","","","","","","","","true","14","4","moral","2912","negative","缺德","","","","","","","","","","","","","","","","",""
"null","","null","html-keyboard-response","132","861429","0.0-6.0-1.0-8.0-0.12","3","3","4","3","4","3","3","4","4","4","5","4","4","4","4","4","4","4","4","5","1","1","2","1","2","2","1","1","1","0","1","0","0","1","1","0","1","0","0","0","0","0","0","0","5","2","3","2","1","3","4","4","5","3","2","751465309353021442","何","223","","","","","","","","","","","","","","","","","","","","","","","","","","","","","","","","","","","","","","","","","",""
"2665","<p style=""color:rgb(150, 250, 100); font-size: 35px;"">本人的</p>","i","categorize-html","133","864095","0.0-6.0-1.0-8.0-1.12","3","3","4","3","4","3","3","4","4","4","5","4","4","4","4","4","4","4","4","5","1","1","2","1","2","2","1","1","1","0","1","0","0","1","1","0","1","0","0","0","0","0","0","0","5","2","3","2","1","3","4","4","5","3","2","751465309353021442","何","223","","","","","","","","","","","","","","","","","","","true","14","4","moral","2665","self","本人的","","","","","","","","","","","","","","","","",""
"null","","null","html-keyboard-response","134","864346","0.0-6.0-1.0-8.0-0.13","3","3","4","3","4","3","3","4","4","4","5","4","4","4","4","4","4","4","4","5","1","1","2","1","2","2","1","1","1","0","1","0","0","1","1","0","1","0","0","0","0","0","0","0","5","2","3","2","1","3","4","4","5","3","2","751465309353021442","何","223","","","","","","","","","","","","","","","","","","","","","","","","","","","","","","","","","","","","","","","","","",""
"4630","<p style=""color:white; font-size: 35px;"">正直</p>","i","categorize-html","135","868976","0.0-6.0-1.0-8.0-1.13","3","3","4","3","4","3","3","4","4","4","5","4","4","4","4","4","4","4","4","5","1","1","2","1","2","2","1","1","1","0","1","0","0","1","1","0","1","0","0","0","0","0","0","0","5","2","3","2","1","3","4","4","5","3","2","751465309353021442","何","223","","","","","","","","","","","","","","","","","","","true","14","4","moral","4630","positive","正直","","","","","","","","","","","","","","","","",""
"null","","null","html-keyboard-response","136","869227","0.0-6.0-1.0-8.0-0.14","3","3","4","3","4","3","3","4","4","4","5","4","4","4","4","4","4","4","4","5","1","1","2","1","2","2","1","1","1","0","1","0","0","1","1","0","1","0","0","0","0","0","0","0","5","2","3","2","1","3","4","4","5","3","2","751465309353021442","何","223","","","","","","","","","","","","","","","","","","","","","","","","","","","","","","","","","","","","","","","","","",""
"3113","<p style=""color:rgb(150, 250, 100); font-size: 35px;"">他的</p>","e","categorize-html","137","872342","0.0-6.0-1.0-8.0-1.14","3","3","4","3","4","3","3","4","4","4","5","4","4","4","4","4","4","4","4","5","1","1","2","1","2","2","1","1","1","0","1","0","0","1","1","0","1","0","0","0","0","0","0","0","5","2","3","2","1","3","4","4","5","3","2","751465309353021442","何","223","","","","","","","","","","","","","","","","","","","true","14","4","moral","3113","other","他的","","","","","","","","","","","","","","","","",""
"null","","null","html-keyboard-response","138","872594","0.0-6.0-1.0-8.0-0.15","3","3","4","3","4","3","3","4","4","4","5","4","4","4","4","4","4","4","4","5","1","1","2","1","2","2","1","1","1","0","1","0","0","1","1","0","1","0","0","0","0","0","0","0","5","2","3","2","1","3","4","4","5","3","2","751465309353021442","何","223","","","","","","","","","","","","","","","","","","","","","","","","","","","","","","","","","","","","","","","","","",""
"8152","<p style=""color:white; font-size: 35px;"">不孝</p>","e","categorize-html","139","880746","0.0-6.0-1.0-8.0-1.15","3","3","4","3","4","3","3","4","4","4","5","4","4","4","4","4","4","4","4","5","1","1","2","1","2","2","1","1","1","0","1","0","0","1","1","0","1","0","0","0","0","0","0","0","5","2","3","2","1","3","4","4","5","3","2","751465309353021442","何","223","","","","","","","","","","","","","","","","","","","true","14","4","moral","8152","negative","不孝","","","","","","","","","","","","","","","","",""
"null","","null","html-keyboard-response","140","880997","0.0-6.0-1.0-8.0-0.16","3","3","4","3","4","3","3","4","4","4","5","4","4","4","4","4","4","4","4","5","1","1","2","1","2","2","1","1","1","0","1","0","0","1","1","0","1","0","0","0","0","0","0","0","5","2","3","2","1","3","4","4","5","3","2","751465309353021442","何","223","","","","","","","","","","","","","","","","","","","","","","","","","","","","","","","","","","","","","","","","","",""
"2727","<p style=""color:rgb(150, 250, 100); font-size: 35px;"">别人的</p>","e","categorize-html","141","883724","0.0-6.0-1.0-8.0-1.16","3","3","4","3","4","3","3","4","4","4","5","4","4","4","4","4","4","4","4","5","1","1","2","1","2","2","1","1","1","0","1","0","0","1","1","0","1","0","0","0","0","0","0","0","5","2","3","2","1","3","4","4","5","3","2","751465309353021442","何","223","","","","","","","","","","","","","","","","","","","true","14","4","moral","2727","other","别人的","","","","","","","","","","","","","","","","",""
"null","","null","html-keyboard-response","142","883976","0.0-6.0-1.0-8.0-0.17","3","3","4","3","4","3","3","4","4","4","5","4","4","4","4","4","4","4","4","5","1","1","2","1","2","2","1","1","1","0","1","0","0","1","1","0","1","0","0","0","0","0","0","0","5","2","3","2","1","3","4","4","5","3","2","751465309353021442","何","223","","","","","","","","","","","","","","","","","","","","","","","","","","","","","","","","","","","","","","","","","",""
"2834","<p style=""color:white; font-size: 35px;"">黑心</p>","e","categorize-html","143","886811","0.0-6.0-1.0-8.0-1.17","3","3","4","3","4","3","3","4","4","4","5","4","4","4","4","4","4","4","4","5","1","1","2","1","2","2","1","1","1","0","1","0","0","1","1","0","1","0","0","0","0","0","0","0","5","2","3","2","1","3","4","4","5","3","2","751465309353021442","何","223","","","","","","","","","","","","","","","","","","","true","14","4","moral","2834","negative","黑心","","","","","","","","","","","","","","","","",""
"null","","null","html-keyboard-response","144","887062","0.0-6.0-1.0-8.0-0.18","3","3","4","3","4","3","3","4","4","4","5","4","4","4","4","4","4","4","4","5","1","1","2","1","2","2","1","1","1","0","1","0","0","1","1","0","1","0","0","0","0","0","0","0","5","2","3","2","1","3","4","4","5","3","2","751465309353021442","何","223","","","","","","","","","","","","","","","","","","","","","","","","","","","","","","","","","","","","","","","","","",""
"2371","<p style=""color:rgb(150, 250, 100); font-size: 35px;"">我</p>","i","categorize-html","145","889433","0.0-6.0-1.0-8.0-1.18","3","3","4","3","4","3","3","4","4","4","5","4","4","4","4","4","4","4","4","5","1","1","2","1","2","2","1","1","1","0","1","0","0","1","1","0","1","0","0","0","0","0","0","0","5","2","3","2","1","3","4","4","5","3","2","751465309353021442","何","223","","","","","","","","","","","","","","","","","","","true","14","4","moral","2371","self","我","","","","","","","","","","","","","","","","",""
"null","","null","html-keyboard-response","146","889685","0.0-6.0-1.0-8.0-0.19","3","3","4","3","4","3","3","4","4","4","5","4","4","4","4","4","4","4","4","5","1","1","2","1","2","2","1","1","1","0","1","0","0","1","1","0","1","0","0","0","0","0","0","0","5","2","3","2","1","3","4","4","5","3","2","751465309353021442","何","223","","","","","","","","","","","","","","","","","","","","","","","","","","","","","","","","","","","","","","","","","",""
"3134","<p style=""color:white; font-size: 35px;"">正直</p>","i","categorize-html","147","892821","0.0-6.0-1.0-8.0-1.19","3","3","4","3","4","3","3","4","4","4","5","4","4","4","4","4","4","4","4","5","1","1","2","1","2","2","1","1","1","0","1","0","0","1","1","0","1","0","0","0","0","0","0","0","5","2","3","2","1","3","4","4","5","3","2","751465309353021442","何","223","","","","","","","","","","","","","","","","","","","true","14","4","moral","3134","positive","正直","","","","","","","","","","","","","","","","",""
"null","","null","html-keyboard-response","148","893071","0.0-6.0-1.0-8.0-0.20","3","3","4","3","4","3","3","4","4","4","5","4","4","4","4","4","4","4","4","5","1","1","2","1","2","2","1","1","1","0","1","0","0","1","1","0","1","0","0","0","0","0","0","0","5","2","3","2","1","3","4","4","5","3","2","751465309353021442","何","223","","","","","","","","","","","","","","","","","","","","","","","","","","","","","","","","","","","","","","","","","",""
"1629","<p style=""color:rgb(150, 250, 100); font-size: 35px;"">本人的</p>","i","categorize-html","149","894701","0.0-6.0-1.0-8.0-1.20","3","3","4","3","4","3","3","4","4","4","5","4","4","4","4","4","4","4","4","5","1","1","2","1","2","2","1","1","1","0","1","0","0","1","1","0","1","0","0","0","0","0","0","0","5","2","3","2","1","3","4","4","5","3","2","751465309353021442","何","223","","","","","","","","","","","","","","","","","","","true","14","4","moral","1629","self","本人的","","","","","","","","","","","","","","","","",""
"null","","null","html-keyboard-response","150","894953","0.0-6.0-1.0-8.0-0.21","3","3","4","3","4","3","3","4","4","4","5","4","4","4","4","4","4","4","4","5","1","1","2","1","2","2","1","1","1","0","1","0","0","1","1","0","1","0","0","0","0","0","0","0","5","2","3","2","1","3","4","4","5","3","2","751465309353021442","何","223","","","","","","","","","","","","","","","","","","","","","","","","","","","","","","","","","","","","","","","","","",""
"3077","<p style=""color:white; font-size: 35px;"">君子</p>","i","categorize-html","151","898032","0.0-6.0-1.0-8.0-1.21","3","3","4","3","4","3","3","4","4","4","5","4","4","4","4","4","4","4","4","5","1","1","2","1","2","2","1","1","1","0","1","0","0","1","1","0","1","0","0","0","0","0","0","0","5","2","3","2","1","3","4","4","5","3","2","751465309353021442","何","223","","","","","","","","","","","","","","","","","","","true","14","4","moral","3077","positive","君子","","","","","","","","","","","","","","","","",""
"null","","null","html-keyboard-response","152","898290","0.0-6.0-1.0-8.0-0.22","3","3","4","3","4","3","3","4","4","4","5","4","4","4","4","4","4","4","4","5","1","1","2","1","2","2","1","1","1","0","1","0","0","1","1","0","1","0","0","0","0","0","0","0","5","2","3","2","1","3","4","4","5","3","2","751465309353021442","何","223","","","","","","","","","","","","","","","","","","","","","","","","","","","","","","","","","","","","","","","","","",""
"2471","<p style=""color:rgb(150, 250, 100); font-size: 35px;"">别人的</p>","e","categorize-html","153","900763","0.0-6.0-1.0-8.0-1.22","3","3","4","3","4","3","3","4","4","4","5","4","4","4","4","4","4","4","4","5","1","1","2","1","2","2","1","1","1","0","1","0","0","1","1","0","1","0","0","0","0","0","0","0","5","2","3","2","1","3","4","4","5","3","2","751465309353021442","何","223","","","","","","","","","","","","","","","","","","","true","14","4","moral","2471","other","别人的","","","","","","","","","","","","","","","","",""
"null","","null","html-keyboard-response","154","901015","0.0-6.0-1.0-8.0-0.23","3","3","4","3","4","3","3","4","4","4","5","4","4","4","4","4","4","4","4","5","1","1","2","1","2","2","1","1","1","0","1","0","0","1","1","0","1","0","0","0","0","0","0","0","5","2","3","2","1","3","4","4","5","3","2","751465309353021442","何","223","","","","","","","","","","","","","","","","","","","","","","","","","","","","","","","","","","","","","","","","","",""
"2984","<p style=""color:white; font-size: 35px;"">小人</p>","e","categorize-html","155","904000","0.0-6.0-1.0-8.0-1.23","3","3","4","3","4","3","3","4","4","4","5","4","4","4","4","4","4","4","4","5","1","1","2","1","2","2","1","1","1","0","1","0","0","1","1","0","1","0","0","0","0","0","0","0","5","2","3","2","1","3","4","4","5","3","2","751465309353021442","何","223","","","","","","","","","","","","","","","","","","","true","14","4","moral","2984","negative","小人","","","","","","","","","","","","","","","","",""
"null","","null","html-keyboard-response","156","904251","0.0-6.0-1.0-8.0-0.24","3","3","4","3","4","3","3","4","4","4","5","4","4","4","4","4","4","4","4","5","1","1","2","1","2","2","1","1","1","0","1","0","0","1","1","0","1","0","0","0","0","0","0","0","5","2","3","2","1","3","4","4","5","3","2","751465309353021442","何","223","","","","","","","","","","","","","","","","","","","","","","","","","","","","","","","","","","","","","","","","","",""
"3122","<p style=""color:rgb(150, 250, 100); font-size: 35px;"">他</p>","e","categorize-html","157","907375","0.0-6.0-1.0-8.0-1.24","3","3","4","3","4","3","3","4","4","4","5","4","4","4","4","4","4","4","4","5","1","1","2","1","2","2","1","1","1","0","1","0","0","1","1","0","1","0","0","0","0","0","0","0","5","2","3","2","1","3","4","4","5","3","2","751465309353021442","何","223","","","","","","","","","","","","","","","","","","","true","14","4","moral","3122","other","他","","","","","","","","","","","","","","","","",""
"null","","null","html-keyboard-response","158","907626","0.0-6.0-1.0-8.0-0.25","3","3","4","3","4","3","3","4","4","4","5","4","4","4","4","4","4","4","4","5","1","1","2","1","2","2","1","1","1","0","1","0","0","1","1","0","1","0","0","0","0","0","0","0","5","2","3","2","1","3","4","4","5","3","2","751465309353021442","何","223","","","","","","","","","","","","","","","","","","","","","","","","","","","","","","","","","","","","","","","","","",""
"2193","<p style=""color:white; font-size: 35px;"">廉正</p>","i","categorize-html","159","909820","0.0-6.0-1.0-8.0-1.25","3","3","4","3","4","3","3","4","4","4","5","4","4","4","4","4","4","4","4","5","1","1","2","1","2","2","1","1","1","0","1","0","0","1","1","0","1","0","0","0","0","0","0","0","5","2","3","2","1","3","4","4","5","3","2","751465309353021442","何","223","","","","","","","","","","","","","","","","","","","true","14","4","moral","2193","positive","廉正","","","","","","","","","","","","","","","","",""
"null","","null","html-keyboard-response","160","910071","0.0-6.0-1.0-8.0-0.26","3","3","4","3","4","3","3","4","4","4","5","4","4","4","4","4","4","4","4","5","1","1","2","1","2","2","1","1","1","0","1","0","0","1","1","0","1","0","0","0","0","0","0","0","5","2","3","2","1","3","4","4","5","3","2","751465309353021442","何","223","","","","","","","","","","","","","","","","","","","","","","","","","","","","","","","","","","","","","","","","","",""
"2463","<p style=""color:rgb(150, 250, 100); font-size: 35px;"">本人</p>","i","categorize-html","161","912534","0.0-6.0-1.0-8.0-1.26","3","3","4","3","4","3","3","4","4","4","5","4","4","4","4","4","4","4","4","5","1","1","2","1","2","2","1","1","1","0","1","0","0","1","1","0","1","0","0","0","0","0","0","0","5","2","3","2","1","3","4","4","5","3","2","751465309353021442","何","223","","","","","","","","","","","","","","","","","","","true","14","4","moral","2463","self","本人","","","","","","","","","","","","","","","","",""
"null","","null","html-keyboard-response","162","912785","0.0-6.0-1.0-8.0-0.27","3","3","4","3","4","3","3","4","4","4","5","4","4","4","4","4","4","4","4","5","1","1","2","1","2","2","1","1","1","0","1","0","0","1","1","0","1","0","0","0","0","0","0","0","5","2","3","2","1","3","4","4","5","3","2","751465309353021442","何","223","","","","","","","","","","","","","","","","","","","","","","","","","","","","","","","","","","","","","","","","","",""
"2969","<p style=""color:white; font-size: 35px;"">小人</p>","e","categorize-html","163","915756","0.0-6.0-1.0-8.0-1.27","3","3","4","3","4","3","3","4","4","4","5","4","4","4","4","4","4","4","4","5","1","1","2","1","2","2","1","1","1","0","1","0","0","1","1","0","1","0","0","0","0","0","0","0","5","2","3","2","1","3","4","4","5","3","2","751465309353021442","何","223","","","","","","","","","","","","","","","","","","","true","14","4","moral","2969","negative","小人","","","","","","","","","","","","","","","","",""
"null","","null","html-keyboard-response","164","916007","0.0-6.0-1.0-8.0-0.28","3","3","4","3","4","3","3","4","4","4","5","4","4","4","4","4","4","4","4","5","1","1","2","1","2","2","1","1","1","0","1","0","0","1","1","0","1","0","0","0","0","0","0","0","5","2","3","2","1","3","4","4","5","3","2","751465309353021442","何","223","","","","","","","","","","","","","","","","","","","","","","","","","","","","","","","","","","","","","","","","","",""
"3033","<p style=""color:rgb(150, 250, 100); font-size: 35px;"">他人的</p>","e","categorize-html","165","919041","0.0-6.0-1.0-8.0-1.28","3","3","4","3","4","3","3","4","4","4","5","4","4","4","4","4","4","4","4","5","1","1","2","1","2","2","1","1","1","0","1","0","0","1","1","0","1","0","0","0","0","0","0","0","5","2","3","2","1","3","4","4","5","3","2","751465309353021442","何","223","","","","","","","","","","","","","","","","","","","true","14","4","moral","3033","other","他人的","","","","","","","","","","","","","","","","",""
"null","","null","html-keyboard-response","166","919291","0.0-6.0-1.0-8.0-0.29","3","3","4","3","4","3","3","4","4","4","5","4","4","4","4","4","4","4","4","5","1","1","2","1","2","2","1","1","1","0","1","0","0","1","1","0","1","0","0","0","0","0","0","0","5","2","3","2","1","3","4","4","5","3","2","751465309353021442","何","223","","","","","","","","","","","","","","","","","","","","","","","","","","","","","","","","","","","","","","","","","",""
"5239","<p style=""color:white; font-size: 35px;"">善良</p>","i","categorize-html","167","924532","0.0-6.0-1.0-8.0-1.29","3","3","4","3","4","3","3","4","4","4","5","4","4","4","4","4","4","4","4","5","1","1","2","1","2","2","1","1","1","0","1","0","0","1","1","0","1","0","0","0","0","0","0","0","5","2","3","2","1","3","4","4","5","3","2","751465309353021442","何","223","","","","","","","","","","","","","","","","","","","true","14","4","moral","5239","positive","善良","","","","","","","","","","","","","","","","",""
"null","","null","html-keyboard-response","168","924783","0.0-6.0-1.0-8.0-0.30","3","3","4","3","4","3","3","4","4","4","5","4","4","4","4","4","4","4","4","5","1","1","2","1","2","2","1","1","1","0","1","0","0","1","1","0","1","0","0","0","0","0","0","0","5","2","3","2","1","3","4","4","5","3","2","751465309353021442","何","223","","","","","","","","","","","","","","","","","","","","","","","","","","","","","","","","","","","","","","","","","",""
"3141","<p style=""color:rgb(150, 250, 100); font-size: 35px;"">自己</p>","i","categorize-html","169","927925","0.0-6.0-1.0-8.0-1.30","3","3","4","3","4","3","3","4","4","4","5","4","4","4","4","4","4","4","4","5","1","1","2","1","2","2","1","1","1","0","1","0","0","1","1","0","1","0","0","0","0","0","0","0","5","2","3","2","1","3","4","4","5","3","2","751465309353021442","何","223","","","","","","","","","","","","","","","","","","","true","14","4","moral","3141","self","自己","","","","","","","","","","","","","","","","",""
"null","","null","html-keyboard-response","170","928177","0.0-6.0-1.0-8.0-0.31","3","3","4","3","4","3","3","4","4","4","5","4","4","4","4","4","4","4","4","5","1","1","2","1","2","2","1","1","1","0","1","0","0","1","1","0","1","0","0","0","0","0","0","0","5","2","3","2","1","3","4","4","5","3","2","751465309353021442","何","223","","","","","","","","","","","","","","","","","","","","","","","","","","","","","","","","","","","","","","","","","",""
"6125","<p style=""color:white; font-size: 35px;"">不孝</p>","e","categorize-html","171","934303","0.0-6.0-1.0-8.0-1.31","3","3","4","3","4","3","3","4","4","4","5","4","4","4","4","4","4","4","4","5","1","1","2","1","2","2","1","1","1","0","1","0","0","1","1","0","1","0","0","0","0","0","0","0","5","2","3","2","1","3","4","4","5","3","2","751465309353021442","何","223","","","","","","","","","","","","","","","","","","","true","14","4","moral","6125","negative","不孝","","","","","","","","","","","","","","","","",""
"null","","null","html-keyboard-response","172","934554","0.0-6.0-1.0-8.0-0.32","3","3","4","3","4","3","3","4","4","4","5","4","4","4","4","4","4","4","4","5","1","1","2","1","2","2","1","1","1","0","1","0","0","1","1","0","1","0","0","0","0","0","0","0","5","2","3","2","1","3","4","4","5","3","2","751465309353021442","何","223","","","","","","","","","","","","","","","","","","","","","","","","","","","","","","","","","","","","","","","","","",""
"2669","<p style=""color:rgb(150, 250, 100); font-size: 35px;"">我的</p>","i","categorize-html","173","937224","0.0-6.0-1.0-8.0-1.32","3","3","4","3","4","3","3","4","4","4","5","4","4","4","4","4","4","4","4","5","1","1","2","1","2","2","1","1","1","0","1","0","0","1","1","0","1","0","0","0","0","0","0","0","5","2","3","2","1","3","4","4","5","3","2","751465309353021442","何","223","","","","","","","","","","","","","","","","","","","true","14","4","moral","2669","self","我的","","","","","","","","","","","","","","","","",""
"null","","null","html-keyboard-response","174","937475","0.0-6.0-1.0-8.0-0.33","3","3","4","3","4","3","3","4","4","4","5","4","4","4","4","4","4","4","4","5","1","1","2","1","2","2","1","1","1","0","1","0","0","1","1","0","1","0","0","0","0","0","0","0","5","2","3","2","1","3","4","4","5","3","2","751465309353021442","何","223","","","","","","","","","","","","","","","","","","","","","","","","","","","","","","","","","","","","","","","","","",""
"2794","<p style=""color:white; font-size: 35px;"">不仁</p>","e","categorize-html","175","940270","0.0-6.0-1.0-8.0-1.33","3","3","4","3","4","3","3","4","4","4","5","4","4","4","4","4","4","4","4","5","1","1","2","1","2","2","1","1","1","0","1","0","0","1","1","0","1","0","0","0","0","0","0","0","5","2","3","2","1","3","4","4","5","3","2","751465309353021442","何","223","","","","","","","","","","","","","","","","","","","true","14","4","moral","2794","negative","不仁","","","","","","","","","","","","","","","","",""
"null","","null","html-keyboard-response","176","940520","0.0-6.0-1.0-8.0-0.34","3","3","4","3","4","3","3","4","4","4","5","4","4","4","4","4","4","4","4","5","1","1","2","1","2","2","1","1","1","0","1","0","0","1","1","0","1","0","0","0","0","0","0","0","5","2","3","2","1","3","4","4","5","3","2","751465309353021442","何","223","","","","","","","","","","","","","","","","","","","","","","","","","","","","","","","","","","","","","","","","","",""
"3041","<p style=""color:rgb(150, 250, 100); font-size: 35px;"">他</p>","e","categorize-html","177","943562","0.0-6.0-1.0-8.0-1.34","3","3","4","3","4","3","3","4","4","4","5","4","4","4","4","4","4","4","4","5","1","1","2","1","2","2","1","1","1","0","1","0","0","1","1","0","1","0","0","0","0","0","0","0","5","2","3","2","1","3","4","4","5","3","2","751465309353021442","何","223","","","","","","","","","","","","","","","","","","","true","14","4","moral","3041","other","他","","","","","","","","","","","","","","","","",""
"null","","null","html-keyboard-response","178","943813","0.0-6.0-1.0-8.0-0.35","3","3","4","3","4","3","3","4","4","4","5","4","4","4","4","4","4","4","4","5","1","1","2","1","2","2","1","1","1","0","1","0","0","1","1","0","1","0","0","0","0","0","0","0","5","2","3","2","1","3","4","4","5","3","2","751465309353021442","何","223","","","","","","","","","","","","","","","","","","","","","","","","","","","","","","","","","","","","","","","","","",""
"3731","<p style=""color:white; font-size: 35px;"">君子</p>","i","categorize-html","179","947546","0.0-6.0-1.0-8.0-1.35","3","3","4","3","4","3","3","4","4","4","5","4","4","4","4","4","4","4","4","5","1","1","2","1","2","2","1","1","1","0","1","0","0","1","1","0","1","0","0","0","0","0","0","0","5","2","3","2","1","3","4","4","5","3","2","751465309353021442","何","223","","","","","","","","","","","","","","","","","","","true","14","4","moral","3731","positive","君子","","","","","","","","","","","","","","","","",""
"null","","null","html-keyboard-response","180","947807","0.0-6.0-1.0-8.0-0.36","3","3","4","3","4","3","3","4","4","4","5","4","4","4","4","4","4","4","4","5","1","1","2","1","2","2","1","1","1","0","1","0","0","1","1","0","1","0","0","0","0","0","0","0","5","2","3","2","1","3","4","4","5","3","2","751465309353021442","何","223","","","","","","","","","","","","","","","","","","","","","","","","","","","","","","","","","","","","","","","","","",""
"2558","<p style=""color:rgb(150, 250, 100); font-size: 35px;"">自己的</p>","i","categorize-html","181","950366","0.0-6.0-1.0-8.0-1.36","3","3","4","3","4","3","3","4","4","4","5","4","4","4","4","4","4","4","4","5","1","1","2","1","2","2","1","1","1","0","1","0","0","1","1","0","1","0","0","0","0","0","0","0","5","2","3","2","1","3","4","4","5","3","2","751465309353021442","何","223","","","","","","","","","","","","","","","","","","","true","14","4","moral","2558","self","自己的","","","","","","","","","","","","","","","","",""
"null","","null","html-keyboard-response","182","950617","0.0-6.0-1.0-8.0-0.37","3","3","4","3","4","3","3","4","4","4","5","4","4","4","4","4","4","4","4","5","1","1","2","1","2","2","1","1","1","0","1","0","0","1","1","0","1","0","0","0","0","0","0","0","5","2","3","2","1","3","4","4","5","3","2","751465309353021442","何","223","","","","","","","","","","","","","","","","","","","","","","","","","","","","","","","","","","","","","","","","","",""
"3001","<p style=""color:white; font-size: 35px;"">诚信</p>","i","categorize-html","183","953619","0.0-6.0-1.0-8.0-1.37","3","3","4","3","4","3","3","4","4","4","5","4","4","4","4","4","4","4","4","5","1","1","2","1","2","2","1","1","1","0","1","0","0","1","1","0","1","0","0","0","0","0","0","0","5","2","3","2","1","3","4","4","5","3","2","751465309353021442","何","223","","","","","","","","","","","","","","","","","","","true","14","4","moral","3001","positive","诚信","","","","","","","","","","","","","","","","",""
"null","","null","html-keyboard-response","184","953870","0.0-6.0-1.0-8.0-0.38","3","3","4","3","4","3","3","4","4","4","5","4","4","4","4","4","4","4","4","5","1","1","2","1","2","2","1","1","1","0","1","0","0","1","1","0","1","0","0","0","0","0","0","0","5","2","3","2","1","3","4","4","5","3","2","751465309353021442","何","223","","","","","","","","","","","","","","","","","","","","","","","","","","","","","","","","","","","","","","","","","",""
"3108","<p style=""color:rgb(150, 250, 100); font-size: 35px;"">别人</p>","e","categorize-html","185","956978","0.0-6.0-1.0-8.0-1.38","3","3","4","3","4","3","3","4","4","4","5","4","4","4","4","4","4","4","4","5","1","1","2","1","2","2","1","1","1","0","1","0","0","1","1","0","1","0","0","0","0","0","0","0","5","2","3","2","1","3","4","4","5","3","2","751465309353021442","何","223","","","","","","","","","","","","","","","","","","","true","14","4","moral","3108","other","别人","","","","","","","","","","","","","","","","",""
"null","","null","html-keyboard-response","186","957229","0.0-6.0-1.0-8.0-0.39","3","3","4","3","4","3","3","4","4","4","5","4","4","4","4","4","4","4","4","5","1","1","2","1","2","2","1","1","1","0","1","0","0","1","1","0","1","0","0","0","0","0","0","0","5","2","3","2","1","3","4","4","5","3","2","751465309353021442","何","223","","","","","","","","","","","","","","","","","","","","","","","","","","","","","","","","","","","","","","","","","",""
"3527","<p style=""color:white; font-size: 35px;"">缺德</p>","e","categorize-html","187","960757","0.0-6.0-1.0-8.0-1.39","3","3","4","3","4","3","3","4","4","4","5","4","4","4","4","4","4","4","4","5","1","1","2","1","2","2","1","1","1","0","1","0","0","1","1","0","1","0","0","0","0","0","0","0","5","2","3","2","1","3","4","4","5","3","2","751465309353021442","何","223","","","","","","","","","","","","","","","","","","","true","14","4","moral","3527","negative","缺德","","","","","","","","","","","","","","","","",""
"null","","null","html-keyboard-response","188","961008","0.0-6.0-1.0-8.0-0.40","3","3","4","3","4","3","3","4","4","4","5","4","4","4","4","4","4","4","4","5","1","1","2","1","2","2","1","1","1","0","1","0","0","1","1","0","1","0","0","0","0","0","0","0","5","2","3","2","1","3","4","4","5","3","2","751465309353021442","何","223","","","","","","","","","","","","","","","","","","","","","","","","","","","","","","","","","","","","","","","","","",""
"3751","<p style=""color:rgb(150, 250, 100); font-size: 35px;"">本人</p>","i","categorize-html","189","964760","0.0-6.0-1.0-8.0-1.40","3","3","4","3","4","3","3","4","4","4","5","4","4","4","4","4","4","4","4","5","1","1","2","1","2","2","1","1","1","0","1","0","0","1","1","0","1","0","0","0","0","0","0","0","5","2","3","2","1","3","4","4","5","3","2","751465309353021442","何","223","","","","","","","","","","","","","","","","","","","true","14","4","moral","3751","self","本人","","","","","","","","","","","","","","","","",""
"null","","null","html-keyboard-response","190","965011","0.0-6.0-1.0-8.0-0.41","3","3","4","3","4","3","3","4","4","4","5","4","4","4","4","4","4","4","4","5","1","1","2","1","2","2","1","1","1","0","1","0","0","1","1","0","1","0","0","0","0","0","0","0","5","2","3","2","1","3","4","4","5","3","2","751465309353021442","何","223","","","","","","","","","","","","","","","","","","","","","","","","","","","","","","","","","","","","","","","","","",""
"3356","<p style=""color:white; font-size: 35px;"">诚信</p>","i","categorize-html","191","968368","0.0-6.0-1.0-8.0-1.41","3","3","4","3","4","3","3","4","4","4","5","4","4","4","4","4","4","4","4","5","1","1","2","1","2","2","1","1","1","0","1","0","0","1","1","0","1","0","0","0","0","0","0","0","5","2","3","2","1","3","4","4","5","3","2","751465309353021442","何","223","","","","","","","","","","","","","","","","","","","true","14","4","moral","3356","positive","诚信","","","","","","","","","","","","","","","","",""
"null","","null","html-keyboard-response","192","968619","0.0-6.0-1.0-8.0-0.42","3","3","4","3","4","3","3","4","4","4","5","4","4","4","4","4","4","4","4","5","1","1","2","1","2","2","1","1","1","0","1","0","0","1","1","0","1","0","0","0","0","0","0","0","5","2","3","2","1","3","4","4","5","3","2","751465309353021442","何","223","","","","","","","","","","","","","","","","","","","","","","","","","","","","","","","","","","","","","","","","","",""
"4784","<p style=""color:rgb(150, 250, 100); font-size: 35px;"">他人</p>","e","categorize-html","193","973405","0.0-6.0-1.0-8.0-1.42","3","3","4","3","4","3","3","4","4","4","5","4","4","4","4","4","4","4","4","5","1","1","2","1","2","2","1","1","1","0","1","0","0","1","1","0","1","0","0","0","0","0","0","0","5","2","3","2","1","3","4","4","5","3","2","751465309353021442","何","223","","","","","","","","","","","","","","","","","","","true","14","4","moral","4784","other","他人","","","","","","","","","","","","","","","","",""
