"rt","stimulus","response","trial_type","trial_index","time_elapsed","internal_node_id","ses_1","ses_2","ses_3","ses_4","ses_5","ses_6","ses_7","ses_8","ses_9","ses_10","coreself_1","coreself_2","coreself_3","coreself_4","coreself_5","coreself_6","coreself_7","coreself_8","coreself_9","coreself_10","SGPS_1","SGPS_2","SGPS_3","SGPS_4","SGPS_5","SGPS_6","SGPS_7","SGPS_8","SGPS_9","NPI1","NPI2","NPI3","NPI4","NPI5","NPI6","NPI7","NPI8","NPI9","NPI10","NPI11","NPI12","NPI13","NPI14","NPI15","hsns_1","hsns_2","hsns_3","hsns_4","hsns_5","trap1","hsns_6","hsns_7","hsns_8","hsns_9","hsns_10","subj_idx","friend_name","ParticipantID","value","success","user_agent","responses","item_order","radio_event_ids","radio_event_times","key_event_times","mouse_event_times","straightlining","zigzagging","honeypot","timeout","failed_images","failed_audio","failed_video","view_history","response_type","key_press","avg_frame_time","center_x","center_y","correct_response","correct","identity","Image","word","condition","task_id","screen_id","time_stamp","version_attrib2","version_target2","IAT","RT","varname","summary","version_attrib","version_target","question_order","correct_answer","trap1_item"
"11778","
   <p><div style = ""color: white;font-size:25px;"">您好，欢迎参加本次实验。</div> </p>
   <p><div style = ""color: white;font-size:25px;"">为充分保障您的权利，请确保您已经知晓并同意《参与实验同意书》以及《数据公开知情同意书》。</div></p>
   <p><div style = ""color: white;font-size:25px;"">如果您未见过上述内容，请咨询实验员。</div></p>
   <p><div style = ""color: white;font-size:25px;"">如果您选择继续实验，则表示您已经清楚两份知情同意书的内容并同意。</div></p>
   <p><div style = ""color: pink;font-size:30px;"">请确保您记得day0的实验编号，您将在本次实验输入该编号，若您忘记，请咨询实验员后作答。</div></p>
   <p><div style = ""color: lightblue;font-size:25px;"">请您尽可能认真地作答，我们将依据您在各问卷和按键任务中的作答质量发放报酬。</div></p>
   <p> <div style = ""color: green;font-size:25px;""><按空格键至下页></div> </p>
   "," ","html-keyboard-response","0","11780","0.0-0.0","4","4","4","4","4","4","4","4","4","4","5","5","5","5","5","5","5","5","5","5","1","1","1","1","1","1","1","1","1","1","0","1","1","0","0","0","1","0","1","1","0","1","0","1","5","2","1","1","2","1","1","2","1","5","1","634716408718032896","刘","591","","","","","","","","","","","","","","","","","","","","","","","","","","","","","","","","","","","","","","","","","",""
"","","","call-function","1","11780","0.0-1.0-0.0","4","4","4","4","4","4","4","4","4","4","5","5","5","5","5","5","5","5","5","5","1","1","1","1","1","1","1","1","1","1","0","1","1","0","0","0","1","0","1","1","0","1","0","1","5","2","1","1","2","1","1","2","1","5","1","634716408718032896","刘","591","","","","","","","","","","","","","","","","","","","","","","","","","","","","","","","","","","","","","","","","","",""
"13626","","{""friend_name"":""刘"",""ParticipantID"":""591""}","survey-html-form","2","25407","0.0-1.0-1.0","4","4","4","4","4","4","4","4","4","4","5","5","5","5","5","5","5","5","5","5","1","1","1","1","1","1","1","1","1","1","0","1","1","0","0","0","1","0","1","1","0","1","0","1","5","2","1","1","2","1","1","2","1","5","1","634716408718032896","刘","591","","","","","","","","","","","","","","","","","","","","","","","","","","","","","","","","","","","","","","","","","",""
"","","","fullscreen","3","26595","0.0-2.0","4","4","4","4","4","4","4","4","4","4","5","5","5","5","5","5","5","5","5","5","1","1","1","1","1","1","1","1","1","1","0","1","1","0","0","0","1","0","1","1","0","1","0","1","5","2","1","1","2","1","1","2","1","5","1","634716408718032896","刘","591","","true","{}","","","","","","","","","","","","","","","","","","","","","","","","","","","","","","","","","","","","","","",""
"92018.5","","{""Q01"":""4"",""Q02"":""4"",""Q03"":""4"",""Q04"":""4"",""Q05"":""4"",""Q06"":""4"",""Q07"":""4"",""Q08"":""4"",""Q09"":""4"",""Q10"":""4""}","survey-template","4","118616","0.0-3.0","4","4","4","4","4","4","4","4","4","4","5","5","5","5","5","5","5","5","5","5","1","1","1","1","1","1","1","1","1","1","0","1","1","0","0","0","1","0","1","1","0","1","0","1","5","2","1","1","2","1","1","2","1","5","1","634716408718032896","刘","591","","","","{""Q01"":""4"",""Q02"":""4"",""Q03"":""4"",""Q04"":""4"",""Q05"":""4"",""Q06"":""4"",""Q07"":""4"",""Q08"":""4"",""Q09"":""4"",""Q10"":""4""}","[0,1,2,3,4,5,6,7,8,9]","[""Q09"",""Q10"",""Q08"",""Q07"",""Q06"",""Q05"",""Q03"",""Q02"",""Q01"",""Q04""]","[80857.19999992847,81665.10000002384,82329.29999995232,83233.5,84121,85089.60000002384,87465.29999995232,88394.19999992847,89369.19999992847,89985.29999995232]","[]","[80305.60000002384,80857.19999992847,81289.29999995232,81665.10000002384,82329.29999995232,83233.5,84121,85089.60000002384,86577.60000002384,87465.29999995232,88394.19999992847,89369.19999992847,89985.29999995232,92017.69999992847]","0.5","0.5555555555555556","0","","","","","","","","","","","","","","","","","","","","","","","","","","","","","",""
"19731.399999976158","","{""Q01"":""5"",""Q02"":""5"",""Q03"":""5"",""Q04"":""5"",""Q05"":""5"",""Q06"":""5"",""Q07"":""5"",""Q08"":""5"",""Q09"":""5"",""Q10"":""5""}","survey-template","5","138351","0.0-4.0","4","4","4","4","4","4","4","4","4","4","5","5","5","5","5","5","5","5","5","5","1","1","1","1","1","1","1","1","1","1","0","1","1","0","0","0","1","0","1","1","0","1","0","1","5","2","1","1","2","1","1","2","1","5","1","634716408718032896","刘","591","","","","{""Q01"":""5"",""Q02"":""5"",""Q03"":""5"",""Q04"":""5"",""Q05"":""5"",""Q06"":""5"",""Q07"":""5"",""Q08"":""5"",""Q09"":""5"",""Q10"":""5""}","[0,1,2,3,4,5,6,7,8,9]","[""Q09"",""Q10"",""Q08"",""Q07"",""Q06"",""Q05"",""Q04"",""Q03"",""Q02"",""Q01""]","[1435.2999999523163,2307,3146.600000023842,4298.600000023842,5187,6498.799999952316,7666.799999952316,10050.699999928474,10587.600000023842,11355.299999952316]","[]","[1435.2999999523163,2307,3146.600000023842,4298.600000023842,5187,6050.699999928474,6498.799999952316,7666.799999952316,8466.600000023842,9179.100000023842,9730.799999952316,10050.699999928474,10587.600000023842,11355.299999952316,19730.600000023842]","0.6","0.7777777777777778","0","","","","","","","","","","","","","","","","","","","","","","","","","","","","","",""
"","","","preload","6","138677","0.0-5.0","4","4","4","4","4","4","4","4","4","4","5","5","5","5","5","5","5","5","5","5","1","1","1","1","1","1","1","1","1","1","0","1","1","0","0","0","1","0","1","1","0","1","0","1","5","2","1","1","2","1","1","2","1","5","1","634716408718032896","刘","591","","true","","","","","","","","","","","false","[]","[]","[]","","","","","","","","","","","","","","","","","","","","","","","","","",""
"1033","","","instructions","7","139710","0.0-6.0","4","4","4","4","4","4","4","4","4","4","5","5","5","5","5","5","5","5","5","5","1","1","1","1","1","1","1","1","1","1","0","1","1","0","0","0","1","0","1","1","0","1","0","1","5","2","1","1","2","1","1","2","1","5","1","634716408718032896","刘","591","","","","","","","","","","","","","","","","","[{""page_index"":0,""viewing_time"":1033}]","","","","","","","","","","","","","","","","","","","","","","","","",""
"78215","","","instructions","8","217926","0.0-7.0-0.0-0.0","4","4","4","4","4","4","4","4","4","4","5","5","5","5","5","5","5","5","5","5","1","1","1","1","1","1","1","1","1","1","0","1","1","0","0","0","1","0","1","1","0","1","0","1","5","2","1","1","2","1","1","2","1","5","1","634716408718032896","刘","591","","","","","","","","","","","","","","","","","[{""page_index"":0,""viewing_time"":75631},{""page_index"":1,""viewing_time"":1488},{""page_index"":2,""viewing_time"":1096}]","","","","","","","","","","","","","","","","","","","","","","","","",""
"593","","f","psychophysics","9","219523","0.0-7.0-0.0-1.0-0.0-0.0","4","4","4","4","4","4","4","4","4","4","5","5","5","5","5","5","5","5","5","5","1","1","1","1","1","1","1","1","1","1","0","1","1","0","0","0","1","0","1","1","0","1","0","1","5","2","1","1","2","1","1","2","1","5","1","634716408718032896","刘","591","","","","nonmatch","","","","","","","","","","","","","","key","f","16.651063829787358","768","428","f","true","nonmatch","img/circle.png","五边","圆形","ALT1_1","prac_ALT1_1","","","","","","","","","","","",""
"null","<span style='color:GreenYellow; font-size: 70px;'>正确! </span>","null","html-keyboard-response","10","220025","0.0-7.0-0.0-1.0-0.0-1.0","4","4","4","4","4","4","4","4","4","4","5","5","5","5","5","5","5","5","5","5","1","1","1","1","1","1","1","1","1","1","0","1","1","0","0","0","1","0","1","1","0","1","0","1","5","2","1","1","2","1","1","2","1","5","1","634716408718032896","刘","591","","","","","","","","","","","","","","","","","","","","","","","","","","","","","","feedback_test","","","","","","","","","","","",""
"804","","f","psychophysics","11","221832","0.0-7.0-0.0-1.0-0.0-0.1","4","4","4","4","4","4","4","4","4","4","5","5","5","5","5","5","5","5","5","5","1","1","1","1","1","1","1","1","1","1","0","1","1","0","0","0","1","0","1","1","0","1","0","1","5","2","1","1","2","1","1","2","1","5","1","634716408718032896","刘","591","","","","nonmatch","","","","","","","","","","","","","","key","f","16.65140186915899","768","428","f","true","nonmatch","img/square.png","五边","方形","ALT1_1","prac_ALT1_1","","","","","","","","","","","",""
"null","<span style='color:GreenYellow; font-size: 70px;'>正确! </span>","null","html-keyboard-response","12","222333","0.0-7.0-0.0-1.0-0.0-1.1","4","4","4","4","4","4","4","4","4","4","5","5","5","5","5","5","5","5","5","5","1","1","1","1","1","1","1","1","1","1","0","1","1","0","0","0","1","0","1","1","0","1","0","1","5","2","1","1","2","1","1","2","1","5","1","634716408718032896","刘","591","","","","","","","","","","","","","","","","","","","","","","","","","","","","","","feedback_test","","","","","","","","","","","",""
"963","","j","psychophysics","13","224298","0.0-7.0-0.0-1.0-0.0-0.2","4","4","4","4","4","4","4","4","4","4","5","5","5","5","5","5","5","5","5","5","1","1","1","1","1","1","1","1","1","1","0","1","1","0","0","0","1","0","1","1","0","1","0","1","5","2","1","1","2","1","1","2","1","5","1","634716408718032896","刘","591","","","","match","","","","","","","","","","","","","","key","j","16.651282051281903","768","428","j","true","match","img/circle.png","圆形","圆形","ALT1_1","prac_ALT1_1","","","","","","","","","","","",""
"null","<span style='color:GreenYellow; font-size: 70px;'>正确! </span>","null","html-keyboard-response","14","224799","0.0-7.0-0.0-1.0-0.0-1.2","4","4","4","4","4","4","4","4","4","4","5","5","5","5","5","5","5","5","5","5","1","1","1","1","1","1","1","1","1","1","0","1","1","0","0","0","1","0","1","1","0","1","0","1","5","2","1","1","2","1","1","2","1","5","1","634716408718032896","刘","591","","","","","","","","","","","","","","","","","","","","","","","","","","","","","","feedback_test","","","","","","","","","","","",""
"866","","j","psychophysics","15","226666","0.0-7.0-0.0-1.0-0.0-0.3","4","4","4","4","4","4","4","4","4","4","5","5","5","5","5","5","5","5","5","5","1","1","1","1","1","1","1","1","1","1","0","1","1","0","0","0","1","0","1","1","0","1","0","1","5","2","1","1","2","1","1","2","1","5","1","634716408718032896","刘","591","","","","match","","","","","","","","","","","","","","key","j","16.651351351351245","768","428","j","true","match","img/pentagon.png","五边","五边","ALT1_1","prac_ALT1_1","","","","","","","","","","","",""
"null","<span style='color:GreenYellow; font-size: 70px;'>正确! </span>","null","html-keyboard-response","16","227168","0.0-7.0-0.0-1.0-0.0-1.3","4","4","4","4","4","4","4","4","4","4","5","5","5","5","5","5","5","5","5","5","1","1","1","1","1","1","1","1","1","1","0","1","1","0","0","0","1","0","1","1","0","1","0","1","5","2","1","1","2","1","1","2","1","5","1","634716408718032896","刘","591","","","","","","","","","","","","","","","","","","","","","","","","","","","","","","feedback_test","","","","","","","","","","","",""
"632","","j","psychophysics","17","228802","0.0-7.0-0.0-1.0-0.0-0.4","4","4","4","4","4","4","4","4","4","4","5","5","5","5","5","5","5","5","5","5","1","1","1","1","1","1","1","1","1","1","0","1","1","0","0","0","1","0","1","1","0","1","0","1","5","2","1","1","2","1","1","2","1","5","1","634716408718032896","刘","591","","","","match","","","","","","","","","","","","","","key","j","16.651546391752397","768","428","j","true","match","img/pentagon.png","五边","五边","ALT1_1","prac_ALT1_1","","","","","","","","","","","",""
"null","<span style='color:GreenYellow; font-size: 70px;'>正确! </span>","null","html-keyboard-response","18","229303","0.0-7.0-0.0-1.0-0.0-1.4","4","4","4","4","4","4","4","4","4","4","5","5","5","5","5","5","5","5","5","5","1","1","1","1","1","1","1","1","1","1","0","1","1","0","0","0","1","0","1","1","0","1","0","1","5","2","1","1","2","1","1","2","1","5","1","634716408718032896","刘","591","","","","","","","","","","","","","","","","","","","","","","","","","","","","","","feedback_test","","","","","","","","","","","",""
"616","","j","psychophysics","19","230920","0.0-7.0-0.0-1.0-0.0-0.5","4","4","4","4","4","4","4","4","4","4","5","5","5","5","5","5","5","5","5","5","1","1","1","1","1","1","1","1","1","1","0","1","1","0","0","0","1","0","1","1","0","1","0","1","5","2","1","1","2","1","1","2","1","5","1","634716408718032896","刘","591","","","","match","","","","","","","","","","","","","","key","j","16.652083333333394","768","428","j","true","match","img/diamond.png","菱形","菱形","ALT1_1","prac_ALT1_1","","","","","","","","","","","",""
"null","<span style='color:GreenYellow; font-size: 70px;'>正确! </span>","null","html-keyboard-response","20","231420","0.0-7.0-0.0-1.0-0.0-1.5","4","4","4","4","4","4","4","4","4","4","5","5","5","5","5","5","5","5","5","5","1","1","1","1","1","1","1","1","1","1","0","1","1","0","0","0","1","0","1","1","0","1","0","1","5","2","1","1","2","1","1","2","1","5","1","634716408718032896","刘","591","","","","","","","","","","","","","","","","","","","","","","","","","","","","","","feedback_test","","","","","","","","","","","",""
"642","","f","psychophysics","21","233064","0.0-7.0-0.0-1.0-0.0-0.6","4","4","4","4","4","4","4","4","4","4","5","5","5","5","5","5","5","5","5","5","1","1","1","1","1","1","1","1","1","1","0","1","1","0","0","0","1","0","1","1","0","1","0","1","5","2","1","1","2","1","1","2","1","5","1","634716408718032896","刘","591","","","","nonmatch","","","","","","","","","","","","","","key","f","16.648979591836795","768","428","f","true","nonmatch","img/diamond.png","五边","菱形","ALT1_1","prac_ALT1_1","","","","","","","","","","","",""
"null","<span style='color:GreenYellow; font-size: 70px;'>正确! </span>","null","html-keyboard-response","22","233566","0.0-7.0-0.0-1.0-0.0-1.6","4","4","4","4","4","4","4","4","4","4","5","5","5","5","5","5","5","5","5","5","1","1","1","1","1","1","1","1","1","1","0","1","1","0","0","0","1","0","1","1","0","1","0","1","5","2","1","1","2","1","1","2","1","5","1","634716408718032896","刘","591","","","","","","","","","","","","","","","","","","","","","","","","","","","","","","feedback_test","","","","","","","","","","","",""
"551","","f","psychophysics","23","235119","0.0-7.0-0.0-1.0-0.0-0.7","4","4","4","4","4","4","4","4","4","4","5","5","5","5","5","5","5","5","5","5","1","1","1","1","1","1","1","1","1","1","0","1","1","0","0","0","1","0","1","1","0","1","0","1","5","2","1","1","2","1","1","2","1","5","1","634716408718032896","刘","591","","","","nonmatch","","","","","","","","","","","","","","key","f","16.652173913043477","768","428","f","true","nonmatch","img/diamond.png","圆形","菱形","ALT1_1","prac_ALT1_1","","","","","","","","","","","",""
"null","<span style='color:GreenYellow; font-size: 70px;'>正确! </span>","null","html-keyboard-response","24","235621","0.0-7.0-0.0-1.0-0.0-1.7","4","4","4","4","4","4","4","4","4","4","5","5","5","5","5","5","5","5","5","5","1","1","1","1","1","1","1","1","1","1","0","1","1","0","0","0","1","0","1","1","0","1","0","1","5","2","1","1","2","1","1","2","1","5","1","634716408718032896","刘","591","","","","","","","","","","","","","","","","","","","","","","","","","","","","","","feedback_test","","","","","","","","","","","",""
"605","","f","psychophysics","25","237227","0.0-7.0-0.0-1.0-0.0-0.8","4","4","4","4","4","4","4","4","4","4","5","5","5","5","5","5","5","5","5","5","1","1","1","1","1","1","1","1","1","1","0","1","1","0","0","0","1","0","1","1","0","1","0","1","5","2","1","1","2","1","1","2","1","5","1","634716408718032896","刘","591","","","","nonmatch","","","","","","","","","","","","","","key","f","16.652083333333394","768","428","f","true","nonmatch","img/square.png","圆形","方形","ALT1_1","prac_ALT1_1","","","","","","","","","","","",""
"null","<span style='color:GreenYellow; font-size: 70px;'>正确! </span>","null","html-keyboard-response","26","237729","0.0-7.0-0.0-1.0-0.0-1.8","4","4","4","4","4","4","4","4","4","4","5","5","5","5","5","5","5","5","5","5","1","1","1","1","1","1","1","1","1","1","0","1","1","0","0","0","1","0","1","1","0","1","0","1","5","2","1","1","2","1","1","2","1","5","1","634716408718032896","刘","591","","","","","","","","","","","","","","","","","","","","","","","","","","","","","","feedback_test","","","","","","","","","","","",""
"546","","j","psychophysics","27","239277","0.0-7.0-0.0-1.0-0.0-0.9","4","4","4","4","4","4","4","4","4","4","5","5","5","5","5","5","5","5","5","5","1","1","1","1","1","1","1","1","1","1","0","1","1","0","0","0","1","0","1","1","0","1","0","1","5","2","1","1","2","1","1","2","1","5","1","634716408718032896","刘","591","","","","match","","","","","","","","","","","","","","key","j","16.65326086956528","768","428","j","true","match","img/pentagon.png","五边","五边","ALT1_1","prac_ALT1_1","","","","","","","","","","","",""
"null","<span style='color:GreenYellow; font-size: 70px;'>正确! </span>","null","html-keyboard-response","28","239778","0.0-7.0-0.0-1.0-0.0-1.9","4","4","4","4","4","4","4","4","4","4","5","5","5","5","5","5","5","5","5","5","1","1","1","1","1","1","1","1","1","1","0","1","1","0","0","0","1","0","1","1","0","1","0","1","5","2","1","1","2","1","1","2","1","5","1","634716408718032896","刘","591","","","","","","","","","","","","","","","","","","","","","","","","","","","","","","feedback_test","","","","","","","","","","","",""
"676","","j","psychophysics","29","241456","0.0-7.0-0.0-1.0-0.0-0.10","4","4","4","4","4","4","4","4","4","4","5","5","5","5","5","5","5","5","5","5","1","1","1","1","1","1","1","1","1","1","0","1","1","0","0","0","1","0","1","1","0","1","0","1","5","2","1","1","2","1","1","2","1","5","1","634716408718032896","刘","591","","","","match","","","","","","","","","","","","","","key","j","16.651999999999827","768","428","f","false","nonmatch","img/circle.png","方形","圆形","ALT1_1","prac_ALT1_1","","","","","","","","","","","",""
"null","<span style='color:red; font-size: 70px;'>错误! </span>","null","html-keyboard-response","30","241956","0.0-7.0-0.0-1.0-0.0-1.10","4","4","4","4","4","4","4","4","4","4","5","5","5","5","5","5","5","5","5","5","1","1","1","1","1","1","1","1","1","1","0","1","1","0","0","0","1","0","1","1","0","1","0","1","5","2","1","1","2","1","1","2","1","5","1","634716408718032896","刘","591","","","","","","","","","","","","","","","","","","","","","","","","","","","","","","feedback_test","","","","","","","","","","","",""
"717","","f","psychophysics","31","243675","0.0-7.0-0.0-1.0-0.0-0.11","4","4","4","4","4","4","4","4","4","4","5","5","5","5","5","5","5","5","5","5","1","1","1","1","1","1","1","1","1","1","0","1","1","0","0","0","1","0","1","1","0","1","0","1","5","2","1","1","2","1","1","2","1","5","1","634716408718032896","刘","591","","","","nonmatch","","","","","","","","","","","","","","key","f","16.649999999999885","768","428","f","true","nonmatch","img/pentagon.png","方形","五边","ALT1_1","prac_ALT1_1","","","","","","","","","","","",""
"null","<span style='color:GreenYellow; font-size: 70px;'>正确! </span>","null","html-keyboard-response","32","244176","0.0-7.0-0.0-1.0-0.0-1.11","4","4","4","4","4","4","4","4","4","4","5","5","5","5","5","5","5","5","5","5","1","1","1","1","1","1","1","1","1","1","0","1","1","0","0","0","1","0","1","1","0","1","0","1","5","2","1","1","2","1","1","2","1","5","1","634716408718032896","刘","591","","","","","","","","","","","","","","","","","","","","","","","","","","","","","","feedback_test","","","","","","","","","","","",""
"611","","j","psychophysics","33","245788","0.0-7.0-0.0-1.0-0.0-0.12","4","4","4","4","4","4","4","4","4","4","5","5","5","5","5","5","5","5","5","5","1","1","1","1","1","1","1","1","1","1","0","1","1","0","0","0","1","0","1","1","0","1","0","1","5","2","1","1","2","1","1","2","1","5","1","634716408718032896","刘","591","","","","match","","","","","","","","","","","","","","key","j","16.652083333333394","768","428","j","true","match","img/diamond.png","菱形","菱形","ALT1_1","prac_ALT1_1","","","","","","","","","","","",""
"null","<span style='color:GreenYellow; font-size: 70px;'>正确! </span>","null","html-keyboard-response","34","246289","0.0-7.0-0.0-1.0-0.0-1.12","4","4","4","4","4","4","4","4","4","4","5","5","5","5","5","5","5","5","5","5","1","1","1","1","1","1","1","1","1","1","0","1","1","0","0","0","1","0","1","1","0","1","0","1","5","2","1","1","2","1","1","2","1","5","1","634716408718032896","刘","591","","","","","","","","","","","","","","","","","","","","","","","","","","","","","","feedback_test","","","","","","","","","","","",""
"636","","f","psychophysics","35","247928","0.0-7.0-0.0-1.0-0.0-0.13","4","4","4","4","4","4","4","4","4","4","5","5","5","5","5","5","5","5","5","5","1","1","1","1","1","1","1","1","1","1","0","1","1","0","0","0","1","0","1","1","0","1","0","1","5","2","1","1","2","1","1","2","1","5","1","634716408718032896","刘","591","","","","nonmatch","","","","","","","","","","","","","","key","f","16.646391752577138","768","428","f","true","nonmatch","img/circle.png","菱形","圆形","ALT1_1","prac_ALT1_1","","","","","","","","","","","",""
"null","<span style='color:GreenYellow; font-size: 70px;'>正确! </span>","null","html-keyboard-response","36","248428","0.0-7.0-0.0-1.0-0.0-1.13","4","4","4","4","4","4","4","4","4","4","5","5","5","5","5","5","5","5","5","5","1","1","1","1","1","1","1","1","1","1","0","1","1","0","0","0","1","0","1","1","0","1","0","1","5","2","1","1","2","1","1","2","1","5","1","634716408718032896","刘","591","","","","","","","","","","","","","","","","","","","","","","","","","","","","","","feedback_test","","","","","","","","","","","",""
"816","","f","psychophysics","37","250246","0.0-7.0-0.0-1.0-0.0-0.14","4","4","4","4","4","4","4","4","4","4","5","5","5","5","5","5","5","5","5","5","1","1","1","1","1","1","1","1","1","1","0","1","1","0","0","0","1","0","1","1","0","1","0","1","5","2","1","1","2","1","1","2","1","5","1","634716408718032896","刘","591","","","","nonmatch","","","","","","","","","","","","","","key","f","16.652293577981705","768","428","f","true","nonmatch","img/square.png","菱形","方形","ALT1_1","prac_ALT1_1","","","","","","","","","","","",""
"null","<span style='color:GreenYellow; font-size: 70px;'>正确! </span>","null","html-keyboard-response","38","250748","0.0-7.0-0.0-1.0-0.0-1.14","4","4","4","4","4","4","4","4","4","4","5","5","5","5","5","5","5","5","5","5","1","1","1","1","1","1","1","1","1","1","0","1","1","0","0","0","1","0","1","1","0","1","0","1","5","2","1","1","2","1","1","2","1","5","1","634716408718032896","刘","591","","","","","","","","","","","","","","","","","","","","","","","","","","","","","","feedback_test","","","","","","","","","","","",""
"649","","j","psychophysics","39","252400","0.0-7.0-0.0-1.0-0.0-0.15","4","4","4","4","4","4","4","4","4","4","5","5","5","5","5","5","5","5","5","5","1","1","1","1","1","1","1","1","1","1","0","1","1","0","0","0","1","0","1","1","0","1","0","1","5","2","1","1","2","1","1","2","1","5","1","634716408718032896","刘","591","","","","match","","","","","","","","","","","","","","key","j","16.653061224489797","768","428","j","true","match","img/square.png","方形","方形","ALT1_1","prac_ALT1_1","","","","","","","","","","","",""
"null","<span style='color:GreenYellow; font-size: 70px;'>正确! </span>","null","html-keyboard-response","40","252901","0.0-7.0-0.0-1.0-0.0-1.15","4","4","4","4","4","4","4","4","4","4","5","5","5","5","5","5","5","5","5","5","1","1","1","1","1","1","1","1","1","1","0","1","1","0","0","0","1","0","1","1","0","1","0","1","5","2","1","1","2","1","1","2","1","5","1","634716408718032896","刘","591","","","","","","","","","","","","","","","","","","","","","","","","","","","","","","feedback_test","","","","","","","","","","","",""
"597","","f","psychophysics","41","254500","0.0-7.0-0.0-1.0-0.0-0.16","4","4","4","4","4","4","4","4","4","4","5","5","5","5","5","5","5","5","5","5","1","1","1","1","1","1","1","1","1","1","0","1","1","0","0","0","1","0","1","1","0","1","0","1","5","2","1","1","2","1","1","2","1","5","1","634716408718032896","刘","591","","","","nonmatch","","","","","","","","","","","","","","key","f","16.652631578947368","768","428","f","true","nonmatch","img/pentagon.png","圆形","五边","ALT1_1","prac_ALT1_1","","","","","","","","","","","",""
"null","<span style='color:GreenYellow; font-size: 70px;'>正确! </span>","null","html-keyboard-response","42","255000","0.0-7.0-0.0-1.0-0.0-1.16","4","4","4","4","4","4","4","4","4","4","5","5","5","5","5","5","5","5","5","5","1","1","1","1","1","1","1","1","1","1","0","1","1","0","0","0","1","0","1","1","0","1","0","1","5","2","1","1","2","1","1","2","1","5","1","634716408718032896","刘","591","","","","","","","","","","","","","","","","","","","","","","","","","","","","","","feedback_test","","","","","","","","","","","",""
"630","","j","psychophysics","43","256633","0.0-7.0-0.0-1.0-0.0-0.17","4","4","4","4","4","4","4","4","4","4","5","5","5","5","5","5","5","5","5","5","1","1","1","1","1","1","1","1","1","1","0","1","1","0","0","0","1","0","1","1","0","1","0","1","5","2","1","1","2","1","1","2","1","5","1","634716408718032896","刘","591","","","","match","","","","","","","","","","","","","","key","j","16.64536082474233","768","428","j","true","match","img/diamond.png","菱形","菱形","ALT1_1","prac_ALT1_1","","","","","","","","","","","",""
"null","<span style='color:GreenYellow; font-size: 70px;'>正确! </span>","null","html-keyboard-response","44","257134","0.0-7.0-0.0-1.0-0.0-1.17","4","4","4","4","4","4","4","4","4","4","5","5","5","5","5","5","5","5","5","5","1","1","1","1","1","1","1","1","1","1","0","1","1","0","0","0","1","0","1","1","0","1","0","1","5","2","1","1","2","1","1","2","1","5","1","634716408718032896","刘","591","","","","","","","","","","","","","","","","","","","","","","","","","","","","","","feedback_test","","","","","","","","","","","",""
"576","","j","psychophysics","45","258713","0.0-7.0-0.0-1.0-0.0-0.18","4","4","4","4","4","4","4","4","4","4","5","5","5","5","5","5","5","5","5","5","1","1","1","1","1","1","1","1","1","1","0","1","1","0","0","0","1","0","1","1","0","1","0","1","5","2","1","1","2","1","1","2","1","5","1","634716408718032896","刘","591","","","","match","","","","","","","","","","","","","","key","j","16.654255319148938","768","428","j","true","match","img/square.png","方形","方形","ALT1_1","prac_ALT1_1","","","","","","","","","","","",""
"null","<span style='color:GreenYellow; font-size: 70px;'>正确! </span>","null","html-keyboard-response","46","259214","0.0-7.0-0.0-1.0-0.0-1.18","4","4","4","4","4","4","4","4","4","4","5","5","5","5","5","5","5","5","5","5","1","1","1","1","1","1","1","1","1","1","0","1","1","0","0","0","1","0","1","1","0","1","0","1","5","2","1","1","2","1","1","2","1","5","1","634716408718032896","刘","591","","","","","","","","","","","","","","","","","","","","","","","","","","","","","","feedback_test","","","","","","","","","","","",""
"647","","j","psychophysics","47","260861","0.0-7.0-0.0-1.0-0.0-0.19","4","4","4","4","4","4","4","4","4","4","5","5","5","5","5","5","5","5","5","5","1","1","1","1","1","1","1","1","1","1","0","1","1","0","0","0","1","0","1","1","0","1","0","1","5","2","1","1","2","1","1","2","1","5","1","634716408718032896","刘","591","","","","match","","","","","","","","","","","","","","key","j","16.649999999999526","768","428","j","true","match","img/square.png","方形","方形","ALT1_1","prac_ALT1_1","","","","","","","","","","","",""
"null","<span style='color:GreenYellow; font-size: 70px;'>正确! </span>","null","html-keyboard-response","48","261362","0.0-7.0-0.0-1.0-0.0-1.19","4","4","4","4","4","4","4","4","4","4","5","5","5","5","5","5","5","5","5","5","1","1","1","1","1","1","1","1","1","1","0","1","1","0","0","0","1","0","1","1","0","1","0","1","5","2","1","1","2","1","1","2","1","5","1","634716408718032896","刘","591","","","","","","","","","","","","","","","","","","","","","","","","","","","","","","feedback_test","","","","","","","","","","","",""
"756","","f","psychophysics","49","263120","0.0-7.0-0.0-1.0-0.0-0.20","4","4","4","4","4","4","4","4","4","4","5","5","5","5","5","5","5","5","5","5","1","1","1","1","1","1","1","1","1","1","0","1","1","0","0","0","1","0","1","1","0","1","0","1","5","2","1","1","2","1","1","2","1","5","1","634716408718032896","刘","591","","","","nonmatch","","","","","","","","","","","","","","key","f","16.65142857142879","768","428","j","false","match","img/circle.png","圆形","圆形","ALT1_1","prac_ALT1_1","","","","","","","","","","","",""
"null","<span style='color:red; font-size: 70px;'>错误! </span>","null","html-keyboard-response","50","263620","0.0-7.0-0.0-1.0-0.0-1.20","4","4","4","4","4","4","4","4","4","4","5","5","5","5","5","5","5","5","5","5","1","1","1","1","1","1","1","1","1","1","0","1","1","0","0","0","1","0","1","1","0","1","0","1","5","2","1","1","2","1","1","2","1","5","1","634716408718032896","刘","591","","","","","","","","","","","","","","","","","","","","","","","","","","","","","","feedback_test","","","","","","","","","","","",""
"673","","j","psychophysics","51","265294","0.0-7.0-0.0-1.0-0.0-0.21","4","4","4","4","4","4","4","4","4","4","5","5","5","5","5","5","5","5","5","5","1","1","1","1","1","1","1","1","1","1","0","1","1","0","0","0","1","0","1","1","0","1","0","1","5","2","1","1","2","1","1","2","1","5","1","634716408718032896","刘","591","","","","match","","","","","","","","","","","","","","key","j","16.652525252525606","768","428","j","true","match","img/circle.png","圆形","圆形","ALT1_1","prac_ALT1_1","","","","","","","","","","","",""
"null","<span style='color:GreenYellow; font-size: 70px;'>正确! </span>","null","html-keyboard-response","52","265795","0.0-7.0-0.0-1.0-0.0-1.21","4","4","4","4","4","4","4","4","4","4","5","5","5","5","5","5","5","5","5","5","1","1","1","1","1","1","1","1","1","1","0","1","1","0","0","0","1","0","1","1","0","1","0","1","5","2","1","1","2","1","1","2","1","5","1","634716408718032896","刘","591","","","","","","","","","","","","","","","","","","","","","","","","","","","","","","feedback_test","","","","","","","","","","","",""
"602","","f","psychophysics","53","267398","0.0-7.0-0.0-1.0-0.0-0.22","4","4","4","4","4","4","4","4","4","4","5","5","5","5","5","5","5","5","5","5","1","1","1","1","1","1","1","1","1","1","0","1","1","0","0","0","1","0","1","1","0","1","0","1","5","2","1","1","2","1","1","2","1","5","1","634716408718032896","刘","591","","","","nonmatch","","","","","","","","","","","","","","key","f","16.63368421052644","768","428","f","true","nonmatch","img/pentagon.png","菱形","五边","ALT1_1","prac_ALT1_1","","","","","","","","","","","",""
"null","<span style='color:GreenYellow; font-size: 70px;'>正确! </span>","null","html-keyboard-response","54","267900","0.0-7.0-0.0-1.0-0.0-1.22","4","4","4","4","4","4","4","4","4","4","5","5","5","5","5","5","5","5","5","5","1","1","1","1","1","1","1","1","1","1","0","1","1","0","0","0","1","0","1","1","0","1","0","1","5","2","1","1","2","1","1","2","1","5","1","634716408718032896","刘","591","","","","","","","","","","","","","","","","","","","","","","","","","","","","","","feedback_test","","","","","","","","","","","",""
"675","","f","psychophysics","55","269577","0.0-7.0-0.0-1.0-0.0-0.23","4","4","4","4","4","4","4","4","4","4","5","5","5","5","5","5","5","5","5","5","1","1","1","1","1","1","1","1","1","1","0","1","1","0","0","0","1","0","1","1","0","1","0","1","5","2","1","1","2","1","1","2","1","5","1","634716408718032896","刘","591","","","","nonmatch","","","","","","","","","","","","","","key","f","16.652000000000115","768","428","f","true","nonmatch","img/diamond.png","方形","菱形","ALT1_1","prac_ALT1_1","","","","","","","","","","","",""
"null","<span style='color:GreenYellow; font-size: 70px;'>正确! </span>","null","html-keyboard-response","56","270078","0.0-7.0-0.0-1.0-0.0-1.23","4","4","4","4","4","4","4","4","4","4","5","5","5","5","5","5","5","5","5","5","1","1","1","1","1","1","1","1","1","1","0","1","1","0","0","0","1","0","1","1","0","1","0","1","5","2","1","1","2","1","1","2","1","5","1","634716408718032896","刘","591","","","","","","","","","","","","","","","","","","","","","","","","","","","","","","feedback_test","","","","","","","","","","","",""
"592","","f","psychophysics","57","271672","0.0-7.0-0.0-1.0-0.0-0.24","4","4","4","4","4","4","4","4","4","4","5","5","5","5","5","5","5","5","5","5","1","1","1","1","1","1","1","1","1","1","0","1","1","0","0","0","1","0","1","1","0","1","0","1","5","2","1","1","2","1","1","2","1","5","1","634716408718032896","刘","591","","","","nonmatch","","","","","","","","","","","","","","key","f","16.652127659574344","768","428","f","true","nonmatch","img/circle.png","方形","圆形","ALT1_1","prac_ALT1_1","","","","","","","","","","","",""
"null","<span style='color:GreenYellow; font-size: 70px;'>正确! </span>","null","html-keyboard-response","58","272173","0.0-7.0-0.0-1.0-0.0-1.24","4","4","4","4","4","4","4","4","4","4","5","5","5","5","5","5","5","5","5","5","1","1","1","1","1","1","1","1","1","1","0","1","1","0","0","0","1","0","1","1","0","1","0","1","5","2","1","1","2","1","1","2","1","5","1","634716408718032896","刘","591","","","","","","","","","","","","","","","","","","","","","","","","","","","","","","feedback_test","","","","","","","","","","","",""
"557","","f","psychophysics","59","273731","0.0-7.0-0.0-1.0-0.0-0.25","4","4","4","4","4","4","4","4","4","4","5","5","5","5","5","5","5","5","5","5","1","1","1","1","1","1","1","1","1","1","0","1","1","0","0","0","1","0","1","1","0","1","0","1","5","2","1","1","2","1","1","2","1","5","1","634716408718032896","刘","591","","","","nonmatch","","","","","","","","","","","","","","key","f","16.63695652173951","768","428","f","true","nonmatch","img/circle.png","五边","圆形","ALT1_1","prac_ALT1_1","","","","","","","","","","","",""
"null","<span style='color:GreenYellow; font-size: 70px;'>正确! </span>","null","html-keyboard-response","60","274231","0.0-7.0-0.0-1.0-0.0-1.25","4","4","4","4","4","4","4","4","4","4","5","5","5","5","5","5","5","5","5","5","1","1","1","1","1","1","1","1","1","1","0","1","1","0","0","0","1","0","1","1","0","1","0","1","5","2","1","1","2","1","1","2","1","5","1","634716408718032896","刘","591","","","","","","","","","","","","","","","","","","","","","","","","","","","","","","feedback_test","","","","","","","","","","","",""
"629","","j","psychophysics","61","275862","0.0-7.0-0.0-1.0-0.0-0.26","4","4","4","4","4","4","4","4","4","4","5","5","5","5","5","5","5","5","5","5","1","1","1","1","1","1","1","1","1","1","0","1","1","0","0","0","1","0","1","1","0","1","0","1","5","2","1","1","2","1","1","2","1","5","1","634716408718032896","刘","591","","","","match","","","","","","","","","","","","","","key","j","16.65360824742232","768","428","j","true","match","img/square.png","方形","方形","ALT1_1","prac_ALT1_1","","","","","","","","","","","",""
"null","<span style='color:GreenYellow; font-size: 70px;'>正确! </span>","null","html-keyboard-response","62","276363","0.0-7.0-0.0-1.0-0.0-1.26","4","4","4","4","4","4","4","4","4","4","5","5","5","5","5","5","5","5","5","5","1","1","1","1","1","1","1","1","1","1","0","1","1","0","0","0","1","0","1","1","0","1","0","1","5","2","1","1","2","1","1","2","1","5","1","634716408718032896","刘","591","","","","","","","","","","","","","","","","","","","","","","","","","","","","","","feedback_test","","","","","","","","","","","",""
"530","","j","psychophysics","63","277895","0.0-7.0-0.0-1.0-0.0-0.27","4","4","4","4","4","4","4","4","4","4","5","5","5","5","5","5","5","5","5","5","1","1","1","1","1","1","1","1","1","1","0","1","1","0","0","0","1","0","1","1","0","1","0","1","5","2","1","1","2","1","1","2","1","5","1","634716408718032896","刘","591","","","","match","","","","","","","","","","","","","","key","j","16.65054945054958","768","428","j","true","match","img/circle.png","圆形","圆形","ALT1_1","prac_ALT1_1","","","","","","","","","","","",""
"null","<span style='color:GreenYellow; font-size: 70px;'>正确! </span>","null","html-keyboard-response","64","278396","0.0-7.0-0.0-1.0-0.0-1.27","4","4","4","4","4","4","4","4","4","4","5","5","5","5","5","5","5","5","5","5","1","1","1","1","1","1","1","1","1","1","0","1","1","0","0","0","1","0","1","1","0","1","0","1","5","2","1","1","2","1","1","2","1","5","1","634716408718032896","刘","591","","","","","","","","","","","","","","","","","","","","","","","","","","","","","","feedback_test","","","","","","","","","","","",""
"676","","j","psychophysics","65","280073","0.0-7.0-0.0-1.0-0.0-0.28","4","4","4","4","4","4","4","4","4","4","5","5","5","5","5","5","5","5","5","5","1","1","1","1","1","1","1","1","1","1","0","1","1","0","0","0","1","0","1","1","0","1","0","1","5","2","1","1","2","1","1","2","1","5","1","634716408718032896","刘","591","","","","match","","","","","","","","","","","","","","key","j","16.653000000000464","768","428","j","true","match","img/pentagon.png","五边","五边","ALT1_1","prac_ALT1_1","","","","","","","","","","","",""
"null","<span style='color:GreenYellow; font-size: 70px;'>正确! </span>","null","html-keyboard-response","66","280574","0.0-7.0-0.0-1.0-0.0-1.28","4","4","4","4","4","4","4","4","4","4","5","5","5","5","5","5","5","5","5","5","1","1","1","1","1","1","1","1","1","1","0","1","1","0","0","0","1","0","1","1","0","1","0","1","5","2","1","1","2","1","1","2","1","5","1","634716408718032896","刘","591","","","","","","","","","","","","","","","","","","","","","","","","","","","","","","feedback_test","","","","","","","","","","","",""
"597","","j","psychophysics","67","282173","0.0-7.0-0.0-1.0-0.0-0.29","4","4","4","4","4","4","4","4","4","4","5","5","5","5","5","5","5","5","5","5","1","1","1","1","1","1","1","1","1","1","0","1","1","0","0","0","1","0","1","1","0","1","0","1","5","2","1","1","2","1","1","2","1","5","1","634716408718032896","刘","591","","","","match","","","","","","","","","","","","","","key","j","16.65052631578935","768","428","j","true","match","img/diamond.png","菱形","菱形","ALT1_1","prac_ALT1_1","","","","","","","","","","","",""
"null","<span style='color:GreenYellow; font-size: 70px;'>正确! </span>","null","html-keyboard-response","68","282675","0.0-7.0-0.0-1.0-0.0-1.29","4","4","4","4","4","4","4","4","4","4","5","5","5","5","5","5","5","5","5","5","1","1","1","1","1","1","1","1","1","1","0","1","1","0","0","0","1","0","1","1","0","1","0","1","5","2","1","1","2","1","1","2","1","5","1","634716408718032896","刘","591","","","","","","","","","","","","","","","","","","","","","","","","","","","","","","feedback_test","","","","","","","","","","","",""
"591","","j","psychophysics","69","284268","0.0-7.0-0.0-1.0-0.0-0.30","4","4","4","4","4","4","4","4","4","4","5","5","5","5","5","5","5","5","5","5","1","1","1","1","1","1","1","1","1","1","0","1","1","0","0","0","1","0","1","1","0","1","0","1","5","2","1","1","2","1","1","2","1","5","1","634716408718032896","刘","591","","","","match","","","","","","","","","","","","","","key","j","16.652631578947368","768","428","j","true","match","img/diamond.png","菱形","菱形","ALT1_1","prac_ALT1_1","","","","","","","","","","","",""
"null","<span style='color:GreenYellow; font-size: 70px;'>正确! </span>","null","html-keyboard-response","70","284769","0.0-7.0-0.0-1.0-0.0-1.30","4","4","4","4","4","4","4","4","4","4","5","5","5","5","5","5","5","5","5","5","1","1","1","1","1","1","1","1","1","1","0","1","1","0","0","0","1","0","1","1","0","1","0","1","5","2","1","1","2","1","1","2","1","5","1","634716408718032896","刘","591","","","","","","","","","","","","","","","","","","","","","","","","","","","","","","feedback_test","","","","","","","","","","","",""
"553","","f","psychophysics","71","286324","0.0-7.0-0.0-1.0-0.0-0.31","4","4","4","4","4","4","4","4","4","4","5","5","5","5","5","5","5","5","5","5","1","1","1","1","1","1","1","1","1","1","0","1","1","0","0","0","1","0","1","1","0","1","0","1","5","2","1","1","2","1","1","2","1","5","1","634716408718032896","刘","591","","","","nonmatch","","","","","","","","","","","","","","key","f","16.649999999999874","768","428","f","true","nonmatch","img/pentagon.png","方形","五边","ALT1_1","prac_ALT1_1","","","","","","","","","","","",""
"null","<span style='color:GreenYellow; font-size: 70px;'>正确! </span>","null","html-keyboard-response","72","286825","0.0-7.0-0.0-1.0-0.0-1.31","4","4","4","4","4","4","4","4","4","4","5","5","5","5","5","5","5","5","5","5","1","1","1","1","1","1","1","1","1","1","0","1","1","0","0","0","1","0","1","1","0","1","0","1","5","2","1","1","2","1","1","2","1","5","1","634716408718032896","刘","591","","","","","","","","","","","","","","","","","","","","","","","","","","","","","","feedback_test","","","","","","","","","","","",""
"715","","f","psychophysics","73","288541","0.0-7.0-0.0-1.0-0.0-0.32","4","4","4","4","4","4","4","4","4","4","5","5","5","5","5","5","5","5","5","5","1","1","1","1","1","1","1","1","1","1","0","1","1","0","0","0","1","0","1","1","0","1","0","1","5","2","1","1","2","1","1","2","1","5","1","634716408718032896","刘","591","","","","nonmatch","","","","","","","","","","","","","","key","f","16.653921568627567","768","428","f","true","nonmatch","img/circle.png","菱形","圆形","ALT1_1","prac_ALT1_1","","","","","","","","","","","",""
"null","<span style='color:GreenYellow; font-size: 70px;'>正确! </span>","null","html-keyboard-response","74","289042","0.0-7.0-0.0-1.0-0.0-1.32","4","4","4","4","4","4","4","4","4","4","5","5","5","5","5","5","5","5","5","5","1","1","1","1","1","1","1","1","1","1","0","1","1","0","0","0","1","0","1","1","0","1","0","1","5","2","1","1","2","1","1","2","1","5","1","634716408718032896","刘","591","","","","","","","","","","","","","","","","","","","","","","","","","","","","","","feedback_test","","","","","","","","","","","",""
"666","","f","psychophysics","75","290710","0.0-7.0-0.0-1.0-0.0-0.33","4","4","4","4","4","4","4","4","4","4","5","5","5","5","5","5","5","5","5","5","1","1","1","1","1","1","1","1","1","1","0","1","1","0","0","0","1","0","1","1","0","1","0","1","5","2","1","1","2","1","1","2","1","5","1","634716408718032896","刘","591","","","","nonmatch","","","","","","","","","","","","","","key","f","16.651515151515152","768","428","f","true","nonmatch","img/square.png","菱形","方形","ALT1_1","prac_ALT1_1","","","","","","","","","","","",""
"null","<span style='color:GreenYellow; font-size: 70px;'>正确! </span>","null","html-keyboard-response","76","291211","0.0-7.0-0.0-1.0-0.0-1.33","4","4","4","4","4","4","4","4","4","4","5","5","5","5","5","5","5","5","5","5","1","1","1","1","1","1","1","1","1","1","0","1","1","0","0","0","1","0","1","1","0","1","0","1","5","2","1","1","2","1","1","2","1","5","1","634716408718032896","刘","591","","","","","","","","","","","","","","","","","","","","","","","","","","","","","","feedback_test","","","","","","","","","","","",""
"631","","j","psychophysics","77","292844","0.0-7.0-0.0-1.0-0.0-0.34","4","4","4","4","4","4","4","4","4","4","5","5","5","5","5","5","5","5","5","5","1","1","1","1","1","1","1","1","1","1","0","1","1","0","0","0","1","0","1","1","0","1","0","1","5","2","1","1","2","1","1","2","1","5","1","634716408718032896","刘","591","","","","match","","","","","","","","","","","","","","key","j","16.65360824742292","768","428","j","true","match","img/square.png","方形","方形","ALT1_1","prac_ALT1_1","","","","","","","","","","","",""
"null","<span style='color:GreenYellow; font-size: 70px;'>正确! </span>","null","html-keyboard-response","78","293345","0.0-7.0-0.0-1.0-0.0-1.34","4","4","4","4","4","4","4","4","4","4","5","5","5","5","5","5","5","5","5","5","1","1","1","1","1","1","1","1","1","1","0","1","1","0","0","0","1","0","1","1","0","1","0","1","5","2","1","1","2","1","1","2","1","5","1","634716408718032896","刘","591","","","","","","","","","","","","","","","","","","","","","","","","","","","","","","feedback_test","","","","","","","","","","","",""
"542","","j","psychophysics","79","294889","0.0-7.0-0.0-1.0-0.0-0.35","4","4","4","4","4","4","4","4","4","4","5","5","5","5","5","5","5","5","5","5","1","1","1","1","1","1","1","1","1","1","0","1","1","0","0","0","1","0","1","1","0","1","0","1","5","2","1","1","2","1","1","2","1","5","1","634716408718032896","刘","591","","","","match","","","","","","","","","","","","","","key","j","16.65108695652136","768","428","j","true","match","img/pentagon.png","五边","五边","ALT1_1","prac_ALT1_1","","","","","","","","","","","",""
"null","<span style='color:GreenYellow; font-size: 70px;'>正确! </span>","null","html-keyboard-response","80","295390","0.0-7.0-0.0-1.0-0.0-1.35","4","4","4","4","4","4","4","4","4","4","5","5","5","5","5","5","5","5","5","5","1","1","1","1","1","1","1","1","1","1","0","1","1","0","0","0","1","0","1","1","0","1","0","1","5","2","1","1","2","1","1","2","1","5","1","634716408718032896","刘","591","","","","","","","","","","","","","","","","","","","","","","","","","","","","","","feedback_test","","","","","","","","","","","",""
"581","","f","psychophysics","81","296973","0.0-7.0-0.0-1.0-0.0-0.36","4","4","4","4","4","4","4","4","4","4","5","5","5","5","5","5","5","5","5","5","1","1","1","1","1","1","1","1","1","1","0","1","1","0","0","0","1","0","1","1","0","1","0","1","5","2","1","1","2","1","1","2","1","5","1","634716408718032896","刘","591","","","","nonmatch","","","","","","","","","","","","","","key","f","16.649999999999753","768","428","f","true","nonmatch","img/square.png","圆形","方形","ALT1_1","prac_ALT1_1","","","","","","","","","","","",""
"null","<span style='color:GreenYellow; font-size: 70px;'>正确! </span>","null","html-keyboard-response","82","297475","0.0-7.0-0.0-1.0-0.0-1.36","4","4","4","4","4","4","4","4","4","4","5","5","5","5","5","5","5","5","5","5","1","1","1","1","1","1","1","1","1","1","0","1","1","0","0","0","1","0","1","1","0","1","0","1","5","2","1","1","2","1","1","2","1","5","1","634716408718032896","刘","591","","","","","","","","","","","","","","","","","","","","","","","","","","","","","","feedback_test","","","","","","","","","","","",""
"591","","j","psychophysics","83","299067","0.0-7.0-0.0-1.0-0.0-0.37","4","4","4","4","4","4","4","4","4","4","5","5","5","5","5","5","5","5","5","5","1","1","1","1","1","1","1","1","1","1","0","1","1","0","0","0","1","0","1","1","0","1","0","1","5","2","1","1","2","1","1","2","1","5","1","634716408718032896","刘","591","","","","match","","","","","","","","","","","","","","key","j","16.65052631578935","768","428","j","true","match","img/circle.png","圆形","圆形","ALT1_1","prac_ALT1_1","","","","","","","","","","","",""
"null","<span style='color:GreenYellow; font-size: 70px;'>正确! </span>","null","html-keyboard-response","84","299568","0.0-7.0-0.0-1.0-0.0-1.37","4","4","4","4","4","4","4","4","4","4","5","5","5","5","5","5","5","5","5","5","1","1","1","1","1","1","1","1","1","1","0","1","1","0","0","0","1","0","1","1","0","1","0","1","5","2","1","1","2","1","1","2","1","5","1","634716408718032896","刘","591","","","","","","","","","","","","","","","","","","","","","","","","","","","","","","feedback_test","","","","","","","","","","","",""
"606","","f","psychophysics","85","301177","0.0-7.0-0.0-1.0-0.0-0.38","4","4","4","4","4","4","4","4","4","4","5","5","5","5","5","5","5","5","5","5","1","1","1","1","1","1","1","1","1","1","0","1","1","0","0","0","1","0","1","1","0","1","0","1","5","2","1","1","2","1","1","2","1","5","1","634716408718032896","刘","591","","","","nonmatch","","","","","","","","","","","","","","key","f","16.652631578947368","768","428","f","true","nonmatch","img/diamond.png","方形","菱形","ALT1_1","prac_ALT1_1","","","","","","","","","","","",""
"null","<span style='color:GreenYellow; font-size: 70px;'>正确! </span>","null","html-keyboard-response","86","301677","0.0-7.0-0.0-1.0-0.0-1.38","4","4","4","4","4","4","4","4","4","4","5","5","5","5","5","5","5","5","5","5","1","1","1","1","1","1","1","1","1","1","0","1","1","0","0","0","1","0","1","1","0","1","0","1","5","2","1","1","2","1","1","2","1","5","1","634716408718032896","刘","591","","","","","","","","","","","","","","","","","","","","","","","","","","","","","","feedback_test","","","","","","","","","","","",""
"643","","f","psychophysics","87","303321","0.0-7.0-0.0-1.0-0.0-0.39","4","4","4","4","4","4","4","4","4","4","5","5","5","5","5","5","5","5","5","5","1","1","1","1","1","1","1","1","1","1","0","1","1","0","0","0","1","0","1","1","0","1","0","1","5","2","1","1","2","1","1","2","1","5","1","634716408718032896","刘","591","","","","nonmatch","","","","","","","","","","","","","","key","f","16.656122448979474","768","428","f","true","nonmatch","img/square.png","五边","方形","ALT1_1","prac_ALT1_1","","","","","","","","","","","",""
"null","<span style='color:GreenYellow; font-size: 70px;'>正确! </span>","null","html-keyboard-response","88","303823","0.0-7.0-0.0-1.0-0.0-1.39","4","4","4","4","4","4","4","4","4","4","5","5","5","5","5","5","5","5","5","5","1","1","1","1","1","1","1","1","1","1","0","1","1","0","0","0","1","0","1","1","0","1","0","1","5","2","1","1","2","1","1","2","1","5","1","634716408718032896","刘","591","","","","","","","","","","","","","","","","","","","","","","","","","","","","","","feedback_test","","","","","","","","","","","",""
"601","","j","psychophysics","89","305425","0.0-7.0-0.0-1.0-0.0-0.40","4","4","4","4","4","4","4","4","4","4","5","5","5","5","5","5","5","5","5","5","1","1","1","1","1","1","1","1","1","1","0","1","1","0","0","0","1","0","1","1","0","1","0","1","5","2","1","1","2","1","1","2","1","5","1","634716408718032896","刘","591","","","","match","","","","","","","","","","","","","","key","j","16.652631578947368","768","428","j","true","match","img/square.png","方形","方形","ALT1_1","prac_ALT1_1","","","","","","","","","","","",""
"null","<span style='color:GreenYellow; font-size: 70px;'>正确! </span>","null","html-keyboard-response","90","305927","0.0-7.0-0.0-1.0-0.0-1.40","4","4","4","4","4","4","4","4","4","4","5","5","5","5","5","5","5","5","5","5","1","1","1","1","1","1","1","1","1","1","0","1","1","0","0","0","1","0","1","1","0","1","0","1","5","2","1","1","2","1","1","2","1","5","1","634716408718032896","刘","591","","","","","","","","","","","","","","","","","","","","","","","","","","","","","","feedback_test","","","","","","","","","","","",""
"566","","j","psychophysics","91","307494","0.0-7.0-0.0-1.0-0.0-0.41","4","4","4","4","4","4","4","4","4","4","5","5","5","5","5","5","5","5","5","5","1","1","1","1","1","1","1","1","1","1","0","1","1","0","0","0","1","0","1","1","0","1","0","1","5","2","1","1","2","1","1","2","1","5","1","634716408718032896","刘","591","","","","match","","","","","","","","","","","","","","key","j","16.650537634408604","768","428","j","true","match","img/circle.png","圆形","圆形","ALT1_1","prac_ALT1_1","","","","","","","","","","","",""
"null","<span style='color:GreenYellow; font-size: 70px;'>正确! </span>","null","html-keyboard-response","92","307996","0.0-7.0-0.0-1.0-0.0-1.41","4","4","4","4","4","4","4","4","4","4","5","5","5","5","5","5","5","5","5","5","1","1","1","1","1","1","1","1","1","1","0","1","1","0","0","0","1","0","1","1","0","1","0","1","5","2","1","1","2","1","1","2","1","5","1","634716408718032896","刘","591","","","","","","","","","","","","","","","","","","","","","","","","","","","","","","feedback_test","","","","","","","","","","","",""
"532","","f","psychophysics","93","309529","0.0-7.0-0.0-1.0-0.0-0.42","4","4","4","4","4","4","4","4","4","4","5","5","5","5","5","5","5","5","5","5","1","1","1","1","1","1","1","1","1","1","0","1","1","0","0","0","1","0","1","1","0","1","0","1","5","2","1","1","2","1","1","2","1","5","1","634716408718032896","刘","591","","","","nonmatch","","","","","","","","","","","","","","key","f","16.649450549450293","768","428","f","true","nonmatch","img/diamond.png","五边","菱形","ALT1_1","prac_ALT1_1","","","","","","","","","","","",""
"null","<span style='color:GreenYellow; font-size: 70px;'>正确! </span>","null","html-keyboard-response","94","310031","0.0-7.0-0.0-1.0-0.0-1.42","4","4","4","4","4","4","4","4","4","4","5","5","5","5","5","5","5","5","5","5","1","1","1","1","1","1","1","1","1","1","0","1","1","0","0","0","1","0","1","1","0","1","0","1","5","2","1","1","2","1","1","2","1","5","1","634716408718032896","刘","591","","","","","","","","","","","","","","","","","","","","","","","","","","","","","","feedback_test","","","","","","","","","","","",""
"676","","j","psychophysics","95","311708","0.0-7.0-0.0-1.0-0.0-0.43","4","4","4","4","4","4","4","4","4","4","5","5","5","5","5","5","5","5","5","5","1","1","1","1","1","1","1","1","1","1","0","1","1","0","0","0","1","0","1","1","0","1","0","1","5","2","1","1","2","1","1","2","1","5","1","634716408718032896","刘","591","","","","match","","","","","","","","","","","","","","key","j","16.652000000000115","768","428","j","true","match","img/pentagon.png","五边","五边","ALT1_1","prac_ALT1_1","","","","","","","","","","","",""
"null","<span style='color:GreenYellow; font-size: 70px;'>正确! </span>","null","html-keyboard-response","96","312210","0.0-7.0-0.0-1.0-0.0-1.43","4","4","4","4","4","4","4","4","4","4","5","5","5","5","5","5","5","5","5","5","1","1","1","1","1","1","1","1","1","1","0","1","1","0","0","0","1","0","1","1","0","1","0","1","5","2","1","1","2","1","1","2","1","5","1","634716408718032896","刘","591","","","","","","","","","","","","","","","","","","","","","","","","","","","","","","feedback_test","","","","","","","","","","","",""
"590","","f","psychophysics","97","313803","0.0-7.0-0.0-1.0-0.0-0.44","4","4","4","4","4","4","4","4","4","4","5","5","5","5","5","5","5","5","5","5","1","1","1","1","1","1","1","1","1","1","0","1","1","0","0","0","1","0","1","1","0","1","0","1","5","2","1","1","2","1","1","2","1","5","1","634716408718032896","刘","591","","","","nonmatch","","","","","","","","","","","","","","key","f","16.65052631578935","768","428","f","true","nonmatch","img/pentagon.png","菱形","五边","ALT1_1","prac_ALT1_1","","","","","","","","","","","",""
"null","<span style='color:GreenYellow; font-size: 70px;'>正确! </span>","null","html-keyboard-response","98","314304","0.0-7.0-0.0-1.0-0.0-1.44","4","4","4","4","4","4","4","4","4","4","5","5","5","5","5","5","5","5","5","5","1","1","1","1","1","1","1","1","1","1","0","1","1","0","0","0","1","0","1","1","0","1","0","1","5","2","1","1","2","1","1","2","1","5","1","634716408718032896","刘","591","","","","","","","","","","","","","","","","","","","","","","","","","","","","","","feedback_test","","","","","","","","","","","",""
"911","","f","psychophysics","99","316216","0.0-7.0-0.0-1.0-0.0-0.45","4","4","4","4","4","4","4","4","4","4","5","5","5","5","5","5","5","5","5","5","1","1","1","1","1","1","1","1","1","1","0","1","1","0","0","0","1","0","1","1","0","1","0","1","5","2","1","1","2","1","1","2","1","5","1","634716408718032896","刘","591","","","","nonmatch","","","","","","","","","","","","","","key","f","16.653982300884646","768","428","j","false","match","img/diamond.png","菱形","菱形","ALT1_1","prac_ALT1_1","","","","","","","","","","","",""
"null","<span style='color:red; font-size: 70px;'>错误! </span>","null","html-keyboard-response","100","316718","0.0-7.0-0.0-1.0-0.0-1.45","4","4","4","4","4","4","4","4","4","4","5","5","5","5","5","5","5","5","5","5","1","1","1","1","1","1","1","1","1","1","0","1","1","0","0","0","1","0","1","1","0","1","0","1","5","2","1","1","2","1","1","2","1","5","1","634716408718032896","刘","591","","","","","","","","","","","","","","","","","","","","","","","","","","","","","","feedback_test","","","","","","","","","","","",""
"584","","f","psychophysics","101","318303","0.0-7.0-0.0-1.0-0.0-0.46","4","4","4","4","4","4","4","4","4","4","5","5","5","5","5","5","5","5","5","5","1","1","1","1","1","1","1","1","1","1","0","1","1","0","0","0","1","0","1","1","0","1","0","1","5","2","1","1","2","1","1","2","1","5","1","634716408718032896","刘","591","","","","nonmatch","","","","","","","","","","","","","","key","f","16.654255319148938","768","428","f","true","nonmatch","img/diamond.png","圆形","菱形","ALT1_1","prac_ALT1_1","","","","","","","","","","","",""
"null","<span style='color:GreenYellow; font-size: 70px;'>正确! </span>","null","html-keyboard-response","102","318805","0.0-7.0-0.0-1.0-0.0-1.46","4","4","4","4","4","4","4","4","4","4","5","5","5","5","5","5","5","5","5","5","1","1","1","1","1","1","1","1","1","1","0","1","1","0","0","0","1","0","1","1","0","1","0","1","5","2","1","1","2","1","1","2","1","5","1","634716408718032896","刘","591","","","","","","","","","","","","","","","","","","","","","","","","","","","","","","feedback_test","","","","","","","","","","","",""
"629","","f","psychophysics","103","320435","0.0-7.0-0.0-1.0-0.0-0.47","4","4","4","4","4","4","4","4","4","4","5","5","5","5","5","5","5","5","5","5","1","1","1","1","1","1","1","1","1","1","0","1","1","0","0","0","1","0","1","1","0","1","0","1","5","2","1","1","2","1","1","2","1","5","1","634716408718032896","刘","591","","","","nonmatch","","","","","","","","","","","","","","key","f","16.649484536082475","768","428","f","true","nonmatch","img/pentagon.png","圆形","五边","ALT1_1","prac_ALT1_1","","","","","","","","","","","",""
"null","<span style='color:GreenYellow; font-size: 70px;'>正确! </span>","null","html-keyboard-response","104","320936","0.0-7.0-0.0-1.0-0.0-1.47","4","4","4","4","4","4","4","4","4","4","5","5","5","5","5","5","5","5","5","5","1","1","1","1","1","1","1","1","1","1","0","1","1","0","0","0","1","0","1","1","0","1","0","1","5","2","1","1","2","1","1","2","1","5","1","634716408718032896","刘","591","","","","","","","","","","","","","","","","","","","","","","","","","","","","","","feedback_test","","","","","","","","","","","",""
"1249","<style>.context{color:white; font-size: 35px; line-height:40px}</style>                            <div><p class='context'>您正确回答了94% 的试次。</p><p class='context'>您的平均反应时为634毫秒。</p><p class='context'>恭喜您完成练习。按空格键进入正式实验。</p><p class='footer' style='font-size: 35px; line-height:40px;'>请在进入正式实验之前将您的<span style='color: lightgreen;'>食指</span>放在电脑键盘的相应键位上进行按键。</p>"," ","html-keyboard-response","105","322186","0.0-7.0-0.0-2.0","4","4","4","4","4","4","4","4","4","4","5","5","5","5","5","5","5","5","5","5","1","1","1","1","1","1","1","1","1","1","0","1","1","0","0","0","1","0","1","1","0","1","0","1","5","2","1","1","2","1","1","2","1","5","1","634716408718032896","刘","591","","","","","","","","","","","","","","","","","","","","","","","","","","","","","","","","","","","","","","","","","",""
"982","
    <p style='color: white; font-size: 22px'>请您将手指放在按键上，准备进入正式的匹配任务。</p>
    <p> <div style = ""color: green""><按空格键进入下一阶段的匹配任务></div></p>
    "," ","html-keyboard-response","106","323169","0.0-7.0-0.0-3.0","4","4","4","4","4","4","4","4","4","4","5","5","5","5","5","5","5","5","5","5","1","1","1","1","1","1","1","1","1","1","0","1","1","0","0","0","1","0","1","1","0","1","0","1","5","2","1","1","2","1","1","2","1","5","1","634716408718032896","刘","591","","","","","","","","","","","","","","","","","","","","","","","","","","","","","","","","","","","","","","","","","",""
"607","","j","psychophysics","107","324780","0.0-7.0-0.0-4.0-0.0-0.0","4","4","4","4","4","4","4","4","4","4","5","5","5","5","5","5","5","5","5","5","1","1","1","1","1","1","1","1","1","1","0","1","1","0","0","0","1","0","1","1","0","1","0","1","5","2","1","1","2","1","1","2","1","5","1","634716408718032896","刘","591","","","","match","","","","","","","","","","","","","","key","j","16.652083333333696","768","428","j","true","match","img/square.png","方形","方形","ALT1","formal_ALT1_1","","","","","","","","","","","",""
"null","<span style='color:GreenYellow; font-size: 70px;'>正确! </span>","null","html-keyboard-response","108","325281","0.0-7.0-0.0-4.0-0.0-1.0","4","4","4","4","4","4","4","4","4","4","5","5","5","5","5","5","5","5","5","5","1","1","1","1","1","1","1","1","1","1","0","1","1","0","0","0","1","0","1","1","0","1","0","1","5","2","1","1","2","1","1","2","1","5","1","634716408718032896","刘","591","","","","","","","","","","","","","","","","","","","","","","","","","","","","","","feedback_test","","","","","","","","","","","",""
"725","","f","psychophysics","109","327008","0.0-7.0-0.0-4.0-0.0-0.1","4","4","4","4","4","4","4","4","4","4","5","5","5","5","5","5","5","5","5","5","1","1","1","1","1","1","1","1","1","1","0","1","1","0","0","0","1","0","1","1","0","1","0","1","5","2","1","1","2","1","1","2","1","5","1","634716408718032896","刘","591","","","","nonmatch","","","","","","","","","","","","","","key","f","16.65145631067995","768","428","j","false","match","img/diamond.png","菱形","菱形","ALT1","formal_ALT1_1","","","","","","","","","","","",""
"null","<span style='color:red; font-size: 70px;'>错误! </span>","null","html-keyboard-response","110","327509","0.0-7.0-0.0-4.0-0.0-1.1","4","4","4","4","4","4","4","4","4","4","5","5","5","5","5","5","5","5","5","5","1","1","1","1","1","1","1","1","1","1","0","1","1","0","0","0","1","0","1","1","0","1","0","1","5","2","1","1","2","1","1","2","1","5","1","634716408718032896","刘","591","","","","","","","","","","","","","","","","","","","","","","","","","","","","","","feedback_test","","","","","","","","","","","",""
"577","","j","psychophysics","111","329088","0.0-7.0-0.0-4.0-0.0-0.2","4","4","4","4","4","4","4","4","4","4","5","5","5","5","5","5","5","5","5","5","1","1","1","1","1","1","1","1","1","1","0","1","1","0","0","0","1","0","1","1","0","1","0","1","5","2","1","1","2","1","1","2","1","5","1","634716408718032896","刘","591","","","","match","","","","","","","","","","","","","","key","j","16.653763440860715","768","428","j","true","match","img/square.png","方形","方形","ALT1","formal_ALT1_1","","","","","","","","","","","",""
"null","<span style='color:GreenYellow; font-size: 70px;'>正确! </span>","null","html-keyboard-response","112","329590","0.0-7.0-0.0-4.0-0.0-1.2","4","4","4","4","4","4","4","4","4","4","5","5","5","5","5","5","5","5","5","5","1","1","1","1","1","1","1","1","1","1","0","1","1","0","0","0","1","0","1","1","0","1","0","1","5","2","1","1","2","1","1","2","1","5","1","634716408718032896","刘","591","","","","","","","","","","","","","","","","","","","","","","","","","","","","","","feedback_test","","","","","","","","","","","",""
"595","","f","psychophysics","113","331187","0.0-7.0-0.0-4.0-0.0-0.3","4","4","4","4","4","4","4","4","4","4","5","5","5","5","5","5","5","5","5","5","1","1","1","1","1","1","1","1","1","1","0","1","1","0","0","0","1","0","1","1","0","1","0","1","5","2","1","1","2","1","1","2","1","5","1","634716408718032896","刘","591","","","","nonmatch","","","","","","","","","","","","","","key","f","16.651578947368666","768","428","f","true","nonmatch","img/diamond.png","方形","菱形","ALT1","formal_ALT1_1","","","","","","","","","","","",""
"null","<span style='color:GreenYellow; font-size: 70px;'>正确! </span>","null","html-keyboard-response","114","331689","0.0-7.0-0.0-4.0-0.0-1.3","4","4","4","4","4","4","4","4","4","4","5","5","5","5","5","5","5","5","5","5","1","1","1","1","1","1","1","1","1","1","0","1","1","0","0","0","1","0","1","1","0","1","0","1","5","2","1","1","2","1","1","2","1","5","1","634716408718032896","刘","591","","","","","","","","","","","","","","","","","","","","","","","","","","","","","","feedback_test","","","","","","","","","","","",""
"585","","f","psychophysics","115","333277","0.0-7.0-0.0-4.0-0.0-0.4","4","4","4","4","4","4","4","4","4","4","5","5","5","5","5","5","5","5","5","5","1","1","1","1","1","1","1","1","1","1","0","1","1","0","0","0","1","0","1","1","0","1","0","1","5","2","1","1","2","1","1","2","1","5","1","634716408718032896","刘","591","","","","nonmatch","","","","","","","","","","","","","","key","f","16.652127659574344","768","428","f","true","nonmatch","img/circle.png","方形","圆形","ALT1","formal_ALT1_1","","","","","","","","","","","",""
"null","<span style='color:GreenYellow; font-size: 70px;'>正确! </span>","null","html-keyboard-response","116","333778","0.0-7.0-0.0-4.0-0.0-1.4","4","4","4","4","4","4","4","4","4","4","5","5","5","5","5","5","5","5","5","5","1","1","1","1","1","1","1","1","1","1","0","1","1","0","0","0","1","0","1","1","0","1","0","1","5","2","1","1","2","1","1","2","1","5","1","634716408718032896","刘","591","","","","","","","","","","","","","","","","","","","","","","","","","","","","","","feedback_test","","","","","","","","","","","",""
"577","","j","psychophysics","117","335356","0.0-7.0-0.0-4.0-0.0-0.5","4","4","4","4","4","4","4","4","4","4","5","5","5","5","5","5","5","5","5","5","1","1","1","1","1","1","1","1","1","1","0","1","1","0","0","0","1","0","1","1","0","1","0","1","5","2","1","1","2","1","1","2","1","5","1","634716408718032896","刘","591","","","","match","","","","","","","","","","","","","","key","j","16.652127659574344","768","428","j","true","match","img/square.png","方形","方形","ALT1","formal_ALT1_1","","","","","","","","","","","",""
"null","<span style='color:GreenYellow; font-size: 70px;'>正确! </span>","null","html-keyboard-response","118","335858","0.0-7.0-0.0-4.0-0.0-1.5","4","4","4","4","4","4","4","4","4","4","5","5","5","5","5","5","5","5","5","5","1","1","1","1","1","1","1","1","1","1","0","1","1","0","0","0","1","0","1","1","0","1","0","1","5","2","1","1","2","1","1","2","1","5","1","634716408718032896","刘","591","","","","","","","","","","","","","","","","","","","","","","","","","","","","","","feedback_test","","","","","","","","","","","",""
"767","","j","psychophysics","119","337625","0.0-7.0-0.0-4.0-0.0-0.6","4","4","4","4","4","4","4","4","4","4","5","5","5","5","5","5","5","5","5","5","1","1","1","1","1","1","1","1","1","1","0","1","1","0","0","0","1","0","1","1","0","1","0","1","5","2","1","1","2","1","1","2","1","5","1","634716408718032896","刘","591","","","","match","","","","","","","","","","","","","","key","j","16.645714285714174","768","428","j","true","match","img/diamond.png","菱形","菱形","ALT1","formal_ALT1_1","","","","","","","","","","","",""
"null","<span style='color:GreenYellow; font-size: 70px;'>正确! </span>","null","html-keyboard-response","120","338127","0.0-7.0-0.0-4.0-0.0-1.6","4","4","4","4","4","4","4","4","4","4","5","5","5","5","5","5","5","5","5","5","1","1","1","1","1","1","1","1","1","1","0","1","1","0","0","0","1","0","1","1","0","1","0","1","5","2","1","1","2","1","1","2","1","5","1","634716408718032896","刘","591","","","","","","","","","","","","","","","","","","","","","","","","","","","","","","feedback_test","","","","","","","","","","","",""
"581","","j","psychophysics","121","339710","0.0-7.0-0.0-4.0-0.0-0.7","4","4","4","4","4","4","4","4","4","4","5","5","5","5","5","5","5","5","5","5","1","1","1","1","1","1","1","1","1","1","0","1","1","0","0","0","1","0","1","1","0","1","0","1","5","2","1","1","2","1","1","2","1","5","1","634716408718032896","刘","591","","","","match","","","","","","","","","","","","","","key","j","16.654255319148938","768","428","j","true","match","img/pentagon.png","五边","五边","ALT1","formal_ALT1_1","","","","","","","","","","","",""
"null","<span style='color:GreenYellow; font-size: 70px;'>正确! </span>","null","html-keyboard-response","122","340211","0.0-7.0-0.0-4.0-0.0-1.7","4","4","4","4","4","4","4","4","4","4","5","5","5","5","5","5","5","5","5","5","1","1","1","1","1","1","1","1","1","1","0","1","1","0","0","0","1","0","1","1","0","1","0","1","5","2","1","1","2","1","1","2","1","5","1","634716408718032896","刘","591","","","","","","","","","","","","","","","","","","","","","","","","","","","","","","feedback_test","","","","","","","","","","","",""
"742","","f","psychophysics","123","341954","0.0-7.0-0.0-4.0-0.0-0.8","4","4","4","4","4","4","4","4","4","4","5","5","5","5","5","5","5","5","5","5","1","1","1","1","1","1","1","1","1","1","0","1","1","0","0","0","1","0","1","1","0","1","0","1","5","2","1","1","2","1","1","2","1","5","1","634716408718032896","刘","591","","","","nonmatch","","","","","","","","","","","","","","key","f","16.652427184465566","768","428","f","true","nonmatch","img/square.png","菱形","方形","ALT1","formal_ALT1_1","","","","","","","","","","","",""
"null","<span style='color:GreenYellow; font-size: 70px;'>正确! </span>","null","html-keyboard-response","124","342455","0.0-7.0-0.0-4.0-0.0-1.8","4","4","4","4","4","4","4","4","4","4","5","5","5","5","5","5","5","5","5","5","1","1","1","1","1","1","1","1","1","1","0","1","1","0","0","0","1","0","1","1","0","1","0","1","5","2","1","1","2","1","1","2","1","5","1","634716408718032896","刘","591","","","","","","","","","","","","","","","","","","","","","","","","","","","","","","feedback_test","","","","","","","","","","","",""
"581","","f","psychophysics","125","344038","0.0-7.0-0.0-4.0-0.0-0.9","4","4","4","4","4","4","4","4","4","4","5","5","5","5","5","5","5","5","5","5","1","1","1","1","1","1","1","1","1","1","0","1","1","0","0","0","1","0","1","1","0","1","0","1","5","2","1","1","2","1","1","2","1","5","1","634716408718032896","刘","591","","","","nonmatch","","","","","","","","","","","","","","key","f","16.651063829787358","768","428","f","true","nonmatch","img/pentagon.png","菱形","五边","ALT1","formal_ALT1_1","","","","","","","","","","","",""
"null","<span style='color:GreenYellow; font-size: 70px;'>正确! </span>","null","html-keyboard-response","126","344540","0.0-7.0-0.0-4.0-0.0-1.9","4","4","4","4","4","4","4","4","4","4","5","5","5","5","5","5","5","5","5","5","1","1","1","1","1","1","1","1","1","1","0","1","1","0","0","0","1","0","1","1","0","1","0","1","5","2","1","1","2","1","1","2","1","5","1","634716408718032896","刘","591","","","","","","","","","","","","","","","","","","","","","","","","","","","","","","feedback_test","","","","","","","","","","","",""
"612","","f","psychophysics","127","346153","0.0-7.0-0.0-4.0-0.0-0.10","4","4","4","4","4","4","4","4","4","4","5","5","5","5","5","5","5","5","5","5","1","1","1","1","1","1","1","1","1","1","0","1","1","0","0","0","1","0","1","1","0","1","0","1","5","2","1","1","2","1","1","2","1","5","1","634716408718032896","刘","591","","","","nonmatch","","","","","","","","","","","","","","key","f","16.651578947368055","768","428","f","true","nonmatch","img/circle.png","菱形","圆形","ALT1","formal_ALT1_1","","","","","","","","","","","",""
"null","<span style='color:GreenYellow; font-size: 70px;'>正确! </span>","null","html-keyboard-response","128","346655","0.0-7.0-0.0-4.0-0.0-1.10","4","4","4","4","4","4","4","4","4","4","5","5","5","5","5","5","5","5","5","5","1","1","1","1","1","1","1","1","1","1","0","1","1","0","0","0","1","0","1","1","0","1","0","1","5","2","1","1","2","1","1","2","1","5","1","634716408718032896","刘","591","","","","","","","","","","","","","","","","","","","","","","","","","","","","","","feedback_test","","","","","","","","","","","",""
"801","","j","psychophysics","129","348457","0.0-7.0-0.0-4.0-0.0-0.11","4","4","4","4","4","4","4","4","4","4","5","5","5","5","5","5","5","5","5","5","1","1","1","1","1","1","1","1","1","1","0","1","1","0","0","0","1","0","1","1","0","1","0","1","5","2","1","1","2","1","1","2","1","5","1","634716408718032896","刘","591","","","","match","","","","","","","","","","","","","","key","j","16.65233644859802","768","428","j","true","match","img/diamond.png","菱形","菱形","ALT1","formal_ALT1_1","","","","","","","","","","","",""
"null","<span style='color:GreenYellow; font-size: 70px;'>正确! </span>","null","html-keyboard-response","130","348958","0.0-7.0-0.0-4.0-0.0-1.11","4","4","4","4","4","4","4","4","4","4","5","5","5","5","5","5","5","5","5","5","1","1","1","1","1","1","1","1","1","1","0","1","1","0","0","0","1","0","1","1","0","1","0","1","5","2","1","1","2","1","1","2","1","5","1","634716408718032896","刘","591","","","","","","","","","","","","","","","","","","","","","","","","","","","","","","feedback_test","","","","","","","","","","","",""
"542","","f","psychophysics","131","350501","0.0-7.0-0.0-4.0-0.0-0.12","4","4","4","4","4","4","4","4","4","4","5","5","5","5","5","5","5","5","5","5","1","1","1","1","1","1","1","1","1","1","0","1","1","0","0","0","1","0","1","1","0","1","0","1","5","2","1","1","2","1","1","2","1","5","1","634716408718032896","刘","591","","","","nonmatch","","","","","","","","","","","","","","key","f","16.649999999999874","768","428","f","true","nonmatch","img/square.png","圆形","方形","ALT1","formal_ALT1_1","","","","","","","","","","","",""
"null","<span style='color:GreenYellow; font-size: 70px;'>正确! </span>","null","html-keyboard-response","132","351002","0.0-7.0-0.0-4.0-0.0-1.12","4","4","4","4","4","4","4","4","4","4","5","5","5","5","5","5","5","5","5","5","1","1","1","1","1","1","1","1","1","1","0","1","1","0","0","0","1","0","1","1","0","1","0","1","5","2","1","1","2","1","1","2","1","5","1","634716408718032896","刘","591","","","","","","","","","","","","","","","","","","","","","","","","","","","","","","feedback_test","","","","","","","","","","","",""
"596","","j","psychophysics","133","352601","0.0-7.0-0.0-4.0-0.0-0.13","4","4","4","4","4","4","4","4","4","4","5","5","5","5","5","5","5","5","5","5","1","1","1","1","1","1","1","1","1","1","0","1","1","0","0","0","1","0","1","1","0","1","0","1","5","2","1","1","2","1","1","2","1","5","1","634716408718032896","刘","591","","","","match","","","","","","","","","","","","","","key","j","16.654736842105386","768","428","j","true","match","img/circle.png","圆形","圆形","ALT1","formal_ALT1_1","","","","","","","","","","","",""
"null","<span style='color:GreenYellow; font-size: 70px;'>正确! </span>","null","html-keyboard-response","134","353102","0.0-7.0-0.0-4.0-0.0-1.13","4","4","4","4","4","4","4","4","4","4","5","5","5","5","5","5","5","5","5","5","1","1","1","1","1","1","1","1","1","1","0","1","1","0","0","0","1","0","1","1","0","1","0","1","5","2","1","1","2","1","1","2","1","5","1","634716408718032896","刘","591","","","","","","","","","","","","","","","","","","","","","","","","","","","","","","feedback_test","","","","","","","","","","","",""
"627","","j","psychophysics","135","354730","0.0-7.0-0.0-4.0-0.0-0.14","4","4","4","4","4","4","4","4","4","4","5","5","5","5","5","5","5","5","5","5","1","1","1","1","1","1","1","1","1","1","0","1","1","0","0","0","1","0","1","1","0","1","0","1","5","2","1","1","2","1","1","2","1","5","1","634716408718032896","刘","591","","","","match","","","","","","","","","","","","","","key","j","16.651041666666668","768","428","j","true","match","img/pentagon.png","五边","五边","ALT1","formal_ALT1_1","","","","","","","","","","","",""
"null","<span style='color:GreenYellow; font-size: 70px;'>正确! </span>","null","html-keyboard-response","136","355232","0.0-7.0-0.0-4.0-0.0-1.14","4","4","4","4","4","4","4","4","4","4","5","5","5","5","5","5","5","5","5","5","1","1","1","1","1","1","1","1","1","1","0","1","1","0","0","0","1","0","1","1","0","1","0","1","5","2","1","1","2","1","1","2","1","5","1","634716408718032896","刘","591","","","","","","","","","","","","","","","","","","","","","","","","","","","","","","feedback_test","","","","","","","","","","","",""
"561","","f","psychophysics","137","356795","0.0-7.0-0.0-4.0-0.0-0.15","4","4","4","4","4","4","4","4","4","4","5","5","5","5","5","5","5","5","5","5","1","1","1","1","1","1","1","1","1","1","0","1","1","0","0","0","1","0","1","1","0","1","0","1","5","2","1","1","2","1","1","2","1","5","1","634716408718032896","刘","591","","","","nonmatch","","","","","","","","","","","","","","key","f","16.649999999999874","768","428","f","true","nonmatch","img/pentagon.png","圆形","五边","ALT1","formal_ALT1_1","","","","","","","","","","","",""
"null","<span style='color:GreenYellow; font-size: 70px;'>正确! </span>","null","html-keyboard-response","138","357296","0.0-7.0-0.0-4.0-0.0-1.15","4","4","4","4","4","4","4","4","4","4","5","5","5","5","5","5","5","5","5","5","1","1","1","1","1","1","1","1","1","1","0","1","1","0","0","0","1","0","1","1","0","1","0","1","5","2","1","1","2","1","1","2","1","5","1","634716408718032896","刘","591","","","","","","","","","","","","","","","","","","","","","","","","","","","","","","feedback_test","","","","","","","","","","","",""
"632","","j","psychophysics","139","358929","0.0-7.0-0.0-4.0-0.0-0.16","4","4","4","4","4","4","4","4","4","4","5","5","5","5","5","5","5","5","5","5","1","1","1","1","1","1","1","1","1","1","0","1","1","0","0","0","1","0","1","1","0","1","0","1","5","2","1","1","2","1","1","2","1","5","1","634716408718032896","刘","591","","","","match","","","","","","","","","","","","","","key","j","16.65360824742292","768","428","j","true","match","img/circle.png","圆形","圆形","ALT1","formal_ALT1_1","","","","","","","","","","","",""
"null","<span style='color:GreenYellow; font-size: 70px;'>正确! </span>","null","html-keyboard-response","140","359430","0.0-7.0-0.0-4.0-0.0-1.16","4","4","4","4","4","4","4","4","4","4","5","5","5","5","5","5","5","5","5","5","1","1","1","1","1","1","1","1","1","1","0","1","1","0","0","0","1","0","1","1","0","1","0","1","5","2","1","1","2","1","1","2","1","5","1","634716408718032896","刘","591","","","","","","","","","","","","","","","","","","","","","","","","","","","","","","feedback_test","","","","","","","","","","","",""
"582","","f","psychophysics","141","361014","0.0-7.0-0.0-4.0-0.0-0.17","4","4","4","4","4","4","4","4","4","4","5","5","5","5","5","5","5","5","5","5","1","1","1","1","1","1","1","1","1","1","0","1","1","0","0","0","1","0","1","1","0","1","0","1","5","2","1","1","2","1","1","2","1","5","1","634716408718032896","刘","591","","","","nonmatch","","","","","","","","","","","","","","key","f","16.64787234042578","768","428","f","true","nonmatch","img/pentagon.png","方形","五边","ALT1","formal_ALT1_1","","","","","","","","","","","",""
"null","<span style='color:GreenYellow; font-size: 70px;'>正确! </span>","null","html-keyboard-response","142","361514","0.0-7.0-0.0-4.0-0.0-1.17","4","4","4","4","4","4","4","4","4","4","5","5","5","5","5","5","5","5","5","5","1","1","1","1","1","1","1","1","1","1","0","1","1","0","0","0","1","0","1","1","0","1","0","1","5","2","1","1","2","1","1","2","1","5","1","634716408718032896","刘","591","","","","","","","","","","","","","","","","","","","","","","","","","","","","","","feedback_test","","","","","","","","","","","",""
"597","","f","psychophysics","143","363113","0.0-7.0-0.0-4.0-0.0-0.18","4","4","4","4","4","4","4","4","4","4","5","5","5","5","5","5","5","5","5","5","1","1","1","1","1","1","1","1","1","1","0","1","1","0","0","0","1","0","1","1","0","1","0","1","5","2","1","1","2","1","1","2","1","5","1","634716408718032896","刘","591","","","","nonmatch","","","","","","","","","","","","","","key","f","16.646315789473316","768","428","f","true","nonmatch","img/square.png","五边","方形","ALT1","formal_ALT1_1","","","","","","","","","","","",""
"null","<span style='color:GreenYellow; font-size: 70px;'>正确! </span>","null","html-keyboard-response","144","363613","0.0-7.0-0.0-4.0-0.0-1.18","4","4","4","4","4","4","4","4","4","4","5","5","5","5","5","5","5","5","5","5","1","1","1","1","1","1","1","1","1","1","0","1","1","0","0","0","1","0","1","1","0","1","0","1","5","2","1","1","2","1","1","2","1","5","1","634716408718032896","刘","591","","","","","","","","","","","","","","","","","","","","","","","","","","","","","","feedback_test","","","","","","","","","","","",""
"598","","j","psychophysics","145","365213","0.0-7.0-0.0-4.0-0.0-0.19","4","4","4","4","4","4","4","4","4","4","5","5","5","5","5","5","5","5","5","5","1","1","1","1","1","1","1","1","1","1","0","1","1","0","0","0","1","0","1","1","0","1","0","1","5","2","1","1","2","1","1","2","1","5","1","634716408718032896","刘","591","","","","match","","","","","","","","","","","","","","key","j","16.652631578947368","768","428","j","true","match","img/pentagon.png","五边","五边","ALT1","formal_ALT1_1","","","","","","","","","","","",""
"null","<span style='color:GreenYellow; font-size: 70px;'>正确! </span>","null","html-keyboard-response","146","365714","0.0-7.0-0.0-4.0-0.0-1.19","4","4","4","4","4","4","4","4","4","4","5","5","5","5","5","5","5","5","5","5","1","1","1","1","1","1","1","1","1","1","0","1","1","0","0","0","1","0","1","1","0","1","0","1","5","2","1","1","2","1","1","2","1","5","1","634716408718032896","刘","591","","","","","","","","","","","","","","","","","","","","","","","","","","","","","","feedback_test","","","","","","","","","","","",""
"661","","f","psychophysics","147","367377","0.0-7.0-0.0-4.0-0.0-0.20","4","4","4","4","4","4","4","4","4","4","5","5","5","5","5","5","5","5","5","5","1","1","1","1","1","1","1","1","1","1","0","1","1","0","0","0","1","0","1","1","0","1","0","1","5","2","1","1","2","1","1","2","1","5","1","634716408718032896","刘","591","","","","nonmatch","","","","","","","","","","","","","","key","f","16.650505050504698","768","428","f","true","nonmatch","img/diamond.png","五边","菱形","ALT1","formal_ALT1_1","","","","","","","","","","","",""
"null","<span style='color:GreenYellow; font-size: 70px;'>正确! </span>","null","html-keyboard-response","148","367879","0.0-7.0-0.0-4.0-0.0-1.20","4","4","4","4","4","4","4","4","4","4","5","5","5","5","5","5","5","5","5","5","1","1","1","1","1","1","1","1","1","1","0","1","1","0","0","0","1","0","1","1","0","1","0","1","5","2","1","1","2","1","1","2","1","5","1","634716408718032896","刘","591","","","","","","","","","","","","","","","","","","","","","","","","","","","","","","feedback_test","","","","","","","","","","","",""
"610","","f","psychophysics","149","369491","0.0-7.0-0.0-4.0-0.0-0.21","4","4","4","4","4","4","4","4","4","4","5","5","5","5","5","5","5","5","5","5","1","1","1","1","1","1","1","1","1","1","0","1","1","0","0","0","1","0","1","1","0","1","0","1","5","2","1","1","2","1","1","2","1","5","1","634716408718032896","刘","591","","","","nonmatch","","","","","","","","","","","","","","key","f","16.652083333333092","768","428","f","true","nonmatch","img/diamond.png","圆形","菱形","ALT1","formal_ALT1_1","","","","","","","","","","","",""
"null","<span style='color:GreenYellow; font-size: 70px;'>正确! </span>","null","html-keyboard-response","150","369992","0.0-7.0-0.0-4.0-0.0-1.21","4","4","4","4","4","4","4","4","4","4","5","5","5","5","5","5","5","5","5","5","1","1","1","1","1","1","1","1","1","1","0","1","1","0","0","0","1","0","1","1","0","1","0","1","5","2","1","1","2","1","1","2","1","5","1","634716408718032896","刘","591","","","","","","","","","","","","","","","","","","","","","","","","","","","","","","feedback_test","","","","","","","","","","","",""
"607","","j","psychophysics","151","371601","0.0-7.0-0.0-4.0-0.0-0.22","4","4","4","4","4","4","4","4","4","4","5","5","5","5","5","5","5","5","5","5","1","1","1","1","1","1","1","1","1","1","0","1","1","0","0","0","1","0","1","1","0","1","0","1","5","2","1","1","2","1","1","2","1","5","1","634716408718032896","刘","591","","","","match","","","","","","","","","","","","","","key","j","16.649999999999636","768","428","j","true","match","img/circle.png","圆形","圆形","ALT1","formal_ALT1_1","","","","","","","","","","","",""
"null","<span style='color:GreenYellow; font-size: 70px;'>正确! </span>","null","html-keyboard-response","152","372102","0.0-7.0-0.0-4.0-0.0-1.22","4","4","4","4","4","4","4","4","4","4","5","5","5","5","5","5","5","5","5","5","1","1","1","1","1","1","1","1","1","1","0","1","1","0","0","0","1","0","1","1","0","1","0","1","5","2","1","1","2","1","1","2","1","5","1","634716408718032896","刘","591","","","","","","","","","","","","","","","","","","","","","","","","","","","","","","feedback_test","","","","","","","","","","","",""
"577","","f","psychophysics","153","373680","0.0-7.0-0.0-4.0-0.0-0.23","4","4","4","4","4","4","4","4","4","4","5","5","5","5","5","5","5","5","5","5","1","1","1","1","1","1","1","1","1","1","0","1","1","0","0","0","1","0","1","1","0","1","0","1","5","2","1","1","2","1","1","2","1","5","1","634716408718032896","刘","591","","","","nonmatch","","","","","","","","","","","","","","key","f","16.651063829787358","768","428","f","true","nonmatch","img/circle.png","五边","圆形","ALT1","formal_ALT1_1","","","","","","","","","","","",""
"null","<span style='color:GreenYellow; font-size: 70px;'>正确! </span>","null","html-keyboard-response","154","374181","0.0-7.0-0.0-4.0-0.0-1.23","4","4","4","4","4","4","4","4","4","4","5","5","5","5","5","5","5","5","5","5","1","1","1","1","1","1","1","1","1","1","0","1","1","0","0","0","1","0","1","1","0","1","0","1","5","2","1","1","2","1","1","2","1","5","1","634716408718032896","刘","591","","","","","","","","","","","","","","","","","","","","","","","","","","","","","","feedback_test","","","","","","","","","","","",""
"632","","j","psychophysics","155","375815","0.0-7.0-0.0-4.0-0.0-0.24","4","4","4","4","4","4","4","4","4","4","5","5","5","5","5","5","5","5","5","5","1","1","1","1","1","1","1","1","1","1","0","1","1","0","0","0","1","0","1","1","0","1","0","1","5","2","1","1","2","1","1","2","1","5","1","634716408718032896","刘","591","","","","match","","","","","","","","","","","","","","key","j","16.65360824742292","768","428","j","true","match","img/circle.png","圆形","圆形","ALT1","formal_ALT1_1","","","","","","","","","","","",""
"null","<span style='color:GreenYellow; font-size: 70px;'>正确! </span>","null","html-keyboard-response","156","376315","0.0-7.0-0.0-4.0-0.0-1.24","4","4","4","4","4","4","4","4","4","4","5","5","5","5","5","5","5","5","5","5","1","1","1","1","1","1","1","1","1","1","0","1","1","0","0","0","1","0","1","1","0","1","0","1","5","2","1","1","2","1","1","2","1","5","1","634716408718032896","刘","591","","","","","","","","","","","","","","","","","","","","","","","","","","","","","","feedback_test","","","","","","","","","","","",""
"668","","f","psychophysics","157","377983","0.0-7.0-0.0-4.0-0.0-0.25","4","4","4","4","4","4","4","4","4","4","5","5","5","5","5","5","5","5","5","5","1","1","1","1","1","1","1","1","1","1","0","1","1","0","0","0","1","0","1","1","0","1","0","1","5","2","1","1","2","1","1","2","1","5","1","634716408718032896","刘","591","","","","nonmatch","","","","","","","","","","","","","","key","f","16.646464646464647","768","428","f","true","nonmatch","img/square.png","菱形","方形","ALT1","formal_ALT1_1","","","","","","","","","","","",""
"null","<span style='color:GreenYellow; font-size: 70px;'>正确! </span>","null","html-keyboard-response","158","378484","0.0-7.0-0.0-4.0-0.0-1.25","4","4","4","4","4","4","4","4","4","4","5","5","5","5","5","5","5","5","5","5","1","1","1","1","1","1","1","1","1","1","0","1","1","0","0","0","1","0","1","1","0","1","0","1","5","2","1","1","2","1","1","2","1","5","1","634716408718032896","刘","591","","","","","","","","","","","","","","","","","","","","","","","","","","","","","","feedback_test","","","","","","","","","","","",""
"553","","f","psychophysics","159","380038","0.0-7.0-0.0-4.0-0.0-0.26","4","4","4","4","4","4","4","4","4","4","5","5","5","5","5","5","5","5","5","5","1","1","1","1","1","1","1","1","1","1","0","1","1","0","0","0","1","0","1","1","0","1","0","1","5","2","1","1","2","1","1","2","1","5","1","634716408718032896","刘","591","","","","nonmatch","","","","","","","","","","","","","","key","f","16.64456521739118","768","428","f","true","nonmatch","img/square.png","五边","方形","ALT1","formal_ALT1_1","","","","","","","","","","","",""
"null","<span style='color:GreenYellow; font-size: 70px;'>正确! </span>","null","html-keyboard-response","160","380539","0.0-7.0-0.0-4.0-0.0-1.26","4","4","4","4","4","4","4","4","4","4","5","5","5","5","5","5","5","5","5","5","1","1","1","1","1","1","1","1","1","1","0","1","1","0","0","0","1","0","1","1","0","1","0","1","5","2","1","1","2","1","1","2","1","5","1","634716408718032896","刘","591","","","","","","","","","","","","","","","","","","","","","","","","","","","","","","feedback_test","","","","","","","","","","","",""
"537","","f","psychophysics","161","382079","0.0-7.0-0.0-4.0-0.0-0.27","4","4","4","4","4","4","4","4","4","4","5","5","5","5","5","5","5","5","5","5","1","1","1","1","1","1","1","1","1","1","0","1","1","0","0","0","1","0","1","1","0","1","0","1","5","2","1","1","2","1","1","2","1","5","1","634716408718032896","刘","591","","","","nonmatch","","","","","","","","","","","","","","key","f","16.642857142857142","768","428","f","true","nonmatch","img/square.png","圆形","方形","ALT1","formal_ALT1_1","","","","","","","","","","","",""
"null","<span style='color:GreenYellow; font-size: 70px;'>正确! </span>","null","html-keyboard-response","162","382580","0.0-7.0-0.0-4.0-0.0-1.27","4","4","4","4","4","4","4","4","4","4","5","5","5","5","5","5","5","5","5","5","1","1","1","1","1","1","1","1","1","1","0","1","1","0","0","0","1","0","1","1","0","1","0","1","5","2","1","1","2","1","1","2","1","5","1","634716408718032896","刘","591","","","","","","","","","","","","","","","","","","","","","","","","","","","","","","feedback_test","","","","","","","","","","","",""
"800","","j","psychophysics","163","384382","0.0-7.0-0.0-4.0-0.0-0.28","4","4","4","4","4","4","4","4","4","4","5","5","5","5","5","5","5","5","5","5","1","1","1","1","1","1","1","1","1","1","0","1","1","0","0","0","1","0","1","1","0","1","0","1","5","2","1","1","2","1","1","2","1","5","1","634716408718032896","刘","591","","","","match","","","","","","","","","","","","","","key","j","16.657009345794282","768","428","j","true","match","img/diamond.png","菱形","菱形","ALT1","formal_ALT1_1","","","","","","","","","","","",""
"null","<span style='color:GreenYellow; font-size: 70px;'>正确! </span>","null","html-keyboard-response","164","384883","0.0-7.0-0.0-4.0-0.0-1.28","4","4","4","4","4","4","4","4","4","4","5","5","5","5","5","5","5","5","5","5","1","1","1","1","1","1","1","1","1","1","0","1","1","0","0","0","1","0","1","1","0","1","0","1","5","2","1","1","2","1","1","2","1","5","1","634716408718032896","刘","591","","","","","","","","","","","","","","","","","","","","","","","","","","","","","","feedback_test","","","","","","","","","","","",""
"521","","j","psychophysics","165","386407","0.0-7.0-0.0-4.0-0.0-0.29","4","4","4","4","4","4","4","4","4","4","5","5","5","5","5","5","5","5","5","5","1","1","1","1","1","1","1","1","1","1","0","1","1","0","0","0","1","0","1","1","0","1","0","1","5","2","1","1","2","1","1","2","1","5","1","634716408718032896","刘","591","","","","match","","","","","","","","","","","","","","key","j","16.651648351648223","768","428","j","true","match","img/circle.png","圆形","圆形","ALT1","formal_ALT1_1","","","","","","","","","","","",""
"null","<span style='color:GreenYellow; font-size: 70px;'>正确! </span>","null","html-keyboard-response","166","386908","0.0-7.0-0.0-4.0-0.0-1.29","4","4","4","4","4","4","4","4","4","4","5","5","5","5","5","5","5","5","5","5","1","1","1","1","1","1","1","1","1","1","0","1","1","0","0","0","1","0","1","1","0","1","0","1","5","2","1","1","2","1","1","2","1","5","1","634716408718032896","刘","591","","","","","","","","","","","","","","","","","","","","","","","","","","","","","","feedback_test","","","","","","","","","","","",""
"603","","f","psychophysics","167","388512","0.0-7.0-0.0-4.0-0.0-0.30","4","4","4","4","4","4","4","4","4","4","5","5","5","5","5","5","5","5","5","5","1","1","1","1","1","1","1","1","1","1","0","1","1","0","0","0","1","0","1","1","0","1","0","1","5","2","1","1","2","1","1","2","1","5","1","634716408718032896","刘","591","","","","nonmatch","","","","","","","","","","","","","","key","f","16.65684210526279","768","428","f","true","nonmatch","img/diamond.png","圆形","菱形","ALT1","formal_ALT1_1","","","","","","","","","","","",""
"null","<span style='color:GreenYellow; font-size: 70px;'>正确! </span>","null","html-keyboard-response","168","389013","0.0-7.0-0.0-4.0-0.0-1.30","4","4","4","4","4","4","4","4","4","4","5","5","5","5","5","5","5","5","5","5","1","1","1","1","1","1","1","1","1","1","0","1","1","0","0","0","1","0","1","1","0","1","0","1","5","2","1","1","2","1","1","2","1","5","1","634716408718032896","刘","591","","","","","","","","","","","","","","","","","","","","","","","","","","","","","","feedback_test","","","","","","","","","","","",""
"561","","f","psychophysics","169","390576","0.0-7.0-0.0-4.0-0.0-0.31","4","4","4","4","4","4","4","4","4","4","5","5","5","5","5","5","5","5","5","5","1","1","1","1","1","1","1","1","1","1","0","1","1","0","0","0","1","0","1","1","0","1","0","1","5","2","1","1","2","1","1","2","1","5","1","634716408718032896","刘","591","","","","nonmatch","","","","","","","","","","","","","","key","f","16.65376344086009","768","428","f","true","nonmatch","img/diamond.png","五边","菱形","ALT1","formal_ALT1_1","","","","","","","","","","","",""
"null","<span style='color:GreenYellow; font-size: 70px;'>正确! </span>","null","html-keyboard-response","170","391076","0.0-7.0-0.0-4.0-0.0-1.31","4","4","4","4","4","4","4","4","4","4","5","5","5","5","5","5","5","5","5","5","1","1","1","1","1","1","1","1","1","1","0","1","1","0","0","0","1","0","1","1","0","1","0","1","5","2","1","1","2","1","1","2","1","5","1","634716408718032896","刘","591","","","","","","","","","","","","","","","","","","","","","","","","","","","","","","feedback_test","","","","","","","","","","","",""
"677","","f","psychophysics","171","392755","0.0-7.0-0.0-4.0-0.0-0.32","4","4","4","4","4","4","4","4","4","4","5","5","5","5","5","5","5","5","5","5","1","1","1","1","1","1","1","1","1","1","0","1","1","0","0","0","1","0","1","1","0","1","0","1","5","2","1","1","2","1","1","2","1","5","1","634716408718032896","刘","591","","","","nonmatch","","","","","","","","","","","","","","key","f","16.649000000000232","768","428","f","true","nonmatch","img/circle.png","菱形","圆形","ALT1","formal_ALT1_1","","","","","","","","","","","",""
"null","<span style='color:GreenYellow; font-size: 70px;'>正确! </span>","null","html-keyboard-response","172","393255","0.0-7.0-0.0-4.0-0.0-1.32","4","4","4","4","4","4","4","4","4","4","5","5","5","5","5","5","5","5","5","5","1","1","1","1","1","1","1","1","1","1","0","1","1","0","0","0","1","0","1","1","0","1","0","1","5","2","1","1","2","1","1","2","1","5","1","634716408718032896","刘","591","","","","","","","","","","","","","","","","","","","","","","","","","","","","","","feedback_test","","","","","","","","","","","",""
"604","","j","psychophysics","173","394860","0.0-7.0-0.0-4.0-0.0-0.33","4","4","4","4","4","4","4","4","4","4","5","5","5","5","5","5","5","5","5","5","1","1","1","1","1","1","1","1","1","1","0","1","1","0","0","0","1","0","1","1","0","1","0","1","5","2","1","1","2","1","1","2","1","5","1","634716408718032896","刘","591","","","","match","","","","","","","","","","","","","","key","j","16.65052631578935","768","428","j","true","match","img/pentagon.png","五边","五边","ALT1","formal_ALT1_1","","","","","","","","","","","",""
"null","<span style='color:GreenYellow; font-size: 70px;'>正确! </span>","null","html-keyboard-response","174","395362","0.0-7.0-0.0-4.0-0.0-1.33","4","4","4","4","4","4","4","4","4","4","5","5","5","5","5","5","5","5","5","5","1","1","1","1","1","1","1","1","1","1","0","1","1","0","0","0","1","0","1","1","0","1","0","1","5","2","1","1","2","1","1","2","1","5","1","634716408718032896","刘","591","","","","","","","","","","","","","","","","","","","","","","","","","","","","","","feedback_test","","","","","","","","","","","",""
"611","","f","psychophysics","175","396974","0.0-7.0-0.0-4.0-0.0-0.34","4","4","4","4","4","4","4","4","4","4","5","5","5","5","5","5","5","5","5","5","1","1","1","1","1","1","1","1","1","1","0","1","1","0","0","0","1","0","1","1","0","1","0","1","5","2","1","1","2","1","1","2","1","5","1","634716408718032896","刘","591","","","","nonmatch","","","","","","","","","","","","","","key","f","16.649473684210648","768","428","f","true","nonmatch","img/pentagon.png","方形","五边","ALT1","formal_ALT1_1","","","","","","","","","","","",""
"null","<span style='color:GreenYellow; font-size: 70px;'>正确! </span>","null","html-keyboard-response","176","397476","0.0-7.0-0.0-4.0-0.0-1.34","4","4","4","4","4","4","4","4","4","4","5","5","5","5","5","5","5","5","5","5","1","1","1","1","1","1","1","1","1","1","0","1","1","0","0","0","1","0","1","1","0","1","0","1","5","2","1","1","2","1","1","2","1","5","1","634716408718032896","刘","591","","","","","","","","","","","","","","","","","","","","","","","","","","","","","","feedback_test","","","","","","","","","","","",""
"657","","j","psychophysics","177","399133","0.0-7.0-0.0-4.0-0.0-0.35","4","4","4","4","4","4","4","4","4","4","5","5","5","5","5","5","5","5","5","5","1","1","1","1","1","1","1","1","1","1","0","1","1","0","0","0","1","0","1","1","0","1","0","1","5","2","1","1","2","1","1","2","1","5","1","634716408718032896","刘","591","","","","match","","","","","","","","","","","","","","key","j","16.651020408163145","768","428","j","true","match","img/circle.png","圆形","圆形","ALT1","formal_ALT1_1","","","","","","","","","","","",""
"null","<span style='color:GreenYellow; font-size: 70px;'>正确! </span>","null","html-keyboard-response","178","399634","0.0-7.0-0.0-4.0-0.0-1.35","4","4","4","4","4","4","4","4","4","4","5","5","5","5","5","5","5","5","5","5","1","1","1","1","1","1","1","1","1","1","0","1","1","0","0","0","1","0","1","1","0","1","0","1","5","2","1","1","2","1","1","2","1","5","1","634716408718032896","刘","591","","","","","","","","","","","","","","","","","","","","","","","","","","","","","","feedback_test","","","","","","","","","","","",""
"763","","f","psychophysics","179","401398","0.0-7.0-0.0-4.0-0.0-0.36","4","4","4","4","4","4","4","4","4","4","5","5","5","5","5","5","5","5","5","5","1","1","1","1","1","1","1","1","1","1","0","1","1","0","0","0","1","0","1","1","0","1","0","1","5","2","1","1","2","1","1","2","1","5","1","634716408718032896","刘","591","","","","nonmatch","","","","","","","","","","","","","","key","f","16.65047619047608","768","428","f","true","nonmatch","img/diamond.png","方形","菱形","ALT1","formal_ALT1_1","","","","","","","","","","","",""
"null","<span style='color:GreenYellow; font-size: 70px;'>正确! </span>","null","html-keyboard-response","180","401900","0.0-7.0-0.0-4.0-0.0-1.36","4","4","4","4","4","4","4","4","4","4","5","5","5","5","5","5","5","5","5","5","1","1","1","1","1","1","1","1","1","1","0","1","1","0","0","0","1","0","1","1","0","1","0","1","5","2","1","1","2","1","1","2","1","5","1","634716408718032896","刘","591","","","","","","","","","","","","","","","","","","","","","","","","","","","","","","feedback_test","","","","","","","","","","","",""
"600","","f","psychophysics","181","403502","0.0-7.0-0.0-4.0-0.0-0.37","4","4","4","4","4","4","4","4","4","4","5","5","5","5","5","5","5","5","5","5","1","1","1","1","1","1","1","1","1","1","0","1","1","0","0","0","1","0","1","1","0","1","0","1","5","2","1","1","2","1","1","2","1","5","1","634716408718032896","刘","591","","","","nonmatch","","","","","","","","","","","","","","key","f","16.651578947368055","768","428","f","true","nonmatch","img/pentagon.png","圆形","五边","ALT1","formal_ALT1_1","","","","","","","","","","","",""
