"rt","stimulus","response","trial_type","trial_index","time_elapsed","internal_node_id","ses_1","ses_2","ses_3","ses_4","ses_5","ses_6","ses_7","ses_8","ses_9","ses_10","coreself_1","coreself_2","coreself_3","coreself_4","coreself_5","coreself_6","coreself_7","coreself_8","coreself_9","coreself_10","SGPS_1","SGPS_2","SGPS_3","SGPS_4","SGPS_5","SGPS_6","SGPS_7","SGPS_8","SGPS_9","NPI1","NPI2","NPI3","NPI4","NPI5","NPI6","NPI7","NPI8","NPI9","NPI10","NPI11","NPI12","NPI13","NPI14","NPI15","hsns_1","hsns_2","hsns_3","hsns_4","hsns_5","trap1","hsns_6","hsns_7","hsns_8","hsns_9","hsns_10","subj_idx","friend_name","ParticipantID","value","success","user_agent","responses","item_order","radio_event_ids","radio_event_times","key_event_times","mouse_event_times","straightlining","zigzagging","honeypot","timeout","failed_images","failed_audio","failed_video","version_attrib2","version_target2","correct","IAT","screen_id","task_id","RT","condition","word","varname","summary","version_attrib","version_target","time_stamp","view_history","response_type","key_press","avg_frame_time","center_x","center_y","correct_response","identity","Image","question_order","correct_answer","trap1_item"
"1800","
   <p><div style = ""color: white;font-size:25px;"">您好，欢迎参加本次实验。</div> </p>
   <p><div style = ""color: white;font-size:25px;"">为充分保障您的权利，请确保您已经知晓并同意《参与实验同意书》以及《数据公开知情同意书》。</div></p>
   <p><div style = ""color: white;font-size:25px;"">如果您未见过上述内容，请咨询实验员。</div></p>
   <p><div style = ""color: white;font-size:25px;"">如果您选择继续实验，则表示您已经清楚两份知情同意书的内容并同意。</div></p>
   <p><div style = ""color: pink;font-size:30px;"">请确保您记得day0的实验编号，您将在本次实验输入该编号，若您忘记，请咨询实验员后作答。</div></p>
   <p><div style = ""color: lightblue;font-size:25px;"">请您尽可能认真地作答，我们将依据您在各问卷和按键任务中的作答质量发放报酬。</div></p>
   <p> <div style = ""color: green;font-size:25px;""><按空格键至下页></div> </p>
   "," ","html-keyboard-response","0","1808","0.0-0.0","3","4","4","4","3","3","3","3","4","4","4","4","3","4","4","4","4","4","5","4","2","2","2","1","2","2","2","2","1","1","0","1","1","0","0","0","1","0","1","1","0","1","0","1","4","2","2","3","2","1","3","3","1","2","1","802197026057101313","张","568","","","","","","","","","","","","","","","","","","","","","","","","","","","","","","","","","","","","","","","","","",""
"","","","call-function","1","1809","0.0-1.0-0.0","3","4","4","4","3","3","3","3","4","4","4","4","3","4","4","4","4","4","5","4","2","2","2","1","2","2","2","2","1","1","0","1","1","0","0","0","1","0","1","1","0","1","0","1","4","2","2","3","2","1","3","3","1","2","1","802197026057101313","张","568","","","","","","","","","","","","","","","","","","","","","","","","","","","","","","","","","","","","","","","","","",""
"29982","","{""friend_name"":""张"",""ParticipantID"":""568""}","survey-html-form","2","31269","0.0-1.0-1.0","3","4","4","4","3","3","3","3","4","4","4","4","3","4","4","4","4","4","5","4","2","2","2","1","2","2","2","2","1","1","0","1","1","0","0","0","1","0","1","1","0","1","0","1","4","2","2","3","2","1","3","3","1","2","1","802197026057101313","张","568","","","","","","","","","","","","","","","","","","","","","","","","","","","","","","","","","","","","","","","","","",""
"","","","fullscreen","3","32728","0.0-2.0","3","4","4","4","3","3","3","3","4","4","4","4","3","4","4","4","4","4","5","4","2","2","2","1","2","2","2","2","1","1","0","1","1","0","0","0","1","0","1","1","0","1","0","1","4","2","2","3","2","1","3","3","1","2","1","802197026057101313","张","568","","true","","","","","","","","","","","","","","","","","","","","","","","","","","","","","","","","","","","","","","","",""
"21593.525","","{""Q01"":""3"",""Q02"":""4"",""Q03"":""4"",""Q04"":""4"",""Q05"":""3"",""Q06"":""3"",""Q07"":""3"",""Q08"":""3"",""Q09"":""4"",""Q10"":""4""}","survey-template","4","54331","0.0-3.0","3","4","4","4","3","3","3","3","4","4","4","4","3","4","4","4","4","4","5","4","2","2","2","1","2","2","2","2","1","1","0","1","1","0","0","0","1","0","1","1","0","1","0","1","4","2","2","3","2","1","3","3","1","2","1","802197026057101313","张","568","","","","{""Q01"":""3"",""Q02"":""4"",""Q03"":""4"",""Q04"":""4"",""Q05"":""3"",""Q06"":""3"",""Q07"":""3"",""Q08"":""3"",""Q09"":""4"",""Q10"":""4""}","[0,1,2,3,4,5,6,7,8,9]","[""Q02"",""Q03"",""Q04"",""Q05"",""Q06"",""Q07"",""Q08"",""Q09"",""Q10"",""Q01""]","[3844.6849999999686,7224.429999999986,8348.369999999988,9652.38499999998,10653.719999999965,11748.584999999992,12948.83999999996,14451.955000000002,15188.839999999975,19508.90999999996]","[]","[3844.6849999999686,4740.674999999952,6397.889999999963,7224.429999999986,8348.369999999988,9652.38499999998,10653.719999999965,11748.584999999992,12948.83999999996,14451.955000000002,15188.839999999975,16083.904999999962,18716.384999999944,19508.90999999996,21589.564999999995]","0.3","0.6666666666666666","0","","","","","","","","","","","","","","","","","","","","","","","","","","","","","",""
"17073.914999999994","","{""Q01"":""4"",""Q02"":""4"",""Q03"":""3"",""Q04"":""4"",""Q05"":""4"",""Q06"":""4"",""Q07"":""4"",""Q08"":""4"",""Q09"":""5"",""Q10"":""4""}","survey-template","5","70776","0.0-4.0","3","4","4","4","3","3","3","3","4","4","4","4","3","4","4","4","4","4","5","4","2","2","2","1","2","2","2","2","1","1","0","1","1","0","0","0","1","0","1","1","0","1","0","1","4","2","2","3","2","1","3","3","1","2","1","802197026057101313","张","568","","","","{""Q01"":""4"",""Q02"":""4"",""Q03"":""3"",""Q04"":""4"",""Q05"":""4"",""Q06"":""4"",""Q07"":""4"",""Q08"":""4"",""Q09"":""5"",""Q10"":""4""}","[0,1,2,3,4,5,6,7,8,9]","[""Q01"",""Q02"",""Q03"",""Q04"",""Q05"",""Q06"",""Q07"",""Q08"",""Q09"",""Q10""]","[1865.3600000000079,3488.2400000000125,4800.835000000006,6032.460000000014,7734.8650000000125,9295.940000000024,10672.065000000031,12081.000000000015,14048.420000000013,15817.535000000018]","[]","[1865.3600000000079,3488.2400000000125,4800.835000000006,6032.460000000014,7734.8650000000125,9295.940000000024,10672.065000000031,12081.000000000015,14048.420000000013,15817.535000000018,17071.95000000001]","0.5","0.2222222222222222","0","","","","","","","","","","","","","","","","","","","","","","","","","","","","","",""
"","","","preload","6","70991","0.0-5.0","3","4","4","4","3","3","3","3","4","4","4","4","3","4","4","4","4","4","5","4","2","2","2","1","2","2","2","2","1","1","0","1","1","0","0","0","1","0","1","1","0","1","0","1","4","2","2","3","2","1","3","3","1","2","1","802197026057101313","张","568","","true","","","","","","","","","","","false","[]","[]","[]","","","","","","","","","","","","","","","","","","","","","","","","","",""
"10173","
    <h3>词语分类任务</h3>
    <p>在接下来的任务中，你需要对一系列词语进行分类。<p/>
    请先熟悉这些词语，这有利于你完成接下来的任务。</p>
    <table align=""center"" border=1 cellpadding=3 cellspacing=0>
    <tr> <th>类别</th> <th>词语</th> </tr>
    <tr> <td>&emsp;积极&emsp;</td> <td>&emsp;高尚、诚信、善良、君子、廉正、正直&emsp;</td> </tr>
    <tr> <td>&emsp;消极&emsp;</td> <td>&emsp;缺德、卑鄙、不孝、不仁、小人、黑心&emsp;</td> </tr>
    <tr> <td>&emsp;自我&emsp;</td> <td>&emsp;我、我的、自己、自己的、本人、本人的&emsp;</td> </tr>
    <tr> <td>&emsp;他人&emsp;</td> <td>&emsp;他、他的、别人、别人的、他人、他人的&emsp;</td> </tr>
    </table><br/>","0","html-button-response","7","81168","0.0-6.0-1.0-0.0","3","4","4","4","3","3","3","3","4","4","4","4","3","4","4","4","4","4","5","4","2","2","2","1","2","2","2","2","1","1","0","1","1","0","0","0","1","0","1","1","0","1","0","1","4","2","2","3","2","1","3","3","1","2","1","802197026057101313","张","568","","","","","","","","","","","","","","","","","2","1","","","","","","","","","","","","","","","","","","","","","","","",""
"4345","
    <div class=""tag-bottom""><p>
    —— 任务1：对“自我”词和“他人”词分类 ——<p/>
    不同词语会出现在屏幕中央，类别标签将始终显示在屏幕上方<p/>   
    <span style=""color:#FFD866""><b>请根据上方标签的提示，尽可能正确并且快速地做出按键反应</b></span><p/>
    当按键错误时屏幕中会出现<span style=""color:red""> X </span>，需要按另一个键纠正才能继续<br/><p/>
    请把双手食指分别放在键盘的“E”键和“I”键上<p/>
    按<空格键>开始
    </p></div>"," ","html-keyboard-response","8","85521","0.0-6.0-1.0-1.0","3","4","4","4","3","3","3","3","4","4","4","4","3","4","4","4","4","4","5","4","2","2","2","1","2","2","2","2","1","1","0","1","1","0","0","0","1","0","1","1","0","1","0","1","4","2","2","3","2","1","3","3","1","2","1","802197026057101313","张","568","","","","","","","","","","","","","","","","","","","","","","","","","","","","","","","","","","","","","","","","","",""
"null","","null","html-keyboard-response","9","85775","0.0-6.0-1.0-2.0-0.0","3","4","4","4","3","3","3","3","4","4","4","4","3","4","4","4","4","4","5","4","2","2","2","1","2","2","2","2","1","1","0","1","1","0","0","0","1","0","1","1","0","1","0","1","4","2","2","3","2","1","3","3","1","2","1","802197026057101313","张","568","","","","","","","","","","","","","","","","","","","","","","","","","","","","","","","","","","","","","","","","","",""
"1141","<p style=""color:rgb(150, 250, 100); font-size: 35px;"">他</p>","i","categorize-html","10","86925","0.0-6.0-1.0-2.0-1.0","3","4","4","4","3","3","3","3","4","4","4","4","3","4","4","4","4","4","5","4","2","2","2","1","2","2","2","2","1","1","0","1","1","0","0","0","1","0","1","1","0","1","0","1","4","2","2","3","2","1","3","3","1","2","1","802197026057101313","张","568","","","","","","","","","","","","","","","","","","","true","11","1","moral","1141","other","他","","","","","","","","","","","","","","","","",""
"null","","null","html-keyboard-response","11","87178","0.0-6.0-1.0-2.0-0.1","3","4","4","4","3","3","3","3","4","4","4","4","3","4","4","4","4","4","5","4","2","2","2","1","2","2","2","2","1","1","0","1","1","0","0","0","1","0","1","1","0","1","0","1","4","2","2","3","2","1","3","3","1","2","1","802197026057101313","张","568","","","","","","","","","","","","","","","","","","","","","","","","","","","","","","","","","","","","","","","","","",""
"686","<p style=""color:rgb(150, 250, 100); font-size: 35px;"">本人的</p>","e","categorize-html","12","87870","0.0-6.0-1.0-2.0-1.1","3","4","4","4","3","3","3","3","4","4","4","4","3","4","4","4","4","4","5","4","2","2","2","1","2","2","2","2","1","1","0","1","1","0","0","0","1","0","1","1","0","1","0","1","4","2","2","3","2","1","3","3","1","2","1","802197026057101313","张","568","","","","","","","","","","","","","","","","","","","true","11","1","moral","686","self","本人的","","","","","","","","","","","","","","","","",""
"null","","null","html-keyboard-response","13","88123","0.0-6.0-1.0-2.0-0.2","3","4","4","4","3","3","3","3","4","4","4","4","3","4","4","4","4","4","5","4","2","2","2","1","2","2","2","2","1","1","0","1","1","0","0","0","1","0","1","1","0","1","0","1","4","2","2","3","2","1","3","3","1","2","1","802197026057101313","张","568","","","","","","","","","","","","","","","","","","","","","","","","","","","","","","","","","","","","","","","","","",""
"519","<p style=""color:rgb(150, 250, 100); font-size: 35px;"">他的</p>","i","categorize-html","14","88654","0.0-6.0-1.0-2.0-1.2","3","4","4","4","3","3","3","3","4","4","4","4","3","4","4","4","4","4","5","4","2","2","2","1","2","2","2","2","1","1","0","1","1","0","0","0","1","0","1","1","0","1","0","1","4","2","2","3","2","1","3","3","1","2","1","802197026057101313","张","568","","","","","","","","","","","","","","","","","","","true","11","1","moral","519","other","他的","","","","","","","","","","","","","","","","",""
"null","","null","html-keyboard-response","15","88912","0.0-6.0-1.0-2.0-0.3","3","4","4","4","3","3","3","3","4","4","4","4","3","4","4","4","4","4","5","4","2","2","2","1","2","2","2","2","1","1","0","1","1","0","0","0","1","0","1","1","0","1","0","1","4","2","2","3","2","1","3","3","1","2","1","802197026057101313","张","568","","","","","","","","","","","","","","","","","","","","","","","","","","","","","","","","","","","","","","","","","",""
"593","<p style=""color:rgb(150, 250, 100); font-size: 35px;"">自己</p>","e","categorize-html","16","89510","0.0-6.0-1.0-2.0-1.3","3","4","4","4","3","3","3","3","4","4","4","4","3","4","4","4","4","4","5","4","2","2","2","1","2","2","2","2","1","1","0","1","1","0","0","0","1","0","1","1","0","1","0","1","4","2","2","3","2","1","3","3","1","2","1","802197026057101313","张","568","","","","","","","","","","","","","","","","","","","true","11","1","moral","593","self","自己","","","","","","","","","","","","","","","","",""
"null","","null","html-keyboard-response","17","89762","0.0-6.0-1.0-2.0-0.4","3","4","4","4","3","3","3","3","4","4","4","4","3","4","4","4","4","4","5","4","2","2","2","1","2","2","2","2","1","1","0","1","1","0","0","0","1","0","1","1","0","1","0","1","4","2","2","3","2","1","3","3","1","2","1","802197026057101313","张","568","","","","","","","","","","","","","","","","","","","","","","","","","","","","","","","","","","","","","","","","","",""
"941","<p style=""color:rgb(150, 250, 100); font-size: 35px;"">自己的</p>","e","categorize-html","18","90708","0.0-6.0-1.0-2.0-1.4","3","4","4","4","3","3","3","3","4","4","4","4","3","4","4","4","4","4","5","4","2","2","2","1","2","2","2","2","1","1","0","1","1","0","0","0","1","0","1","1","0","1","0","1","4","2","2","3","2","1","3","3","1","2","1","802197026057101313","张","568","","","","","","","","","","","","","","","","","","","true","11","1","moral","941","self","自己的","","","","","","","","","","","","","","","","",""
"null","","null","html-keyboard-response","19","90960","0.0-6.0-1.0-2.0-0.5","3","4","4","4","3","3","3","3","4","4","4","4","3","4","4","4","4","4","5","4","2","2","2","1","2","2","2","2","1","1","0","1","1","0","0","0","1","0","1","1","0","1","0","1","4","2","2","3","2","1","3","3","1","2","1","802197026057101313","张","568","","","","","","","","","","","","","","","","","","","","","","","","","","","","","","","","","","","","","","","","","",""
"712","<p style=""color:rgb(150, 250, 100); font-size: 35px;"">本人</p>","e","categorize-html","20","91676","0.0-6.0-1.0-2.0-1.5","3","4","4","4","3","3","3","3","4","4","4","4","3","4","4","4","4","4","5","4","2","2","2","1","2","2","2","2","1","1","0","1","1","0","0","0","1","0","1","1","0","1","0","1","4","2","2","3","2","1","3","3","1","2","1","802197026057101313","张","568","","","","","","","","","","","","","","","","","","","true","11","1","moral","712","self","本人","","","","","","","","","","","","","","","","",""
"null","","null","html-keyboard-response","21","91932","0.0-6.0-1.0-2.0-0.6","3","4","4","4","3","3","3","3","4","4","4","4","3","4","4","4","4","4","5","4","2","2","2","1","2","2","2","2","1","1","0","1","1","0","0","0","1","0","1","1","0","1","0","1","4","2","2","3","2","1","3","3","1","2","1","802197026057101313","张","568","","","","","","","","","","","","","","","","","","","","","","","","","","","","","","","","","","","","","","","","","",""
"667","<p style=""color:rgb(150, 250, 100); font-size: 35px;"">我</p>","e","categorize-html","22","92603","0.0-6.0-1.0-2.0-1.6","3","4","4","4","3","3","3","3","4","4","4","4","3","4","4","4","4","4","5","4","2","2","2","1","2","2","2","2","1","1","0","1","1","0","0","0","1","0","1","1","0","1","0","1","4","2","2","3","2","1","3","3","1","2","1","802197026057101313","张","568","","","","","","","","","","","","","","","","","","","true","11","1","moral","667","self","我","","","","","","","","","","","","","","","","",""
"null","","null","html-keyboard-response","23","92865","0.0-6.0-1.0-2.0-0.7","3","4","4","4","3","3","3","3","4","4","4","4","3","4","4","4","4","4","5","4","2","2","2","1","2","2","2","2","1","1","0","1","1","0","0","0","1","0","1","1","0","1","0","1","4","2","2","3","2","1","3","3","1","2","1","802197026057101313","张","568","","","","","","","","","","","","","","","","","","","","","","","","","","","","","","","","","","","","","","","","","",""
"587","<p style=""color:rgb(150, 250, 100); font-size: 35px;"">别人的</p>","i","categorize-html","24","93457","0.0-6.0-1.0-2.0-1.7","3","4","4","4","3","3","3","3","4","4","4","4","3","4","4","4","4","4","5","4","2","2","2","1","2","2","2","2","1","1","0","1","1","0","0","0","1","0","1","1","0","1","0","1","4","2","2","3","2","1","3","3","1","2","1","802197026057101313","张","568","","","","","","","","","","","","","","","","","","","true","11","1","moral","587","other","别人的","","","","","","","","","","","","","","","","",""
"null","","null","html-keyboard-response","25","93714","0.0-6.0-1.0-2.0-0.8","3","4","4","4","3","3","3","3","4","4","4","4","3","4","4","4","4","4","5","4","2","2","2","1","2","2","2","2","1","1","0","1","1","0","0","0","1","0","1","1","0","1","0","1","4","2","2","3","2","1","3","3","1","2","1","802197026057101313","张","568","","","","","","","","","","","","","","","","","","","","","","","","","","","","","","","","","","","","","","","","","",""
"629","<p style=""color:rgb(150, 250, 100); font-size: 35px;"">他人</p>","i","categorize-html","26","94347","0.0-6.0-1.0-2.0-1.8","3","4","4","4","3","3","3","3","4","4","4","4","3","4","4","4","4","4","5","4","2","2","2","1","2","2","2","2","1","1","0","1","1","0","0","0","1","0","1","1","0","1","0","1","4","2","2","3","2","1","3","3","1","2","1","802197026057101313","张","568","","","","","","","","","","","","","","","","","","","true","11","1","moral","629","other","他人","","","","","","","","","","","","","","","","",""
"null","","null","html-keyboard-response","27","94605","0.0-6.0-1.0-2.0-0.9","3","4","4","4","3","3","3","3","4","4","4","4","3","4","4","4","4","4","5","4","2","2","2","1","2","2","2","2","1","1","0","1","1","0","0","0","1","0","1","1","0","1","0","1","4","2","2","3","2","1","3","3","1","2","1","802197026057101313","张","568","","","","","","","","","","","","","","","","","","","","","","","","","","","","","","","","","","","","","","","","","",""
"698","<p style=""color:rgb(150, 250, 100); font-size: 35px;"">别人</p>","i","categorize-html","28","95307","0.0-6.0-1.0-2.0-1.9","3","4","4","4","3","3","3","3","4","4","4","4","3","4","4","4","4","4","5","4","2","2","2","1","2","2","2","2","1","1","0","1","1","0","0","0","1","0","1","1","0","1","0","1","4","2","2","3","2","1","3","3","1","2","1","802197026057101313","张","568","","","","","","","","","","","","","","","","","","","true","11","1","moral","698","other","别人","","","","","","","","","","","","","","","","",""
"null","","null","html-keyboard-response","29","95560","0.0-6.0-1.0-2.0-0.10","3","4","4","4","3","3","3","3","4","4","4","4","3","4","4","4","4","4","5","4","2","2","2","1","2","2","2","2","1","1","0","1","1","0","0","0","1","0","1","1","0","1","0","1","4","2","2","3","2","1","3","3","1","2","1","802197026057101313","张","568","","","","","","","","","","","","","","","","","","","","","","","","","","","","","","","","","","","","","","","","","",""
"780","<p style=""color:rgb(150, 250, 100); font-size: 35px;"">他人的</p>","i","categorize-html","30","96346","0.0-6.0-1.0-2.0-1.10","3","4","4","4","3","3","3","3","4","4","4","4","3","4","4","4","4","4","5","4","2","2","2","1","2","2","2","2","1","1","0","1","1","0","0","0","1","0","1","1","0","1","0","1","4","2","2","3","2","1","3","3","1","2","1","802197026057101313","张","568","","","","","","","","","","","","","","","","","","","true","11","1","moral","780","other","他人的","","","","","","","","","","","","","","","","",""
"null","","null","html-keyboard-response","31","96599","0.0-6.0-1.0-2.0-0.11","3","4","4","4","3","3","3","3","4","4","4","4","3","4","4","4","4","4","5","4","2","2","2","1","2","2","2","2","1","1","0","1","1","0","0","0","1","0","1","1","0","1","0","1","4","2","2","3","2","1","3","3","1","2","1","802197026057101313","张","568","","","","","","","","","","","","","","","","","","","","","","","","","","","","","","","","","","","","","","","","","",""
"779","<p style=""color:rgb(150, 250, 100); font-size: 35px;"">我的</p>","e","categorize-html","32","97382","0.0-6.0-1.0-2.0-1.11","3","4","4","4","3","3","3","3","4","4","4","4","3","4","4","4","4","4","5","4","2","2","2","1","2","2","2","2","1","1","0","1","1","0","0","0","1","0","1","1","0","1","0","1","4","2","2","3","2","1","3","3","1","2","1","802197026057101313","张","568","","","","","","","","","","","","","","","","","","","true","11","1","moral","779","self","我的","","","","","","","","","","","","","","","","",""
"14121","
    <div class=""tag-bottom""><p>
    —— 任务2：对“消极”词和“积极”词分类 ——<p/>   
    <span style=""color:#78DCE8""><b>注意上方，类别标签和需要分类的词语都已经改变</b></span><p/>
    <span style=""color:#FFD866""><b>请根据上方标签的提示，尽可能正确并且快速地做出按键反应</b></span><p/>
    当按键错误时屏幕中会出现<span style=""color:red""> X </span>，需要按另一个键纠正才能继续<br/><p/>
    请把双手食指分别放在键盘的“E”键和“I”键上<p/>
    按<空格键>开始
    </p></div>"," ","html-keyboard-response","33","111506","0.0-6.0-1.0-3.0","3","4","4","4","3","3","3","3","4","4","4","4","3","4","4","4","4","4","5","4","2","2","2","1","2","2","2","2","1","1","0","1","1","0","0","0","1","0","1","1","0","1","0","1","4","2","2","3","2","1","3","3","1","2","1","802197026057101313","张","568","","","","","","","","","","","","","","","","","","","","","","","","","","","","","","","","","","","","","","","","","",""
"null","","null","html-keyboard-response","34","111761","0.0-6.0-1.0-4.0-0.0","3","4","4","4","3","3","3","3","4","4","4","4","3","4","4","4","4","4","5","4","2","2","2","1","2","2","2","2","1","1","0","1","1","0","0","0","1","0","1","1","0","1","0","1","4","2","2","3","2","1","3","3","1","2","1","802197026057101313","张","568","","","","","","","","","","","","","","","","","","","","","","","","","","","","","","","","","","","","","","","","","",""
"699","<p style=""color:white; font-size: 35px;"">正直</p>","i","categorize-html","35","112468","0.0-6.0-1.0-4.0-1.0","3","4","4","4","3","3","3","3","4","4","4","4","3","4","4","4","4","4","5","4","2","2","2","1","2","2","2","2","1","1","0","1","1","0","0","0","1","0","1","1","0","1","0","1","4","2","2","3","2","1","3","3","1","2","1","802197026057101313","张","568","","","","","","","","","","","","","","","","","","","true","12","2","moral","699","positive","正直","","","","","","","","","","","","","","","","",""
"null","","null","html-keyboard-response","36","112724","0.0-6.0-1.0-4.0-0.1","3","4","4","4","3","3","3","3","4","4","4","4","3","4","4","4","4","4","5","4","2","2","2","1","2","2","2","2","1","1","0","1","1","0","0","0","1","0","1","1","0","1","0","1","4","2","2","3","2","1","3","3","1","2","1","802197026057101313","张","568","","","","","","","","","","","","","","","","","","","","","","","","","","","","","","","","","","","","","","","","","",""
"679","<p style=""color:white; font-size: 35px;"">君子</p>","i","categorize-html","37","113415","0.0-6.0-1.0-4.0-1.1","3","4","4","4","3","3","3","3","4","4","4","4","3","4","4","4","4","4","5","4","2","2","2","1","2","2","2","2","1","1","0","1","1","0","0","0","1","0","1","1","0","1","0","1","4","2","2","3","2","1","3","3","1","2","1","802197026057101313","张","568","","","","","","","","","","","","","","","","","","","true","12","2","moral","679","positive","君子","","","","","","","","","","","","","","","","",""
"null","","null","html-keyboard-response","38","113674","0.0-6.0-1.0-4.0-0.2","3","4","4","4","3","3","3","3","4","4","4","4","3","4","4","4","4","4","5","4","2","2","2","1","2","2","2","2","1","1","0","1","1","0","0","0","1","0","1","1","0","1","0","1","4","2","2","3","2","1","3","3","1","2","1","802197026057101313","张","568","","","","","","","","","","","","","","","","","","","","","","","","","","","","","","","","","","","","","","","","","",""
"672","<p style=""color:white; font-size: 35px;"">廉正</p>","i","categorize-html","39","114351","0.0-6.0-1.0-4.0-1.2","3","4","4","4","3","3","3","3","4","4","4","4","3","4","4","4","4","4","5","4","2","2","2","1","2","2","2","2","1","1","0","1","1","0","0","0","1","0","1","1","0","1","0","1","4","2","2","3","2","1","3","3","1","2","1","802197026057101313","张","568","","","","","","","","","","","","","","","","","","","true","12","2","moral","672","positive","廉正","","","","","","","","","","","","","","","","",""
"null","","null","html-keyboard-response","40","114618","0.0-6.0-1.0-4.0-0.3","3","4","4","4","3","3","3","3","4","4","4","4","3","4","4","4","4","4","5","4","2","2","2","1","2","2","2","2","1","1","0","1","1","0","0","0","1","0","1","1","0","1","0","1","4","2","2","3","2","1","3","3","1","2","1","802197026057101313","张","568","","","","","","","","","","","","","","","","","","","","","","","","","","","","","","","","","","","","","","","","","",""
"980","<p style=""color:white; font-size: 35px;"">不仁</p>","e","categorize-html","41","115616","0.0-6.0-1.0-4.0-1.3","3","4","4","4","3","3","3","3","4","4","4","4","3","4","4","4","4","4","5","4","2","2","2","1","2","2","2","2","1","1","0","1","1","0","0","0","1","0","1","1","0","1","0","1","4","2","2","3","2","1","3","3","1","2","1","802197026057101313","张","568","","","","","","","","","","","","","","","","","","","true","12","2","moral","980","negative","不仁","","","","","","","","","","","","","","","","",""
"null","","null","html-keyboard-response","42","115868","0.0-6.0-1.0-4.0-0.4","3","4","4","4","3","3","3","3","4","4","4","4","3","4","4","4","4","4","5","4","2","2","2","1","2","2","2","2","1","1","0","1","1","0","0","0","1","0","1","1","0","1","0","1","4","2","2","3","2","1","3","3","1","2","1","802197026057101313","张","568","","","","","","","","","","","","","","","","","","","","","","","","","","","","","","","","","","","","","","","","","",""
"982","<p style=""color:white; font-size: 35px;"">高尚</p>","i","categorize-html","43","116855","0.0-6.0-1.0-4.0-1.4","3","4","4","4","3","3","3","3","4","4","4","4","3","4","4","4","4","4","5","4","2","2","2","1","2","2","2","2","1","1","0","1","1","0","0","0","1","0","1","1","0","1","0","1","4","2","2","3","2","1","3","3","1","2","1","802197026057101313","张","568","","","","","","","","","","","","","","","","","","","true","12","2","moral","982","positive","高尚","","","","","","","","","","","","","","","","",""
"null","","null","html-keyboard-response","44","117108","0.0-6.0-1.0-4.0-0.5","3","4","4","4","3","3","3","3","4","4","4","4","3","4","4","4","4","4","5","4","2","2","2","1","2","2","2","2","1","1","0","1","1","0","0","0","1","0","1","1","0","1","0","1","4","2","2","3","2","1","3","3","1","2","1","802197026057101313","张","568","","","","","","","","","","","","","","","","","","","","","","","","","","","","","","","","","","","","","","","","","",""
"834","<p style=""color:white; font-size: 35px;"">善良</p>","i","categorize-html","45","117948","0.0-6.0-1.0-4.0-1.5","3","4","4","4","3","3","3","3","4","4","4","4","3","4","4","4","4","4","5","4","2","2","2","1","2","2","2","2","1","1","0","1","1","0","0","0","1","0","1","1","0","1","0","1","4","2","2","3","2","1","3","3","1","2","1","802197026057101313","张","568","","","","","","","","","","","","","","","","","","","true","12","2","moral","834","positive","善良","","","","","","","","","","","","","","","","",""
"null","","null","html-keyboard-response","46","118200","0.0-6.0-1.0-4.0-0.6","3","4","4","4","3","3","3","3","4","4","4","4","3","4","4","4","4","4","5","4","2","2","2","1","2","2","2","2","1","1","0","1","1","0","0","0","1","0","1","1","0","1","0","1","4","2","2","3","2","1","3","3","1","2","1","802197026057101313","张","568","","","","","","","","","","","","","","","","","","","","","","","","","","","","","","","","","","","","","","","","","",""
"678","<p style=""color:white; font-size: 35px;"">缺德</p>","e","categorize-html","47","118883","0.0-6.0-1.0-4.0-1.6","3","4","4","4","3","3","3","3","4","4","4","4","3","4","4","4","4","4","5","4","2","2","2","1","2","2","2","2","1","1","0","1","1","0","0","0","1","0","1","1","0","1","0","1","4","2","2","3","2","1","3","3","1","2","1","802197026057101313","张","568","","","","","","","","","","","","","","","","","","","true","12","2","moral","678","negative","缺德","","","","","","","","","","","","","","","","",""
"null","","null","html-keyboard-response","48","119137","0.0-6.0-1.0-4.0-0.7","3","4","4","4","3","3","3","3","4","4","4","4","3","4","4","4","4","4","5","4","2","2","2","1","2","2","2","2","1","1","0","1","1","0","0","0","1","0","1","1","0","1","0","1","4","2","2","3","2","1","3","3","1","2","1","802197026057101313","张","568","","","","","","","","","","","","","","","","","","","","","","","","","","","","","","","","","","","","","","","","","",""
"1083","<p style=""color:white; font-size: 35px;"">小人</p>","e","categorize-html","49","120235","0.0-6.0-1.0-4.0-1.7","3","4","4","4","3","3","3","3","4","4","4","4","3","4","4","4","4","4","5","4","2","2","2","1","2","2","2","2","1","1","0","1","1","0","0","0","1","0","1","1","0","1","0","1","4","2","2","3","2","1","3","3","1","2","1","802197026057101313","张","568","","","","","","","","","","","","","","","","","","","true","12","2","moral","1083","negative","小人","","","","","","","","","","","","","","","","",""
"null","","null","html-keyboard-response","50","120519","0.0-6.0-1.0-4.0-0.8","3","4","4","4","3","3","3","3","4","4","4","4","3","4","4","4","4","4","5","4","2","2","2","1","2","2","2","2","1","1","0","1","1","0","0","0","1","0","1","1","0","1","0","1","4","2","2","3","2","1","3","3","1","2","1","802197026057101313","张","568","","","","","","","","","","","","","","","","","","","","","","","","","","","","","","","","","","","","","","","","","",""
"641","<p style=""color:white; font-size: 35px;"">卑鄙</p>","e","categorize-html","51","121175","0.0-6.0-1.0-4.0-1.8","3","4","4","4","3","3","3","3","4","4","4","4","3","4","4","4","4","4","5","4","2","2","2","1","2","2","2","2","1","1","0","1","1","0","0","0","1","0","1","1","0","1","0","1","4","2","2","3","2","1","3","3","1","2","1","802197026057101313","张","568","","","","","","","","","","","","","","","","","","","true","12","2","moral","641","negative","卑鄙","","","","","","","","","","","","","","","","",""
"null","","null","html-keyboard-response","52","121434","0.0-6.0-1.0-4.0-0.9","3","4","4","4","3","3","3","3","4","4","4","4","3","4","4","4","4","4","5","4","2","2","2","1","2","2","2","2","1","1","0","1","1","0","0","0","1","0","1","1","0","1","0","1","4","2","2","3","2","1","3","3","1","2","1","802197026057101313","张","568","","","","","","","","","","","","","","","","","","","","","","","","","","","","","","","","","","","","","","","","","",""
"661","<p style=""color:white; font-size: 35px;"">不孝</p>","e","categorize-html","53","120863","0.0-6.0-1.0-4.0-1.9","3","4","4","4","3","3","3","3","4","4","4","4","3","4","4","4","4","4","5","4","2","2","2","1","2","2","2","2","1","1","0","1","1","0","0","0","1","0","1","1","0","1","0","1","4","2","2","3","2","1","3","3","1","2","1","802197026057101313","张","568","","","","","","","","","","","","","","","","","","","true","12","2","moral","661","negative","不孝","","","","","","","","","","","","","","","","",""
"null","","null","html-keyboard-response","54","121150","0.0-6.0-1.0-4.0-0.10","3","4","4","4","3","3","3","3","4","4","4","4","3","4","4","4","4","4","5","4","2","2","2","1","2","2","2","2","1","1","0","1","1","0","0","0","1","0","1","1","0","1","0","1","4","2","2","3","2","1","3","3","1","2","1","802197026057101313","张","568","","","","","","","","","","","","","","","","","","","","","","","","","","","","","","","","","","","","","","","","","",""
"693","<p style=""color:white; font-size: 35px;"">诚信</p>","i","categorize-html","55","121849","0.0-6.0-1.0-4.0-1.10","3","4","4","4","3","3","3","3","4","4","4","4","3","4","4","4","4","4","5","4","2","2","2","1","2","2","2","2","1","1","0","1","1","0","0","0","1","0","1","1","0","1","0","1","4","2","2","3","2","1","3","3","1","2","1","802197026057101313","张","568","","","","","","","","","","","","","","","","","","","true","12","2","moral","693","positive","诚信","","","","","","","","","","","","","","","","",""
"null","","null","html-keyboard-response","56","122107","0.0-6.0-1.0-4.0-0.11","3","4","4","4","3","3","3","3","4","4","4","4","3","4","4","4","4","4","5","4","2","2","2","1","2","2","2","2","1","1","0","1","1","0","0","0","1","0","1","1","0","1","0","1","4","2","2","3","2","1","3","3","1","2","1","802197026057101313","张","568","","","","","","","","","","","","","","","","","","","","","","","","","","","","","","","","","","","","","","","","","",""
"760","<p style=""color:white; font-size: 35px;"">黑心</p>","e","categorize-html","57","122873","0.0-6.0-1.0-4.0-1.11","3","4","4","4","3","3","3","3","4","4","4","4","3","4","4","4","4","4","5","4","2","2","2","1","2","2","2","2","1","1","0","1","1","0","0","0","1","0","1","1","0","1","0","1","4","2","2","3","2","1","3","3","1","2","1","802197026057101313","张","568","","","","","","","","","","","","","","","","","","","true","12","2","moral","760","negative","黑心","","","","","","","","","","","","","","","","",""
"3692","
    <div class=""tag-bottom""><p>
    —— 任务3：对“自我/消极”词和“他人/积极”词分类 ——<p/>
    <span style=""color:#78DCE8""><b>注意上方，之前的四类词语将混合在一起交替呈现</b></span><p/>
    <span style=""color:#FFD866""><b>请根据上方标签的提示，尽可能正确并且快速地做出按键反应</b></span><p/>
    当按键错误时屏幕中会出现<span style=""color:red""> X </span>，需要按另一个键纠正才能继续<br/><p/>
    请把双手食指分别放在键盘的“E”键和“I”键上<p/>
    按<空格键>开始
    </p></div>"," ","html-keyboard-response","58","126567","0.0-6.0-1.0-5.0","3","4","4","4","3","3","3","3","4","4","4","4","3","4","4","4","4","4","5","4","2","2","2","1","2","2","2","2","1","1","0","1","1","0","0","0","1","0","1","1","0","1","0","1","4","2","2","3","2","1","3","3","1","2","1","802197026057101313","张","568","","","","","","","","","","","","","","","","","","","","","","","","","","","","","","","","","","","","","","","","","",""
"null","","null","html-keyboard-response","59","126821","0.0-6.0-1.0-6.0-0.0","3","4","4","4","3","3","3","3","4","4","4","4","3","4","4","4","4","4","5","4","2","2","2","1","2","2","2","2","1","1","0","1","1","0","0","0","1","0","1","1","0","1","0","1","4","2","2","3","2","1","3","3","1","2","1","802197026057101313","张","568","","","","","","","","","","","","","","","","","","","","","","","","","","","","","","","","","","","","","","","","","",""
"712","<p style=""color:rgb(150, 250, 100); font-size: 35px;"">自己</p>","e","categorize-html","60","127542","0.0-6.0-1.0-6.0-1.0","3","4","4","4","3","3","3","3","4","4","4","4","3","4","4","4","4","4","5","4","2","2","2","1","2","2","2","2","1","1","0","1","1","0","0","0","1","0","1","1","0","1","0","1","4","2","2","3","2","1","3","3","1","2","1","802197026057101313","张","568","","","","","","","","","","","","","","","","","","","true","13","3","moral","712","self","自己","","","","","","","","","","","","","","","","",""
"null","","null","html-keyboard-response","61","127803","0.0-6.0-1.0-6.0-0.1","3","4","4","4","3","3","3","3","4","4","4","4","3","4","4","4","4","4","5","4","2","2","2","1","2","2","2","2","1","1","0","1","1","0","0","0","1","0","1","1","0","1","0","1","4","2","2","3","2","1","3","3","1","2","1","802197026057101313","张","568","","","","","","","","","","","","","","","","","","","","","","","","","","","","","","","","","","","","","","","","","",""
"610","<p style=""color:white; font-size: 35px;"">不孝</p>","e","categorize-html","62","128421","0.0-6.0-1.0-6.0-1.1","3","4","4","4","3","3","3","3","4","4","4","4","3","4","4","4","4","4","5","4","2","2","2","1","2","2","2","2","1","1","0","1","1","0","0","0","1","0","1","1","0","1","0","1","4","2","2","3","2","1","3","3","1","2","1","802197026057101313","张","568","","","","","","","","","","","","","","","","","","","true","13","3","moral","610","negative","不孝","","","","","","","","","","","","","","","","",""
"null","","null","html-keyboard-response","63","128674","0.0-6.0-1.0-6.0-0.2","3","4","4","4","3","3","3","3","4","4","4","4","3","4","4","4","4","4","5","4","2","2","2","1","2","2","2","2","1","1","0","1","1","0","0","0","1","0","1","1","0","1","0","1","4","2","2","3","2","1","3","3","1","2","1","802197026057101313","张","568","","","","","","","","","","","","","","","","","","","","","","","","","","","","","","","","","","","","","","","","","",""
"766","<p style=""color:rgb(150, 250, 100); font-size: 35px;"">别人</p>","i","categorize-html","64","129450","0.0-6.0-1.0-6.0-1.2","3","4","4","4","3","3","3","3","4","4","4","4","3","4","4","4","4","4","5","4","2","2","2","1","2","2","2","2","1","1","0","1","1","0","0","0","1","0","1","1","0","1","0","1","4","2","2","3","2","1","3","3","1","2","1","802197026057101313","张","568","","","","","","","","","","","","","","","","","","","true","13","3","moral","766","other","别人","","","","","","","","","","","","","","","","",""
"null","","null","html-keyboard-response","65","129702","0.0-6.0-1.0-6.0-0.3","3","4","4","4","3","3","3","3","4","4","4","4","3","4","4","4","4","4","5","4","2","2","2","1","2","2","2","2","1","1","0","1","1","0","0","0","1","0","1","1","0","1","0","1","4","2","2","3","2","1","3","3","1","2","1","802197026057101313","张","568","","","","","","","","","","","","","","","","","","","","","","","","","","","","","","","","","","","","","","","","","",""
"553","<p style=""color:white; font-size: 35px;"">君子</p>","i","categorize-html","66","130261","0.0-6.0-1.0-6.0-1.3","3","4","4","4","3","3","3","3","4","4","4","4","3","4","4","4","4","4","5","4","2","2","2","1","2","2","2","2","1","1","0","1","1","0","0","0","1","0","1","1","0","1","0","1","4","2","2","3","2","1","3","3","1","2","1","802197026057101313","张","568","","","","","","","","","","","","","","","","","","","true","13","3","moral","553","positive","君子","","","","","","","","","","","","","","","","",""
"null","","null","html-keyboard-response","67","130513","0.0-6.0-1.0-6.0-0.4","3","4","4","4","3","3","3","3","4","4","4","4","3","4","4","4","4","4","5","4","2","2","2","1","2","2","2","2","1","1","0","1","1","0","0","0","1","0","1","1","0","1","0","1","4","2","2","3","2","1","3","3","1","2","1","802197026057101313","张","568","","","","","","","","","","","","","","","","","","","","","","","","","","","","","","","","","","","","","","","","","",""
"791","<p style=""color:rgb(150, 250, 100); font-size: 35px;"">本人</p>","e","categorize-html","68","131308","0.0-6.0-1.0-6.0-1.4","3","4","4","4","3","3","3","3","4","4","4","4","3","4","4","4","4","4","5","4","2","2","2","1","2","2","2","2","1","1","0","1","1","0","0","0","1","0","1","1","0","1","0","1","4","2","2","3","2","1","3","3","1","2","1","802197026057101313","张","568","","","","","","","","","","","","","","","","","","","true","13","3","moral","791","self","本人","","","","","","","","","","","","","","","","",""
"null","","null","html-keyboard-response","69","131559","0.0-6.0-1.0-6.0-0.5","3","4","4","4","3","3","3","3","4","4","4","4","3","4","4","4","4","4","5","4","2","2","2","1","2","2","2","2","1","1","0","1","1","0","0","0","1","0","1","1","0","1","0","1","4","2","2","3","2","1","3","3","1","2","1","802197026057101313","张","568","","","","","","","","","","","","","","","","","","","","","","","","","","","","","","","","","","","","","","","","","",""
"672","<p style=""color:white; font-size: 35px;"">黑心</p>","e","categorize-html","70","132238","0.0-6.0-1.0-6.0-1.5","3","4","4","4","3","3","3","3","4","4","4","4","3","4","4","4","4","4","5","4","2","2","2","1","2","2","2","2","1","1","0","1","1","0","0","0","1","0","1","1","0","1","0","1","4","2","2","3","2","1","3","3","1","2","1","802197026057101313","张","568","","","","","","","","","","","","","","","","","","","true","13","3","moral","672","negative","黑心","","","","","","","","","","","","","","","","",""
"null","","null","html-keyboard-response","71","132498","0.0-6.0-1.0-6.0-0.6","3","4","4","4","3","3","3","3","4","4","4","4","3","4","4","4","4","4","5","4","2","2","2","1","2","2","2","2","1","1","0","1","1","0","0","0","1","0","1","1","0","1","0","1","4","2","2","3","2","1","3","3","1","2","1","802197026057101313","张","568","","","","","","","","","","","","","","","","","","","","","","","","","","","","","","","","","","","","","","","","","",""
"879","<p style=""color:rgb(150, 250, 100); font-size: 35px;"">别人的</p>","i","categorize-html","72","133382","0.0-6.0-1.0-6.0-1.6","3","4","4","4","3","3","3","3","4","4","4","4","3","4","4","4","4","4","5","4","2","2","2","1","2","2","2","2","1","1","0","1","1","0","0","0","1","0","1","1","0","1","0","1","4","2","2","3","2","1","3","3","1","2","1","802197026057101313","张","568","","","","","","","","","","","","","","","","","","","true","13","3","moral","879","other","别人的","","","","","","","","","","","","","","","","",""
"null","","null","html-keyboard-response","73","133639","0.0-6.0-1.0-6.0-0.7","3","4","4","4","3","3","3","3","4","4","4","4","3","4","4","4","4","4","5","4","2","2","2","1","2","2","2","2","1","1","0","1","1","0","0","0","1","0","1","1","0","1","0","1","4","2","2","3","2","1","3","3","1","2","1","802197026057101313","张","568","","","","","","","","","","","","","","","","","","","","","","","","","","","","","","","","","","","","","","","","","",""
"984","<p style=""color:white; font-size: 35px;"">诚信</p>","i","categorize-html","74","134627","0.0-6.0-1.0-6.0-1.7","3","4","4","4","3","3","3","3","4","4","4","4","3","4","4","4","4","4","5","4","2","2","2","1","2","2","2","2","1","1","0","1","1","0","0","0","1","0","1","1","0","1","0","1","4","2","2","3","2","1","3","3","1","2","1","802197026057101313","张","568","","","","","","","","","","","","","","","","","","","true","13","3","moral","984","positive","诚信","","","","","","","","","","","","","","","","",""
"null","","null","html-keyboard-response","75","134879","0.0-6.0-1.0-6.0-0.8","3","4","4","4","3","3","3","3","4","4","4","4","3","4","4","4","4","4","5","4","2","2","2","1","2","2","2","2","1","1","0","1","1","0","0","0","1","0","1","1","0","1","0","1","4","2","2","3","2","1","3","3","1","2","1","802197026057101313","张","568","","","","","","","","","","","","","","","","","","","","","","","","","","","","","","","","","","","","","","","","","",""
"687","<p style=""color:rgb(150, 250, 100); font-size: 35px;"">他的</p>","i","categorize-html","76","135574","0.0-6.0-1.0-6.0-1.8","3","4","4","4","3","3","3","3","4","4","4","4","3","4","4","4","4","4","5","4","2","2","2","1","2","2","2","2","1","1","0","1","1","0","0","0","1","0","1","1","0","1","0","1","4","2","2","3","2","1","3","3","1","2","1","802197026057101313","张","568","","","","","","","","","","","","","","","","","","","true","13","3","moral","687","other","他的","","","","","","","","","","","","","","","","",""
"null","","null","html-keyboard-response","77","135826","0.0-6.0-1.0-6.0-0.9","3","4","4","4","3","3","3","3","4","4","4","4","3","4","4","4","4","4","5","4","2","2","2","1","2","2","2","2","1","1","0","1","1","0","0","0","1","0","1","1","0","1","0","1","4","2","2","3","2","1","3","3","1","2","1","802197026057101313","张","568","","","","","","","","","","","","","","","","","","","","","","","","","","","","","","","","","","","","","","","","","",""
"516","<p style=""color:white; font-size: 35px;"">正直</p>","i","categorize-html","78","136346","0.0-6.0-1.0-6.0-1.9","3","4","4","4","3","3","3","3","4","4","4","4","3","4","4","4","4","4","5","4","2","2","2","1","2","2","2","2","1","1","0","1","1","0","0","0","1","0","1","1","0","1","0","1","4","2","2","3","2","1","3","3","1","2","1","802197026057101313","张","568","","","","","","","","","","","","","","","","","","","true","13","3","moral","516","positive","正直","","","","","","","","","","","","","","","","",""
"null","","null","html-keyboard-response","79","136599","0.0-6.0-1.0-6.0-0.10","3","4","4","4","3","3","3","3","4","4","4","4","3","4","4","4","4","4","5","4","2","2","2","1","2","2","2","2","1","1","0","1","1","0","0","0","1","0","1","1","0","1","0","1","4","2","2","3","2","1","3","3","1","2","1","802197026057101313","张","568","","","","","","","","","","","","","","","","","","","","","","","","","","","","","","","","","","","","","","","","","",""
"679","<p style=""color:rgb(150, 250, 100); font-size: 35px;"">我的</p>","e","categorize-html","80","137282","0.0-6.0-1.0-6.0-1.10","3","4","4","4","3","3","3","3","4","4","4","4","3","4","4","4","4","4","5","4","2","2","2","1","2","2","2","2","1","1","0","1","1","0","0","0","1","0","1","1","0","1","0","1","4","2","2","3","2","1","3","3","1","2","1","802197026057101313","张","568","","","","","","","","","","","","","","","","","","","true","13","3","moral","679","self","我的","","","","","","","","","","","","","","","","",""
"null","","null","html-keyboard-response","81","137534","0.0-6.0-1.0-6.0-0.11","3","4","4","4","3","3","3","3","4","4","4","4","3","4","4","4","4","4","5","4","2","2","2","1","2","2","2","2","1","1","0","1","1","0","0","0","1","0","1","1","0","1","0","1","4","2","2","3","2","1","3","3","1","2","1","802197026057101313","张","568","","","","","","","","","","","","","","","","","","","","","","","","","","","","","","","","","","","","","","","","","",""
"600","<p style=""color:white; font-size: 35px;"">不仁</p>","e","categorize-html","82","138138","0.0-6.0-1.0-6.0-1.11","3","4","4","4","3","3","3","3","4","4","4","4","3","4","4","4","4","4","5","4","2","2","2","1","2","2","2","2","1","1","0","1","1","0","0","0","1","0","1","1","0","1","0","1","4","2","2","3","2","1","3","3","1","2","1","802197026057101313","张","568","","","","","","","","","","","","","","","","","","","true","13","3","moral","600","negative","不仁","","","","","","","","","","","","","","","","",""
"null","","null","html-keyboard-response","83","138390","0.0-6.0-1.0-6.0-0.12","3","4","4","4","3","3","3","3","4","4","4","4","3","4","4","4","4","4","5","4","2","2","2","1","2","2","2","2","1","1","0","1","1","0","0","0","1","0","1","1","0","1","0","1","4","2","2","3","2","1","3","3","1","2","1","802197026057101313","张","568","","","","","","","","","","","","","","","","","","","","","","","","","","","","","","","","","","","","","","","","","",""
"784","<p style=""color:rgb(150, 250, 100); font-size: 35px;"">他</p>","i","categorize-html","84","139178","0.0-6.0-1.0-6.0-1.12","3","4","4","4","3","3","3","3","4","4","4","4","3","4","4","4","4","4","5","4","2","2","2","1","2","2","2","2","1","1","0","1","1","0","0","0","1","0","1","1","0","1","0","1","4","2","2","3","2","1","3","3","1","2","1","802197026057101313","张","568","","","","","","","","","","","","","","","","","","","true","13","3","moral","784","other","他","","","","","","","","","","","","","","","","",""
"null","","null","html-keyboard-response","85","139432","0.0-6.0-1.0-6.0-0.13","3","4","4","4","3","3","3","3","4","4","4","4","3","4","4","4","4","4","5","4","2","2","2","1","2","2","2","2","1","1","0","1","1","0","0","0","1","0","1","1","0","1","0","1","4","2","2","3","2","1","3","3","1","2","1","802197026057101313","张","568","","","","","","","","","","","","","","","","","","","","","","","","","","","","","","","","","","","","","","","","","",""
"742","<p style=""color:white; font-size: 35px;"">小人</p>","e","categorize-html","86","140181","0.0-6.0-1.0-6.0-1.13","3","4","4","4","3","3","3","3","4","4","4","4","3","4","4","4","4","4","5","4","2","2","2","1","2","2","2","2","1","1","0","1","1","0","0","0","1","0","1","1","0","1","0","1","4","2","2","3","2","1","3","3","1","2","1","802197026057101313","张","568","","","","","","","","","","","","","","","","","","","true","13","3","moral","742","negative","小人","","","","","","","","","","","","","","","","",""
"null","","null","html-keyboard-response","87","140436","0.0-6.0-1.0-6.0-0.14","3","4","4","4","3","3","3","3","4","4","4","4","3","4","4","4","4","4","5","4","2","2","2","1","2","2","2","2","1","1","0","1","1","0","0","0","1","0","1","1","0","1","0","1","4","2","2","3","2","1","3","3","1","2","1","802197026057101313","张","568","","","","","","","","","","","","","","","","","","","","","","","","","","","","","","","","","","","","","","","","","",""
"674","<p style=""color:rgb(150, 250, 100); font-size: 35px;"">本人的</p>","e","categorize-html","88","141114","0.0-6.0-1.0-6.0-1.14","3","4","4","4","3","3","3","3","4","4","4","4","3","4","4","4","4","4","5","4","2","2","2","1","2","2","2","2","1","1","0","1","1","0","0","0","1","0","1","1","0","1","0","1","4","2","2","3","2","1","3","3","1","2","1","802197026057101313","张","568","","","","","","","","","","","","","","","","","","","true","13","3","moral","674","self","本人的","","","","","","","","","","","","","","","","",""
"null","","null","html-keyboard-response","89","141385","0.0-6.0-1.0-6.0-0.15","3","4","4","4","3","3","3","3","4","4","4","4","3","4","4","4","4","4","5","4","2","2","2","1","2","2","2","2","1","1","0","1","1","0","0","0","1","0","1","1","0","1","0","1","4","2","2","3","2","1","3","3","1","2","1","802197026057101313","张","568","","","","","","","","","","","","","","","","","","","","","","","","","","","","","","","","","","","","","","","","","",""
"701","<p style=""color:white; font-size: 35px;"">高尚</p>","i","categorize-html","90","142091","0.0-6.0-1.0-6.0-1.15","3","4","4","4","3","3","3","3","4","4","4","4","3","4","4","4","4","4","5","4","2","2","2","1","2","2","2","2","1","1","0","1","1","0","0","0","1","0","1","1","0","1","0","1","4","2","2","3","2","1","3","3","1","2","1","802197026057101313","张","568","","","","","","","","","","","","","","","","","","","true","13","3","moral","701","positive","高尚","","","","","","","","","","","","","","","","",""
"null","","null","html-keyboard-response","91","142352","0.0-6.0-1.0-6.0-0.16","3","4","4","4","3","3","3","3","4","4","4","4","3","4","4","4","4","4","5","4","2","2","2","1","2","2","2","2","1","1","0","1","1","0","0","0","1","0","1","1","0","1","0","1","4","2","2","3","2","1","3","3","1","2","1","802197026057101313","张","568","","","","","","","","","","","","","","","","","","","","","","","","","","","","","","","","","","","","","","","","","",""
"777","<p style=""color:rgb(150, 250, 100); font-size: 35px;"">他人的</p>","i","categorize-html","92","143134","0.0-6.0-1.0-6.0-1.16","3","4","4","4","3","3","3","3","4","4","4","4","3","4","4","4","4","4","5","4","2","2","2","1","2","2","2","2","1","1","0","1","1","0","0","0","1","0","1","1","0","1","0","1","4","2","2","3","2","1","3","3","1","2","1","802197026057101313","张","568","","","","","","","","","","","","","","","","","","","true","13","3","moral","777","other","他人的","","","","","","","","","","","","","","","","",""
"null","","null","html-keyboard-response","93","143386","0.0-6.0-1.0-6.0-0.17","3","4","4","4","3","3","3","3","4","4","4","4","3","4","4","4","4","4","5","4","2","2","2","1","2","2","2","2","1","1","0","1","1","0","0","0","1","0","1","1","0","1","0","1","4","2","2","3","2","1","3","3","1","2","1","802197026057101313","张","568","","","","","","","","","","","","","","","","","","","","","","","","","","","","","","","","","","","","","","","","","",""
"708","<p style=""color:white; font-size: 35px;"">廉正</p>","i","categorize-html","94","144098","0.0-6.0-1.0-6.0-1.17","3","4","4","4","3","3","3","3","4","4","4","4","3","4","4","4","4","4","5","4","2","2","2","1","2","2","2","2","1","1","0","1","1","0","0","0","1","0","1","1","0","1","0","1","4","2","2","3","2","1","3","3","1","2","1","802197026057101313","张","568","","","","","","","","","","","","","","","","","","","true","13","3","moral","708","positive","廉正","","","","","","","","","","","","","","","","",""
"null","","null","html-keyboard-response","95","144359","0.0-6.0-1.0-6.0-0.18","3","4","4","4","3","3","3","3","4","4","4","4","3","4","4","4","4","4","5","4","2","2","2","1","2","2","2","2","1","1","0","1","1","0","0","0","1","0","1","1","0","1","0","1","4","2","2","3","2","1","3","3","1","2","1","802197026057101313","张","568","","","","","","","","","","","","","","","","","","","","","","","","","","","","","","","","","","","","","","","","","",""
"919","<p style=""color:rgb(150, 250, 100); font-size: 35px;"">我</p>","e","categorize-html","96","145284","0.0-6.0-1.0-6.0-1.18","3","4","4","4","3","3","3","3","4","4","4","4","3","4","4","4","4","4","5","4","2","2","2","1","2","2","2","2","1","1","0","1","1","0","0","0","1","0","1","1","0","1","0","1","4","2","2","3","2","1","3","3","1","2","1","802197026057101313","张","568","","","","","","","","","","","","","","","","","","","true","13","3","moral","919","self","我","","","","","","","","","","","","","","","","",""
"null","","null","html-keyboard-response","97","145536","0.0-6.0-1.0-6.0-0.19","3","4","4","4","3","3","3","3","4","4","4","4","3","4","4","4","4","4","5","4","2","2","2","1","2","2","2","2","1","1","0","1","1","0","0","0","1","0","1","1","0","1","0","1","4","2","2","3","2","1","3","3","1","2","1","802197026057101313","张","568","","","","","","","","","","","","","","","","","","","","","","","","","","","","","","","","","","","","","","","","","",""
"776","<p style=""color:white; font-size: 35px;"">卑鄙</p>","e","categorize-html","98","146322","0.0-6.0-1.0-6.0-1.19","3","4","4","4","3","3","3","3","4","4","4","4","3","4","4","4","4","4","5","4","2","2","2","1","2","2","2","2","1","1","0","1","1","0","0","0","1","0","1","1","0","1","0","1","4","2","2","3","2","1","3","3","1","2","1","802197026057101313","张","568","","","","","","","","","","","","","","","","","","","true","13","3","moral","776","negative","卑鄙","","","","","","","","","","","","","","","","",""
"null","","null","html-keyboard-response","99","146574","0.0-6.0-1.0-6.0-0.20","3","4","4","4","3","3","3","3","4","4","4","4","3","4","4","4","4","4","5","4","2","2","2","1","2","2","2","2","1","1","0","1","1","0","0","0","1","0","1","1","0","1","0","1","4","2","2","3","2","1","3","3","1","2","1","802197026057101313","张","568","","","","","","","","","","","","","","","","","","","","","","","","","","","","","","","","","","","","","","","","","",""
"1752","<p style=""color:rgb(150, 250, 100); font-size: 35px;"">他人</p>","i","categorize-html","100","148330","0.0-6.0-1.0-6.0-1.20","3","4","4","4","3","3","3","3","4","4","4","4","3","4","4","4","4","4","5","4","2","2","2","1","2","2","2","2","1","1","0","1","1","0","0","0","1","0","1","1","0","1","0","1","4","2","2","3","2","1","3","3","1","2","1","802197026057101313","张","568","","","","","","","","","","","","","","","","","","","true","13","3","moral","1752","other","他人","","","","","","","","","","","","","","","","",""
"null","","null","html-keyboard-response","101","148584","0.0-6.0-1.0-6.0-0.21","3","4","4","4","3","3","3","3","4","4","4","4","3","4","4","4","4","4","5","4","2","2","2","1","2","2","2","2","1","1","0","1","1","0","0","0","1","0","1","1","0","1","0","1","4","2","2","3","2","1","3","3","1","2","1","802197026057101313","张","568","","","","","","","","","","","","","","","","","","","","","","","","","","","","","","","","","","","","","","","","","",""
"3471","<p style=""color:white; font-size: 35px;"">缺德</p>","e","categorize-html","102","152060","0.0-6.0-1.0-6.0-1.21","3","4","4","4","3","3","3","3","4","4","4","4","3","4","4","4","4","4","5","4","2","2","2","1","2","2","2","2","1","1","0","1","1","0","0","0","1","0","1","1","0","1","0","1","4","2","2","3","2","1","3","3","1","2","1","802197026057101313","张","568","","","","","","","","","","","","","","","","","","","true","13","3","moral","3471","negative","缺德","","","","","","","","","","","","","","","","",""
"null","","null","html-keyboard-response","103","152329","0.0-6.0-1.0-6.0-0.22","3","4","4","4","3","3","3","3","4","4","4","4","3","4","4","4","4","4","5","4","2","2","2","1","2","2","2","2","1","1","0","1","1","0","0","0","1","0","1","1","0","1","0","1","4","2","2","3","2","1","3","3","1","2","1","802197026057101313","张","568","","","","","","","","","","","","","","","","","","","","","","","","","","","","","","","","","","","","","","","","","",""
"581","<p style=""color:rgb(150, 250, 100); font-size: 35px;"">自己的</p>","e","categorize-html","104","152914","0.0-6.0-1.0-6.0-1.22","3","4","4","4","3","3","3","3","4","4","4","4","3","4","4","4","4","4","5","4","2","2","2","1","2","2","2","2","1","1","0","1","1","0","0","0","1","0","1","1","0","1","0","1","4","2","2","3","2","1","3","3","1","2","1","802197026057101313","张","568","","","","","","","","","","","","","","","","","","","true","13","3","moral","581","self","自己的","","","","","","","","","","","","","","","","",""
"null","","null","html-keyboard-response","105","153167","0.0-6.0-1.0-6.0-0.23","3","4","4","4","3","3","3","3","4","4","4","4","3","4","4","4","4","4","5","4","2","2","2","1","2","2","2","2","1","1","0","1","1","0","0","0","1","0","1","1","0","1","0","1","4","2","2","3","2","1","3","3","1","2","1","802197026057101313","张","568","","","","","","","","","","","","","","","","","","","","","","","","","","","","","","","","","","","","","","","","","",""
"671","<p style=""color:white; font-size: 35px;"">善良</p>","i","categorize-html","106","153842","0.0-6.0-1.0-6.0-1.23","3","4","4","4","3","3","3","3","4","4","4","4","3","4","4","4","4","4","5","4","2","2","2","1","2","2","2","2","1","1","0","1","1","0","0","0","1","0","1","1","0","1","0","1","4","2","2","3","2","1","3","3","1","2","1","802197026057101313","张","568","","","","","","","","","","","","","","","","","","","true","13","3","moral","671","positive","善良","","","","","","","","","","","","","","","","",""
"3868","
    <div class=""tag-bottom""><p>
    —— 任务4：对“自我/消极”词和“他人/积极”词分类 ——<p/>
    <span style=""color:#78DCE8""><b>与刚才的任务完全相同，请再次对这四类词语分类</b></span><p/>
    <span style=""color:#FFD866""><b>请根据上方标签的提示，尽可能正确并且快速地做出按键反应</b></span><p/>
    当按键错误时屏幕中会出现<span style=""color:red""> X </span>，需要按另一个键纠正才能继续<br/><p/>
    请把双手食指分别放在键盘的“E”键和“I”键上<p/>
    按<空格键>开始
    </p></div>"," ","html-keyboard-response","107","157712","0.0-6.0-1.0-7.0","3","4","4","4","3","3","3","3","4","4","4","4","3","4","4","4","4","4","5","4","2","2","2","1","2","2","2","2","1","1","0","1","1","0","0","0","1","0","1","1","0","1","0","1","4","2","2","3","2","1","3","3","1","2","1","802197026057101313","张","568","","","","","","","","","","","","","","","","","","","","","","","","","","","","","","","","","","","","","","","","","",""
"null","","null","html-keyboard-response","108","157964","0.0-6.0-1.0-8.0-0.0","3","4","4","4","3","3","3","3","4","4","4","4","3","4","4","4","4","4","5","4","2","2","2","1","2","2","2","2","1","1","0","1","1","0","0","0","1","0","1","1","0","1","0","1","4","2","2","3","2","1","3","3","1","2","1","802197026057101313","张","568","","","","","","","","","","","","","","","","","","","","","","","","","","","","","","","","","","","","","","","","","",""
"1161","<p style=""color:rgb(150, 250, 100); font-size: 35px;"">他人的</p>","i","categorize-html","109","159131","0.0-6.0-1.0-8.0-1.0","3","4","4","4","3","3","3","3","4","4","4","4","3","4","4","4","4","4","5","4","2","2","2","1","2","2","2","2","1","1","0","1","1","0","0","0","1","0","1","1","0","1","0","1","4","2","2","3","2","1","3","3","1","2","1","802197026057101313","张","568","","","","","","","","","","","","","","","","","","","true","14","4","moral","1161","other","他人的","","","","","","","","","","","","","","","","",""
"null","","null","html-keyboard-response","110","159383","0.0-6.0-1.0-8.0-0.1","3","4","4","4","3","3","3","3","4","4","4","4","3","4","4","4","4","4","5","4","2","2","2","1","2","2","2","2","1","1","0","1","1","0","0","0","1","0","1","1","0","1","0","1","4","2","2","3","2","1","3","3","1","2","1","802197026057101313","张","568","","","","","","","","","","","","","","","","","","","","","","","","","","","","","","","","","","","","","","","","","",""
"621","<p style=""color:white; font-size: 35px;"">高尚</p>","i","categorize-html","111","160010","0.0-6.0-1.0-8.0-1.1","3","4","4","4","3","3","3","3","4","4","4","4","3","4","4","4","4","4","5","4","2","2","2","1","2","2","2","2","1","1","0","1","1","0","0","0","1","0","1","1","0","1","0","1","4","2","2","3","2","1","3","3","1","2","1","802197026057101313","张","568","","","","","","","","","","","","","","","","","","","true","14","4","moral","621","positive","高尚","","","","","","","","","","","","","","","","",""
"null","","null","html-keyboard-response","112","160262","0.0-6.0-1.0-8.0-0.2","3","4","4","4","3","3","3","3","4","4","4","4","3","4","4","4","4","4","5","4","2","2","2","1","2","2","2","2","1","1","0","1","1","0","0","0","1","0","1","1","0","1","0","1","4","2","2","3","2","1","3","3","1","2","1","802197026057101313","张","568","","","","","","","","","","","","","","","","","","","","","","","","","","","","","","","","","","","","","","","","","",""
"776","<p style=""color:rgb(150, 250, 100); font-size: 35px;"">我的</p>","e","categorize-html","113","161042","0.0-6.0-1.0-8.0-1.2","3","4","4","4","3","3","3","3","4","4","4","4","3","4","4","4","4","4","5","4","2","2","2","1","2","2","2","2","1","1","0","1","1","0","0","0","1","0","1","1","0","1","0","1","4","2","2","3","2","1","3","3","1","2","1","802197026057101313","张","568","","","","","","","","","","","","","","","","","","","true","14","4","moral","776","self","我的","","","","","","","","","","","","","","","","",""
"null","","null","html-keyboard-response","114","161296","0.0-6.0-1.0-8.0-0.3","3","4","4","4","3","3","3","3","4","4","4","4","3","4","4","4","4","4","5","4","2","2","2","1","2","2","2","2","1","1","0","1","1","0","0","0","1","0","1","1","0","1","0","1","4","2","2","3","2","1","3","3","1","2","1","802197026057101313","张","568","","","","","","","","","","","","","","","","","","","","","","","","","","","","","","","","","","","","","","","","","",""
"517","<p style=""color:white; font-size: 35px;"">不孝</p>","e","categorize-html","115","161817","0.0-6.0-1.0-8.0-1.3","3","4","4","4","3","3","3","3","4","4","4","4","3","4","4","4","4","4","5","4","2","2","2","1","2","2","2","2","1","1","0","1","1","0","0","0","1","0","1","1","0","1","0","1","4","2","2","3","2","1","3","3","1","2","1","802197026057101313","张","568","","","","","","","","","","","","","","","","","","","true","14","4","moral","517","negative","不孝","","","","","","","","","","","","","","","","",""
"null","","null","html-keyboard-response","116","162069","0.0-6.0-1.0-8.0-0.4","3","4","4","4","3","3","3","3","4","4","4","4","3","4","4","4","4","4","5","4","2","2","2","1","2","2","2","2","1","1","0","1","1","0","0","0","1","0","1","1","0","1","0","1","4","2","2","3","2","1","3","3","1","2","1","802197026057101313","张","568","","","","","","","","","","","","","","","","","","","","","","","","","","","","","","","","","","","","","","","","","",""
"824","<p style=""color:rgb(150, 250, 100); font-size: 35px;"">自己的</p>","i","categorize-html","117","164487","0.0-6.0-1.0-8.0-1.4","3","4","4","4","3","3","3","3","4","4","4","4","3","4","4","4","4","4","5","4","2","2","2","1","2","2","2","2","1","1","0","1","1","0","0","0","1","0","1","1","0","1","0","1","4","2","2","3","2","1","3","3","1","2","1","802197026057101313","张","568","","","","","","","","","","","","","","","","","","","false","14","4","moral","1452.0212765957447","self","自己的","","","","","","","","","","","","","","","","",""
"null","","null","html-keyboard-response","118","164748","0.0-6.0-1.0-8.0-0.5","3","4","4","4","3","3","3","3","4","4","4","4","3","4","4","4","4","4","5","4","2","2","2","1","2","2","2","2","1","1","0","1","1","0","0","0","1","0","1","1","0","1","0","1","4","2","2","3","2","1","3","3","1","2","1","802197026057101313","张","568","","","","","","","","","","","","","","","","","","","","","","","","","","","","","","","","","","","","","","","","","",""
"745","<p style=""color:white; font-size: 35px;"">不孝</p>","e","categorize-html","119","165498","0.0-6.0-1.0-8.0-1.5","3","4","4","4","3","3","3","3","4","4","4","4","3","4","4","4","4","4","5","4","2","2","2","1","2","2","2","2","1","1","0","1","1","0","0","0","1","0","1","1","0","1","0","1","4","2","2","3","2","1","3","3","1","2","1","802197026057101313","张","568","","","","","","","","","","","","","","","","","","","true","14","4","moral","745","negative","不孝","","","","","","","","","","","","","","","","",""
"null","","null","html-keyboard-response","120","165749","0.0-6.0-1.0-8.0-0.6","3","4","4","4","3","3","3","3","4","4","4","4","3","4","4","4","4","4","5","4","2","2","2","1","2","2","2","2","1","1","0","1","1","0","0","0","1","0","1","1","0","1","0","1","4","2","2","3","2","1","3","3","1","2","1","802197026057101313","张","568","","","","","","","","","","","","","","","","","","","","","","","","","","","","","","","","","","","","","","","","","",""
"608","<p style=""color:rgb(150, 250, 100); font-size: 35px;"">他的</p>","i","categorize-html","121","166361","0.0-6.0-1.0-8.0-1.6","3","4","4","4","3","3","3","3","4","4","4","4","3","4","4","4","4","4","5","4","2","2","2","1","2","2","2","2","1","1","0","1","1","0","0","0","1","0","1","1","0","1","0","1","4","2","2","3","2","1","3","3","1","2","1","802197026057101313","张","568","","","","","","","","","","","","","","","","","","","true","14","4","moral","608","other","他的","","","","","","","","","","","","","","","","",""
"null","","null","html-keyboard-response","122","166614","0.0-6.0-1.0-8.0-0.7","3","4","4","4","3","3","3","3","4","4","4","4","3","4","4","4","4","4","5","4","2","2","2","1","2","2","2","2","1","1","0","1","1","0","0","0","1","0","1","1","0","1","0","1","4","2","2","3","2","1","3","3","1","2","1","802197026057101313","张","568","","","","","","","","","","","","","","","","","","","","","","","","","","","","","","","","","","","","","","","","","",""
"623","<p style=""color:white; font-size: 35px;"">廉正</p>","i","categorize-html","123","167241","0.0-6.0-1.0-8.0-1.7","3","4","4","4","3","3","3","3","4","4","4","4","3","4","4","4","4","4","5","4","2","2","2","1","2","2","2","2","1","1","0","1","1","0","0","0","1","0","1","1","0","1","0","1","4","2","2","3","2","1","3","3","1","2","1","802197026057101313","张","568","","","","","","","","","","","","","","","","","","","true","14","4","moral","623","positive","廉正","","","","","","","","","","","","","","","","",""
"null","","null","html-keyboard-response","124","167497","0.0-6.0-1.0-8.0-0.8","3","4","4","4","3","3","3","3","4","4","4","4","3","4","4","4","4","4","5","4","2","2","2","1","2","2","2","2","1","1","0","1","1","0","0","0","1","0","1","1","0","1","0","1","4","2","2","3","2","1","3","3","1","2","1","802197026057101313","张","568","","","","","","","","","","","","","","","","","","","","","","","","","","","","","","","","","","","","","","","","","",""
"1033","<p style=""color:rgb(150, 250, 100); font-size: 35px;"">别人的</p>","i","categorize-html","125","168535","0.0-6.0-1.0-8.0-1.8","3","4","4","4","3","3","3","3","4","4","4","4","3","4","4","4","4","4","5","4","2","2","2","1","2","2","2","2","1","1","0","1","1","0","0","0","1","0","1","1","0","1","0","1","4","2","2","3","2","1","3","3","1","2","1","802197026057101313","张","568","","","","","","","","","","","","","","","","","","","true","14","4","moral","1033","other","别人的","","","","","","","","","","","","","","","","",""
"null","","null","html-keyboard-response","126","168791","0.0-6.0-1.0-8.0-0.9","3","4","4","4","3","3","3","3","4","4","4","4","3","4","4","4","4","4","5","4","2","2","2","1","2","2","2","2","1","1","0","1","1","0","0","0","1","0","1","1","0","1","0","1","4","2","2","3","2","1","3","3","1","2","1","802197026057101313","张","568","","","","","","","","","","","","","","","","","","","","","","","","","","","","","","","","","","","","","","","","","",""
"679","<p style=""color:white; font-size: 35px;"">黑心</p>","e","categorize-html","127","169476","0.0-6.0-1.0-8.0-1.9","3","4","4","4","3","3","3","3","4","4","4","4","3","4","4","4","4","4","5","4","2","2","2","1","2","2","2","2","1","1","0","1","1","0","0","0","1","0","1","1","0","1","0","1","4","2","2","3","2","1","3","3","1","2","1","802197026057101313","张","568","","","","","","","","","","","","","","","","","","","true","14","4","moral","679","negative","黑心","","","","","","","","","","","","","","","","",""
"null","","null","html-keyboard-response","128","169728","0.0-6.0-1.0-8.0-0.10","3","4","4","4","3","3","3","3","4","4","4","4","3","4","4","4","4","4","5","4","2","2","2","1","2","2","2","2","1","1","0","1","1","0","0","0","1","0","1","1","0","1","0","1","4","2","2","3","2","1","3","3","1","2","1","802197026057101313","张","568","","","","","","","","","","","","","","","","","","","","","","","","","","","","","","","","","","","","","","","","","",""
"576","<p style=""color:rgb(150, 250, 100); font-size: 35px;"">我</p>","e","categorize-html","129","170314","0.0-6.0-1.0-8.0-1.10","3","4","4","4","3","3","3","3","4","4","4","4","3","4","4","4","4","4","5","4","2","2","2","1","2","2","2","2","1","1","0","1","1","0","0","0","1","0","1","1","0","1","0","1","4","2","2","3","2","1","3","3","1","2","1","802197026057101313","张","568","","","","","","","","","","","","","","","","","","","true","14","4","moral","576","self","我","","","","","","","","","","","","","","","","",""
"null","","null","html-keyboard-response","130","170571","0.0-6.0-1.0-8.0-0.11","3","4","4","4","3","3","3","3","4","4","4","4","3","4","4","4","4","4","5","4","2","2","2","1","2","2","2","2","1","1","0","1","1","0","0","0","1","0","1","1","0","1","0","1","4","2","2","3","2","1","3","3","1","2","1","802197026057101313","张","568","","","","","","","","","","","","","","","","","","","","","","","","","","","","","","","","","","","","","","","","","",""
"818","<p style=""color:white; font-size: 35px;"">诚信</p>","i","categorize-html","131","171393","0.0-6.0-1.0-8.0-1.11","3","4","4","4","3","3","3","3","4","4","4","4","3","4","4","4","4","4","5","4","2","2","2","1","2","2","2","2","1","1","0","1","1","0","0","0","1","0","1","1","0","1","0","1","4","2","2","3","2","1","3","3","1","2","1","802197026057101313","张","568","","","","","","","","","","","","","","","","","","","true","14","4","moral","818","positive","诚信","","","","","","","","","","","","","","","","",""
"null","","null","html-keyboard-response","132","171646","0.0-6.0-1.0-8.0-0.12","3","4","4","4","3","3","3","3","4","4","4","4","3","4","4","4","4","4","5","4","2","2","2","1","2","2","2","2","1","1","0","1","1","0","0","0","1","0","1","1","0","1","0","1","4","2","2","3","2","1","3","3","1","2","1","802197026057101313","张","568","","","","","","","","","","","","","","","","","","","","","","","","","","","","","","","","","","","","","","","","","",""
"519","<p style=""color:rgb(150, 250, 100); font-size: 35px;"">他</p>","i","categorize-html","133","172170","0.0-6.0-1.0-8.0-1.12","3","4","4","4","3","3","3","3","4","4","4","4","3","4","4","4","4","4","5","4","2","2","2","1","2","2","2","2","1","1","0","1","1","0","0","0","1","0","1","1","0","1","0","1","4","2","2","3","2","1","3","3","1","2","1","802197026057101313","张","568","","","","","","","","","","","","","","","","","","","true","14","4","moral","519","other","他","","","","","","","","","","","","","","","","",""
"null","","null","html-keyboard-response","134","172422","0.0-6.0-1.0-8.0-0.13","3","4","4","4","3","3","3","3","4","4","4","4","3","4","4","4","4","4","5","4","2","2","2","1","2","2","2","2","1","1","0","1","1","0","0","0","1","0","1","1","0","1","0","1","4","2","2","3","2","1","3","3","1","2","1","802197026057101313","张","568","","","","","","","","","","","","","","","","","","","","","","","","","","","","","","","","","","","","","","","","","",""
"776","<p style=""color:white; font-size: 35px;"">不仁</p>","e","categorize-html","135","173204","0.0-6.0-1.0-8.0-1.13","3","4","4","4","3","3","3","3","4","4","4","4","3","4","4","4","4","4","5","4","2","2","2","1","2","2","2","2","1","1","0","1","1","0","0","0","1","0","1","1","0","1","0","1","4","2","2","3","2","1","3","3","1","2","1","802197026057101313","张","568","","","","","","","","","","","","","","","","","","","true","14","4","moral","776","negative","不仁","","","","","","","","","","","","","","","","",""
"null","","null","html-keyboard-response","136","173456","0.0-6.0-1.0-8.0-0.14","3","4","4","4","3","3","3","3","4","4","4","4","3","4","4","4","4","4","5","4","2","2","2","1","2","2","2","2","1","1","0","1","1","0","0","0","1","0","1","1","0","1","0","1","4","2","2","3","2","1","3","3","1","2","1","802197026057101313","张","568","","","","","","","","","","","","","","","","","","","","","","","","","","","","","","","","","","","","","","","","","",""
"500","<p style=""color:rgb(150, 250, 100); font-size: 35px;"">我</p>","e","categorize-html","137","173961","0.0-6.0-1.0-8.0-1.14","3","4","4","4","3","3","3","3","4","4","4","4","3","4","4","4","4","4","5","4","2","2","2","1","2","2","2","2","1","1","0","1","1","0","0","0","1","0","1","1","0","1","0","1","4","2","2","3","2","1","3","3","1","2","1","802197026057101313","张","568","","","","","","","","","","","","","","","","","","","true","14","4","moral","500","self","我","","","","","","","","","","","","","","","","",""
"null","","null","html-keyboard-response","138","174213","0.0-6.0-1.0-8.0-0.15","3","4","4","4","3","3","3","3","4","4","4","4","3","4","4","4","4","4","5","4","2","2","2","1","2","2","2","2","1","1","0","1","1","0","0","0","1","0","1","1","0","1","0","1","4","2","2","3","2","1","3","3","1","2","1","802197026057101313","张","568","","","","","","","","","","","","","","","","","","","","","","","","","","","","","","","","","","","","","","","","","",""
"721","<p style=""color:white; font-size: 35px;"">善良</p>","i","categorize-html","139","174939","0.0-6.0-1.0-8.0-1.15","3","4","4","4","3","3","3","3","4","4","4","4","3","4","4","4","4","4","5","4","2","2","2","1","2","2","2","2","1","1","0","1","1","0","0","0","1","0","1","1","0","1","0","1","4","2","2","3","2","1","3","3","1","2","1","802197026057101313","张","568","","","","","","","","","","","","","","","","","","","true","14","4","moral","721","positive","善良","","","","","","","","","","","","","","","","",""
"null","","null","html-keyboard-response","140","175191","0.0-6.0-1.0-8.0-0.16","3","4","4","4","3","3","3","3","4","4","4","4","3","4","4","4","4","4","5","4","2","2","2","1","2","2","2","2","1","1","0","1","1","0","0","0","1","0","1","1","0","1","0","1","4","2","2","3","2","1","3","3","1","2","1","802197026057101313","张","568","","","","","","","","","","","","","","","","","","","","","","","","","","","","","","","","","","","","","","","","","",""
"717","<p style=""color:rgb(150, 250, 100); font-size: 35px;"">本人的</p>","e","categorize-html","141","175913","0.0-6.0-1.0-8.0-1.16","3","4","4","4","3","3","3","3","4","4","4","4","3","4","4","4","4","4","5","4","2","2","2","1","2","2","2","2","1","1","0","1","1","0","0","0","1","0","1","1","0","1","0","1","4","2","2","3","2","1","3","3","1","2","1","802197026057101313","张","568","","","","","","","","","","","","","","","","","","","true","14","4","moral","717","self","本人的","","","","","","","","","","","","","","","","",""
"null","","null","html-keyboard-response","142","176168","0.0-6.0-1.0-8.0-0.17","3","4","4","4","3","3","3","3","4","4","4","4","3","4","4","4","4","4","5","4","2","2","2","1","2","2","2","2","1","1","0","1","1","0","0","0","1","0","1","1","0","1","0","1","4","2","2","3","2","1","3","3","1","2","1","802197026057101313","张","568","","","","","","","","","","","","","","","","","","","","","","","","","","","","","","","","","","","","","","","","","",""
"677","<p style=""color:white; font-size: 35px;"">黑心</p>","e","categorize-html","143","176849","0.0-6.0-1.0-8.0-1.17","3","4","4","4","3","3","3","3","4","4","4","4","3","4","4","4","4","4","5","4","2","2","2","1","2","2","2","2","1","1","0","1","1","0","0","0","1","0","1","1","0","1","0","1","4","2","2","3","2","1","3","3","1","2","1","802197026057101313","张","568","","","","","","","","","","","","","","","","","","","true","14","4","moral","677","negative","黑心","","","","","","","","","","","","","","","","",""
"null","","null","html-keyboard-response","144","177101","0.0-6.0-1.0-8.0-0.18","3","4","4","4","3","3","3","3","4","4","4","4","3","4","4","4","4","4","5","4","2","2","2","1","2","2","2","2","1","1","0","1","1","0","0","0","1","0","1","1","0","1","0","1","4","2","2","3","2","1","3","3","1","2","1","802197026057101313","张","568","","","","","","","","","","","","","","","","","","","","","","","","","","","","","","","","","","","","","","","","","",""
"676","<p style=""color:rgb(150, 250, 100); font-size: 35px;"">他人</p>","i","categorize-html","145","177784","0.0-6.0-1.0-8.0-1.18","3","4","4","4","3","3","3","3","4","4","4","4","3","4","4","4","4","4","5","4","2","2","2","1","2","2","2","2","1","1","0","1","1","0","0","0","1","0","1","1","0","1","0","1","4","2","2","3","2","1","3","3","1","2","1","802197026057101313","张","568","","","","","","","","","","","","","","","","","","","true","14","4","moral","676","other","他人","","","","","","","","","","","","","","","","",""
"null","","null","html-keyboard-response","146","178037","0.0-6.0-1.0-8.0-0.19","3","4","4","4","3","3","3","3","4","4","4","4","3","4","4","4","4","4","5","4","2","2","2","1","2","2","2","2","1","1","0","1","1","0","0","0","1","0","1","1","0","1","0","1","4","2","2","3","2","1","3","3","1","2","1","802197026057101313","张","568","","","","","","","","","","","","","","","","","","","","","","","","","","","","","","","","","","","","","","","","","",""
"680","<p style=""color:white; font-size: 35px;"">正直</p>","i","categorize-html","147","178721","0.0-6.0-1.0-8.0-1.19","3","4","4","4","3","3","3","3","4","4","4","4","3","4","4","4","4","4","5","4","2","2","2","1","2","2","2","2","1","1","0","1","1","0","0","0","1","0","1","1","0","1","0","1","4","2","2","3","2","1","3","3","1","2","1","802197026057101313","张","568","","","","","","","","","","","","","","","","","","","true","14","4","moral","680","positive","正直","","","","","","","","","","","","","","","","",""
"null","","null","html-keyboard-response","148","178977","0.0-6.0-1.0-8.0-0.20","3","4","4","4","3","3","3","3","4","4","4","4","3","4","4","4","4","4","5","4","2","2","2","1","2","2","2","2","1","1","0","1","1","0","0","0","1","0","1","1","0","1","0","1","4","2","2","3","2","1","3","3","1","2","1","802197026057101313","张","568","","","","","","","","","","","","","","","","","","","","","","","","","","","","","","","","","","","","","","","","","",""
"1164","<p style=""color:rgb(150, 250, 100); font-size: 35px;"">他人</p>","i","categorize-html","149","180148","0.0-6.0-1.0-8.0-1.20","3","4","4","4","3","3","3","3","4","4","4","4","3","4","4","4","4","4","5","4","2","2","2","1","2","2","2","2","1","1","0","1","1","0","0","0","1","0","1","1","0","1","0","1","4","2","2","3","2","1","3","3","1","2","1","802197026057101313","张","568","","","","","","","","","","","","","","","","","","","true","14","4","moral","1164","other","他人","","","","","","","","","","","","","","","","",""
"null","","null","html-keyboard-response","150","180400","0.0-6.0-1.0-8.0-0.21","3","4","4","4","3","3","3","3","4","4","4","4","3","4","4","4","4","4","5","4","2","2","2","1","2","2","2","2","1","1","0","1","1","0","0","0","1","0","1","1","0","1","0","1","4","2","2","3","2","1","3","3","1","2","1","802197026057101313","张","568","","","","","","","","","","","","","","","","","","","","","","","","","","","","","","","","","","","","","","","","","",""
"733","<p style=""color:white; font-size: 35px;"">廉正</p>","i","categorize-html","151","185374","0.0-6.0-1.0-8.0-1.21","3","4","4","4","3","3","3","3","4","4","4","4","3","4","4","4","4","4","5","4","2","2","2","1","2","2","2","2","1","1","0","1","1","0","0","0","1","0","1","1","0","1","0","1","4","2","2","3","2","1","3","3","1","2","1","802197026057101313","张","568","","","","","","","","","","","","","","","","","","","true","14","4","moral","733","positive","廉正","","","","","","","","","","","","","","","","",""
"null","","null","html-keyboard-response","152","185655","0.0-6.0-1.0-8.0-0.22","3","4","4","4","3","3","3","3","4","4","4","4","3","4","4","4","4","4","5","4","2","2","2","1","2","2","2","2","1","1","0","1","1","0","0","0","1","0","1","1","0","1","0","1","4","2","2","3","2","1","3","3","1","2","1","802197026057101313","张","568","","","","","","","","","","","","","","","","","","","","","","","","","","","","","","","","","","","","","","","","","",""
"699","<p style=""color:rgb(150, 250, 100); font-size: 35px;"">我的</p>","e","categorize-html","153","186357","0.0-6.0-1.0-8.0-1.22","3","4","4","4","3","3","3","3","4","4","4","4","3","4","4","4","4","4","5","4","2","2","2","1","2","2","2","2","1","1","0","1","1","0","0","0","1","0","1","1","0","1","0","1","4","2","2","3","2","1","3","3","1","2","1","802197026057101313","张","568","","","","","","","","","","","","","","","","","","","true","14","4","moral","699","self","我的","","","","","","","","","","","","","","","","",""
"null","","null","html-keyboard-response","154","186611","0.0-6.0-1.0-8.0-0.23","3","4","4","4","3","3","3","3","4","4","4","4","3","4","4","4","4","4","5","4","2","2","2","1","2","2","2","2","1","1","0","1","1","0","0","0","1","0","1","1","0","1","0","1","4","2","2","3","2","1","3","3","1","2","1","802197026057101313","张","568","","","","","","","","","","","","","","","","","","","","","","","","","","","","","","","","","","","","","","","","","",""
"575","<p style=""color:white; font-size: 35px;"">小人</p>","e","categorize-html","155","187190","0.0-6.0-1.0-8.0-1.23","3","4","4","4","3","3","3","3","4","4","4","4","3","4","4","4","4","4","5","4","2","2","2","1","2","2","2","2","1","1","0","1","1","0","0","0","1","0","1","1","0","1","0","1","4","2","2","3","2","1","3","3","1","2","1","802197026057101313","张","568","","","","","","","","","","","","","","","","","","","true","14","4","moral","575","negative","小人","","","","","","","","","","","","","","","","",""
"null","","null","html-keyboard-response","156","187449","0.0-6.0-1.0-8.0-0.24","3","4","4","4","3","3","3","3","4","4","4","4","3","4","4","4","4","4","5","4","2","2","2","1","2","2","2","2","1","1","0","1","1","0","0","0","1","0","1","1","0","1","0","1","4","2","2","3","2","1","3","3","1","2","1","802197026057101313","张","568","","","","","","","","","","","","","","","","","","","","","","","","","","","","","","","","","","","","","","","","","",""
"753","<p style=""color:rgb(150, 250, 100); font-size: 35px;"">他的</p>","i","categorize-html","157","188206","0.0-6.0-1.0-8.0-1.24","3","4","4","4","3","3","3","3","4","4","4","4","3","4","4","4","4","4","5","4","2","2","2","1","2","2","2","2","1","1","0","1","1","0","0","0","1","0","1","1","0","1","0","1","4","2","2","3","2","1","3","3","1","2","1","802197026057101313","张","568","","","","","","","","","","","","","","","","","","","true","14","4","moral","753","other","他的","","","","","","","","","","","","","","","","",""
"null","","null","html-keyboard-response","158","188457","0.0-6.0-1.0-8.0-0.25","3","4","4","4","3","3","3","3","4","4","4","4","3","4","4","4","4","4","5","4","2","2","2","1","2","2","2","2","1","1","0","1","1","0","0","0","1","0","1","1","0","1","0","1","4","2","2","3","2","1","3","3","1","2","1","802197026057101313","张","568","","","","","","","","","","","","","","","","","","","","","","","","","","","","","","","","","","","","","","","","","",""
"530","<p style=""color:white; font-size: 35px;"">诚信</p>","i","categorize-html","159","188991","0.0-6.0-1.0-8.0-1.25","3","4","4","4","3","3","3","3","4","4","4","4","3","4","4","4","4","4","5","4","2","2","2","1","2","2","2","2","1","1","0","1","1","0","0","0","1","0","1","1","0","1","0","1","4","2","2","3","2","1","3","3","1","2","1","802197026057101313","张","568","","","","","","","","","","","","","","","","","","","true","14","4","moral","530","positive","诚信","","","","","","","","","","","","","","","","",""
"null","","null","html-keyboard-response","160","189243","0.0-6.0-1.0-8.0-0.26","3","4","4","4","3","3","3","3","4","4","4","4","3","4","4","4","4","4","5","4","2","2","2","1","2","2","2","2","1","1","0","1","1","0","0","0","1","0","1","1","0","1","0","1","4","2","2","3","2","1","3","3","1","2","1","802197026057101313","张","568","","","","","","","","","","","","","","","","","","","","","","","","","","","","","","","","","","","","","","","","","",""
"1015","<p style=""color:rgb(150, 250, 100); font-size: 35px;"">本人</p>","e","categorize-html","161","190262","0.0-6.0-1.0-8.0-1.26","3","4","4","4","3","3","3","3","4","4","4","4","3","4","4","4","4","4","5","4","2","2","2","1","2","2","2","2","1","1","0","1","1","0","0","0","1","0","1","1","0","1","0","1","4","2","2","3","2","1","3","3","1","2","1","802197026057101313","张","568","","","","","","","","","","","","","","","","","","","true","14","4","moral","1015","self","本人","","","","","","","","","","","","","","","","",""
"null","","null","html-keyboard-response","162","190532","0.0-6.0-1.0-8.0-0.27","3","4","4","4","3","3","3","3","4","4","4","4","3","4","4","4","4","4","5","4","2","2","2","1","2","2","2","2","1","1","0","1","1","0","0","0","1","0","1","1","0","1","0","1","4","2","2","3","2","1","3","3","1","2","1","802197026057101313","张","568","","","","","","","","","","","","","","","","","","","","","","","","","","","","","","","","","","","","","","","","","",""
"2318","<p style=""color:white; font-size: 35px;"">不仁</p>","e","categorize-html","163","192855","0.0-6.0-1.0-8.0-1.27","3","4","4","4","3","3","3","3","4","4","4","4","3","4","4","4","4","4","5","4","2","2","2","1","2","2","2","2","1","1","0","1","1","0","0","0","1","0","1","1","0","1","0","1","4","2","2","3","2","1","3","3","1","2","1","802197026057101313","张","568","","","","","","","","","","","","","","","","","","","true","14","4","moral","2318","negative","不仁","","","","","","","","","","","","","","","","",""
"null","","null","html-keyboard-response","164","193107","0.0-6.0-1.0-8.0-0.28","3","4","4","4","3","3","3","3","4","4","4","4","3","4","4","4","4","4","5","4","2","2","2","1","2","2","2","2","1","1","0","1","1","0","0","0","1","0","1","1","0","1","0","1","4","2","2","3","2","1","3","3","1","2","1","802197026057101313","张","568","","","","","","","","","","","","","","","","","","","","","","","","","","","","","","","","","","","","","","","","","",""
"798","<p style=""color:rgb(150, 250, 100); font-size: 35px;"">他人的</p>","i","categorize-html","165","193909","0.0-6.0-1.0-8.0-1.28","3","4","4","4","3","3","3","3","4","4","4","4","3","4","4","4","4","4","5","4","2","2","2","1","2","2","2","2","1","1","0","1","1","0","0","0","1","0","1","1","0","1","0","1","4","2","2","3","2","1","3","3","1","2","1","802197026057101313","张","568","","","","","","","","","","","","","","","","","","","true","14","4","moral","798","other","他人的","","","","","","","","","","","","","","","","",""
"null","","null","html-keyboard-response","166","194161","0.0-6.0-1.0-8.0-0.29","3","4","4","4","3","3","3","3","4","4","4","4","3","4","4","4","4","4","5","4","2","2","2","1","2","2","2","2","1","1","0","1","1","0","0","0","1","0","1","1","0","1","0","1","4","2","2","3","2","1","3","3","1","2","1","802197026057101313","张","568","","","","","","","","","","","","","","","","","","","","","","","","","","","","","","","","","","","","","","","","","",""
"1513","<p style=""color:white; font-size: 35px;"">缺德</p>","e","categorize-html","167","195677","0.0-6.0-1.0-8.0-1.29","3","4","4","4","3","3","3","3","4","4","4","4","3","4","4","4","4","4","5","4","2","2","2","1","2","2","2","2","1","1","0","1","1","0","0","0","1","0","1","1","0","1","0","1","4","2","2","3","2","1","3","3","1","2","1","802197026057101313","张","568","","","","","","","","","","","","","","","","","","","true","14","4","moral","1513","negative","缺德","","","","","","","","","","","","","","","","",""
"null","","null","html-keyboard-response","168","195932","0.0-6.0-1.0-8.0-0.30","3","4","4","4","3","3","3","3","4","4","4","4","3","4","4","4","4","4","5","4","2","2","2","1","2","2","2","2","1","1","0","1","1","0","0","0","1","0","1","1","0","1","0","1","4","2","2","3","2","1","3","3","1","2","1","802197026057101313","张","568","","","","","","","","","","","","","","","","","","","","","","","","","","","","","","","","","","","","","","","","","",""
"797","<p style=""color:rgb(150, 250, 100); font-size: 35px;"">自己的</p>","e","categorize-html","169","196733","0.0-6.0-1.0-8.0-1.30","3","4","4","4","3","3","3","3","4","4","4","4","3","4","4","4","4","4","5","4","2","2","2","1","2","2","2","2","1","1","0","1","1","0","0","0","1","0","1","1","0","1","0","1","4","2","2","3","2","1","3","3","1","2","1","802197026057101313","张","568","","","","","","","","","","","","","","","","","","","true","14","4","moral","797","self","自己的","","","","","","","","","","","","","","","","",""
"null","","null","html-keyboard-response","170","196985","0.0-6.0-1.0-8.0-0.31","3","4","4","4","3","3","3","3","4","4","4","4","3","4","4","4","4","4","5","4","2","2","2","1","2","2","2","2","1","1","0","1","1","0","0","0","1","0","1","1","0","1","0","1","4","2","2","3","2","1","3","3","1","2","1","802197026057101313","张","568","","","","","","","","","","","","","","","","","","","","","","","","","","","","","","","","","","","","","","","","","",""
"993","<p style=""color:white; font-size: 35px;"">正直</p>","i","categorize-html","171","197983","0.0-6.0-1.0-8.0-1.31","3","4","4","4","3","3","3","3","4","4","4","4","3","4","4","4","4","4","5","4","2","2","2","1","2","2","2","2","1","1","0","1","1","0","0","0","1","0","1","1","0","1","0","1","4","2","2","3","2","1","3","3","1","2","1","802197026057101313","张","568","","","","","","","","","","","","","","","","","","","true","14","4","moral","993","positive","正直","","","","","","","","","","","","","","","","",""
"null","","null","html-keyboard-response","172","198237","0.0-6.0-1.0-8.0-0.32","3","4","4","4","3","3","3","3","4","4","4","4","3","4","4","4","4","4","5","4","2","2","2","1","2","2","2","2","1","1","0","1","1","0","0","0","1","0","1","1","0","1","0","1","4","2","2","3","2","1","3","3","1","2","1","802197026057101313","张","568","","","","","","","","","","","","","","","","","","","","","","","","","","","","","","","","","","","","","","","","","",""
"636","<p style=""color:rgb(150, 250, 100); font-size: 35px;"">别人的</p>","i","categorize-html","173","198878","0.0-6.0-1.0-8.0-1.32","3","4","4","4","3","3","3","3","4","4","4","4","3","4","4","4","4","4","5","4","2","2","2","1","2","2","2","2","1","1","0","1","1","0","0","0","1","0","1","1","0","1","0","1","4","2","2","3","2","1","3","3","1","2","1","802197026057101313","张","568","","","","","","","","","","","","","","","","","","","true","14","4","moral","636","other","别人的","","","","","","","","","","","","","","","","",""
"null","","null","html-keyboard-response","174","199129","0.0-6.0-1.0-8.0-0.33","3","4","4","4","3","3","3","3","4","4","4","4","3","4","4","4","4","4","5","4","2","2","2","1","2","2","2","2","1","1","0","1","1","0","0","0","1","0","1","1","0","1","0","1","4","2","2","3","2","1","3","3","1","2","1","802197026057101313","张","568","","","","","","","","","","","","","","","","","","","","","","","","","","","","","","","","","","","","","","","","","",""
"832","<p style=""color:white; font-size: 35px;"">高尚</p>","i","categorize-html","175","199966","0.0-6.0-1.0-8.0-1.33","3","4","4","4","3","3","3","3","4","4","4","4","3","4","4","4","4","4","5","4","2","2","2","1","2","2","2","2","1","1","0","1","1","0","0","0","1","0","1","1","0","1","0","1","4","2","2","3","2","1","3","3","1","2","1","802197026057101313","张","568","","","","","","","","","","","","","","","","","","","true","14","4","moral","832","positive","高尚","","","","","","","","","","","","","","","","",""
"null","","null","html-keyboard-response","176","200224","0.0-6.0-1.0-8.0-0.34","3","4","4","4","3","3","3","3","4","4","4","4","3","4","4","4","4","4","5","4","2","2","2","1","2","2","2","2","1","1","0","1","1","0","0","0","1","0","1","1","0","1","0","1","4","2","2","3","2","1","3","3","1","2","1","802197026057101313","张","568","","","","","","","","","","","","","","","","","","","","","","","","","","","","","","","","","","","","","","","","","",""
"1028","<p style=""color:rgb(150, 250, 100); font-size: 35px;"">本人</p>","e","categorize-html","177","201259","0.0-6.0-1.0-8.0-1.34","3","4","4","4","3","3","3","3","4","4","4","4","3","4","4","4","4","4","5","4","2","2","2","1","2","2","2","2","1","1","0","1","1","0","0","0","1","0","1","1","0","1","0","1","4","2","2","3","2","1","3","3","1","2","1","802197026057101313","张","568","","","","","","","","","","","","","","","","","","","true","14","4","moral","1028","self","本人","","","","","","","","","","","","","","","","",""
"null","","null","html-keyboard-response","178","201512","0.0-6.0-1.0-8.0-0.35","3","4","4","4","3","3","3","3","4","4","4","4","3","4","4","4","4","4","5","4","2","2","2","1","2","2","2","2","1","1","0","1","1","0","0","0","1","0","1","1","0","1","0","1","4","2","2","3","2","1","3","3","1","2","1","802197026057101313","张","568","","","","","","","","","","","","","","","","","","","","","","","","","","","","","","","","","","","","","","","","","",""
"592","<p style=""color:white; font-size: 35px;"">卑鄙</p>","e","categorize-html","179","202110","0.0-6.0-1.0-8.0-1.35","3","4","4","4","3","3","3","3","4","4","4","4","3","4","4","4","4","4","5","4","2","2","2","1","2","2","2","2","1","1","0","1","1","0","0","0","1","0","1","1","0","1","0","1","4","2","2","3","2","1","3","3","1","2","1","802197026057101313","张","568","","","","","","","","","","","","","","","","","","","true","14","4","moral","592","negative","卑鄙","","","","","","","","","","","","","","","","",""
"null","","null","html-keyboard-response","180","202373","0.0-6.0-1.0-8.0-0.36","3","4","4","4","3","3","3","3","4","4","4","4","3","4","4","4","4","4","5","4","2","2","2","1","2","2","2","2","1","1","0","1","1","0","0","0","1","0","1","1","0","1","0","1","4","2","2","3","2","1","3","3","1","2","1","802197026057101313","张","568","","","","","","","","","","","","","","","","","","","","","","","","","","","","","","","","","","","","","","","","","",""
"2903","<p style=""color:rgb(150, 250, 100); font-size: 35px;"">别人</p>","i","categorize-html","181","205280","0.0-6.0-1.0-8.0-1.36","3","4","4","4","3","3","3","3","4","4","4","4","3","4","4","4","4","4","5","4","2","2","2","1","2","2","2","2","1","1","0","1","1","0","0","0","1","0","1","1","0","1","0","1","4","2","2","3","2","1","3","3","1","2","1","802197026057101313","张","568","","","","","","","","","","","","","","","","","","","true","14","4","moral","2903","other","别人","","","","","","","","","","","","","","","","",""
"null","","null","html-keyboard-response","182","205537","0.0-6.0-1.0-8.0-0.37","3","4","4","4","3","3","3","3","4","4","4","4","3","4","4","4","4","4","5","4","2","2","2","1","2","2","2","2","1","1","0","1","1","0","0","0","1","0","1","1","0","1","0","1","4","2","2","3","2","1","3","3","1","2","1","802197026057101313","张","568","","","","","","","","","","","","","","","","","","","","","","","","","","","","","","","","","","","","","","","","","",""
"536","<p style=""color:white; font-size: 35px;"">君子</p>","i","categorize-html","183","206077","0.0-6.0-1.0-8.0-1.37","3","4","4","4","3","3","3","3","4","4","4","4","3","4","4","4","4","4","5","4","2","2","2","1","2","2","2","2","1","1","0","1","1","0","0","0","1","0","1","1","0","1","0","1","4","2","2","3","2","1","3","3","1","2","1","802197026057101313","张","568","","","","","","","","","","","","","","","","","","","true","14","4","moral","536","positive","君子","","","","","","","","","","","","","","","","",""
"null","","null","html-keyboard-response","184","206329","0.0-6.0-1.0-8.0-0.38","3","4","4","4","3","3","3","3","4","4","4","4","3","4","4","4","4","4","5","4","2","2","2","1","2","2","2","2","1","1","0","1","1","0","0","0","1","0","1","1","0","1","0","1","4","2","2","3","2","1","3","3","1","2","1","802197026057101313","张","568","","","","","","","","","","","","","","","","","","","","","","","","","","","","","","","","","","","","","","","","","",""
"818","<p style=""color:rgb(150, 250, 100); font-size: 35px;"">自己</p>","e","categorize-html","185","207151","0.0-6.0-1.0-8.0-1.38","3","4","4","4","3","3","3","3","4","4","4","4","3","4","4","4","4","4","5","4","2","2","2","1","2","2","2","2","1","1","0","1","1","0","0","0","1","0","1","1","0","1","0","1","4","2","2","3","2","1","3","3","1","2","1","802197026057101313","张","568","","","","","","","","","","","","","","","","","","","true","14","4","moral","818","self","自己","","","","","","","","","","","","","","","","",""
"null","","null","html-keyboard-response","186","207403","0.0-6.0-1.0-8.0-0.39","3","4","4","4","3","3","3","3","4","4","4","4","3","4","4","4","4","4","5","4","2","2","2","1","2","2","2","2","1","1","0","1","1","0","0","0","1","0","1","1","0","1","0","1","4","2","2","3","2","1","3","3","1","2","1","802197026057101313","张","568","","","","","","","","","","","","","","","","","","","","","","","","","","","","","","","","","","","","","","","","","",""
"519","<p style=""color:white; font-size: 35px;"">小人</p>","e","categorize-html","187","207926","0.0-6.0-1.0-8.0-1.39","3","4","4","4","3","3","3","3","4","4","4","4","3","4","4","4","4","4","5","4","2","2","2","1","2","2","2","2","1","1","0","1","1","0","0","0","1","0","1","1","0","1","0","1","4","2","2","3","2","1","3","3","1","2","1","802197026057101313","张","568","","","","","","","","","","","","","","","","","","","true","14","4","moral","519","negative","小人","","","","","","","","","","","","","","","","",""
"null","","null","html-keyboard-response","188","208184","0.0-6.0-1.0-8.0-0.40","3","4","4","4","3","3","3","3","4","4","4","4","3","4","4","4","4","4","5","4","2","2","2","1","2","2","2","2","1","1","0","1","1","0","0","0","1","0","1","1","0","1","0","1","4","2","2","3","2","1","3","3","1","2","1","802197026057101313","张","568","","","","","","","","","","","","","","","","","","","","","","","","","","","","","","","","","","","","","","","","","",""
"737","<p style=""color:rgb(150, 250, 100); font-size: 35px;"">别人</p>","i","categorize-html","189","208924","0.0-6.0-1.0-8.0-1.40","3","4","4","4","3","3","3","3","4","4","4","4","3","4","4","4","4","4","5","4","2","2","2","1","2","2","2","2","1","1","0","1","1","0","0","0","1","0","1","1","0","1","0","1","4","2","2","3","2","1","3","3","1","2","1","802197026057101313","张","568","","","","","","","","","","","","","","","","","","","true","14","4","moral","737","other","别人","","","","","","","","","","","","","","","","",""
"null","","null","html-keyboard-response","190","209176","0.0-6.0-1.0-8.0-0.41","3","4","4","4","3","3","3","3","4","4","4","4","3","4","4","4","4","4","5","4","2","2","2","1","2","2","2","2","1","1","0","1","1","0","0","0","1","0","1","1","0","1","0","1","4","2","2","3","2","1","3","3","1","2","1","802197026057101313","张","568","","","","","","","","","","","","","","","","","","","","","","","","","","","","","","","","","","","","","","","","","",""
"513","<p style=""color:white; font-size: 35px;"">善良</p>","i","categorize-html","191","209693","0.0-6.0-1.0-8.0-1.41","3","4","4","4","3","3","3","3","4","4","4","4","3","4","4","4","4","4","5","4","2","2","2","1","2","2","2","2","1","1","0","1","1","0","0","0","1","0","1","1","0","1","0","1","4","2","2","3","2","1","3","3","1","2","1","802197026057101313","张","568","","","","","","","","","","","","","","","","","","","true","14","4","moral","513","positive","善良","","","","","","","","","","","","","","","","",""
"null","","null","html-keyboard-response","192","209945","0.0-6.0-1.0-8.0-0.42","3","4","4","4","3","3","3","3","4","4","4","4","3","4","4","4","4","4","5","4","2","2","2","1","2","2","2","2","1","1","0","1","1","0","0","0","1","0","1","1","0","1","0","1","4","2","2","3","2","1","3","3","1","2","1","802197026057101313","张","568","","","","","","","","","","","","","","","","","","","","","","","","","","","","","","","","","","","","","","","","","",""
"1032","<p style=""color:rgb(150, 250, 100); font-size: 35px;"">本人的</p>","e","categorize-html","193","210980","0.0-6.0-1.0-8.0-1.42","3","4","4","4","3","3","3","3","4","4","4","4","3","4","4","4","4","4","5","4","2","2","2","1","2","2","2","2","1","1","0","1","1","0","0","0","1","0","1","1","0","1","0","1","4","2","2","3","2","1","3","3","1","2","1","802197026057101313","张","568","","","","","","","","","","","","","","","","","","","true","14","4","moral","1032","self","本人的","","","","","","","","","","","","","","","","",""
