"rt","stimulus","response","trial_type","trial_index","time_elapsed","internal_node_id","ses_1","ses_2","ses_3","ses_4","ses_5","ses_6","ses_7","ses_8","ses_9","ses_10","coreself_1","coreself_2","coreself_3","coreself_4","coreself_5","coreself_6","coreself_7","coreself_8","coreself_9","coreself_10","SGPS_1","SGPS_2","SGPS_3","SGPS_4","SGPS_5","SGPS_6","SGPS_7","SGPS_8","SGPS_9","NPI1","NPI2","NPI3","NPI4","NPI5","NPI6","NPI7","NPI8","NPI9","NPI10","NPI11","NPI12","NPI13","NPI14","NPI15","hsns_1","hsns_2","hsns_3","hsns_4","hsns_5","trap1","hsns_6","hsns_7","hsns_8","hsns_9","hsns_10","subj_idx","friend_name","ParticipantID","value","success","user_agent","responses","item_order","radio_event_ids","radio_event_times","key_event_times","mouse_event_times","straightlining","zigzagging","honeypot","timeout","failed_images","failed_audio","failed_video","view_history","response_type","key_press","avg_frame_time","center_x","center_y","correct_response","correct","identity","Image","word","condition","task_id","screen_id","time_stamp","version_attrib2","version_target2","IAT","RT","varname","summary","version_attrib","version_target","question_order","correct_answer","trap1_item"
"25756","
   <p><div style = ""color: white;font-size:25px;"">您好，欢迎参加本次实验。</div> </p>
   <p><div style = ""color: white;font-size:25px;"">为充分保障您的权利，请确保您已经知晓并同意《参与实验同意书》以及《数据公开知情同意书》。</div></p>
   <p><div style = ""color: white;font-size:25px;"">如果您未见过上述内容，请咨询实验员。</div></p>
   <p><div style = ""color: white;font-size:25px;"">如果您选择继续实验，则表示您已经清楚两份知情同意书的内容并同意。</div></p>
   <p><div style = ""color: pink;font-size:30px;"">请确保您记得day0的实验编号，您将在本次实验输入该编号，若您忘记，请咨询实验员后作答。</div></p>
   <p><div style = ""color: lightblue;font-size:25px;"">请您尽可能认真地作答，我们将依据您在各问卷和按键任务中的作答质量发放报酬。</div></p>
   <p> <div style = ""color: green;font-size:25px;""><按空格键至下页></div> </p>
   "," ","html-keyboard-response","0","25758","0.0-0.0","4","4","4","4","4","4","4","4","4","3","4","4","3","4","4","5","4","5","4","5","1","2","1","1","1","2","1","2","1","1","0","0","0","1","1","0","1","1","0","0","0","1","0","1","5","4","4","3","4","2","2","4","4","2","2","769498068633784321","林","459","","","","","","","","","","","","","","","","","","","","","","","","","","","","","","","","","","","","","","","","","",""
"","","","call-function","1","25759","0.0-1.0-0.0","4","4","4","4","4","4","4","4","4","3","4","4","3","4","4","5","4","5","4","5","1","2","1","1","1","2","1","2","1","1","0","0","0","1","1","0","1","1","0","0","0","1","0","1","5","4","4","3","4","2","2","4","4","2","2","769498068633784321","林","459","","","","","","","","","","","","","","","","","","","","","","","","","","","","","","","","","","","","","","","","","",""
"42058","","{""friend_name"":""林"",""ParticipantID"":""459""}","survey-html-form","2","67820","0.0-1.0-1.0","4","4","4","4","4","4","4","4","4","3","4","4","3","4","4","5","4","5","4","5","1","2","1","1","1","2","1","2","1","1","0","0","0","1","1","0","1","1","0","0","0","1","0","1","5","4","4","3","4","2","2","4","4","2","2","769498068633784321","林","459","","","","","","","","","","","","","","","","","","","","","","","","","","","","","","","","","","","","","","","","","",""
"","","","fullscreen","3","88475","0.0-2.0","4","4","4","4","4","4","4","4","4","3","4","4","3","4","4","5","4","5","4","5","1","2","1","1","1","2","1","2","1","1","0","0","0","1","1","0","1","1","0","0","0","1","0","1","5","4","4","3","4","2","2","4","4","2","2","769498068633784321","林","459","","true","{}","","","","","","","","","","","","","","","","","","","","","","","","","","","","","","","","","","","","","","",""
"17817.599999904633","","{""Q01"":""4"",""Q02"":""4"",""Q03"":""4"",""Q04"":""4"",""Q05"":""4"",""Q06"":""4"",""Q07"":""4"",""Q08"":""4"",""Q09"":""4"",""Q10"":""3""}","survey-template","4","106295","0.0-3.0","4","4","4","4","4","4","4","4","4","3","4","4","3","4","4","5","4","5","4","5","1","2","1","1","1","2","1","2","1","1","0","0","0","1","1","0","1","1","0","0","0","1","0","1","5","4","4","3","4","2","2","4","4","2","2","769498068633784321","林","459","","","","{""Q01"":""4"",""Q02"":""4"",""Q03"":""4"",""Q04"":""4"",""Q05"":""4"",""Q06"":""4"",""Q07"":""4"",""Q08"":""4"",""Q09"":""4"",""Q10"":""3""}","[0,1,2,3,4,5,6,7,8,9]","[""Q01"",""Q02"",""Q03"",""Q04"",""Q05"",""Q06"",""Q07"",""Q08"",""Q09"",""Q10""]","[3124.5999999046326,4740.900000095367,6015.5,7067.199999809265,8690.5,10411.199999809265,11118.799999713898,14057.099999904633,15857.099999904633,16788.5]","[]","[2396.9000000953674,3124.5999999046326,4740.900000095367,6015.5,7067.199999809265,8206.900000095367,8690.5,9871,10411.199999809265,11118.799999713898,13349.099999904633,14057.099999904633,14756.900000095367,15388.900000095367,15857.099999904633,16788.5,17816.599999904633]","0.5","0.6666666666666666","0","","","","","","","","","","","","","","","","","","","","","","","","","","","","","",""
"21249.199999809265","","{""Q01"":""4"",""Q02"":""4"",""Q03"":""3"",""Q04"":""4"",""Q05"":""4"",""Q06"":""5"",""Q07"":""4"",""Q08"":""5"",""Q09"":""4"",""Q10"":""5""}","survey-template","5","127550","0.0-4.0","4","4","4","4","4","4","4","4","4","3","4","4","3","4","4","5","4","5","4","5","1","2","1","1","1","2","1","2","1","1","0","0","0","1","1","0","1","1","0","0","0","1","0","1","5","4","4","3","4","2","2","4","4","2","2","769498068633784321","林","459","","","","{""Q01"":""4"",""Q02"":""4"",""Q03"":""3"",""Q04"":""4"",""Q05"":""4"",""Q06"":""5"",""Q07"":""4"",""Q08"":""5"",""Q09"":""4"",""Q10"":""5""}","[0,1,2,3,4,5,6,7,8,9]","[""Q01"",""Q02"",""Q03"",""Q03"",""Q04"",""Q05"",""Q06"",""Q07"",""Q08"",""Q09"",""Q10""]","[2428.2999997138977,3276.0999999046326,5588.199999809265,6486.199999809265,9606.5,11206.299999713898,12218.199999809265,14860.699999809265,16134.299999713898,17807.299999713898,20420.5]","[]","[2428.2999997138977,3276.0999999046326,5588.199999809265,6486.199999809265,8455.5,9606.5,11206.299999713898,12218.199999809265,14860.699999809265,16134.299999713898,17807.299999713898,19136.900000095367,19672.5,20420.5,21248.199999809265]","0.3","0.3333333333333333","0","","","","","","","","","","","","","","","","","","","","","","","","","","","","","",""
"","","","preload","6","128086","0.0-5.0","4","4","4","4","4","4","4","4","4","3","4","4","3","4","4","5","4","5","4","5","1","2","1","1","1","2","1","2","1","1","0","0","0","1","1","0","1","1","0","0","0","1","0","1","5","4","4","3","4","2","2","4","4","2","2","769498068633784321","林","459","","true","","","","","","","","","","","false","[]","[]","[]","","","","","","","","","","","","","","","","","","","","","","","","","",""
"31313","","","instructions","7","159400","0.0-6.0","4","4","4","4","4","4","4","4","4","3","4","4","3","4","4","5","4","5","4","5","1","2","1","1","1","2","1","2","1","1","0","0","0","1","1","0","1","1","0","0","0","1","0","1","5","4","4","3","4","2","2","4","4","2","2","769498068633784321","林","459","","","","","","","","","","","","","","","","","[{""page_index"":0,""viewing_time"":31313}]","","","","","","","","","","","","","","","","","","","","","","","","",""
"46064","","","instructions","8","205467","0.0-7.0-1.0-0.0","4","4","4","4","4","4","4","4","4","3","4","4","3","4","4","5","4","5","4","5","1","2","1","1","1","2","1","2","1","1","0","0","0","1","1","0","1","1","0","0","0","1","0","1","5","4","4","3","4","2","2","4","4","2","2","769498068633784321","林","459","","","","","","","","","","","","","","","","","[{""page_index"":0,""viewing_time"":30258},{""page_index"":1,""viewing_time"":13888},{""page_index"":2,""viewing_time"":1918}]","","","","","","","","","","","","","","","","","","","","","","","","",""
"null","","null","psychophysics","9","207671","0.0-7.0-1.0-1.0-0.0-0.0","4","4","4","4","4","4","4","4","4","3","4","4","3","4","4","5","4","5","4","5","1","2","1","1","1","2","1","2","1","1","0","0","0","1","1","0","1","1","0","0","0","1","0","1","5","4","4","3","4","2","2","4","4","2","2","769498068633784321","林","459","","","","null","","","","","","","","","","","","","","key","null","16.666412213740593","680","380","j","false","match","img/trapezoid.png","梯形","梯形","ALT1_2","prac_ALT1_2","","","","","","","","","","","",""
"null","<span class='add_' style='color:yellow; font-size: 70px;'> 太慢! </span>","null","html-keyboard-response","10","208173","0.0-7.0-1.0-1.0-0.0-1.0","4","4","4","4","4","4","4","4","4","3","4","4","3","4","4","5","4","5","4","5","1","2","1","1","1","2","1","2","1","1","0","0","0","1","1","0","1","1","0","0","0","1","0","1","5","4","4","3","4","2","2","4","4","2","2","769498068633784321","林","459","","","","","","","","","","","","","","","","","","","","","","","","","","","","","","feedback_test","","","","","","","","","","","",""
"920","","j","psychophysics","11","210095","0.0-7.0-1.0-1.0-0.0-0.1","4","4","4","4","4","4","4","4","4","3","4","4","3","4","4","5","4","5","4","5","1","2","1","1","1","2","1","2","1","1","0","0","0","1","1","0","1","1","0","0","0","1","0","1","5","4","4","3","4","2","2","4","4","2","2","769498068633784321","林","459","","","","match","","","","","","","","","","","","","","key","j","16.663157894736894","680","380","f","false","nonmatch","img/triangle.png","梯形","三角","ALT1_2","prac_ALT1_2","","","","","","","","","","","",""
"null","<span style='color:red; font-size: 70px;'>错误! </span>","null","html-keyboard-response","12","210596","0.0-7.0-1.0-1.0-0.0-1.1","4","4","4","4","4","4","4","4","4","3","4","4","3","4","4","5","4","5","4","5","1","2","1","1","1","2","1","2","1","1","0","0","0","1","1","0","1","1","0","0","0","1","0","1","5","4","4","3","4","2","2","4","4","2","2","769498068633784321","林","459","","","","","","","","","","","","","","","","","","","","","","","","","","","","","","feedback_test","","","","","","","","","","","",""
"931","","f","psychophysics","13","212528","0.0-7.0-1.0-1.0-0.0-0.2","4","4","4","4","4","4","4","4","4","3","4","4","3","4","4","5","4","5","4","5","1","2","1","1","1","2","1","2","1","1","0","0","0","1","1","0","1","1","0","0","0","1","0","1","5","4","4","3","4","2","2","4","4","2","2","769498068633784321","林","459","","","","nonmatch","","","","","","","","","","","","","","key","f","16.66695652173923","680","380","f","true","nonmatch","img/triangle.png","六边","三角","ALT1_2","prac_ALT1_2","","","","","","","","","","","",""
"null","<span style='color:GreenYellow; font-size: 70px;'>正确! </span>","null","html-keyboard-response","14","213031","0.0-7.0-1.0-1.0-0.0-1.2","4","4","4","4","4","4","4","4","4","3","4","4","3","4","4","5","4","5","4","5","1","2","1","1","1","2","1","2","1","1","0","0","0","1","1","0","1","1","0","0","0","1","0","1","5","4","4","3","4","2","2","4","4","2","2","769498068633784321","林","459","","","","","","","","","","","","","","","","","","","","","","","","","","","","","","feedback_test","","","","","","","","","","","",""
"null","","null","psychophysics","15","215233","0.0-7.0-1.0-1.0-0.0-0.3","4","4","4","4","4","4","4","4","4","3","4","4","3","4","4","5","4","5","4","5","1","2","1","1","1","2","1","2","1","1","0","0","0","1","1","0","1","1","0","0","0","1","0","1","5","4","4","3","4","2","2","4","4","2","2","769498068633784321","林","459","","","","null","","","","","","","","","","","","","","key","null","16.669465648855052","680","380","j","false","match","img/circle.png","圆形","圆形","ALT1_2","prac_ALT1_2","","","","","","","","","","","",""
"null","<span class='add_' style='color:yellow; font-size: 70px;'> 太慢! </span>","null","html-keyboard-response","16","215734","0.0-7.0-1.0-1.0-0.0-1.3","4","4","4","4","4","4","4","4","4","3","4","4","3","4","4","5","4","5","4","5","1","2","1","1","1","2","1","2","1","1","0","0","0","1","1","0","1","1","0","0","0","1","0","1","5","4","4","3","4","2","2","4","4","2","2","769498068633784321","林","459","","","","","","","","","","","","","","","","","","","","","","","","","","","","","","feedback_test","","","","","","","","","","","",""
"711","","f","psychophysics","17","217447","0.0-7.0-1.0-1.0-0.0-0.4","4","4","4","4","4","4","4","4","4","3","4","4","3","4","4","5","4","5","4","5","1","2","1","1","1","2","1","2","1","1","0","0","0","1","1","0","1","1","0","0","0","1","0","1","5","4","4","3","4","2","2","4","4","2","2","769498068633784321","林","459","","","","nonmatch","","","","","","","","","","","","","","key","f","16.668316831683168","680","380","f","true","nonmatch","img/triangle.png","圆形","三角","ALT1_2","prac_ALT1_2","","","","","","","","","","","",""
"null","<span style='color:GreenYellow; font-size: 70px;'>正确! </span>","null","html-keyboard-response","18","217947","0.0-7.0-1.0-1.0-0.0-1.4","4","4","4","4","4","4","4","4","4","3","4","4","3","4","4","5","4","5","4","5","1","2","1","1","1","2","1","2","1","1","0","0","0","1","1","0","1","1","0","0","0","1","0","1","5","4","4","3","4","2","2","4","4","2","2","769498068633784321","林","459","","","","","","","","","","","","","","","","","","","","","","","","","","","","","","feedback_test","","","","","","","","","","","",""
"656","","f","psychophysics","19","219605","0.0-7.0-1.0-1.0-0.0-0.5","4","4","4","4","4","4","4","4","4","3","4","4","3","4","4","5","4","5","4","5","1","2","1","1","1","2","1","2","1","1","0","0","0","1","1","0","1","1","0","0","0","1","0","1","5","4","4","3","4","2","2","4","4","2","2","769498068633784321","林","459","","","","nonmatch","","","","","","","","","","","","","","key","f","16.66969696969685","680","380","f","true","nonmatch","img/trapezoid.png","圆形","梯形","ALT1_2","prac_ALT1_2","","","","","","","","","","","",""
"null","<span style='color:GreenYellow; font-size: 70px;'>正确! </span>","null","html-keyboard-response","20","220107","0.0-7.0-1.0-1.0-0.0-1.5","4","4","4","4","4","4","4","4","4","3","4","4","3","4","4","5","4","5","4","5","1","2","1","1","1","2","1","2","1","1","0","0","0","1","1","0","1","1","0","0","0","1","0","1","5","4","4","3","4","2","2","4","4","2","2","769498068633784321","林","459","","","","","","","","","","","","","","","","","","","","","","","","","","","","","","feedback_test","","","","","","","","","","","",""
"672","","j","psychophysics","21","221781","0.0-7.0-1.0-1.0-0.0-0.6","4","4","4","4","4","4","4","4","4","3","4","4","3","4","4","5","4","5","4","5","1","2","1","1","1","2","1","2","1","1","0","0","0","1","1","0","1","1","0","0","0","1","0","1","5","4","4","3","4","2","2","4","4","2","2","769498068633784321","林","459","","","","match","","","","","","","","","","","","","","key","j","16.6656565656568","680","380","j","true","match","img/triangle.png","三角","三角","ALT1_2","prac_ALT1_2","","","","","","","","","","","",""
"null","<span style='color:GreenYellow; font-size: 70px;'>正确! </span>","null","html-keyboard-response","22","222288","0.0-7.0-1.0-1.0-0.0-1.6","4","4","4","4","4","4","4","4","4","3","4","4","3","4","4","5","4","5","4","5","1","2","1","1","1","2","1","2","1","1","0","0","0","1","1","0","1","1","0","0","0","1","0","1","5","4","4","3","4","2","2","4","4","2","2","769498068633784321","林","459","","","","","","","","","","","","","","","","","","","","","","","","","","","","","","feedback_test","","","","","","","","","","","",""
"446","","j","psychophysics","23","223736","0.0-7.0-1.0-1.0-0.0-0.7","4","4","4","4","4","4","4","4","4","3","4","4","3","4","4","5","4","5","4","5","1","2","1","1","1","2","1","2","1","1","0","0","0","1","1","0","1","1","0","0","0","1","0","1","5","4","4","3","4","2","2","4","4","2","2","769498068633784321","林","459","","","","match","","","","","","","","","","","","","","key","j","16.669767441860532","680","380","j","true","match","img/triangle.png","三角","三角","ALT1_2","prac_ALT1_2","","","","","","","","","","","",""
"null","<span style='color:GreenYellow; font-size: 70px;'>正确! </span>","null","html-keyboard-response","24","224237","0.0-7.0-1.0-1.0-0.0-1.7","4","4","4","4","4","4","4","4","4","3","4","4","3","4","4","5","4","5","4","5","1","2","1","1","1","2","1","2","1","1","0","0","0","1","1","0","1","1","0","0","0","1","0","1","5","4","4","3","4","2","2","4","4","2","2","769498068633784321","林","459","","","","","","","","","","","","","","","","","","","","","","","","","","","","","","feedback_test","","","","","","","","","","","",""
"646","","j","psychophysics","25","225885","0.0-7.0-1.0-1.0-0.0-0.8","4","4","4","4","4","4","4","4","4","3","4","4","3","4","4","5","4","5","4","5","1","2","1","1","1","2","1","2","1","1","0","0","0","1","1","0","1","1","0","0","0","1","0","1","5","4","4","3","4","2","2","4","4","2","2","769498068633784321","林","459","","","","match","","","","","","","","","","","","","","key","j","16.667346938775452","680","380","j","true","match","img/hexagon.png","六边","六边","ALT1_2","prac_ALT1_2","","","","","","","","","","","",""
"null","<span style='color:GreenYellow; font-size: 70px;'>正确! </span>","null","html-keyboard-response","26","226385","0.0-7.0-1.0-1.0-0.0-1.8","4","4","4","4","4","4","4","4","4","3","4","4","3","4","4","5","4","5","4","5","1","2","1","1","1","2","1","2","1","1","0","0","0","1","1","0","1","1","0","0","0","1","0","1","5","4","4","3","4","2","2","4","4","2","2","769498068633784321","林","459","","","","","","","","","","","","","","","","","","","","","","","","","","","","","","feedback_test","","","","","","","","","","","",""
"840","","f","psychophysics","27","228226","0.0-7.0-1.0-1.0-0.0-0.9","4","4","4","4","4","4","4","4","4","3","4","4","3","4","4","5","4","5","4","5","1","2","1","1","1","2","1","2","1","1","0","0","0","1","1","0","1","1","0","0","0","1","0","1","5","4","4","3","4","2","2","4","4","2","2","769498068633784321","林","459","","","","nonmatch","","","","","","","","","","","","","","key","f","16.667889908256775","680","380","f","true","nonmatch","img/trapezoid.png","六边","梯形","ALT1_2","prac_ALT1_2","","","","","","","","","","","",""
"null","<span style='color:GreenYellow; font-size: 70px;'>正确! </span>","null","html-keyboard-response","28","228726","0.0-7.0-1.0-1.0-0.0-1.9","4","4","4","4","4","4","4","4","4","3","4","4","3","4","4","5","4","5","4","5","1","2","1","1","1","2","1","2","1","1","0","0","0","1","1","0","1","1","0","0","0","1","0","1","5","4","4","3","4","2","2","4","4","2","2","769498068633784321","林","459","","","","","","","","","","","","","","","","","","","","","","","","","","","","","","feedback_test","","","","","","","","","","","",""
"675","","f","psychophysics","29","230403","0.0-7.0-1.0-1.0-0.0-0.10","4","4","4","4","4","4","4","4","4","3","4","4","3","4","4","5","4","5","4","5","1","2","1","1","1","2","1","2","1","1","0","0","0","1","1","0","1","1","0","0","0","1","0","1","5","4","4","3","4","2","2","4","4","2","2","769498068633784321","林","459","","","","nonmatch","","","","","","","","","","","","","","key","f","16.667000000000115","680","380","j","false","match","img/hexagon.png","六边","六边","ALT1_2","prac_ALT1_2","","","","","","","","","","","",""
"null","<span style='color:red; font-size: 70px;'>错误! </span>","null","html-keyboard-response","30","230905","0.0-7.0-1.0-1.0-0.0-1.10","4","4","4","4","4","4","4","4","4","3","4","4","3","4","4","5","4","5","4","5","1","2","1","1","1","2","1","2","1","1","0","0","0","1","1","0","1","1","0","0","0","1","0","1","5","4","4","3","4","2","2","4","4","2","2","769498068633784321","林","459","","","","","","","","","","","","","","","","","","","","","","","","","","","","","","feedback_test","","","","","","","","","","","",""
"1083","","j","psychophysics","31","232990","0.0-7.0-1.0-1.0-0.0-0.11","4","4","4","4","4","4","4","4","4","3","4","4","3","4","4","5","4","5","4","5","1","2","1","1","1","2","1","2","1","1","0","0","0","1","1","0","1","1","0","0","0","1","0","1","5","4","4","3","4","2","2","4","4","2","2","769498068633784321","林","459","","","","match","","","","","","","","","","","","","","key","j","16.666129032258112","680","380","f","false","nonmatch","img/hexagon.png","梯形","六边","ALT1_2","prac_ALT1_2","","","","","","","","","","","",""
"null","<span style='color:red; font-size: 70px;'>错误! </span>","null","html-keyboard-response","32","233490","0.0-7.0-1.0-1.0-0.0-1.11","4","4","4","4","4","4","4","4","4","3","4","4","3","4","4","5","4","5","4","5","1","2","1","1","1","2","1","2","1","1","0","0","0","1","1","0","1","1","0","0","0","1","0","1","5","4","4","3","4","2","2","4","4","2","2","769498068633784321","林","459","","","","","","","","","","","","","","","","","","","","","","","","","","","","","","feedback_test","","","","","","","","","","","",""
"null","","null","psychophysics","33","235693","0.0-7.0-1.0-1.0-0.0-0.12","4","4","4","4","4","4","4","4","4","3","4","4","3","4","4","5","4","5","4","5","1","2","1","1","1","2","1","2","1","1","0","0","0","1","1","0","1","1","0","0","0","1","0","1","5","4","4","3","4","2","2","4","4","2","2","769498068633784321","林","459","","","","null","","","","","","","","","","","","","","key","null","16.66717557251904","680","380","f","false","nonmatch","img/circle.png","六边","圆形","ALT1_2","prac_ALT1_2","","","","","","","","","","","",""
"null","<span class='add_' style='color:yellow; font-size: 70px;'> 太慢! </span>","null","html-keyboard-response","34","236203","0.0-7.0-1.0-1.0-0.0-1.12","4","4","4","4","4","4","4","4","4","3","4","4","3","4","4","5","4","5","4","5","1","2","1","1","1","2","1","2","1","1","0","0","0","1","1","0","1","1","0","0","0","1","0","1","5","4","4","3","4","2","2","4","4","2","2","769498068633784321","林","459","","","","","","","","","","","","","","","","","","","","","","","","","","","","","","feedback_test","","","","","","","","","","","",""
"null","","null","psychophysics","35","238408","0.0-7.0-1.0-1.0-0.0-0.13","4","4","4","4","4","4","4","4","4","3","4","4","3","4","4","5","4","5","4","5","1","2","1","1","1","2","1","2","1","1","0","0","0","1","1","0","1","1","0","0","0","1","0","1","5","4","4","3","4","2","2","4","4","2","2","769498068633784321","林","459","","","","null","","","","","","","","","","","","","","key","null","16.66412213740458","680","380","f","false","nonmatch","img/hexagon.png","圆形","六边","ALT1_2","prac_ALT1_2","","","","","","","","","","","",""
"null","<span class='add_' style='color:yellow; font-size: 70px;'> 太慢! </span>","null","html-keyboard-response","36","238910","0.0-7.0-1.0-1.0-0.0-1.13","4","4","4","4","4","4","4","4","4","3","4","4","3","4","4","5","4","5","4","5","1","2","1","1","1","2","1","2","1","1","0","0","0","1","1","0","1","1","0","0","0","1","0","1","5","4","4","3","4","2","2","4","4","2","2","769498068633784321","林","459","","","","","","","","","","","","","","","","","","","","","","","","","","","","","","feedback_test","","","","","","","","","","","",""
"769","","f","psychophysics","37","240681","0.0-7.0-1.0-1.0-0.0-0.14","4","4","4","4","4","4","4","4","4","3","4","4","3","4","4","5","4","5","4","5","1","2","1","1","1","2","1","2","1","1","0","0","0","1","1","0","1","1","0","0","0","1","0","1","5","4","4","3","4","2","2","4","4","2","2","769498068633784321","林","459","","","","nonmatch","","","","","","","","","","","","","","key","f","16.667619047618825","680","380","f","true","nonmatch","img/circle.png","三角","圆形","ALT1_2","prac_ALT1_2","","","","","","","","","","","",""
"null","<span style='color:GreenYellow; font-size: 70px;'>正确! </span>","null","html-keyboard-response","38","241182","0.0-7.0-1.0-1.0-0.0-1.14","4","4","4","4","4","4","4","4","4","3","4","4","3","4","4","5","4","5","4","5","1","2","1","1","1","2","1","2","1","1","0","0","0","1","1","0","1","1","0","0","0","1","0","1","5","4","4","3","4","2","2","4","4","2","2","769498068633784321","林","459","","","","","","","","","","","","","","","","","","","","","","","","","","","","","","feedback_test","","","","","","","","","","","",""
"565","","j","psychophysics","39","242748","0.0-7.0-1.0-1.0-0.0-0.15","4","4","4","4","4","4","4","4","4","3","4","4","3","4","4","5","4","5","4","5","1","2","1","1","1","2","1","2","1","1","0","0","0","1","1","0","1","1","0","0","0","1","0","1","5","4","4","3","4","2","2","4","4","2","2","769498068633784321","林","459","","","","match","","","","","","","","","","","","","","key","j","16.673118279569955","680","380","j","true","match","img/circle.png","圆形","圆形","ALT1_2","prac_ALT1_2","","","","","","","","","","","",""
"null","<span style='color:GreenYellow; font-size: 70px;'>正确! </span>","null","html-keyboard-response","40","243263","0.0-7.0-1.0-1.0-0.0-1.15","4","4","4","4","4","4","4","4","4","3","4","4","3","4","4","5","4","5","4","5","1","2","1","1","1","2","1","2","1","1","0","0","0","1","1","0","1","1","0","0","0","1","0","1","5","4","4","3","4","2","2","4","4","2","2","769498068633784321","林","459","","","","","","","","","","","","","","","","","","","","","","","","","","","","","","feedback_test","","","","","","","","","","","",""
"990","","f","psychophysics","41","245254","0.0-7.0-1.0-1.0-0.0-0.16","4","4","4","4","4","4","4","4","4","3","4","4","3","4","4","5","4","5","4","5","1","2","1","1","1","2","1","2","1","1","0","0","0","1","1","0","1","1","0","0","0","1","0","1","5","4","4","3","4","2","2","4","4","2","2","769498068633784321","林","459","","","","nonmatch","","","","","","","","","","","","","","key","f","16.665546218487492","680","380","j","false","match","img/hexagon.png","六边","六边","ALT1_2","prac_ALT1_2","","","","","","","","","","","",""
"null","<span style='color:red; font-size: 70px;'>错误! </span>","null","html-keyboard-response","42","245755","0.0-7.0-1.0-1.0-0.0-1.16","4","4","4","4","4","4","4","4","4","3","4","4","3","4","4","5","4","5","4","5","1","2","1","1","1","2","1","2","1","1","0","0","0","1","1","0","1","1","0","0","0","1","0","1","5","4","4","3","4","2","2","4","4","2","2","769498068633784321","林","459","","","","","","","","","","","","","","","","","","","","","","","","","","","","","","feedback_test","","","","","","","","","","","",""
"1031","","j","psychophysics","43","247787","0.0-7.0-1.0-1.0-0.0-0.17","4","4","4","4","4","4","4","4","4","3","4","4","3","4","4","5","4","5","4","5","1","2","1","1","1","2","1","2","1","1","0","0","0","1","1","0","1","1","0","0","0","1","0","1","5","4","4","3","4","2","2","4","4","2","2","769498068633784321","林","459","","","","match","","","","","","","","","","","","","","key","j","16.666942148760427","680","380","f","false","nonmatch","img/trapezoid.png","三角","梯形","ALT1_2","prac_ALT1_2","","","","","","","","","","","",""
"null","<span style='color:red; font-size: 70px;'>错误! </span>","null","html-keyboard-response","44","248288","0.0-7.0-1.0-1.0-0.0-1.17","4","4","4","4","4","4","4","4","4","3","4","4","3","4","4","5","4","5","4","5","1","2","1","1","1","2","1","2","1","1","0","0","0","1","1","0","1","1","0","0","0","1","0","1","5","4","4","3","4","2","2","4","4","2","2","769498068633784321","林","459","","","","","","","","","","","","","","","","","","","","","","","","","","","","","","feedback_test","","","","","","","","","","","",""
"null","","null","psychophysics","45","250490","0.0-7.0-1.0-1.0-0.0-0.18","4","4","4","4","4","4","4","4","4","3","4","4","3","4","4","5","4","5","4","5","1","2","1","1","1","2","1","2","1","1","0","0","0","1","1","0","1","1","0","0","0","1","0","1","5","4","4","3","4","2","2","4","4","2","2","769498068633784321","林","459","","","","null","","","","","","","","","","","","","","key","null","16.66259541984724","680","380","f","false","nonmatch","img/circle.png","梯形","圆形","ALT1_2","prac_ALT1_2","","","","","","","","","","","",""
"null","<span class='add_' style='color:yellow; font-size: 70px;'> 太慢! </span>","null","html-keyboard-response","46","250991","0.0-7.0-1.0-1.0-0.0-1.18","4","4","4","4","4","4","4","4","4","3","4","4","3","4","4","5","4","5","4","5","1","2","1","1","1","2","1","2","1","1","0","0","0","1","1","0","1","1","0","0","0","1","0","1","5","4","4","3","4","2","2","4","4","2","2","769498068633784321","林","459","","","","","","","","","","","","","","","","","","","","","","","","","","","","","","feedback_test","","","","","","","","","","","",""
"593","","j","psychophysics","47","252585","0.0-7.0-1.0-1.0-0.0-0.19","4","4","4","4","4","4","4","4","4","3","4","4","3","4","4","5","4","5","4","5","1","2","1","1","1","2","1","2","1","1","0","0","0","1","1","0","1","1","0","0","0","1","0","1","5","4","4","3","4","2","2","4","4","2","2","769498068633784321","林","459","","","","match","","","","","","","","","","","","","","key","j","16.664893617021278","680","380","f","false","nonmatch","img/hexagon.png","三角","六边","ALT1_2","prac_ALT1_2","","","","","","","","","","","",""
"null","<span style='color:red; font-size: 70px;'>错误! </span>","null","html-keyboard-response","48","253085","0.0-7.0-1.0-1.0-0.0-1.19","4","4","4","4","4","4","4","4","4","3","4","4","3","4","4","5","4","5","4","5","1","2","1","1","1","2","1","2","1","1","0","0","0","1","1","0","1","1","0","0","0","1","0","1","5","4","4","3","4","2","2","4","4","2","2","769498068633784321","林","459","","","","","","","","","","","","","","","","","","","","","","","","","","","","","","feedback_test","","","","","","","","","","","",""
"638","","j","psychophysics","49","254724","0.0-7.0-1.0-1.0-0.0-0.20","4","4","4","4","4","4","4","4","4","3","4","4","3","4","4","5","4","5","4","5","1","2","1","1","1","2","1","2","1","1","0","0","0","1","1","0","1","1","0","0","0","1","0","1","5","4","4","3","4","2","2","4","4","2","2","769498068633784321","林","459","","","","match","","","","","","","","","","","","","","key","j","16.670103092783506","680","380","j","true","match","img/triangle.png","三角","三角","ALT1_2","prac_ALT1_2","","","","","","","","","","","",""
"null","<span style='color:GreenYellow; font-size: 70px;'>正确! </span>","null","html-keyboard-response","50","255225","0.0-7.0-1.0-1.0-0.0-1.20","4","4","4","4","4","4","4","4","4","3","4","4","3","4","4","5","4","5","4","5","1","2","1","1","1","2","1","2","1","1","0","0","0","1","1","0","1","1","0","0","0","1","0","1","5","4","4","3","4","2","2","4","4","2","2","769498068633784321","林","459","","","","","","","","","","","","","","","","","","","","","","","","","","","","","","feedback_test","","","","","","","","","","","",""
"null","","null","psychophysics","51","257429","0.0-7.0-1.0-1.0-0.0-0.21","4","4","4","4","4","4","4","4","4","3","4","4","3","4","4","5","4","5","4","5","1","2","1","1","1","2","1","2","1","1","0","0","0","1","1","0","1","1","0","0","0","1","0","1","5","4","4","3","4","2","2","4","4","2","2","769498068633784321","林","459","","","","null","","","","","","","","","","","","","","key","null","16.666412213740593","680","380","j","false","match","img/trapezoid.png","梯形","梯形","ALT1_2","prac_ALT1_2","","","","","","","","","","","",""
"null","<span class='add_' style='color:yellow; font-size: 70px;'> 太慢! </span>","null","html-keyboard-response","52","257929","0.0-7.0-1.0-1.0-0.0-1.21","4","4","4","4","4","4","4","4","4","3","4","4","3","4","4","5","4","5","4","5","1","2","1","1","1","2","1","2","1","1","0","0","0","1","1","0","1","1","0","0","0","1","0","1","5","4","4","3","4","2","2","4","4","2","2","769498068633784321","林","459","","","","","","","","","","","","","","","","","","","","","","","","","","","","","","feedback_test","","","","","","","","","","","",""
"685","","j","psychophysics","53","259616","0.0-7.0-1.0-1.0-0.0-0.22","4","4","4","4","4","4","4","4","4","3","4","4","3","4","4","5","4","5","4","5","1","2","1","1","1","2","1","2","1","1","0","0","0","1","1","0","1","1","0","0","0","1","0","1","5","4","4","3","4","2","2","4","4","2","2","769498068633784321","林","459","","","","match","","","","","","","","","","","","","","key","j","16.67","680","380","j","true","match","img/trapezoid.png","梯形","梯形","ALT1_2","prac_ALT1_2","","","","","","","","","","","",""
"null","<span style='color:GreenYellow; font-size: 70px;'>正确! </span>","null","html-keyboard-response","54","260118","0.0-7.0-1.0-1.0-0.0-1.22","4","4","4","4","4","4","4","4","4","3","4","4","3","4","4","5","4","5","4","5","1","2","1","1","1","2","1","2","1","1","0","0","0","1","1","0","1","1","0","0","0","1","0","1","5","4","4","3","4","2","2","4","4","2","2","769498068633784321","林","459","","","","","","","","","","","","","","","","","","","","","","","","","","","","","","feedback_test","","","","","","","","","","","",""
"513","","j","psychophysics","55","261632","0.0-7.0-1.0-1.0-0.0-0.23","4","4","4","4","4","4","4","4","4","3","4","4","3","4","4","5","4","5","4","5","1","2","1","1","1","2","1","2","1","1","0","0","0","1","1","0","1","1","0","0","0","1","0","1","5","4","4","3","4","2","2","4","4","2","2","769498068633784321","林","459","","","","match","","","","","","","","","","","","","","key","j","16.662921348314608","680","380","j","true","match","img/circle.png","圆形","圆形","ALT1_2","prac_ALT1_2","","","","","","","","","","","",""
"null","<span style='color:GreenYellow; font-size: 70px;'>正确! </span>","null","html-keyboard-response","56","262132","0.0-7.0-1.0-1.0-0.0-1.23","4","4","4","4","4","4","4","4","4","3","4","4","3","4","4","5","4","5","4","5","1","2","1","1","1","2","1","2","1","1","0","0","0","1","1","0","1","1","0","0","0","1","0","1","5","4","4","3","4","2","2","4","4","2","2","769498068633784321","林","459","","","","","","","","","","","","","","","","","","","","","","","","","","","","","","feedback_test","","","","","","","","","","","",""
"483","","j","psychophysics","57","263617","0.0-7.0-1.0-1.0-0.0-0.24","4","4","4","4","4","4","4","4","4","3","4","4","3","4","4","5","4","5","4","5","1","2","1","1","1","2","1","2","1","1","0","0","0","1","1","0","1","1","0","0","0","1","0","1","5","4","4","3","4","2","2","4","4","2","2","769498068633784321","林","459","","","","match","","","","","","","","","","","","","","key","j","16.671590909090643","680","380","j","true","match","img/triangle.png","三角","三角","ALT1_2","prac_ALT1_2","","","","","","","","","","","",""
"null","<span style='color:GreenYellow; font-size: 70px;'>正确! </span>","null","html-keyboard-response","58","264118","0.0-7.0-1.0-1.0-0.0-1.24","4","4","4","4","4","4","4","4","4","3","4","4","3","4","4","5","4","5","4","5","1","2","1","1","1","2","1","2","1","1","0","0","0","1","1","0","1","1","0","0","0","1","0","1","5","4","4","3","4","2","2","4","4","2","2","769498068633784321","林","459","","","","","","","","","","","","","","","","","","","","","","","","","","","","","","feedback_test","","","","","","","","","","","",""
"484","","j","psychophysics","59","265605","0.0-7.0-1.0-1.0-0.0-0.25","4","4","4","4","4","4","4","4","4","3","4","4","3","4","4","5","4","5","4","5","1","2","1","1","1","2","1","2","1","1","0","0","0","1","1","0","1","1","0","0","0","1","0","1","5","4","4","3","4","2","2","4","4","2","2","769498068633784321","林","459","","","","match","","","","","","","","","","","","","","key","j","16.661363636363106","680","380","f","false","nonmatch","img/triangle.png","梯形","三角","ALT1_2","prac_ALT1_2","","","","","","","","","","","",""
"null","<span style='color:red; font-size: 70px;'>错误! </span>","null","html-keyboard-response","60","266106","0.0-7.0-1.0-1.0-0.0-1.25","4","4","4","4","4","4","4","4","4","3","4","4","3","4","4","5","4","5","4","5","1","2","1","1","1","2","1","2","1","1","0","0","0","1","1","0","1","1","0","0","0","1","0","1","5","4","4","3","4","2","2","4","4","2","2","769498068633784321","林","459","","","","","","","","","","","","","","","","","","","","","","","","","","","","","","feedback_test","","","","","","","","","","","",""
"875","","j","psychophysics","61","267982","0.0-7.0-1.0-1.0-0.0-0.26","4","4","4","4","4","4","4","4","4","3","4","4","3","4","4","5","4","5","4","5","1","2","1","1","1","2","1","2","1","1","0","0","0","1","1","0","1","1","0","0","0","1","0","1","5","4","4","3","4","2","2","4","4","2","2","769498068633784321","林","459","","","","match","","","","","","","","","","","","","","key","j","16.668468468468575","680","380","j","true","match","img/triangle.png","三角","三角","ALT1_2","prac_ALT1_2","","","","","","","","","","","",""
"null","<span style='color:GreenYellow; font-size: 70px;'>正确! </span>","null","html-keyboard-response","62","268484","0.0-7.0-1.0-1.0-0.0-1.26","4","4","4","4","4","4","4","4","4","3","4","4","3","4","4","5","4","5","4","5","1","2","1","1","1","2","1","2","1","1","0","0","0","1","1","0","1","1","0","0","0","1","0","1","5","4","4","3","4","2","2","4","4","2","2","769498068633784321","林","459","","","","","","","","","","","","","","","","","","","","","","","","","","","","","","feedback_test","","","","","","","","","","","",""
"737","","j","psychophysics","63","270222","0.0-7.0-1.0-1.0-0.0-0.27","4","4","4","4","4","4","4","4","4","3","4","4","3","4","4","5","4","5","4","5","1","2","1","1","1","2","1","2","1","1","0","0","0","1","1","0","1","1","0","0","0","1","0","1","5","4","4","3","4","2","2","4","4","2","2","769498068633784321","林","459","","","","match","","","","","","","","","","","","","","key","j","16.660194174757283","680","380","j","true","match","img/triangle.png","三角","三角","ALT1_2","prac_ALT1_2","","","","","","","","","","","",""
"null","<span style='color:GreenYellow; font-size: 70px;'>正确! </span>","null","html-keyboard-response","64","270723","0.0-7.0-1.0-1.0-0.0-1.27","4","4","4","4","4","4","4","4","4","3","4","4","3","4","4","5","4","5","4","5","1","2","1","1","1","2","1","2","1","1","0","0","0","1","1","0","1","1","0","0","0","1","0","1","5","4","4","3","4","2","2","4","4","2","2","769498068633784321","林","459","","","","","","","","","","","","","","","","","","","","","","","","","","","","","","feedback_test","","","","","","","","","","","",""
"768","","f","psychophysics","65","272492","0.0-7.0-1.0-1.0-0.0-0.28","4","4","4","4","4","4","4","4","4","3","4","4","3","4","4","5","4","5","4","5","1","2","1","1","1","2","1","2","1","1","0","0","0","1","1","0","1","1","0","0","0","1","0","1","5","4","4","3","4","2","2","4","4","2","2","769498068633784321","林","459","","","","nonmatch","","","","","","","","","","","","","","key","f","16.67047619047641","680","380","f","true","nonmatch","img/trapezoid.png","圆形","梯形","ALT1_2","prac_ALT1_2","","","","","","","","","","","",""
"null","<span style='color:GreenYellow; font-size: 70px;'>正确! </span>","null","html-keyboard-response","66","272992","0.0-7.0-1.0-1.0-0.0-1.28","4","4","4","4","4","4","4","4","4","3","4","4","3","4","4","5","4","5","4","5","1","2","1","1","1","2","1","2","1","1","0","0","0","1","1","0","1","1","0","0","0","1","0","1","5","4","4","3","4","2","2","4","4","2","2","769498068633784321","林","459","","","","","","","","","","","","","","","","","","","","","","","","","","","","","","feedback_test","","","","","","","","","","","",""
"888","","f","psychophysics","67","274881","0.0-7.0-1.0-1.0-0.0-0.29","4","4","4","4","4","4","4","4","4","3","4","4","3","4","4","5","4","5","4","5","1","2","1","1","1","2","1","2","1","1","0","0","0","1","1","0","1","1","0","0","0","1","0","1","5","4","4","3","4","2","2","4","4","2","2","769498068633784321","林","459","","","","nonmatch","","","","","","","","","","","","","","key","f","16.66696428571439","680","380","f","true","nonmatch","img/hexagon.png","圆形","六边","ALT1_2","prac_ALT1_2","","","","","","","","","","","",""
"null","<span style='color:GreenYellow; font-size: 70px;'>正确! </span>","null","html-keyboard-response","68","275382","0.0-7.0-1.0-1.0-0.0-1.29","4","4","4","4","4","4","4","4","4","3","4","4","3","4","4","5","4","5","4","5","1","2","1","1","1","2","1","2","1","1","0","0","0","1","1","0","1","1","0","0","0","1","0","1","5","4","4","3","4","2","2","4","4","2","2","769498068633784321","林","459","","","","","","","","","","","","","","","","","","","","","","","","","","","","","","feedback_test","","","","","","","","","","","",""
"494","","j","psychophysics","69","276878","0.0-7.0-1.0-1.0-0.0-0.30","4","4","4","4","4","4","4","4","4","3","4","4","3","4","4","5","4","5","4","5","1","2","1","1","1","2","1","2","1","1","0","0","0","1","1","0","1","1","0","0","0","1","0","1","5","4","4","3","4","2","2","4","4","2","2","769498068633784321","林","459","","","","match","","","","","","","","","","","","","","key","j","16.66741573033734","680","380","j","true","match","img/trapezoid.png","梯形","梯形","ALT1_2","prac_ALT1_2","","","","","","","","","","","",""
"null","<span style='color:GreenYellow; font-size: 70px;'>正确! </span>","null","html-keyboard-response","70","277379","0.0-7.0-1.0-1.0-0.0-1.30","4","4","4","4","4","4","4","4","4","3","4","4","3","4","4","5","4","5","4","5","1","2","1","1","1","2","1","2","1","1","0","0","0","1","1","0","1","1","0","0","0","1","0","1","5","4","4","3","4","2","2","4","4","2","2","769498068633784321","林","459","","","","","","","","","","","","","","","","","","","","","","","","","","","","","","feedback_test","","","","","","","","","","","",""
"427","","j","psychophysics","71","278807","0.0-7.0-1.0-1.0-0.0-0.31","4","4","4","4","4","4","4","4","4","3","4","4","3","4","4","5","4","5","4","5","1","2","1","1","1","2","1","2","1","1","0","0","0","1","1","0","1","1","0","0","0","1","0","1","5","4","4","3","4","2","2","4","4","2","2","769498068633784321","林","459","","","","match","","","","","","","","","","","","","","key","j","16.661176470587687","680","380","f","false","nonmatch","img/circle.png","梯形","圆形","ALT1_2","prac_ALT1_2","","","","","","","","","","","",""
"null","<span style='color:red; font-size: 70px;'>错误! </span>","null","html-keyboard-response","72","279313","0.0-7.0-1.0-1.0-0.0-1.31","4","4","4","4","4","4","4","4","4","3","4","4","3","4","4","5","4","5","4","5","1","2","1","1","1","2","1","2","1","1","0","0","0","1","1","0","1","1","0","0","0","1","0","1","5","4","4","3","4","2","2","4","4","2","2","769498068633784321","林","459","","","","","","","","","","","","","","","","","","","","","","","","","","","","","","feedback_test","","","","","","","","","","","",""
"602","","f","psychophysics","73","280916","0.0-7.0-1.0-1.0-0.0-0.32","4","4","4","4","4","4","4","4","4","3","4","4","3","4","4","5","4","5","4","5","1","2","1","1","1","2","1","2","1","1","0","0","0","1","1","0","1","1","0","0","0","1","0","1","5","4","4","3","4","2","2","4","4","2","2","769498068633784321","林","459","","","","nonmatch","","","","","","","","","","","","","","key","f","16.66842105263158","680","380","j","false","match","img/trapezoid.png","梯形","梯形","ALT1_2","prac_ALT1_2","","","","","","","","","","","",""
"null","<span style='color:red; font-size: 70px;'>错误! </span>","null","html-keyboard-response","74","281417","0.0-7.0-1.0-1.0-0.0-1.32","4","4","4","4","4","4","4","4","4","3","4","4","3","4","4","5","4","5","4","5","1","2","1","1","1","2","1","2","1","1","0","0","0","1","1","0","1","1","0","0","0","1","0","1","5","4","4","3","4","2","2","4","4","2","2","769498068633784321","林","459","","","","","","","","","","","","","","","","","","","","","","","","","","","","","","feedback_test","","","","","","","","","","","",""
"718","","j","psychophysics","75","283137","0.0-7.0-1.0-1.0-0.0-0.33","4","4","4","4","4","4","4","4","4","3","4","4","3","4","4","5","4","5","4","5","1","2","1","1","1","2","1","2","1","1","0","0","0","1","1","0","1","1","0","0","0","1","0","1","5","4","4","3","4","2","2","4","4","2","2","769498068633784321","林","459","","","","match","","","","","","","","","","","","","","key","j","16.659803921568514","680","380","f","false","nonmatch","img/triangle.png","圆形","三角","ALT1_2","prac_ALT1_2","","","","","","","","","","","",""
"null","<span style='color:red; font-size: 70px;'>错误! </span>","null","html-keyboard-response","76","283639","0.0-7.0-1.0-1.0-0.0-1.33","4","4","4","4","4","4","4","4","4","3","4","4","3","4","4","5","4","5","4","5","1","2","1","1","1","2","1","2","1","1","0","0","0","1","1","0","1","1","0","0","0","1","0","1","5","4","4","3","4","2","2","4","4","2","2","769498068633784321","林","459","","","","","","","","","","","","","","","","","","","","","","","","","","","","","","feedback_test","","","","","","","","","","","",""
"813","","j","psychophysics","77","285454","0.0-7.0-1.0-1.0-0.0-0.34","4","4","4","4","4","4","4","4","4","3","4","4","3","4","4","5","4","5","4","5","1","2","1","1","1","2","1","2","1","1","0","0","0","1","1","0","1","1","0","0","0","1","0","1","5","4","4","3","4","2","2","4","4","2","2","769498068633784321","林","459","","","","match","","","","","","","","","","","","","","key","j","16.668518518518628","680","380","j","true","match","img/hexagon.png","六边","六边","ALT1_2","prac_ALT1_2","","","","","","","","","","","",""
"null","<span style='color:GreenYellow; font-size: 70px;'>正确! </span>","null","html-keyboard-response","78","285956","0.0-7.0-1.0-1.0-0.0-1.34","4","4","4","4","4","4","4","4","4","3","4","4","3","4","4","5","4","5","4","5","1","2","1","1","1","2","1","2","1","1","0","0","0","1","1","0","1","1","0","0","0","1","0","1","5","4","4","3","4","2","2","4","4","2","2","769498068633784321","林","459","","","","","","","","","","","","","","","","","","","","","","","","","","","","","","feedback_test","","","","","","","","","","","",""
"1109","","f","psychophysics","79","288067","0.0-7.0-1.0-1.0-0.0-0.35","4","4","4","4","4","4","4","4","4","3","4","4","3","4","4","5","4","5","4","5","1","2","1","1","1","2","1","2","1","1","0","0","0","1","1","0","1","1","0","0","0","1","0","1","5","4","4","3","4","2","2","4","4","2","2","769498068633784321","林","459","","","","nonmatch","","","","","","","","","","","","","","key","f","16.671200000000187","680","380","f","true","nonmatch","img/triangle.png","六边","三角","ALT1_2","prac_ALT1_2","","","","","","","","","","","",""
"null","<span style='color:GreenYellow; font-size: 70px;'>正确! </span>","null","html-keyboard-response","80","288568","0.0-7.0-1.0-1.0-0.0-1.35","4","4","4","4","4","4","4","4","4","3","4","4","3","4","4","5","4","5","4","5","1","2","1","1","1","2","1","2","1","1","0","0","0","1","1","0","1","1","0","0","0","1","0","1","5","4","4","3","4","2","2","4","4","2","2","769498068633784321","林","459","","","","","","","","","","","","","","","","","","","","","","","","","","","","","","feedback_test","","","","","","","","","","","",""
"826","","j","psychophysics","81","290395","0.0-7.0-1.0-1.0-0.0-0.36","4","4","4","4","4","4","4","4","4","3","4","4","3","4","4","5","4","5","4","5","1","2","1","1","1","2","1","2","1","1","0","0","0","1","1","0","1","1","0","0","0","1","0","1","5","4","4","3","4","2","2","4","4","2","2","769498068633784321","林","459","","","","match","","","","","","","","","","","","","","key","j","16.665740740740418","680","380","j","true","match","img/circle.png","圆形","圆形","ALT1_2","prac_ALT1_2","","","","","","","","","","","",""
"null","<span style='color:GreenYellow; font-size: 70px;'>正确! </span>","null","html-keyboard-response","82","290895","0.0-7.0-1.0-1.0-0.0-1.36","4","4","4","4","4","4","4","4","4","3","4","4","3","4","4","5","4","5","4","5","1","2","1","1","1","2","1","2","1","1","0","0","0","1","1","0","1","1","0","0","0","1","0","1","5","4","4","3","4","2","2","4","4","2","2","769498068633784321","林","459","","","","","","","","","","","","","","","","","","","","","","","","","","","","","","feedback_test","","","","","","","","","","","",""
"427","","j","psychophysics","83","292325","0.0-7.0-1.0-1.0-0.0-0.37","4","4","4","4","4","4","4","4","4","3","4","4","3","4","4","5","4","5","4","5","1","2","1","1","1","2","1","2","1","1","0","0","0","1","1","0","1","1","0","0","0","1","0","1","5","4","4","3","4","2","2","4","4","2","2","769498068633784321","林","459","","","","match","","","","","","","","","","","","","","key","j","16.67058823529412","680","380","f","false","nonmatch","img/circle.png","三角","圆形","ALT1_2","prac_ALT1_2","","","","","","","","","","","",""
"null","<span style='color:red; font-size: 70px;'>错误! </span>","null","html-keyboard-response","84","292826","0.0-7.0-1.0-1.0-0.0-1.37","4","4","4","4","4","4","4","4","4","3","4","4","3","4","4","5","4","5","4","5","1","2","1","1","1","2","1","2","1","1","0","0","0","1","1","0","1","1","0","0","0","1","0","1","5","4","4","3","4","2","2","4","4","2","2","769498068633784321","林","459","","","","","","","","","","","","","","","","","","","","","","","","","","","","","","feedback_test","","","","","","","","","","","",""
"764","","f","psychophysics","85","294591","0.0-7.0-1.0-1.0-0.0-0.38","4","4","4","4","4","4","4","4","4","3","4","4","3","4","4","5","4","5","4","5","1","2","1","1","1","2","1","2","1","1","0","0","0","1","1","0","1","1","0","0","0","1","0","1","5","4","4","3","4","2","2","4","4","2","2","769498068633784321","林","459","","","","nonmatch","","","","","","","","","","","","","","key","f","16.673333333333446","680","380","f","true","nonmatch","img/circle.png","六边","圆形","ALT1_2","prac_ALT1_2","","","","","","","","","","","",""
"null","<span style='color:GreenYellow; font-size: 70px;'>正确! </span>","null","html-keyboard-response","86","295092","0.0-7.0-1.0-1.0-0.0-1.38","4","4","4","4","4","4","4","4","4","3","4","4","3","4","4","5","4","5","4","5","1","2","1","1","1","2","1","2","1","1","0","0","0","1","1","0","1","1","0","0","0","1","0","1","5","4","4","3","4","2","2","4","4","2","2","769498068633784321","林","459","","","","","","","","","","","","","","","","","","","","","","","","","","","","","","feedback_test","","","","","","","","","","","",""
"889","","j","psychophysics","87","296982","0.0-7.0-1.0-1.0-0.0-0.39","4","4","4","4","4","4","4","4","4","3","4","4","3","4","4","5","4","5","4","5","1","2","1","1","1","2","1","2","1","1","0","0","0","1","1","0","1","1","0","0","0","1","0","1","5","4","4","3","4","2","2","4","4","2","2","769498068633784321","林","459","","","","match","","","","","","","","","","","","","","key","j","16.66607142857174","680","380","j","true","match","img/hexagon.png","六边","六边","ALT1_2","prac_ALT1_2","","","","","","","","","","","",""
"null","<span style='color:GreenYellow; font-size: 70px;'>正确! </span>","null","html-keyboard-response","88","297483","0.0-7.0-1.0-1.0-0.0-1.39","4","4","4","4","4","4","4","4","4","3","4","4","3","4","4","5","4","5","4","5","1","2","1","1","1","2","1","2","1","1","0","0","0","1","1","0","1","1","0","0","0","1","0","1","5","4","4","3","4","2","2","4","4","2","2","769498068633784321","林","459","","","","","","","","","","","","","","","","","","","","","","","","","","","","","","feedback_test","","","","","","","","","","","",""
"1030","","f","psychophysics","89","299514","0.0-7.0-1.0-1.0-0.0-0.40","4","4","4","4","4","4","4","4","4","3","4","4","3","4","4","5","4","5","4","5","1","2","1","1","1","2","1","2","1","1","0","0","0","1","1","0","1","1","0","0","0","1","0","1","5","4","4","3","4","2","2","4","4","2","2","769498068633784321","林","459","","","","nonmatch","","","","","","","","","","","","","","key","f","16.667768595041228","680","380","f","true","nonmatch","img/hexagon.png","梯形","六边","ALT1_2","prac_ALT1_2","","","","","","","","","","","",""
"null","<span style='color:GreenYellow; font-size: 70px;'>正确! </span>","null","html-keyboard-response","90","300017","0.0-7.0-1.0-1.0-0.0-1.40","4","4","4","4","4","4","4","4","4","3","4","4","3","4","4","5","4","5","4","5","1","2","1","1","1","2","1","2","1","1","0","0","0","1","1","0","1","1","0","0","0","1","0","1","5","4","4","3","4","2","2","4","4","2","2","769498068633784321","林","459","","","","","","","","","","","","","","","","","","","","","","","","","","","","","","feedback_test","","","","","","","","","","","",""
"766","","f","psychophysics","91","301785","0.0-7.0-1.0-1.0-0.0-0.41","4","4","4","4","4","4","4","4","4","3","4","4","3","4","4","5","4","5","4","5","1","2","1","1","1","2","1","2","1","1","0","0","0","1","1","0","1","1","0","0","0","1","0","1","5","4","4","3","4","2","2","4","4","2","2","769498068633784321","林","459","","","","nonmatch","","","","","","","","","","","","","","key","f","16.6695238095237","680","380","f","true","nonmatch","img/trapezoid.png","三角","梯形","ALT1_2","prac_ALT1_2","","","","","","","","","","","",""
"null","<span style='color:GreenYellow; font-size: 70px;'>正确! </span>","null","html-keyboard-response","92","302300","0.0-7.0-1.0-1.0-0.0-1.41","4","4","4","4","4","4","4","4","4","3","4","4","3","4","4","5","4","5","4","5","1","2","1","1","1","2","1","2","1","1","0","0","0","1","1","0","1","1","0","0","0","1","0","1","5","4","4","3","4","2","2","4","4","2","2","769498068633784321","林","459","","","","","","","","","","","","","","","","","","","","","","","","","","","","","","feedback_test","","","","","","","","","","","",""
"529","","j","psychophysics","93","303831","0.0-7.0-1.0-1.0-0.0-0.42","4","4","4","4","4","4","4","4","4","3","4","4","3","4","4","5","4","5","4","5","1","2","1","1","1","2","1","2","1","1","0","0","0","1","1","0","1","1","0","0","0","1","0","1","5","4","4","3","4","2","2","4","4","2","2","769498068633784321","林","459","","","","match","","","","","","","","","","","","","","key","j","16.66813186813174","680","380","j","true","match","img/circle.png","圆形","圆形","ALT1_2","prac_ALT1_2","","","","","","","","","","","",""
"null","<span style='color:GreenYellow; font-size: 70px;'>正确! </span>","null","html-keyboard-response","94","304332","0.0-7.0-1.0-1.0-0.0-1.42","4","4","4","4","4","4","4","4","4","3","4","4","3","4","4","5","4","5","4","5","1","2","1","1","1","2","1","2","1","1","0","0","0","1","1","0","1","1","0","0","0","1","0","1","5","4","4","3","4","2","2","4","4","2","2","769498068633784321","林","459","","","","","","","","","","","","","","","","","","","","","","","","","","","","","","feedback_test","","","","","","","","","","","",""
"538","","j","psychophysics","95","305871","0.0-7.0-1.0-1.0-0.0-0.43","4","4","4","4","4","4","4","4","4","3","4","4","3","4","4","5","4","5","4","5","1","2","1","1","1","2","1","2","1","1","0","0","0","1","1","0","1","1","0","0","0","1","0","1","5","4","4","3","4","2","2","4","4","2","2","769498068633784321","林","459","","","","match","","","","","","","","","","","","","","key","j","16.668478260869566","680","380","j","true","match","img/circle.png","圆形","圆形","ALT1_2","prac_ALT1_2","","","","","","","","","","","",""
"null","<span style='color:GreenYellow; font-size: 70px;'>正确! </span>","null","html-keyboard-response","96","306371","0.0-7.0-1.0-1.0-0.0-1.43","4","4","4","4","4","4","4","4","4","3","4","4","3","4","4","5","4","5","4","5","1","2","1","1","1","2","1","2","1","1","0","0","0","1","1","0","1","1","0","0","0","1","0","1","5","4","4","3","4","2","2","4","4","2","2","769498068633784321","林","459","","","","","","","","","","","","","","","","","","","","","","","","","","","","","","feedback_test","","","","","","","","","","","",""
"729","","f","psychophysics","97","308101","0.0-7.0-1.0-1.0-0.0-0.44","4","4","4","4","4","4","4","4","4","3","4","4","3","4","4","5","4","5","4","5","1","2","1","1","1","2","1","2","1","1","0","0","0","1","1","0","1","1","0","0","0","1","0","1","5","4","4","3","4","2","2","4","4","2","2","769498068633784321","林","459","","","","nonmatch","","","","","","","","","","","","","","key","f","16.670588235293774","680","380","j","false","match","img/hexagon.png","六边","六边","ALT1_2","prac_ALT1_2","","","","","","","","","","","",""
"null","<span style='color:red; font-size: 70px;'>错误! </span>","null","html-keyboard-response","98","308602","0.0-7.0-1.0-1.0-0.0-1.44","4","4","4","4","4","4","4","4","4","3","4","4","3","4","4","5","4","5","4","5","1","2","1","1","1","2","1","2","1","1","0","0","0","1","1","0","1","1","0","0","0","1","0","1","5","4","4","3","4","2","2","4","4","2","2","769498068633784321","林","459","","","","","","","","","","","","","","","","","","","","","","","","","","","","","","feedback_test","","","","","","","","","","","",""
"1133","","j","psychophysics","99","310736","0.0-7.0-1.0-1.0-0.0-0.45","4","4","4","4","4","4","4","4","4","3","4","4","3","4","4","5","4","5","4","5","1","2","1","1","1","2","1","2","1","1","0","0","0","1","1","0","1","1","0","0","0","1","0","1","5","4","4","3","4","2","2","4","4","2","2","769498068633784321","林","459","","","","match","","","","","","","","","","","","","","key","j","16.665873015872737","680","380","f","false","nonmatch","img/trapezoid.png","六边","梯形","ALT1_2","prac_ALT1_2","","","","","","","","","","","",""
"null","<span style='color:red; font-size: 70px;'>错误! </span>","null","html-keyboard-response","100","311250","0.0-7.0-1.0-1.0-0.0-1.45","4","4","4","4","4","4","4","4","4","3","4","4","3","4","4","5","4","5","4","5","1","2","1","1","1","2","1","2","1","1","0","0","0","1","1","0","1","1","0","0","0","1","0","1","5","4","4","3","4","2","2","4","4","2","2","769498068633784321","林","459","","","","","","","","","","","","","","","","","","","","","","","","","","","","","","feedback_test","","","","","","","","","","","",""
"644","","j","psychophysics","101","312896","0.0-7.0-1.0-1.0-0.0-0.46","4","4","4","4","4","4","4","4","4","3","4","4","3","4","4","5","4","5","4","5","1","2","1","1","1","2","1","2","1","1","0","0","0","1","1","0","1","1","0","0","0","1","0","1","5","4","4","3","4","2","2","4","4","2","2","769498068633784321","林","459","","","","match","","","","","","","","","","","","","","key","j","16.666326530612125","680","380","f","false","nonmatch","img/hexagon.png","三角","六边","ALT1_2","prac_ALT1_2","","","","","","","","","","","",""
"null","<span style='color:red; font-size: 70px;'>错误! </span>","null","html-keyboard-response","102","313397","0.0-7.0-1.0-1.0-0.0-1.46","4","4","4","4","4","4","4","4","4","3","4","4","3","4","4","5","4","5","4","5","1","2","1","1","1","2","1","2","1","1","0","0","0","1","1","0","1","1","0","0","0","1","0","1","5","4","4","3","4","2","2","4","4","2","2","769498068633784321","林","459","","","","","","","","","","","","","","","","","","","","","","","","","","","","","","feedback_test","","","","","","","","","","","",""
"613","","j","psychophysics","103","315012","0.0-7.0-1.0-1.0-0.0-0.47","4","4","4","4","4","4","4","4","4","3","4","4","3","4","4","5","4","5","4","5","1","2","1","1","1","2","1","2","1","1","0","0","0","1","1","0","1","1","0","0","0","1","0","1","5","4","4","3","4","2","2","4","4","2","2","769498068633784321","林","459","","","","match","","","","","","","","","","","","","","key","j","16.67083333333297","680","380","j","true","match","img/trapezoid.png","梯形","梯形","ALT1_2","prac_ALT1_2","","","","","","","","","","","",""
"null","<span style='color:GreenYellow; font-size: 70px;'>正确! </span>","null","html-keyboard-response","104","315513","0.0-7.0-1.0-1.0-0.0-1.47","4","4","4","4","4","4","4","4","4","3","4","4","3","4","4","5","4","5","4","5","1","2","1","1","1","2","1","2","1","1","0","0","0","1","1","0","1","1","0","0","0","1","0","1","5","4","4","3","4","2","2","4","4","2","2","769498068633784321","林","459","","","","","","","","","","","","","","","","","","","","","","","","","","","","","","feedback_test","","","","","","","","","","","",""
"30933","<style>.context{color:white; font-size: 35px; line-height:40px}</style>                          <div><p class='context'>您正确回答了58% 的试次。</p><p class='context'>您的平均反应时为721毫秒。</p><p class='context'>恭喜您完成练习。按空格键继续。</p></div>"," ","html-keyboard-response","105","346448","0.0-7.0-1.0-1.0-1.0-0.0","4","4","4","4","4","4","4","4","4","3","4","4","3","4","4","5","4","5","4","5","1","2","1","1","1","2","1","2","1","1","0","0","0","1","1","0","1","1","0","0","0","1","0","1","5","4","4","3","4","2","2","4","4","2","2","769498068633784321","林","459","","","","","","","","","","","","","","","","","","","","","","","","","","","","","","","","","","","","","","","","","",""
"46859","","","instructions","106","393311","0.0-7.0-1.0-1.0-1.0-1.0","4","4","4","4","4","4","4","4","4","3","4","4","3","4","4","5","4","5","4","5","1","2","1","1","1","2","1","2","1","1","0","0","0","1","1","0","1","1","0","0","0","1","0","1","5","4","4","3","4","2","2","4","4","2","2","769498068633784321","林","459","","","","","","","","","","","","","","","","","[{""page_index"":0,""viewing_time"":8901},{""page_index"":1,""viewing_time"":35378},{""page_index"":2,""viewing_time"":2580}]","","","","","","","","","","","","","","","","","","","","","","","","",""
"599","","f","psychophysics","107","394913","0.0-7.0-1.0-1.1-0.1-0.48","4","4","4","4","4","4","4","4","4","3","4","4","3","4","4","5","4","5","4","5","1","2","1","1","1","2","1","2","1","1","0","0","0","1","1","0","1","1","0","0","0","1","0","1","5","4","4","3","4","2","2","4","4","2","2","769498068633784321","林","459","","","","nonmatch","","","","","","","","","","","","","","key","f","16.66631578947356","680","380","f","true","nonmatch","img/hexagon.png","三角","六边","ALT1_2","prac_ALT1_2","","","","","","","","","","","",""
"null","<span style='color:GreenYellow; font-size: 70px;'>正确! </span>","null","html-keyboard-response","108","395414","0.0-7.0-1.0-1.1-0.1-1.48","4","4","4","4","4","4","4","4","4","3","4","4","3","4","4","5","4","5","4","5","1","2","1","1","1","2","1","2","1","1","0","0","0","1","1","0","1","1","0","0","0","1","0","1","5","4","4","3","4","2","2","4","4","2","2","769498068633784321","林","459","","","","","","","","","","","","","","","","","","","","","","","","","","","","","","feedback_test","","","","","","","","","","","",""
"519","","j","psychophysics","109","396935","0.0-7.0-1.0-1.1-0.1-0.49","4","4","4","4","4","4","4","4","4","3","4","4","3","4","4","5","4","5","4","5","1","2","1","1","1","2","1","2","1","1","0","0","0","1","1","0","1","1","0","0","0","1","0","1","5","4","4","3","4","2","2","4","4","2","2","769498068633784321","林","459","","","","match","","","","","","","","","","","","","","key","j","16.666666666666668","680","380","j","true","match","img/triangle.png","三角","三角","ALT1_2","prac_ALT1_2","","","","","","","","","","","",""
"null","<span style='color:GreenYellow; font-size: 70px;'>正确! </span>","null","html-keyboard-response","110","397436","0.0-7.0-1.0-1.1-0.1-1.49","4","4","4","4","4","4","4","4","4","3","4","4","3","4","4","5","4","5","4","5","1","2","1","1","1","2","1","2","1","1","0","0","0","1","1","0","1","1","0","0","0","1","0","1","5","4","4","3","4","2","2","4","4","2","2","769498068633784321","林","459","","","","","","","","","","","","","","","","","","","","","","","","","","","","","","feedback_test","","","","","","","","","","","",""
"623","","f","psychophysics","111","399061","0.0-7.0-1.0-1.1-0.1-0.50","4","4","4","4","4","4","4","4","4","3","4","4","3","4","4","5","4","5","4","5","1","2","1","1","1","2","1","2","1","1","0","0","0","1","1","0","1","1","0","0","0","1","0","1","5","4","4","3","4","2","2","4","4","2","2","769498068633784321","林","459","","","","nonmatch","","","","","","","","","","","","","","key","f","16.67319587628854","680","380","j","false","match","img/hexagon.png","六边","六边","ALT1_2","prac_ALT1_2","","","","","","","","","","","",""
"null","<span style='color:red; font-size: 70px;'>错误! </span>","null","html-keyboard-response","112","399562","0.0-7.0-1.0-1.1-0.1-1.50","4","4","4","4","4","4","4","4","4","3","4","4","3","4","4","5","4","5","4","5","1","2","1","1","1","2","1","2","1","1","0","0","0","1","1","0","1","1","0","0","0","1","0","1","5","4","4","3","4","2","2","4","4","2","2","769498068633784321","林","459","","","","","","","","","","","","","","","","","","","","","","","","","","","","","","feedback_test","","","","","","","","","","","",""
"494","","j","psychophysics","113","401056","0.0-7.0-1.0-1.1-0.1-0.51","4","4","4","4","4","4","4","4","4","3","4","4","3","4","4","5","4","5","4","5","1","2","1","1","1","2","1","2","1","1","0","0","0","1","1","0","1","1","0","0","0","1","0","1","5","4","4","3","4","2","2","4","4","2","2","769498068633784321","林","459","","","","match","","","","","","","","","","","","","","key","j","16.66067415730324","680","380","j","true","match","img/circle.png","圆形","圆形","ALT1_2","prac_ALT1_2","","","","","","","","","","","",""
"null","<span style='color:GreenYellow; font-size: 70px;'>正确! </span>","null","html-keyboard-response","114","401558","0.0-7.0-1.0-1.1-0.1-1.51","4","4","4","4","4","4","4","4","4","3","4","4","3","4","4","5","4","5","4","5","1","2","1","1","1","2","1","2","1","1","0","0","0","1","1","0","1","1","0","0","0","1","0","1","5","4","4","3","4","2","2","4","4","2","2","769498068633784321","林","459","","","","","","","","","","","","","","","","","","","","","","","","","","","","","","feedback_test","","","","","","","","","","","",""
"673","","j","psychophysics","115","403233","0.0-7.0-1.0-1.1-0.1-0.52","4","4","4","4","4","4","4","4","4","3","4","4","3","4","4","5","4","5","4","5","1","2","1","1","1","2","1","2","1","1","0","0","0","1","1","0","1","1","0","0","0","1","0","1","5","4","4","3","4","2","2","4","4","2","2","769498068633784321","林","459","","","","match","","","","","","","","","","","","","","key","j","16.67070707070672","680","380","j","true","match","img/hexagon.png","六边","六边","ALT1_2","prac_ALT1_2","","","","","","","","","","","",""
"null","<span style='color:GreenYellow; font-size: 70px;'>正确! </span>","null","html-keyboard-response","116","403734","0.0-7.0-1.0-1.1-0.1-1.52","4","4","4","4","4","4","4","4","4","3","4","4","3","4","4","5","4","5","4","5","1","2","1","1","1","2","1","2","1","1","0","0","0","1","1","0","1","1","0","0","0","1","0","1","5","4","4","3","4","2","2","4","4","2","2","769498068633784321","林","459","","","","","","","","","","","","","","","","","","","","","","","","","","","","","","feedback_test","","","","","","","","","","","",""
"771","","f","psychophysics","117","405506","0.0-7.0-1.0-1.1-0.1-0.53","4","4","4","4","4","4","4","4","4","3","4","4","3","4","4","5","4","5","4","5","1","2","1","1","1","2","1","2","1","1","0","0","0","1","1","0","1","1","0","0","0","1","0","1","5","4","4","3","4","2","2","4","4","2","2","769498068633784321","林","459","","","","nonmatch","","","","","","","","","","","","","","key","f","16.66792452830178","680","380","f","true","nonmatch","img/circle.png","六边","圆形","ALT1_2","prac_ALT1_2","","","","","","","","","","","",""
"null","<span style='color:GreenYellow; font-size: 70px;'>正确! </span>","null","html-keyboard-response","118","406007","0.0-7.0-1.0-1.1-0.1-1.53","4","4","4","4","4","4","4","4","4","3","4","4","3","4","4","5","4","5","4","5","1","2","1","1","1","2","1","2","1","1","0","0","0","1","1","0","1","1","0","0","0","1","0","1","5","4","4","3","4","2","2","4","4","2","2","769498068633784321","林","459","","","","","","","","","","","","","","","","","","","","","","","","","","","","","","feedback_test","","","","","","","","","","","",""
"774","","j","psychophysics","119","407782","0.0-7.0-1.0-1.1-0.1-0.54","4","4","4","4","4","4","4","4","4","3","4","4","3","4","4","5","4","5","4","5","1","2","1","1","1","2","1","2","1","1","0","0","0","1","1","0","1","1","0","0","0","1","0","1","5","4","4","3","4","2","2","4","4","2","2","769498068633784321","林","459","","","","match","","","","","","","","","","","","","","key","j","16.66857142857154","680","380","f","false","nonmatch","img/trapezoid.png","六边","梯形","ALT1_2","prac_ALT1_2","","","","","","","","","","","",""
"null","<span style='color:red; font-size: 70px;'>错误! </span>","null","html-keyboard-response","120","408283","0.0-7.0-1.0-1.1-0.1-1.54","4","4","4","4","4","4","4","4","4","3","4","4","3","4","4","5","4","5","4","5","1","2","1","1","1","2","1","2","1","1","0","0","0","1","1","0","1","1","0","0","0","1","0","1","5","4","4","3","4","2","2","4","4","2","2","769498068633784321","林","459","","","","","","","","","","","","","","","","","","","","","","","","","","","","","","feedback_test","","","","","","","","","","","",""
"472","","j","psychophysics","121","409757","0.0-7.0-1.0-1.1-0.1-0.55","4","4","4","4","4","4","4","4","4","3","4","4","3","4","4","5","4","5","4","5","1","2","1","1","1","2","1","2","1","1","0","0","0","1","1","0","1","1","0","0","0","1","0","1","5","4","4","3","4","2","2","4","4","2","2","769498068633784321","林","459","","","","match","","","","","","","","","","","","","","key","j","16.671590909091307","680","380","j","true","match","img/triangle.png","三角","三角","ALT1_2","prac_ALT1_2","","","","","","","","","","","",""
"null","<span style='color:GreenYellow; font-size: 70px;'>正确! </span>","null","html-keyboard-response","122","410258","0.0-7.0-1.0-1.1-0.1-1.55","4","4","4","4","4","4","4","4","4","3","4","4","3","4","4","5","4","5","4","5","1","2","1","1","1","2","1","2","1","1","0","0","0","1","1","0","1","1","0","0","0","1","0","1","5","4","4","3","4","2","2","4","4","2","2","769498068633784321","林","459","","","","","","","","","","","","","","","","","","","","","","","","","","","","","","feedback_test","","","","","","","","","","","",""
"840","","f","psychophysics","123","412099","0.0-7.0-1.0-1.1-0.1-0.56","4","4","4","4","4","4","4","4","4","3","4","4","3","4","4","5","4","5","4","5","1","2","1","1","1","2","1","2","1","1","0","0","0","1","1","0","1","1","0","0","0","1","0","1","5","4","4","3","4","2","2","4","4","2","2","769498068633784321","林","459","","","","nonmatch","","","","","","","","","","","","","","key","f","16.671559633027094","680","380","f","true","nonmatch","img/trapezoid.png","三角","梯形","ALT1_2","prac_ALT1_2","","","","","","","","","","","",""
"null","<span style='color:GreenYellow; font-size: 70px;'>正确! </span>","null","html-keyboard-response","124","412601","0.0-7.0-1.0-1.1-0.1-1.56","4","4","4","4","4","4","4","4","4","3","4","4","3","4","4","5","4","5","4","5","1","2","1","1","1","2","1","2","1","1","0","0","0","1","1","0","1","1","0","0","0","1","0","1","5","4","4","3","4","2","2","4","4","2","2","769498068633784321","林","459","","","","","","","","","","","","","","","","","","","","","","","","","","","","","","feedback_test","","","","","","","","","","","",""
"612","","j","psychophysics","125","414213","0.0-7.0-1.0-1.1-0.1-0.57","4","4","4","4","4","4","4","4","4","3","4","4","3","4","4","5","4","5","4","5","1","2","1","1","1","2","1","2","1","1","0","0","0","1","1","0","1","1","0","0","0","1","0","1","5","4","4","3","4","2","2","4","4","2","2","769498068633784321","林","459","","","","match","","","","","","","","","","","","","","key","j","16.67499999999988","680","380","f","false","nonmatch","img/circle.png","梯形","圆形","ALT1_2","prac_ALT1_2","","","","","","","","","","","",""
"null","<span style='color:red; font-size: 70px;'>错误! </span>","null","html-keyboard-response","126","414715","0.0-7.0-1.0-1.1-0.1-1.57","4","4","4","4","4","4","4","4","4","3","4","4","3","4","4","5","4","5","4","5","1","2","1","1","1","2","1","2","1","1","0","0","0","1","1","0","1","1","0","0","0","1","0","1","5","4","4","3","4","2","2","4","4","2","2","769498068633784321","林","459","","","","","","","","","","","","","","","","","","","","","","","","","","","","","","feedback_test","","","","","","","","","","","",""
"688","","j","psychophysics","127","416404","0.0-7.0-1.0-1.1-0.1-0.58","4","4","4","4","4","4","4","4","4","3","4","4","3","4","4","5","4","5","4","5","1","2","1","1","1","2","1","2","1","1","0","0","0","1","1","0","1","1","0","0","0","1","0","1","5","4","4","3","4","2","2","4","4","2","2","769498068633784321","林","459","","","","match","","","","","","","","","","","","","","key","j","16.672000000000118","680","380","j","true","match","img/trapezoid.png","梯形","梯形","ALT1_2","prac_ALT1_2","","","","","","","","","","","",""
"null","<span style='color:GreenYellow; font-size: 70px;'>正确! </span>","null","html-keyboard-response","128","416909","0.0-7.0-1.0-1.1-0.1-1.58","4","4","4","4","4","4","4","4","4","3","4","4","3","4","4","5","4","5","4","5","1","2","1","1","1","2","1","2","1","1","0","0","0","1","1","0","1","1","0","0","0","1","0","1","5","4","4","3","4","2","2","4","4","2","2","769498068633784321","林","459","","","","","","","","","","","","","","","","","","","","","","","","","","","","","","feedback_test","","","","","","","","","","","",""
"786","","j","psychophysics","129","418697","0.0-7.0-1.0-1.1-0.1-0.59","4","4","4","4","4","4","4","4","4","3","4","4","3","4","4","5","4","5","4","5","1","2","1","1","1","2","1","2","1","1","0","0","0","1","1","0","1","1","0","0","0","1","0","1","5","4","4","3","4","2","2","4","4","2","2","769498068633784321","林","459","","","","match","","","","","","","","","","","","","","key","j","16.6632075471697","680","380","j","true","match","img/hexagon.png","六边","六边","ALT1_2","prac_ALT1_2","","","","","","","","","","","",""
"null","<span style='color:GreenYellow; font-size: 70px;'>正确! </span>","null","html-keyboard-response","130","419198","0.0-7.0-1.0-1.1-0.1-1.59","4","4","4","4","4","4","4","4","4","3","4","4","3","4","4","5","4","5","4","5","1","2","1","1","1","2","1","2","1","1","0","0","0","1","1","0","1","1","0","0","0","1","0","1","5","4","4","3","4","2","2","4","4","2","2","769498068633784321","林","459","","","","","","","","","","","","","","","","","","","","","","","","","","","","","","feedback_test","","","","","","","","","","","",""
"564","","j","psychophysics","131","420764","0.0-7.0-1.0-1.1-0.1-0.60","4","4","4","4","4","4","4","4","4","3","4","4","3","4","4","5","4","5","4","5","1","2","1","1","1","2","1","2","1","1","0","0","0","1","1","0","1","1","0","0","0","1","0","1","5","4","4","3","4","2","2","4","4","2","2","769498068633784321","林","459","","","","match","","","","","","","","","","","","","","key","j","16.666666666666668","680","380","f","false","nonmatch","img/hexagon.png","梯形","六边","ALT1_2","prac_ALT1_2","","","","","","","","","","","",""
"null","<span style='color:red; font-size: 70px;'>错误! </span>","null","html-keyboard-response","132","421264","0.0-7.0-1.0-1.1-0.1-1.60","4","4","4","4","4","4","4","4","4","3","4","4","3","4","4","5","4","5","4","5","1","2","1","1","1","2","1","2","1","1","0","0","0","1","1","0","1","1","0","0","0","1","0","1","5","4","4","3","4","2","2","4","4","2","2","769498068633784321","林","459","","","","","","","","","","","","","","","","","","","","","","","","","","","","","","feedback_test","","","","","","","","","","","",""
"628","","f","psychophysics","133","422894","0.0-7.0-1.0-1.1-0.1-0.61","4","4","4","4","4","4","4","4","4","3","4","4","3","4","4","5","4","5","4","5","1","2","1","1","1","2","1","2","1","1","0","0","0","1","1","0","1","1","0","0","0","1","0","1","5","4","4","3","4","2","2","4","4","2","2","769498068633784321","林","459","","","","nonmatch","","","","","","","","","","","","","","key","f","16.671134020618318","680","380","f","true","nonmatch","img/triangle.png","六边","三角","ALT1_2","prac_ALT1_2","","","","","","","","","","","",""
"null","<span style='color:GreenYellow; font-size: 70px;'>正确! </span>","null","html-keyboard-response","134","423399","0.0-7.0-1.0-1.1-0.1-1.61","4","4","4","4","4","4","4","4","4","3","4","4","3","4","4","5","4","5","4","5","1","2","1","1","1","2","1","2","1","1","0","0","0","1","1","0","1","1","0","0","0","1","0","1","5","4","4","3","4","2","2","4","4","2","2","769498068633784321","林","459","","","","","","","","","","","","","","","","","","","","","","","","","","","","","","feedback_test","","","","","","","","","","","",""
"648","","j","psychophysics","135","425050","0.0-7.0-1.0-1.1-0.1-0.62","4","4","4","4","4","4","4","4","4","3","4","4","3","4","4","5","4","5","4","5","1","2","1","1","1","2","1","2","1","1","0","0","0","1","1","0","1","1","0","0","0","1","0","1","5","4","4","3","4","2","2","4","4","2","2","769498068633784321","林","459","","","","match","","","","","","","","","","","","","","key","j","16.668367346938776","680","380","j","true","match","img/circle.png","圆形","圆形","ALT1_2","prac_ALT1_2","","","","","","","","","","","",""
"null","<span style='color:GreenYellow; font-size: 70px;'>正确! </span>","null","html-keyboard-response","136","425550","0.0-7.0-1.0-1.1-0.1-1.62","4","4","4","4","4","4","4","4","4","3","4","4","3","4","4","5","4","5","4","5","1","2","1","1","1","2","1","2","1","1","0","0","0","1","1","0","1","1","0","0","0","1","0","1","5","4","4","3","4","2","2","4","4","2","2","769498068633784321","林","459","","","","","","","","","","","","","","","","","","","","","","","","","","","","","","feedback_test","","","","","","","","","","","",""
"783","","f","psychophysics","137","427335","0.0-7.0-1.0-1.1-0.1-0.63","4","4","4","4","4","4","4","4","4","3","4","4","3","4","4","5","4","5","4","5","1","2","1","1","1","2","1","2","1","1","0","0","0","1","1","0","1","1","0","0","0","1","0","1","5","4","4","3","4","2","2","4","4","2","2","769498068633784321","林","459","","","","nonmatch","","","","","","","","","","","","","","key","f","16.66698113207558","680","380","f","true","nonmatch","img/triangle.png","梯形","三角","ALT1_2","prac_ALT1_2","","","","","","","","","","","",""
"null","<span style='color:GreenYellow; font-size: 70px;'>正确! </span>","null","html-keyboard-response","138","427838","0.0-7.0-1.0-1.1-0.1-1.63","4","4","4","4","4","4","4","4","4","3","4","4","3","4","4","5","4","5","4","5","1","2","1","1","1","2","1","2","1","1","0","0","0","1","1","0","1","1","0","0","0","1","0","1","5","4","4","3","4","2","2","4","4","2","2","769498068633784321","林","459","","","","","","","","","","","","","","","","","","","","","","","","","","","","","","feedback_test","","","","","","","","","","","",""
"661","","j","psychophysics","139","429500","0.0-7.0-1.0-1.1-0.1-0.64","4","4","4","4","4","4","4","4","4","3","4","4","3","4","4","5","4","5","4","5","1","2","1","1","1","2","1","2","1","1","0","0","0","1","1","0","1","1","0","0","0","1","0","1","5","4","4","3","4","2","2","4","4","2","2","769498068633784321","林","459","","","","match","","","","","","","","","","","","","","key","j","16.663265306122447","680","380","f","false","nonmatch","img/triangle.png","圆形","三角","ALT1_2","prac_ALT1_2","","","","","","","","","","","",""
"null","<span style='color:red; font-size: 70px;'>错误! </span>","null","html-keyboard-response","140","430001","0.0-7.0-1.0-1.1-0.1-1.64","4","4","4","4","4","4","4","4","4","3","4","4","3","4","4","5","4","5","4","5","1","2","1","1","1","2","1","2","1","1","0","0","0","1","1","0","1","1","0","0","0","1","0","1","5","4","4","3","4","2","2","4","4","2","2","769498068633784321","林","459","","","","","","","","","","","","","","","","","","","","","","","","","","","","","","feedback_test","","","","","","","","","","","",""
"686","","j","psychophysics","141","431689","0.0-7.0-1.0-1.1-0.1-0.65","4","4","4","4","4","4","4","4","4","3","4","4","3","4","4","5","4","5","4","5","1","2","1","1","1","2","1","2","1","1","0","0","0","1","1","0","1","1","0","0","0","1","0","1","5","4","4","3","4","2","2","4","4","2","2","769498068633784321","林","459","","","","match","","","","","","","","","","","","","","key","j","16.66600000000035","680","380","j","true","match","img/circle.png","圆形","圆形","ALT1_2","prac_ALT1_2","","","","","","","","","","","",""
"null","<span style='color:GreenYellow; font-size: 70px;'>正确! </span>","null","html-keyboard-response","142","432190","0.0-7.0-1.0-1.1-0.1-1.65","4","4","4","4","4","4","4","4","4","3","4","4","3","4","4","5","4","5","4","5","1","2","1","1","1","2","1","2","1","1","0","0","0","1","1","0","1","1","0","0","0","1","0","1","5","4","4","3","4","2","2","4","4","2","2","769498068633784321","林","459","","","","","","","","","","","","","","","","","","","","","","","","","","","","","","feedback_test","","","","","","","","","","","",""
"941","","j","psychophysics","143","434133","0.0-7.0-1.0-1.1-0.1-0.66","4","4","4","4","4","4","4","4","4","3","4","4","3","4","4","5","4","5","4","5","1","2","1","1","1","2","1","2","1","1","0","0","0","1","1","0","1","1","0","0","0","1","0","1","5","4","4","3","4","2","2","4","4","2","2","769498068633784321","林","459","","","","match","","","","","","","","","","","","","","key","j","16.666086956521536","680","380","j","true","match","img/trapezoid.png","梯形","梯形","ALT1_2","prac_ALT1_2","","","","","","","","","","","",""
"null","<span style='color:GreenYellow; font-size: 70px;'>正确! </span>","null","html-keyboard-response","144","434650","0.0-7.0-1.0-1.1-0.1-1.66","4","4","4","4","4","4","4","4","4","3","4","4","3","4","4","5","4","5","4","5","1","2","1","1","1","2","1","2","1","1","0","0","0","1","1","0","1","1","0","0","0","1","0","1","5","4","4","3","4","2","2","4","4","2","2","769498068633784321","林","459","","","","","","","","","","","","","","","","","","","","","","","","","","","","","","feedback_test","","","","","","","","","","","",""
"729","","f","psychophysics","145","436380","0.0-7.0-1.0-1.1-0.1-0.67","4","4","4","4","4","4","4","4","4","3","4","4","3","4","4","5","4","5","4","5","1","2","1","1","1","2","1","2","1","1","0","0","0","1","1","0","1","1","0","0","0","1","0","1","5","4","4","3","4","2","2","4","4","2","2","769498068633784321","林","459","","","","nonmatch","","","","","","","","","","","","","","key","f","16.67087378640754","680","380","f","true","nonmatch","img/trapezoid.png","圆形","梯形","ALT1_2","prac_ALT1_2","","","","","","","","","","","",""
"null","<span style='color:GreenYellow; font-size: 70px;'>正确! </span>","null","html-keyboard-response","146","436880","0.0-7.0-1.0-1.1-0.1-1.67","4","4","4","4","4","4","4","4","4","3","4","4","3","4","4","5","4","5","4","5","1","2","1","1","1","2","1","2","1","1","0","0","0","1","1","0","1","1","0","0","0","1","0","1","5","4","4","3","4","2","2","4","4","2","2","769498068633784321","林","459","","","","","","","","","","","","","","","","","","","","","","","","","","","","","","feedback_test","","","","","","","","","","","",""
"834","","j","psychophysics","147","438717","0.0-7.0-1.0-1.1-0.1-0.68","4","4","4","4","4","4","4","4","4","3","4","4","3","4","4","5","4","5","4","5","1","2","1","1","1","2","1","2","1","1","0","0","0","1","1","0","1","1","0","0","0","1","0","1","5","4","4","3","4","2","2","4","4","2","2","769498068633784321","林","459","","","","match","","","","","","","","","","","","","","key","j","16.6697247706422","680","380","j","true","match","img/trapezoid.png","梯形","梯形","ALT1_2","prac_ALT1_2","","","","","","","","","","","",""
"null","<span style='color:GreenYellow; font-size: 70px;'>正确! </span>","null","html-keyboard-response","148","439219","0.0-7.0-1.0-1.1-0.1-1.68","4","4","4","4","4","4","4","4","4","3","4","4","3","4","4","5","4","5","4","5","1","2","1","1","1","2","1","2","1","1","0","0","0","1","1","0","1","1","0","0","0","1","0","1","5","4","4","3","4","2","2","4","4","2","2","769498068633784321","林","459","","","","","","","","","","","","","","","","","","","","","","","","","","","","","","feedback_test","","","","","","","","","","","",""
"564","","j","psychophysics","149","440784","0.0-7.0-1.0-1.1-0.1-0.69","4","4","4","4","4","4","4","4","4","3","4","4","3","4","4","5","4","5","4","5","1","2","1","1","1","2","1","2","1","1","0","0","0","1","1","0","1","1","0","0","0","1","0","1","5","4","4","3","4","2","2","4","4","2","2","769498068633784321","林","459","","","","match","","","","","","","","","","","","","","key","j","16.672043010752688","680","380","j","true","match","img/triangle.png","三角","三角","ALT1_2","prac_ALT1_2","","","","","","","","","","","",""
"null","<span style='color:GreenYellow; font-size: 70px;'>正确! </span>","null","html-keyboard-response","150","441286","0.0-7.0-1.0-1.1-0.1-1.69","4","4","4","4","4","4","4","4","4","3","4","4","3","4","4","5","4","5","4","5","1","2","1","1","1","2","1","2","1","1","0","0","0","1","1","0","1","1","0","0","0","1","0","1","5","4","4","3","4","2","2","4","4","2","2","769498068633784321","林","459","","","","","","","","","","","","","","","","","","","","","","","","","","","","","","feedback_test","","","","","","","","","","","",""
"700","","f","psychophysics","151","442987","0.0-7.0-1.0-1.1-0.1-0.70","4","4","4","4","4","4","4","4","4","3","4","4","3","4","4","5","4","5","4","5","1","2","1","1","1","2","1","2","1","1","0","0","0","1","1","0","1","1","0","0","0","1","0","1","5","4","4","3","4","2","2","4","4","2","2","769498068633784321","林","459","","","","nonmatch","","","","","","","","","","","","","","key","f","16.667326732672922","680","380","f","true","nonmatch","img/hexagon.png","圆形","六边","ALT1_2","prac_ALT1_2","","","","","","","","","","","",""
"null","<span style='color:GreenYellow; font-size: 70px;'>正确! </span>","null","html-keyboard-response","152","443488","0.0-7.0-1.0-1.1-0.1-1.70","4","4","4","4","4","4","4","4","4","3","4","4","3","4","4","5","4","5","4","5","1","2","1","1","1","2","1","2","1","1","0","0","0","1","1","0","1","1","0","0","0","1","0","1","5","4","4","3","4","2","2","4","4","2","2","769498068633784321","林","459","","","","","","","","","","","","","","","","","","","","","","","","","","","","","","feedback_test","","","","","","","","","","","",""
"736","","f","psychophysics","153","445225","0.0-7.0-1.0-1.1-0.1-0.71","4","4","4","4","4","4","4","4","4","3","4","4","3","4","4","5","4","5","4","5","1","2","1","1","1","2","1","2","1","1","0","0","0","1","1","0","1","1","0","0","0","1","0","1","5","4","4","3","4","2","2","4","4","2","2","769498068633784321","林","459","","","","nonmatch","","","","","","","","","","","","","","key","f","16.650485436893202","680","380","f","true","nonmatch","img/circle.png","三角","圆形","ALT1_2","prac_ALT1_2","","","","","","","","","","","",""
"null","<span style='color:GreenYellow; font-size: 70px;'>正确! </span>","null","html-keyboard-response","154","445728","0.0-7.0-1.0-1.1-0.1-1.71","4","4","4","4","4","4","4","4","4","3","4","4","3","4","4","5","4","5","4","5","1","2","1","1","1","2","1","2","1","1","0","0","0","1","1","0","1","1","0","0","0","1","0","1","5","4","4","3","4","2","2","4","4","2","2","769498068633784321","林","459","","","","","","","","","","","","","","","","","","","","","","","","","","","","","","feedback_test","","","","","","","","","","","",""
"622","","j","psychophysics","155","447352","0.0-7.0-1.0-1.1-0.1-0.72","4","4","4","4","4","4","4","4","4","3","4","4","3","4","4","5","4","5","4","5","1","2","1","1","1","2","1","2","1","1","0","0","0","1","1","0","1","1","0","0","0","1","0","1","5","4","4","3","4","2","2","4","4","2","2","769498068633784321","林","459","","","","match","","","","","","","","","","","","","","key","j","16.664583333333212","680","380","j","true","match","img/hexagon.png","六边","六边","ALT1_2","prac_ALT1_2","","","","","","","","","","","",""
"null","<span style='color:GreenYellow; font-size: 70px;'>正确! </span>","null","html-keyboard-response","156","447853","0.0-7.0-1.0-1.1-0.1-1.72","4","4","4","4","4","4","4","4","4","3","4","4","3","4","4","5","4","5","4","5","1","2","1","1","1","2","1","2","1","1","0","0","0","1","1","0","1","1","0","0","0","1","0","1","5","4","4","3","4","2","2","4","4","2","2","769498068633784321","林","459","","","","","","","","","","","","","","","","","","","","","","","","","","","","","","feedback_test","","","","","","","","","","","",""
"674","","f","psychophysics","157","449528","0.0-7.0-1.0-1.1-0.1-0.73","4","4","4","4","4","4","4","4","4","3","4","4","3","4","4","5","4","5","4","5","1","2","1","1","1","2","1","2","1","1","0","0","0","1","1","0","1","1","0","0","0","1","0","1","5","4","4","3","4","2","2","4","4","2","2","769498068633784321","林","459","","","","nonmatch","","","","","","","","","","","","","","key","f","16.667999999999882","680","380","f","true","nonmatch","img/triangle.png","六边","三角","ALT1_2","prac_ALT1_2","","","","","","","","","","","",""
"null","<span style='color:GreenYellow; font-size: 70px;'>正确! </span>","null","html-keyboard-response","158","450031","0.0-7.0-1.0-1.1-0.1-1.73","4","4","4","4","4","4","4","4","4","3","4","4","3","4","4","5","4","5","4","5","1","2","1","1","1","2","1","2","1","1","0","0","0","1","1","0","1","1","0","0","0","1","0","1","5","4","4","3","4","2","2","4","4","2","2","769498068633784321","林","459","","","","","","","","","","","","","","","","","","","","","","","","","","","","","","feedback_test","","","","","","","","","","","",""
"605","","j","psychophysics","159","451638","0.0-7.0-1.0-1.1-0.1-0.74","4","4","4","4","4","4","4","4","4","3","4","4","3","4","4","5","4","5","4","5","1","2","1","1","1","2","1","2","1","1","0","0","0","1","1","0","1","1","0","0","0","1","0","1","5","4","4","3","4","2","2","4","4","2","2","769498068633784321","林","459","","","","match","","","","","","","","","","","","","","key","j","16.66842105263158","680","380","j","true","match","img/hexagon.png","六边","六边","ALT1_2","prac_ALT1_2","","","","","","","","","","","",""
"null","<span style='color:GreenYellow; font-size: 70px;'>正确! </span>","null","html-keyboard-response","160","452149","0.0-7.0-1.0-1.1-0.1-1.74","4","4","4","4","4","4","4","4","4","3","4","4","3","4","4","5","4","5","4","5","1","2","1","1","1","2","1","2","1","1","0","0","0","1","1","0","1","1","0","0","0","1","0","1","5","4","4","3","4","2","2","4","4","2","2","769498068633784321","林","459","","","","","","","","","","","","","","","","","","","","","","","","","","","","","","feedback_test","","","","","","","","","","","",""
"747","","j","psychophysics","161","453898","0.0-7.0-1.0-1.1-0.1-0.75","4","4","4","4","4","4","4","4","4","3","4","4","3","4","4","5","4","5","4","5","1","2","1","1","1","2","1","2","1","1","0","0","0","1","1","0","1","1","0","0","0","1","0","1","5","4","4","3","4","2","2","4","4","2","2","769498068633784321","林","459","","","","match","","","","","","","","","","","","","","key","j","16.66826923076923","680","380","j","true","match","img/circle.png","圆形","圆形","ALT1_2","prac_ALT1_2","","","","","","","","","","","",""
"null","<span style='color:GreenYellow; font-size: 70px;'>正确! </span>","null","html-keyboard-response","162","454399","0.0-7.0-1.0-1.1-0.1-1.75","4","4","4","4","4","4","4","4","4","3","4","4","3","4","4","5","4","5","4","5","1","2","1","1","1","2","1","2","1","1","0","0","0","1","1","0","1","1","0","0","0","1","0","1","5","4","4","3","4","2","2","4","4","2","2","769498068633784321","林","459","","","","","","","","","","","","","","","","","","","","","","","","","","","","","","feedback_test","","","","","","","","","","","",""
"571","","j","psychophysics","163","455971","0.0-7.0-1.0-1.1-0.1-0.76","4","4","4","4","4","4","4","4","4","3","4","4","3","4","4","5","4","5","4","5","1","2","1","1","1","2","1","2","1","1","0","0","0","1","1","0","1","1","0","0","0","1","0","1","5","4","4","3","4","2","2","4","4","2","2","769498068633784321","林","459","","","","match","","","","","","","","","","","","","","key","j","16.6688172043012","680","380","j","true","match","img/hexagon.png","六边","六边","ALT1_2","prac_ALT1_2","","","","","","","","","","","",""
"null","<span style='color:GreenYellow; font-size: 70px;'>正确! </span>","null","html-keyboard-response","164","456473","0.0-7.0-1.0-1.1-0.1-1.76","4","4","4","4","4","4","4","4","4","3","4","4","3","4","4","5","4","5","4","5","1","2","1","1","1","2","1","2","1","1","0","0","0","1","1","0","1","1","0","0","0","1","0","1","5","4","4","3","4","2","2","4","4","2","2","769498068633784321","林","459","","","","","","","","","","","","","","","","","","","","","","","","","","","","","","feedback_test","","","","","","","","","","","",""
"698","","f","psychophysics","165","458173","0.0-7.0-1.0-1.1-0.1-0.77","4","4","4","4","4","4","4","4","4","3","4","4","3","4","4","5","4","5","4","5","1","2","1","1","1","2","1","2","1","1","0","0","0","1","1","0","1","1","0","0","0","1","0","1","5","4","4","3","4","2","2","4","4","2","2","769498068633784321","林","459","","","","nonmatch","","","","","","","","","","","","","","key","f","16.667326732672922","680","380","f","true","nonmatch","img/trapezoid.png","六边","梯形","ALT1_2","prac_ALT1_2","","","","","","","","","","","",""
"null","<span style='color:GreenYellow; font-size: 70px;'>正确! </span>","null","html-keyboard-response","166","458674","0.0-7.0-1.0-1.1-0.1-1.77","4","4","4","4","4","4","4","4","4","3","4","4","3","4","4","5","4","5","4","5","1","2","1","1","1","2","1","2","1","1","0","0","0","1","1","0","1","1","0","0","0","1","0","1","5","4","4","3","4","2","2","4","4","2","2","769498068633784321","林","459","","","","","","","","","","","","","","","","","","","","","","","","","","","","","","feedback_test","","","","","","","","","","","",""
"557","","j","psychophysics","167","460234","0.0-7.0-1.0-1.1-0.1-0.78","4","4","4","4","4","4","4","4","4","3","4","4","3","4","4","5","4","5","4","5","1","2","1","1","1","2","1","2","1","1","0","0","0","1","1","0","1","1","0","0","0","1","0","1","5","4","4","3","4","2","2","4","4","2","2","769498068633784321","林","459","","","","match","","","","","","","","","","","","","","key","j","16.661956521739384","680","380","j","true","match","img/circle.png","圆形","圆形","ALT1_2","prac_ALT1_2","","","","","","","","","","","",""
"null","<span style='color:GreenYellow; font-size: 70px;'>正确! </span>","null","html-keyboard-response","168","460734","0.0-7.0-1.0-1.1-0.1-1.78","4","4","4","4","4","4","4","4","4","3","4","4","3","4","4","5","4","5","4","5","1","2","1","1","1","2","1","2","1","1","0","0","0","1","1","0","1","1","0","0","0","1","0","1","5","4","4","3","4","2","2","4","4","2","2","769498068633784321","林","459","","","","","","","","","","","","","","","","","","","","","","","","","","","","","","feedback_test","","","","","","","","","","","",""
"796","","f","psychophysics","169","462532","0.0-7.0-1.0-1.1-0.1-0.79","4","4","4","4","4","4","4","4","4","3","4","4","3","4","4","5","4","5","4","5","1","2","1","1","1","2","1","2","1","1","0","0","0","1","1","0","1","1","0","0","0","1","0","1","5","4","4","3","4","2","2","4","4","2","2","769498068633784321","林","459","","","","nonmatch","","","","","","","","","","","","","","key","f","16.671962616822103","680","380","j","false","match","img/trapezoid.png","梯形","梯形","ALT1_2","prac_ALT1_2","","","","","","","","","","","",""
"null","<span style='color:red; font-size: 70px;'>错误! </span>","null","html-keyboard-response","170","463033","0.0-7.0-1.0-1.1-0.1-1.79","4","4","4","4","4","4","4","4","4","3","4","4","3","4","4","5","4","5","4","5","1","2","1","1","1","2","1","2","1","1","0","0","0","1","1","0","1","1","0","0","0","1","0","1","5","4","4","3","4","2","2","4","4","2","2","769498068633784321","林","459","","","","","","","","","","","","","","","","","","","","","","","","","","","","","","feedback_test","","","","","","","","","","","",""
"518","","j","psychophysics","171","464553","0.0-7.0-1.0-1.1-0.1-0.80","4","4","4","4","4","4","4","4","4","3","4","4","3","4","4","5","4","5","4","5","1","2","1","1","1","2","1","2","1","1","0","0","0","1","1","0","1","1","0","0","0","1","0","1","5","4","4","3","4","2","2","4","4","2","2","769498068633784321","林","459","","","","match","","","","","","","","","","","","","","key","j","16.67222222222222","680","380","j","true","match","img/triangle.png","三角","三角","ALT1_2","prac_ALT1_2","","","","","","","","","","","",""
"null","<span style='color:GreenYellow; font-size: 70px;'>正确! </span>","null","html-keyboard-response","172","465053","0.0-7.0-1.0-1.1-0.1-1.80","4","4","4","4","4","4","4","4","4","3","4","4","3","4","4","5","4","5","4","5","1","2","1","1","1","2","1","2","1","1","0","0","0","1","1","0","1","1","0","0","0","1","0","1","5","4","4","3","4","2","2","4","4","2","2","769498068633784321","林","459","","","","","","","","","","","","","","","","","","","","","","","","","","","","","","feedback_test","","","","","","","","","","","",""
"719","","f","psychophysics","173","466774","0.0-7.0-1.0-1.1-0.1-0.81","4","4","4","4","4","4","4","4","4","3","4","4","3","4","4","5","4","5","4","5","1","2","1","1","1","2","1","2","1","1","0","0","0","1","1","0","1","1","0","0","0","1","0","1","5","4","4","3","4","2","2","4","4","2","2","769498068633784321","林","459","","","","nonmatch","","","","","","","","","","","","","","key","f","16.66699029126225","680","380","f","true","nonmatch","img/circle.png","梯形","圆形","ALT1_2","prac_ALT1_2","","","","","","","","","","","",""
"null","<span style='color:GreenYellow; font-size: 70px;'>正确! </span>","null","html-keyboard-response","174","467275","0.0-7.0-1.0-1.1-0.1-1.81","4","4","4","4","4","4","4","4","4","3","4","4","3","4","4","5","4","5","4","5","1","2","1","1","1","2","1","2","1","1","0","0","0","1","1","0","1","1","0","0","0","1","0","1","5","4","4","3","4","2","2","4","4","2","2","769498068633784321","林","459","","","","","","","","","","","","","","","","","","","","","","","","","","","","","","feedback_test","","","","","","","","","","","",""
"814","","j","psychophysics","175","469091","0.0-7.0-1.0-1.1-0.1-0.82","4","4","4","4","4","4","4","4","4","3","4","4","3","4","4","5","4","5","4","5","1","2","1","1","1","2","1","2","1","1","0","0","0","1","1","0","1","1","0","0","0","1","0","1","5","4","4","3","4","2","2","4","4","2","2","769498068633784321","林","459","","","","match","","","","","","","","","","","","","","key","j","16.669444444444338","680","380","j","true","match","img/trapezoid.png","梯形","梯形","ALT1_2","prac_ALT1_2","","","","","","","","","","","",""
"null","<span style='color:GreenYellow; font-size: 70px;'>正确! </span>","null","html-keyboard-response","176","469592","0.0-7.0-1.0-1.1-0.1-1.82","4","4","4","4","4","4","4","4","4","3","4","4","3","4","4","5","4","5","4","5","1","2","1","1","1","2","1","2","1","1","0","0","0","1","1","0","1","1","0","0","0","1","0","1","5","4","4","3","4","2","2","4","4","2","2","769498068633784321","林","459","","","","","","","","","","","","","","","","","","","","","","","","","","","","","","feedback_test","","","","","","","","","","","",""
"581","","j","psychophysics","177","471175","0.0-7.0-1.0-1.1-0.1-0.83","4","4","4","4","4","4","4","4","4","3","4","4","3","4","4","5","4","5","4","5","1","2","1","1","1","2","1","2","1","1","0","0","0","1","1","0","1","1","0","0","0","1","0","1","5","4","4","3","4","2","2","4","4","2","2","769498068633784321","林","459","","","","match","","","","","","","","","","","","","","key","j","16.662765957447302","680","380","j","true","match","img/triangle.png","三角","三角","ALT1_2","prac_ALT1_2","","","","","","","","","","","",""
"null","<span style='color:GreenYellow; font-size: 70px;'>正确! </span>","null","html-keyboard-response","178","471677","0.0-7.0-1.0-1.1-0.1-1.83","4","4","4","4","4","4","4","4","4","3","4","4","3","4","4","5","4","5","4","5","1","2","1","1","1","2","1","2","1","1","0","0","0","1","1","0","1","1","0","0","0","1","0","1","5","4","4","3","4","2","2","4","4","2","2","769498068633784321","林","459","","","","","","","","","","","","","","","","","","","","","","","","","","","","","","feedback_test","","","","","","","","","","","",""
"735","","f","psychophysics","179","473413","0.0-7.0-1.0-1.1-0.1-0.84","4","4","4","4","4","4","4","4","4","3","4","4","3","4","4","5","4","5","4","5","1","2","1","1","1","2","1","2","1","1","0","0","0","1","1","0","1","1","0","0","0","1","0","1","5","4","4","3","4","2","2","4","4","2","2","769498068633784321","林","459","","","","nonmatch","","","","","","","","","","","","","","key","f","16.667961165048432","680","380","f","true","nonmatch","img/triangle.png","圆形","三角","ALT1_2","prac_ALT1_2","","","","","","","","","","","",""
"null","<span style='color:GreenYellow; font-size: 70px;'>正确! </span>","null","html-keyboard-response","180","473915","0.0-7.0-1.0-1.1-0.1-1.84","4","4","4","4","4","4","4","4","4","3","4","4","3","4","4","5","4","5","4","5","1","2","1","1","1","2","1","2","1","1","0","0","0","1","1","0","1","1","0","0","0","1","0","1","5","4","4","3","4","2","2","4","4","2","2","769498068633784321","林","459","","","","","","","","","","","","","","","","","","","","","","","","","","","","","","feedback_test","","","","","","","","","","","",""
"954","","f","psychophysics","181","475870","0.0-7.0-1.0-1.1-0.1-0.85","4","4","4","4","4","4","4","4","4","3","4","4","3","4","4","5","4","5","4","5","1","2","1","1","1","2","1","2","1","1","0","0","0","1","1","0","1","1","0","0","0","1","0","1","5","4","4","3","4","2","2","4","4","2","2","769498068633784321","林","459","","","","nonmatch","","","","","","","","","","","","","","key","f","16.66810344827586","680","380","f","true","nonmatch","img/triangle.png","梯形","三角","ALT1_2","prac_ALT1_2","","","","","","","","","","","",""
