"rt","stimulus","response","trial_type","trial_index","time_elapsed","internal_node_id","ses_1","ses_2","ses_3","ses_4","ses_5","ses_6","ses_7","ses_8","ses_9","ses_10","coreself_1","coreself_2","coreself_3","coreself_4","coreself_5","coreself_6","coreself_7","coreself_8","coreself_9","coreself_10","SGPS_1","SGPS_2","SGPS_3","SGPS_4","SGPS_5","SGPS_6","SGPS_7","SGPS_8","SGPS_9","NPI1","NPI2","NPI3","NPI4","NPI5","NPI6","NPI7","NPI8","NPI9","NPI10","NPI11","NPI12","NPI13","NPI14","NPI15","hsns_1","hsns_2","hsns_3","hsns_4","hsns_5","trap1","hsns_6","hsns_7","hsns_8","hsns_9","hsns_10","subj_idx","friend_name","ParticipantID","value","success","user_agent","responses","item_order","radio_event_ids","radio_event_times","key_event_times","mouse_event_times","straightlining","zigzagging","honeypot","timeout","failed_images","failed_audio","failed_video","version_attrib2","version_target2","correct","IAT","screen_id","task_id","RT","condition","word","varname","summary","version_attrib","version_target","time_stamp","view_history","response_type","key_press","avg_frame_time","center_x","center_y","correct_response","identity","Image","question_order","correct_answer","trap1_item"
"6319","
   <p><div style = ""color: white;font-size:25px;"">您好，欢迎参加本次实验。</div> </p>
   <p><div style = ""color: white;font-size:25px;"">为充分保障您的权利，请确保您已经知晓并同意《参与实验同意书》以及《数据公开知情同意书》。</div></p>
   <p><div style = ""color: white;font-size:25px;"">如果您未见过上述内容，请咨询实验员。</div></p>
   <p><div style = ""color: white;font-size:25px;"">如果您选择继续实验，则表示您已经清楚两份知情同意书的内容并同意。</div></p>
   <p><div style = ""color: pink;font-size:30px;"">请确保您记得day0的实验编号，您将在本次实验输入该编号，若您忘记，请咨询实验员后作答。</div></p>
   <p><div style = ""color: lightblue;font-size:25px;"">请您尽可能认真地作答，我们将依据您在各问卷和按键任务中的作答质量发放报酬。</div></p>
   <p> <div style = ""color: green;font-size:25px;""><按空格键至下页></div> </p>
   "," ","html-keyboard-response","0","6328","0.0-0.0","4","4","3","3","3","4","3","4","4","3","4","2","1","5","4","4","4","3","4","4","2","1","2","2","2","2","1","2","1","1","0","1","1","0","0","0","1","0","1","1","0","1","0","1","5","2","2","1","4","5","4","4","5","4","1","803273008734150658","陈","417","","","","","","","","","","","","","","","","","","","","","","","","","","","","","","","","","","","","","","","","","",""
"","","","call-function","1","6331","0.0-1.0-0.0","4","4","3","3","3","4","3","4","4","3","4","2","1","5","4","4","4","3","4","4","2","1","2","2","2","2","1","2","1","1","0","1","1","0","0","0","1","0","1","1","0","1","0","1","5","2","2","1","4","5","4","4","5","4","1","803273008734150658","陈","417","","","","","","","","","","","","","","","","","","","","","","","","","","","","","","","","","","","","","","","","","",""
"25513","","{""friend_name"":""陈"",""ParticipantID"":""417""}","survey-html-form","2","31846","0.0-1.0-1.0","4","4","3","3","3","4","3","4","4","3","4","2","1","5","4","4","4","3","4","4","2","1","2","2","2","2","1","2","1","1","0","1","1","0","0","0","1","0","1","1","0","1","0","1","5","2","2","1","4","5","4","4","5","4","1","803273008734150658","陈","417","","","","","","","","","","","","","","","","","","","","","","","","","","","","","","","","","","","","","","","","","",""
"","","","fullscreen","3","33009","0.0-2.0","4","4","3","3","3","4","3","4","4","3","4","2","1","5","4","4","4","3","4","4","2","1","2","2","2","2","1","2","1","1","0","1","1","0","0","0","1","0","1","1","0","1","0","1","5","2","2","1","4","5","4","4","5","4","1","803273008734150658","陈","417","","true","{}","","","","","","","","","","","","","","","","","","","","","","","","","","","","","","","","","","","","","","",""
"41087.400000002235","","{""Q01"":""4"",""Q02"":""4"",""Q03"":""3"",""Q04"":""3"",""Q05"":""3"",""Q06"":""4"",""Q07"":""3"",""Q08"":""4"",""Q09"":""4"",""Q10"":""3""}","survey-template","4","74104","0.0-3.0","4","4","3","3","3","4","3","4","4","3","4","2","1","5","4","4","4","3","4","4","2","1","2","2","2","2","1","2","1","1","0","1","1","0","0","0","1","0","1","1","0","1","0","1","5","2","2","1","4","5","4","4","5","4","1","803273008734150658","陈","417","","","","{""Q01"":""4"",""Q02"":""4"",""Q03"":""3"",""Q04"":""3"",""Q05"":""3"",""Q06"":""4"",""Q07"":""3"",""Q08"":""4"",""Q09"":""4"",""Q10"":""3""}","[0,1,2,3,4,5,6,7,8,9]","[""Q01"",""Q02"",""Q03"",""Q04"",""Q05"",""Q06"",""Q07"",""Q08"",""Q09"",""Q10""]","[21046.300000000745,23029.60000000149,25357.699999999255,26357.800000000745,27405.699999999255,28629.5,30069.60000000149,32069.800000000745,34773.800000000745,35725.60000000149]","[]","[21046.300000000745,23029.60000000149,25357.699999999255,25965.800000000745,26357.800000000745,27405.699999999255,28629.5,29869.800000000745,30069.60000000149,32069.800000000745,33341.60000000149,34205.400000002235,34773.800000000745,35725.60000000149,41085.400000002235]","0.3","0.4444444444444444","0","","","","","","","","","","","","","","","","","","","","","","","","","","","","","",""
"30069.79999999702","","{""Q01"":""4"",""Q02"":""2"",""Q03"":""1"",""Q04"":""5"",""Q05"":""4"",""Q06"":""4"",""Q07"":""4"",""Q08"":""3"",""Q09"":""4"",""Q10"":""4""}","survey-template","5","104186","0.0-4.0","4","4","3","3","3","4","3","4","4","3","4","2","1","5","4","4","4","3","4","4","2","1","2","2","2","2","1","2","1","1","0","1","1","0","0","0","1","0","1","1","0","1","0","1","5","2","2","1","4","5","4","4","5","4","1","803273008734150658","陈","417","","","","{""Q01"":""4"",""Q02"":""2"",""Q03"":""1"",""Q04"":""5"",""Q05"":""4"",""Q06"":""4"",""Q07"":""4"",""Q08"":""3"",""Q09"":""4"",""Q10"":""4""}","[0,1,2,3,4,5,6,7,8,9]","[""Q01"",""Q02"",""Q03"",""Q04"",""Q05"",""Q05"",""Q06"",""Q07"",""Q08"",""Q09"",""Q10""]","[1930.699999999255,6650.5,7690.39999999851,8994.699999999255,11314.39999999851,13554.599999997765,15978.599999997765,17458.599999997765,20018.5,24002.39999999851,25714.199999999255]","[]","[1930.699999999255,6650.5,7690.39999999851,8994.699999999255,11314.39999999851,13554.599999997765,15978.599999997765,17458.599999997765,20018.5,24002.39999999851,24882.199999999255,25714.199999999255,30066.39999999851]","0.4","0.3333333333333333","0","","","","","","","","","","","","","","","","","","","","","","","","","","","","","",""
"","","","preload","6","104884","0.0-5.0","4","4","3","3","3","4","3","4","4","3","4","2","1","5","4","4","4","3","4","4","2","1","2","2","2","2","1","2","1","1","0","1","1","0","0","0","1","0","1","1","0","1","0","1","5","2","2","1","4","5","4","4","5","4","1","803273008734150658","陈","417","","true","","","","","","","","","","","false","[]","[]","[]","","","","","","","","","","","","","","","","","","","","","","","","","",""
"29925","
    <h3>词语分类任务</h3>
    <p>在接下来的任务中，你需要对一系列词语进行分类。<p/>
    请先熟悉这些词语，这有利于你完成接下来的任务。</p>
    <table align=""center"" border=1 cellpadding=3 cellspacing=0>
    <tr> <th>类别</th> <th>词语</th> </tr>
    <tr> <td>&emsp;积极&emsp;</td> <td>&emsp;高尚、诚信、善良、君子、廉正、正直&emsp;</td> </tr>
    <tr> <td>&emsp;消极&emsp;</td> <td>&emsp;缺德、卑鄙、不孝、不仁、小人、黑心&emsp;</td> </tr>
    <tr> <td>&emsp;自我&emsp;</td> <td>&emsp;我、我的、自己、自己的、本人、本人的&emsp;</td> </tr>
    <tr> <td>&emsp;他人&emsp;</td> <td>&emsp;他、他的、别人、别人的、他人、他人的&emsp;</td> </tr>
    </table><br/>","0","html-button-response","7","134814","0.0-6.0-1.0-0.0","4","4","3","3","3","4","3","4","4","3","4","2","1","5","4","4","4","3","4","4","2","1","2","2","2","2","1","2","1","1","0","1","1","0","0","0","1","0","1","1","0","1","0","1","5","2","2","1","4","5","4","4","5","4","1","803273008734150658","陈","417","","","","","","","","","","","","","","","","","2","2","","","","","","","","","","","","","","","","","","","","","","","",""
"1076","
    <div class=""tag-bottom""><p>
    —— 任务1：对“他人”词和“自我”词分类 ——<p/>
    不同词语会出现在屏幕中央，类别标签将始终显示在屏幕上方<p/>   
    <span style=""color:#FFD866""><b>请根据上方标签的提示，尽可能正确并且快速地做出按键反应</b></span><p/>
    当按键错误时屏幕中会出现<span style=""color:red""> X </span>，需要按另一个键纠正才能继续<br/><p/>
    请把双手食指分别放在键盘的“E”键和“I”键上<p/>
    按<空格键>开始
    </p></div>"," ","html-keyboard-response","8","135901","0.0-6.0-1.0-1.0","4","4","3","3","3","4","3","4","4","3","4","2","1","5","4","4","4","3","4","4","2","1","2","2","2","2","1","2","1","1","0","1","1","0","0","0","1","0","1","1","0","1","0","1","5","2","2","1","4","5","4","4","5","4","1","803273008734150658","陈","417","","","","","","","","","","","","","","","","","","","","","","","","","","","","","","","","","","","","","","","","","",""
"null","","null","html-keyboard-response","9","136156","0.0-6.0-1.0-2.0-0.0","4","4","3","3","3","4","3","4","4","3","4","2","1","5","4","4","4","3","4","4","2","1","2","2","2","2","1","2","1","1","0","1","1","0","0","0","1","0","1","1","0","1","0","1","5","2","2","1","4","5","4","4","5","4","1","803273008734150658","陈","417","","","","","","","","","","","","","","","","","","","","","","","","","","","","","","","","","","","","","","","","","",""
"834","<p style=""color:rgb(150, 250, 100); font-size: 35px;"">自己</p>","i","categorize-html","10","137001","0.0-6.0-1.0-2.0-1.0","4","4","3","3","3","4","3","4","4","3","4","2","1","5","4","4","4","3","4","4","2","1","2","2","2","2","1","2","1","1","0","1","1","0","0","0","1","0","1","1","0","1","0","1","5","2","2","1","4","5","4","4","5","4","1","803273008734150658","陈","417","","","","","","","","","","","","","","","","","","","true","11","1","moral","834","self","自己","","","","","","","","","","","","","","","","",""
"null","","null","html-keyboard-response","11","137261","0.0-6.0-1.0-2.0-0.1","4","4","3","3","3","4","3","4","4","3","4","2","1","5","4","4","4","3","4","4","2","1","2","2","2","2","1","2","1","1","0","1","1","0","0","0","1","0","1","1","0","1","0","1","5","2","2","1","4","5","4","4","5","4","1","803273008734150658","陈","417","","","","","","","","","","","","","","","","","","","","","","","","","","","","","","","","","","","","","","","","","",""
"702","<p style=""color:rgb(150, 250, 100); font-size: 35px;"">自己的</p>","i","categorize-html","12","137968","0.0-6.0-1.0-2.0-1.1","4","4","3","3","3","4","3","4","4","3","4","2","1","5","4","4","4","3","4","4","2","1","2","2","2","2","1","2","1","1","0","1","1","0","0","0","1","0","1","1","0","1","0","1","5","2","2","1","4","5","4","4","5","4","1","803273008734150658","陈","417","","","","","","","","","","","","","","","","","","","true","11","1","moral","702","self","自己的","","","","","","","","","","","","","","","","",""
"null","","null","html-keyboard-response","13","138221","0.0-6.0-1.0-2.0-0.2","4","4","3","3","3","4","3","4","4","3","4","2","1","5","4","4","4","3","4","4","2","1","2","2","2","2","1","2","1","1","0","1","1","0","0","0","1","0","1","1","0","1","0","1","5","2","2","1","4","5","4","4","5","4","1","803273008734150658","陈","417","","","","","","","","","","","","","","","","","","","","","","","","","","","","","","","","","","","","","","","","","",""
"2278","<p style=""color:rgb(150, 250, 100); font-size: 35px;"">他人的</p>","e","categorize-html","14","140504","0.0-6.0-1.0-2.0-1.2","4","4","3","3","3","4","3","4","4","3","4","2","1","5","4","4","4","3","4","4","2","1","2","2","2","2","1","2","1","1","0","1","1","0","0","0","1","0","1","1","0","1","0","1","5","2","2","1","4","5","4","4","5","4","1","803273008734150658","陈","417","","","","","","","","","","","","","","","","","","","true","11","1","moral","2278","other","他人的","","","","","","","","","","","","","","","","",""
"null","","null","html-keyboard-response","15","140756","0.0-6.0-1.0-2.0-0.3","4","4","3","3","3","4","3","4","4","3","4","2","1","5","4","4","4","3","4","4","2","1","2","2","2","2","1","2","1","1","0","1","1","0","0","0","1","0","1","1","0","1","0","1","5","2","2","1","4","5","4","4","5","4","1","803273008734150658","陈","417","","","","","","","","","","","","","","","","","","","","","","","","","","","","","","","","","","","","","","","","","",""
"2015","<p style=""color:rgb(150, 250, 100); font-size: 35px;"">我</p>","i","categorize-html","16","142776","0.0-6.0-1.0-2.0-1.3","4","4","3","3","3","4","3","4","4","3","4","2","1","5","4","4","4","3","4","4","2","1","2","2","2","2","1","2","1","1","0","1","1","0","0","0","1","0","1","1","0","1","0","1","5","2","2","1","4","5","4","4","5","4","1","803273008734150658","陈","417","","","","","","","","","","","","","","","","","","","true","11","1","moral","2015","self","我","","","","","","","","","","","","","","","","",""
"null","","null","html-keyboard-response","17","143028","0.0-6.0-1.0-2.0-0.4","4","4","3","3","3","4","3","4","4","3","4","2","1","5","4","4","4","3","4","4","2","1","2","2","2","2","1","2","1","1","0","1","1","0","0","0","1","0","1","1","0","1","0","1","5","2","2","1","4","5","4","4","5","4","1","803273008734150658","陈","417","","","","","","","","","","","","","","","","","","","","","","","","","","","","","","","","","","","","","","","","","",""
"2159","<p style=""color:rgb(150, 250, 100); font-size: 35px;"">别人</p>","e","categorize-html","18","145192","0.0-6.0-1.0-2.0-1.4","4","4","3","3","3","4","3","4","4","3","4","2","1","5","4","4","4","3","4","4","2","1","2","2","2","2","1","2","1","1","0","1","1","0","0","0","1","0","1","1","0","1","0","1","5","2","2","1","4","5","4","4","5","4","1","803273008734150658","陈","417","","","","","","","","","","","","","","","","","","","true","11","1","moral","2159","other","别人","","","","","","","","","","","","","","","","",""
"null","","null","html-keyboard-response","19","145444","0.0-6.0-1.0-2.0-0.5","4","4","3","3","3","4","3","4","4","3","4","2","1","5","4","4","4","3","4","4","2","1","2","2","2","2","1","2","1","1","0","1","1","0","0","0","1","0","1","1","0","1","0","1","5","2","2","1","4","5","4","4","5","4","1","803273008734150658","陈","417","","","","","","","","","","","","","","","","","","","","","","","","","","","","","","","","","","","","","","","","","",""
"1967","<p style=""color:rgb(150, 250, 100); font-size: 35px;"">他</p>","e","categorize-html","20","147416","0.0-6.0-1.0-2.0-1.5","4","4","3","3","3","4","3","4","4","3","4","2","1","5","4","4","4","3","4","4","2","1","2","2","2","2","1","2","1","1","0","1","1","0","0","0","1","0","1","1","0","1","0","1","5","2","2","1","4","5","4","4","5","4","1","803273008734150658","陈","417","","","","","","","","","","","","","","","","","","","true","11","1","moral","1967","other","他","","","","","","","","","","","","","","","","",""
"null","","null","html-keyboard-response","21","147668","0.0-6.0-1.0-2.0-0.6","4","4","3","3","3","4","3","4","4","3","4","2","1","5","4","4","4","3","4","4","2","1","2","2","2","2","1","2","1","1","0","1","1","0","0","0","1","0","1","1","0","1","0","1","5","2","2","1","4","5","4","4","5","4","1","803273008734150658","陈","417","","","","","","","","","","","","","","","","","","","","","","","","","","","","","","","","","","","","","","","","","",""
"2823","<p style=""color:rgb(150, 250, 100); font-size: 35px;"">本人的</p>","i","categorize-html","22","150496","0.0-6.0-1.0-2.0-1.6","4","4","3","3","3","4","3","4","4","3","4","2","1","5","4","4","4","3","4","4","2","1","2","2","2","2","1","2","1","1","0","1","1","0","0","0","1","0","1","1","0","1","0","1","5","2","2","1","4","5","4","4","5","4","1","803273008734150658","陈","417","","","","","","","","","","","","","","","","","","","true","11","1","moral","2823","self","本人的","","","","","","","","","","","","","","","","",""
"null","","null","html-keyboard-response","23","150748","0.0-6.0-1.0-2.0-0.7","4","4","3","3","3","4","3","4","4","3","4","2","1","5","4","4","4","3","4","4","2","1","2","2","2","2","1","2","1","1","0","1","1","0","0","0","1","0","1","1","0","1","0","1","5","2","2","1","4","5","4","4","5","4","1","803273008734150658","陈","417","","","","","","","","","","","","","","","","","","","","","","","","","","","","","","","","","","","","","","","","","",""
"2183","<p style=""color:rgb(150, 250, 100); font-size: 35px;"">他人</p>","e","categorize-html","24","152936","0.0-6.0-1.0-2.0-1.7","4","4","3","3","3","4","3","4","4","3","4","2","1","5","4","4","4","3","4","4","2","1","2","2","2","2","1","2","1","1","0","1","1","0","0","0","1","0","1","1","0","1","0","1","5","2","2","1","4","5","4","4","5","4","1","803273008734150658","陈","417","","","","","","","","","","","","","","","","","","","true","11","1","moral","2183","other","他人","","","","","","","","","","","","","","","","",""
"null","","null","html-keyboard-response","25","153188","0.0-6.0-1.0-2.0-0.8","4","4","3","3","3","4","3","4","4","3","4","2","1","5","4","4","4","3","4","4","2","1","2","2","2","2","1","2","1","1","0","1","1","0","0","0","1","0","1","1","0","1","0","1","5","2","2","1","4","5","4","4","5","4","1","803273008734150658","陈","417","","","","","","","","","","","","","","","","","","","","","","","","","","","","","","","","","","","","","","","","","",""
"2950","<p style=""color:rgb(150, 250, 100); font-size: 35px;"">他的</p>","e","categorize-html","26","156142","0.0-6.0-1.0-2.0-1.8","4","4","3","3","3","4","3","4","4","3","4","2","1","5","4","4","4","3","4","4","2","1","2","2","2","2","1","2","1","1","0","1","1","0","0","0","1","0","1","1","0","1","0","1","5","2","2","1","4","5","4","4","5","4","1","803273008734150658","陈","417","","","","","","","","","","","","","","","","","","","true","11","1","moral","2950","other","他的","","","","","","","","","","","","","","","","",""
"null","","null","html-keyboard-response","27","156396","0.0-6.0-1.0-2.0-0.9","4","4","3","3","3","4","3","4","4","3","4","2","1","5","4","4","4","3","4","4","2","1","2","2","2","2","1","2","1","1","0","1","1","0","0","0","1","0","1","1","0","1","0","1","5","2","2","1","4","5","4","4","5","4","1","803273008734150658","陈","417","","","","","","","","","","","","","","","","","","","","","","","","","","","","","","","","","","","","","","","","","",""
"2926","<p style=""color:rgb(150, 250, 100); font-size: 35px;"">别人的</p>","e","categorize-html","28","159328","0.0-6.0-1.0-2.0-1.9","4","4","3","3","3","4","3","4","4","3","4","2","1","5","4","4","4","3","4","4","2","1","2","2","2","2","1","2","1","1","0","1","1","0","0","0","1","0","1","1","0","1","0","1","5","2","2","1","4","5","4","4","5","4","1","803273008734150658","陈","417","","","","","","","","","","","","","","","","","","","true","11","1","moral","2926","other","别人的","","","","","","","","","","","","","","","","",""
"null","","null","html-keyboard-response","29","159581","0.0-6.0-1.0-2.0-0.10","4","4","3","3","3","4","3","4","4","3","4","2","1","5","4","4","4","3","4","4","2","1","2","2","2","2","1","2","1","1","0","1","1","0","0","0","1","0","1","1","0","1","0","1","5","2","2","1","4","5","4","4","5","4","1","803273008734150658","陈","417","","","","","","","","","","","","","","","","","","","","","","","","","","","","","","","","","","","","","","","","","",""
"2910","<p style=""color:rgb(150, 250, 100); font-size: 35px;"">我的</p>","i","categorize-html","30","162496","0.0-6.0-1.0-2.0-1.10","4","4","3","3","3","4","3","4","4","3","4","2","1","5","4","4","4","3","4","4","2","1","2","2","2","2","1","2","1","1","0","1","1","0","0","0","1","0","1","1","0","1","0","1","5","2","2","1","4","5","4","4","5","4","1","803273008734150658","陈","417","","","","","","","","","","","","","","","","","","","true","11","1","moral","2910","self","我的","","","","","","","","","","","","","","","","",""
"null","","null","html-keyboard-response","31","162749","0.0-6.0-1.0-2.0-0.11","4","4","3","3","3","4","3","4","4","3","4","2","1","5","4","4","4","3","4","4","2","1","2","2","2","2","1","2","1","1","0","1","1","0","0","0","1","0","1","1","0","1","0","1","5","2","2","1","4","5","4","4","5","4","1","803273008734150658","陈","417","","","","","","","","","","","","","","","","","","","","","","","","","","","","","","","","","","","","","","","","","",""
"3766","<p style=""color:rgb(150, 250, 100); font-size: 35px;"">本人</p>","i","categorize-html","32","166520","0.0-6.0-1.0-2.0-1.11","4","4","3","3","3","4","3","4","4","3","4","2","1","5","4","4","4","3","4","4","2","1","2","2","2","2","1","2","1","1","0","1","1","0","0","0","1","0","1","1","0","1","0","1","5","2","2","1","4","5","4","4","5","4","1","803273008734150658","陈","417","","","","","","","","","","","","","","","","","","","true","11","1","moral","3766","self","本人","","","","","","","","","","","","","","","","",""
"1394","
    <div class=""tag-bottom""><p>
    —— 任务2：对“消极”词和“积极”词分类 ——<p/>   
    <span style=""color:#78DCE8""><b>注意上方，类别标签和需要分类的词语都已经改变</b></span><p/>
    <span style=""color:#FFD866""><b>请根据上方标签的提示，尽可能正确并且快速地做出按键反应</b></span><p/>
    当按键错误时屏幕中会出现<span style=""color:red""> X </span>，需要按另一个键纠正才能继续<br/><p/>
    请把双手食指分别放在键盘的“E”键和“I”键上<p/>
    按<空格键>开始
    </p></div>"," ","html-keyboard-response","33","167916","0.0-6.0-1.0-3.0","4","4","3","3","3","4","3","4","4","3","4","2","1","5","4","4","4","3","4","4","2","1","2","2","2","2","1","2","1","1","0","1","1","0","0","0","1","0","1","1","0","1","0","1","5","2","2","1","4","5","4","4","5","4","1","803273008734150658","陈","417","","","","","","","","","","","","","","","","","","","","","","","","","","","","","","","","","","","","","","","","","",""
"null","","null","html-keyboard-response","34","168172","0.0-6.0-1.0-4.0-0.0","4","4","3","3","3","4","3","4","4","3","4","2","1","5","4","4","4","3","4","4","2","1","2","2","2","2","1","2","1","1","0","1","1","0","0","0","1","0","1","1","0","1","0","1","5","2","2","1","4","5","4","4","5","4","1","803273008734150658","陈","417","","","","","","","","","","","","","","","","","","","","","","","","","","","","","","","","","","","","","","","","","",""
"3718","<p style=""color:white; font-size: 35px;"">高尚</p>","i","categorize-html","35","171896","0.0-6.0-1.0-4.0-1.0","4","4","3","3","3","4","3","4","4","3","4","2","1","5","4","4","4","3","4","4","2","1","2","2","2","2","1","2","1","1","0","1","1","0","0","0","1","0","1","1","0","1","0","1","5","2","2","1","4","5","4","4","5","4","1","803273008734150658","陈","417","","","","","","","","","","","","","","","","","","","true","12","2","moral","3718","positive","高尚","","","","","","","","","","","","","","","","",""
"null","","null","html-keyboard-response","36","172148","0.0-6.0-1.0-4.0-0.1","4","4","3","3","3","4","3","4","4","3","4","2","1","5","4","4","4","3","4","4","2","1","2","2","2","2","1","2","1","1","0","1","1","0","0","0","1","0","1","1","0","1","0","1","5","2","2","1","4","5","4","4","5","4","1","803273008734150658","陈","417","","","","","","","","","","","","","","","","","","","","","","","","","","","","","","","","","","","","","","","","","",""
"4134","<p style=""color:white; font-size: 35px;"">缺德</p>","e","categorize-html","37","176288","0.0-6.0-1.0-4.0-1.1","4","4","3","3","3","4","3","4","4","3","4","2","1","5","4","4","4","3","4","4","2","1","2","2","2","2","1","2","1","1","0","1","1","0","0","0","1","0","1","1","0","1","0","1","5","2","2","1","4","5","4","4","5","4","1","803273008734150658","陈","417","","","","","","","","","","","","","","","","","","","true","12","2","moral","4134","negative","缺德","","","","","","","","","","","","","","","","",""
"null","","null","html-keyboard-response","38","176540","0.0-6.0-1.0-4.0-0.2","4","4","3","3","3","4","3","4","4","3","4","2","1","5","4","4","4","3","4","4","2","1","2","2","2","2","1","2","1","1","0","1","1","0","0","0","1","0","1","1","0","1","0","1","5","2","2","1","4","5","4","4","5","4","1","803273008734150658","陈","417","","","","","","","","","","","","","","","","","","","","","","","","","","","","","","","","","","","","","","","","","",""
"1198","<p style=""color:white; font-size: 35px;"">善良</p>","i","categorize-html","39","177744","0.0-6.0-1.0-4.0-1.2","4","4","3","3","3","4","3","4","4","3","4","2","1","5","4","4","4","3","4","4","2","1","2","2","2","2","1","2","1","1","0","1","1","0","0","0","1","0","1","1","0","1","0","1","5","2","2","1","4","5","4","4","5","4","1","803273008734150658","陈","417","","","","","","","","","","","","","","","","","","","true","12","2","moral","1198","positive","善良","","","","","","","","","","","","","","","","",""
"null","","null","html-keyboard-response","40","177996","0.0-6.0-1.0-4.0-0.3","4","4","3","3","3","4","3","4","4","3","4","2","1","5","4","4","4","3","4","4","2","1","2","2","2","2","1","2","1","1","0","1","1","0","0","0","1","0","1","1","0","1","0","1","5","2","2","1","4","5","4","4","5","4","1","803273008734150658","陈","417","","","","","","","","","","","","","","","","","","","","","","","","","","","","","","","","","","","","","","","","","",""
"2430","<p style=""color:white; font-size: 35px;"">正直</p>","i","categorize-html","41","180431","0.0-6.0-1.0-4.0-1.3","4","4","3","3","3","4","3","4","4","3","4","2","1","5","4","4","4","3","4","4","2","1","2","2","2","2","1","2","1","1","0","1","1","0","0","0","1","0","1","1","0","1","0","1","5","2","2","1","4","5","4","4","5","4","1","803273008734150658","陈","417","","","","","","","","","","","","","","","","","","","true","12","2","moral","2430","positive","正直","","","","","","","","","","","","","","","","",""
"null","","null","html-keyboard-response","42","180685","0.0-6.0-1.0-4.0-0.4","4","4","3","3","3","4","3","4","4","3","4","2","1","5","4","4","4","3","4","4","2","1","2","2","2","2","1","2","1","1","0","1","1","0","0","0","1","0","1","1","0","1","0","1","5","2","2","1","4","5","4","4","5","4","1","803273008734150658","陈","417","","","","","","","","","","","","","","","","","","","","","","","","","","","","","","","","","","","","","","","","","",""
"3094","<p style=""color:white; font-size: 35px;"">卑鄙</p>","e","categorize-html","43","183783","0.0-6.0-1.0-4.0-1.4","4","4","3","3","3","4","3","4","4","3","4","2","1","5","4","4","4","3","4","4","2","1","2","2","2","2","1","2","1","1","0","1","1","0","0","0","1","0","1","1","0","1","0","1","5","2","2","1","4","5","4","4","5","4","1","803273008734150658","陈","417","","","","","","","","","","","","","","","","","","","true","12","2","moral","3094","negative","卑鄙","","","","","","","","","","","","","","","","",""
"null","","null","html-keyboard-response","44","184036","0.0-6.0-1.0-4.0-0.5","4","4","3","3","3","4","3","4","4","3","4","2","1","5","4","4","4","3","4","4","2","1","2","2","2","2","1","2","1","1","0","1","1","0","0","0","1","0","1","1","0","1","0","1","5","2","2","1","4","5","4","4","5","4","1","803273008734150658","陈","417","","","","","","","","","","","","","","","","","","","","","","","","","","","","","","","","","","","","","","","","","",""
"3663","<p style=""color:white; font-size: 35px;"">黑心</p>","e","categorize-html","45","187703","0.0-6.0-1.0-4.0-1.5","4","4","3","3","3","4","3","4","4","3","4","2","1","5","4","4","4","3","4","4","2","1","2","2","2","2","1","2","1","1","0","1","1","0","0","0","1","0","1","1","0","1","0","1","5","2","2","1","4","5","4","4","5","4","1","803273008734150658","陈","417","","","","","","","","","","","","","","","","","","","true","12","2","moral","3663","negative","黑心","","","","","","","","","","","","","","","","",""
"null","","null","html-keyboard-response","46","187956","0.0-6.0-1.0-4.0-0.6","4","4","3","3","3","4","3","4","4","3","4","2","1","5","4","4","4","3","4","4","2","1","2","2","2","2","1","2","1","1","0","1","1","0","0","0","1","0","1","1","0","1","0","1","5","2","2","1","4","5","4","4","5","4","1","803273008734150658","陈","417","","","","","","","","","","","","","","","","","","","","","","","","","","","","","","","","","","","","","","","","","",""
"2567","<p style=""color:white; font-size: 35px;"">小人</p>","e","categorize-html","47","190528","0.0-6.0-1.0-4.0-1.6","4","4","3","3","3","4","3","4","4","3","4","2","1","5","4","4","4","3","4","4","2","1","2","2","2","2","1","2","1","1","0","1","1","0","0","0","1","0","1","1","0","1","0","1","5","2","2","1","4","5","4","4","5","4","1","803273008734150658","陈","417","","","","","","","","","","","","","","","","","","","true","12","2","moral","2567","negative","小人","","","","","","","","","","","","","","","","",""
"null","","null","html-keyboard-response","48","190780","0.0-6.0-1.0-4.0-0.7","4","4","3","3","3","4","3","4","4","3","4","2","1","5","4","4","4","3","4","4","2","1","2","2","2","2","1","2","1","1","0","1","1","0","0","0","1","0","1","1","0","1","0","1","5","2","2","1","4","5","4","4","5","4","1","803273008734150658","陈","417","","","","","","","","","","","","","","","","","","","","","","","","","","","","","","","","","","","","","","","","","",""
"1046","<p style=""color:white; font-size: 35px;"">廉正</p>","i","categorize-html","49","191831","0.0-6.0-1.0-4.0-1.7","4","4","3","3","3","4","3","4","4","3","4","2","1","5","4","4","4","3","4","4","2","1","2","2","2","2","1","2","1","1","0","1","1","0","0","0","1","0","1","1","0","1","0","1","5","2","2","1","4","5","4","4","5","4","1","803273008734150658","陈","417","","","","","","","","","","","","","","","","","","","true","12","2","moral","1046","positive","廉正","","","","","","","","","","","","","","","","",""
"null","","null","html-keyboard-response","50","192084","0.0-6.0-1.0-4.0-0.8","4","4","3","3","3","4","3","4","4","3","4","2","1","5","4","4","4","3","4","4","2","1","2","2","2","2","1","2","1","1","0","1","1","0","0","0","1","0","1","1","0","1","0","1","5","2","2","1","4","5","4","4","5","4","1","803273008734150658","陈","417","","","","","","","","","","","","","","","","","","","","","","","","","","","","","","","","","","","","","","","","","",""
"646","<p style=""color:white; font-size: 35px;"">不孝</p>","e","categorize-html","51","192735","0.0-6.0-1.0-4.0-1.8","4","4","3","3","3","4","3","4","4","3","4","2","1","5","4","4","4","3","4","4","2","1","2","2","2","2","1","2","1","1","0","1","1","0","0","0","1","0","1","1","0","1","0","1","5","2","2","1","4","5","4","4","5","4","1","803273008734150658","陈","417","","","","","","","","","","","","","","","","","","","true","12","2","moral","646","negative","不孝","","","","","","","","","","","","","","","","",""
"null","","null","html-keyboard-response","52","192988","0.0-6.0-1.0-4.0-0.9","4","4","3","3","3","4","3","4","4","3","4","2","1","5","4","4","4","3","4","4","2","1","2","2","2","2","1","2","1","1","0","1","1","0","0","0","1","0","1","1","0","1","0","1","5","2","2","1","4","5","4","4","5","4","1","803273008734150658","陈","417","","","","","","","","","","","","","","","","","","","","","","","","","","","","","","","","","","","","","","","","","",""
"694","<p style=""color:white; font-size: 35px;"">不仁</p>","e","categorize-html","53","193687","0.0-6.0-1.0-4.0-1.9","4","4","3","3","3","4","3","4","4","3","4","2","1","5","4","4","4","3","4","4","2","1","2","2","2","2","1","2","1","1","0","1","1","0","0","0","1","0","1","1","0","1","0","1","5","2","2","1","4","5","4","4","5","4","1","803273008734150658","陈","417","","","","","","","","","","","","","","","","","","","true","12","2","moral","694","negative","不仁","","","","","","","","","","","","","","","","",""
"null","","null","html-keyboard-response","54","193940","0.0-6.0-1.0-4.0-0.10","4","4","3","3","3","4","3","4","4","3","4","2","1","5","4","4","4","3","4","4","2","1","2","2","2","2","1","2","1","1","0","1","1","0","0","0","1","0","1","1","0","1","0","1","5","2","2","1","4","5","4","4","5","4","1","803273008734150658","陈","417","","","","","","","","","","","","","","","","","","","","","","","","","","","","","","","","","","","","","","","","","",""
"630","<p style=""color:white; font-size: 35px;"">君子</p>","i","categorize-html","55","194575","0.0-6.0-1.0-4.0-1.10","4","4","3","3","3","4","3","4","4","3","4","2","1","5","4","4","4","3","4","4","2","1","2","2","2","2","1","2","1","1","0","1","1","0","0","0","1","0","1","1","0","1","0","1","5","2","2","1","4","5","4","4","5","4","1","803273008734150658","陈","417","","","","","","","","","","","","","","","","","","","true","12","2","moral","630","positive","君子","","","","","","","","","","","","","","","","",""
"null","","null","html-keyboard-response","56","194828","0.0-6.0-1.0-4.0-0.11","4","4","3","3","3","4","3","4","4","3","4","2","1","5","4","4","4","3","4","4","2","1","2","2","2","2","1","2","1","1","0","1","1","0","0","0","1","0","1","1","0","1","0","1","5","2","2","1","4","5","4","4","5","4","1","803273008734150658","陈","417","","","","","","","","","","","","","","","","","","","","","","","","","","","","","","","","","","","","","","","","","",""
"1438","<p style=""color:white; font-size: 35px;"">诚信</p>","i","categorize-html","57","196271","0.0-6.0-1.0-4.0-1.11","4","4","3","3","3","4","3","4","4","3","4","2","1","5","4","4","4","3","4","4","2","1","2","2","2","2","1","2","1","1","0","1","1","0","0","0","1","0","1","1","0","1","0","1","5","2","2","1","4","5","4","4","5","4","1","803273008734150658","陈","417","","","","","","","","","","","","","","","","","","","true","12","2","moral","1438","positive","诚信","","","","","","","","","","","","","","","","",""
"867","
    <div class=""tag-bottom""><p>
    —— 任务3：对“他人/消极”词和“自我/积极”词分类 ——<p/>
    <span style=""color:#78DCE8""><b>注意上方，之前的四类词语将混合在一起交替呈现</b></span><p/>
    <span style=""color:#FFD866""><b>请根据上方标签的提示，尽可能正确并且快速地做出按键反应</b></span><p/>
    当按键错误时屏幕中会出现<span style=""color:red""> X </span>，需要按另一个键纠正才能继续<br/><p/>
    请把双手食指分别放在键盘的“E”键和“I”键上<p/>
    按<空格键>开始
    </p></div>"," ","html-keyboard-response","58","197140","0.0-6.0-1.0-5.0","4","4","3","3","3","4","3","4","4","3","4","2","1","5","4","4","4","3","4","4","2","1","2","2","2","2","1","2","1","1","0","1","1","0","0","0","1","0","1","1","0","1","0","1","5","2","2","1","4","5","4","4","5","4","1","803273008734150658","陈","417","","","","","","","","","","","","","","","","","","","","","","","","","","","","","","","","","","","","","","","","","",""
"null","","null","html-keyboard-response","59","197396","0.0-6.0-1.0-6.0-0.0","4","4","3","3","3","4","3","4","4","3","4","2","1","5","4","4","4","3","4","4","2","1","2","2","2","2","1","2","1","1","0","1","1","0","0","0","1","0","1","1","0","1","0","1","5","2","2","1","4","5","4","4","5","4","1","803273008734150658","陈","417","","","","","","","","","","","","","","","","","","","","","","","","","","","","","","","","","","","","","","","","","",""
"772","<p style=""color:rgb(150, 250, 100); font-size: 35px;"">他</p>","e","categorize-html","60","198175","0.0-6.0-1.0-6.0-1.0","4","4","3","3","3","4","3","4","4","3","4","2","1","5","4","4","4","3","4","4","2","1","2","2","2","2","1","2","1","1","0","1","1","0","0","0","1","0","1","1","0","1","0","1","5","2","2","1","4","5","4","4","5","4","1","803273008734150658","陈","417","","","","","","","","","","","","","","","","","","","true","13","3","moral","772","other","他","","","","","","","","","","","","","","","","",""
"null","","null","html-keyboard-response","61","198428","0.0-6.0-1.0-6.0-0.1","4","4","3","3","3","4","3","4","4","3","4","2","1","5","4","4","4","3","4","4","2","1","2","2","2","2","1","2","1","1","0","1","1","0","0","0","1","0","1","1","0","1","0","1","5","2","2","1","4","5","4","4","5","4","1","803273008734150658","陈","417","","","","","","","","","","","","","","","","","","","","","","","","","","","","","","","","","","","","","","","","","",""
"1070","<p style=""color:white; font-size: 35px;"">诚信</p>","i","categorize-html","62","199503","0.0-6.0-1.0-6.0-1.1","4","4","3","3","3","4","3","4","4","3","4","2","1","5","4","4","4","3","4","4","2","1","2","2","2","2","1","2","1","1","0","1","1","0","0","0","1","0","1","1","0","1","0","1","5","2","2","1","4","5","4","4","5","4","1","803273008734150658","陈","417","","","","","","","","","","","","","","","","","","","true","13","3","moral","1070","positive","诚信","","","","","","","","","","","","","","","","",""
"null","","null","html-keyboard-response","63","199756","0.0-6.0-1.0-6.0-0.2","4","4","3","3","3","4","3","4","4","3","4","2","1","5","4","4","4","3","4","4","2","1","2","2","2","2","1","2","1","1","0","1","1","0","0","0","1","0","1","1","0","1","0","1","5","2","2","1","4","5","4","4","5","4","1","803273008734150658","陈","417","","","","","","","","","","","","","","","","","","","","","","","","","","","","","","","","","","","","","","","","","",""
"998","<p style=""color:rgb(150, 250, 100); font-size: 35px;"">我的</p>","i","categorize-html","64","200759","0.0-6.0-1.0-6.0-1.2","4","4","3","3","3","4","3","4","4","3","4","2","1","5","4","4","4","3","4","4","2","1","2","2","2","2","1","2","1","1","0","1","1","0","0","0","1","0","1","1","0","1","0","1","5","2","2","1","4","5","4","4","5","4","1","803273008734150658","陈","417","","","","","","","","","","","","","","","","","","","true","13","3","moral","998","self","我的","","","","","","","","","","","","","","","","",""
"null","","null","html-keyboard-response","65","201012","0.0-6.0-1.0-6.0-0.3","4","4","3","3","3","4","3","4","4","3","4","2","1","5","4","4","4","3","4","4","2","1","2","2","2","2","1","2","1","1","0","1","1","0","0","0","1","0","1","1","0","1","0","1","5","2","2","1","4","5","4","4","5","4","1","803273008734150658","陈","417","","","","","","","","","","","","","","","","","","","","","","","","","","","","","","","","","","","","","","","","","",""
"870","<p style=""color:white; font-size: 35px;"">小人</p>","e","categorize-html","66","201887","0.0-6.0-1.0-6.0-1.3","4","4","3","3","3","4","3","4","4","3","4","2","1","5","4","4","4","3","4","4","2","1","2","2","2","2","1","2","1","1","0","1","1","0","0","0","1","0","1","1","0","1","0","1","5","2","2","1","4","5","4","4","5","4","1","803273008734150658","陈","417","","","","","","","","","","","","","","","","","","","true","13","3","moral","870","negative","小人","","","","","","","","","","","","","","","","",""
"null","","null","html-keyboard-response","67","202140","0.0-6.0-1.0-6.0-0.4","4","4","3","3","3","4","3","4","4","3","4","2","1","5","4","4","4","3","4","4","2","1","2","2","2","2","1","2","1","1","0","1","1","0","0","0","1","0","1","1","0","1","0","1","5","2","2","1","4","5","4","4","5","4","1","803273008734150658","陈","417","","","","","","","","","","","","","","","","","","","","","","","","","","","","","","","","","","","","","","","","","",""
"838","<p style=""color:rgb(150, 250, 100); font-size: 35px;"">自己的</p>","i","categorize-html","68","202983","0.0-6.0-1.0-6.0-1.4","4","4","3","3","3","4","3","4","4","3","4","2","1","5","4","4","4","3","4","4","2","1","2","2","2","2","1","2","1","1","0","1","1","0","0","0","1","0","1","1","0","1","0","1","5","2","2","1","4","5","4","4","5","4","1","803273008734150658","陈","417","","","","","","","","","","","","","","","","","","","true","13","3","moral","838","self","自己的","","","","","","","","","","","","","","","","",""
"null","","null","html-keyboard-response","69","203236","0.0-6.0-1.0-6.0-0.5","4","4","3","3","3","4","3","4","4","3","4","2","1","5","4","4","4","3","4","4","2","1","2","2","2","2","1","2","1","1","0","1","1","0","0","0","1","0","1","1","0","1","0","1","5","2","2","1","4","5","4","4","5","4","1","803273008734150658","陈","417","","","","","","","","","","","","","","","","","","","","","","","","","","","","","","","","","","","","","","","","","",""
"646","<p style=""color:white; font-size: 35px;"">不孝</p>","e","categorize-html","70","203887","0.0-6.0-1.0-6.0-1.5","4","4","3","3","3","4","3","4","4","3","4","2","1","5","4","4","4","3","4","4","2","1","2","2","2","2","1","2","1","1","0","1","1","0","0","0","1","0","1","1","0","1","0","1","5","2","2","1","4","5","4","4","5","4","1","803273008734150658","陈","417","","","","","","","","","","","","","","","","","","","true","13","3","moral","646","negative","不孝","","","","","","","","","","","","","","","","",""
"null","","null","html-keyboard-response","71","204140","0.0-6.0-1.0-6.0-0.6","4","4","3","3","3","4","3","4","4","3","4","2","1","5","4","4","4","3","4","4","2","1","2","2","2","2","1","2","1","1","0","1","1","0","0","0","1","0","1","1","0","1","0","1","5","2","2","1","4","5","4","4","5","4","1","803273008734150658","陈","417","","","","","","","","","","","","","","","","","","","","","","","","","","","","","","","","","","","","","","","","","",""
"518","<p style=""color:rgb(150, 250, 100); font-size: 35px;"">他人的</p>","e","categorize-html","72","204663","0.0-6.0-1.0-6.0-1.6","4","4","3","3","3","4","3","4","4","3","4","2","1","5","4","4","4","3","4","4","2","1","2","2","2","2","1","2","1","1","0","1","1","0","0","0","1","0","1","1","0","1","0","1","5","2","2","1","4","5","4","4","5","4","1","803273008734150658","陈","417","","","","","","","","","","","","","","","","","","","true","13","3","moral","518","other","他人的","","","","","","","","","","","","","","","","",""
"null","","null","html-keyboard-response","73","204925","0.0-6.0-1.0-6.0-0.7","4","4","3","3","3","4","3","4","4","3","4","2","1","5","4","4","4","3","4","4","2","1","2","2","2","2","1","2","1","1","0","1","1","0","0","0","1","0","1","1","0","1","0","1","5","2","2","1","4","5","4","4","5","4","1","803273008734150658","陈","417","","","","","","","","","","","","","","","","","","","","","","","","","","","","","","","","","","","","","","","","","",""
"645","<p style=""color:white; font-size: 35px;"">正直</p>","i","categorize-html","74","205575","0.0-6.0-1.0-6.0-1.7","4","4","3","3","3","4","3","4","4","3","4","2","1","5","4","4","4","3","4","4","2","1","2","2","2","2","1","2","1","1","0","1","1","0","0","0","1","0","1","1","0","1","0","1","5","2","2","1","4","5","4","4","5","4","1","803273008734150658","陈","417","","","","","","","","","","","","","","","","","","","true","13","3","moral","645","positive","正直","","","","","","","","","","","","","","","","",""
"null","","null","html-keyboard-response","75","205827","0.0-6.0-1.0-6.0-0.8","4","4","3","3","3","4","3","4","4","3","4","2","1","5","4","4","4","3","4","4","2","1","2","2","2","2","1","2","1","1","0","1","1","0","0","0","1","0","1","1","0","1","0","1","5","2","2","1","4","5","4","4","5","4","1","803273008734150658","陈","417","","","","","","","","","","","","","","","","","","","","","","","","","","","","","","","","","","","","","","","","","",""
"782","<p style=""color:rgb(150, 250, 100); font-size: 35px;"">本人</p>","i","categorize-html","76","206616","0.0-6.0-1.0-6.0-1.8","4","4","3","3","3","4","3","4","4","3","4","2","1","5","4","4","4","3","4","4","2","1","2","2","2","2","1","2","1","1","0","1","1","0","0","0","1","0","1","1","0","1","0","1","5","2","2","1","4","5","4","4","5","4","1","803273008734150658","陈","417","","","","","","","","","","","","","","","","","","","true","13","3","moral","782","self","本人","","","","","","","","","","","","","","","","",""
"null","","null","html-keyboard-response","77","206868","0.0-6.0-1.0-6.0-0.9","4","4","3","3","3","4","3","4","4","3","4","2","1","5","4","4","4","3","4","4","2","1","2","2","2","2","1","2","1","1","0","1","1","0","0","0","1","0","1","1","0","1","0","1","5","2","2","1","4","5","4","4","5","4","1","803273008734150658","陈","417","","","","","","","","","","","","","","","","","","","","","","","","","","","","","","","","","","","","","","","","","",""
"550","<p style=""color:white; font-size: 35px;"">黑心</p>","e","categorize-html","78","207423","0.0-6.0-1.0-6.0-1.9","4","4","3","3","3","4","3","4","4","3","4","2","1","5","4","4","4","3","4","4","2","1","2","2","2","2","1","2","1","1","0","1","1","0","0","0","1","0","1","1","0","1","0","1","5","2","2","1","4","5","4","4","5","4","1","803273008734150658","陈","417","","","","","","","","","","","","","","","","","","","true","13","3","moral","550","negative","黑心","","","","","","","","","","","","","","","","",""
"null","","null","html-keyboard-response","79","207676","0.0-6.0-1.0-6.0-0.10","4","4","3","3","3","4","3","4","4","3","4","2","1","5","4","4","4","3","4","4","2","1","2","2","2","2","1","2","1","1","0","1","1","0","0","0","1","0","1","1","0","1","0","1","5","2","2","1","4","5","4","4","5","4","1","803273008734150658","陈","417","","","","","","","","","","","","","","","","","","","","","","","","","","","","","","","","","","","","","","","","","",""
"1254","<p style=""color:rgb(150, 250, 100); font-size: 35px;"">他的</p>","e","categorize-html","80","208935","0.0-6.0-1.0-6.0-1.10","4","4","3","3","3","4","3","4","4","3","4","2","1","5","4","4","4","3","4","4","2","1","2","2","2","2","1","2","1","1","0","1","1","0","0","0","1","0","1","1","0","1","0","1","5","2","2","1","4","5","4","4","5","4","1","803273008734150658","陈","417","","","","","","","","","","","","","","","","","","","true","13","3","moral","1254","other","他的","","","","","","","","","","","","","","","","",""
"null","","null","html-keyboard-response","81","209188","0.0-6.0-1.0-6.0-0.11","4","4","3","3","3","4","3","4","4","3","4","2","1","5","4","4","4","3","4","4","2","1","2","2","2","2","1","2","1","1","0","1","1","0","0","0","1","0","1","1","0","1","0","1","5","2","2","1","4","5","4","4","5","4","1","803273008734150658","陈","417","","","","","","","","","","","","","","","","","","","","","","","","","","","","","","","","","","","","","","","","","",""
"1390","<p style=""color:white; font-size: 35px;"">廉正</p>","i","categorize-html","82","210583","0.0-6.0-1.0-6.0-1.11","4","4","3","3","3","4","3","4","4","3","4","2","1","5","4","4","4","3","4","4","2","1","2","2","2","2","1","2","1","1","0","1","1","0","0","0","1","0","1","1","0","1","0","1","5","2","2","1","4","5","4","4","5","4","1","803273008734150658","陈","417","","","","","","","","","","","","","","","","","","","true","13","3","moral","1390","positive","廉正","","","","","","","","","","","","","","","","",""
"null","","null","html-keyboard-response","83","210836","0.0-6.0-1.0-6.0-0.12","4","4","3","3","3","4","3","4","4","3","4","2","1","5","4","4","4","3","4","4","2","1","2","2","2","2","1","2","1","1","0","1","1","0","0","0","1","0","1","1","0","1","0","1","5","2","2","1","4","5","4","4","5","4","1","803273008734150658","陈","417","","","","","","","","","","","","","","","","","","","","","","","","","","","","","","","","","","","","","","","","","",""
"591","<p style=""color:rgb(150, 250, 100); font-size: 35px;"">自己</p>","i","categorize-html","84","211431","0.0-6.0-1.0-6.0-1.12","4","4","3","3","3","4","3","4","4","3","4","2","1","5","4","4","4","3","4","4","2","1","2","2","2","2","1","2","1","1","0","1","1","0","0","0","1","0","1","1","0","1","0","1","5","2","2","1","4","5","4","4","5","4","1","803273008734150658","陈","417","","","","","","","","","","","","","","","","","","","true","13","3","moral","591","self","自己","","","","","","","","","","","","","","","","",""
"null","","null","html-keyboard-response","85","211684","0.0-6.0-1.0-6.0-0.13","4","4","3","3","3","4","3","4","4","3","4","2","1","5","4","4","4","3","4","4","2","1","2","2","2","2","1","2","1","1","0","1","1","0","0","0","1","0","1","1","0","1","0","1","5","2","2","1","4","5","4","4","5","4","1","803273008734150658","陈","417","","","","","","","","","","","","","","","","","","","","","","","","","","","","","","","","","","","","","","","","","",""
"582","<p style=""color:white; font-size: 35px;"">不仁</p>","e","categorize-html","86","212271","0.0-6.0-1.0-6.0-1.13","4","4","3","3","3","4","3","4","4","3","4","2","1","5","4","4","4","3","4","4","2","1","2","2","2","2","1","2","1","1","0","1","1","0","0","0","1","0","1","1","0","1","0","1","5","2","2","1","4","5","4","4","5","4","1","803273008734150658","陈","417","","","","","","","","","","","","","","","","","","","true","13","3","moral","582","negative","不仁","","","","","","","","","","","","","","","","",""
"null","","null","html-keyboard-response","87","212524","0.0-6.0-1.0-6.0-0.14","4","4","3","3","3","4","3","4","4","3","4","2","1","5","4","4","4","3","4","4","2","1","2","2","2","2","1","2","1","1","0","1","1","0","0","0","1","0","1","1","0","1","0","1","5","2","2","1","4","5","4","4","5","4","1","803273008734150658","陈","417","","","","","","","","","","","","","","","","","","","","","","","","","","","","","","","","","","","","","","","","","",""
"910","<p style=""color:rgb(150, 250, 100); font-size: 35px;"">他人</p>","e","categorize-html","88","213439","0.0-6.0-1.0-6.0-1.14","4","4","3","3","3","4","3","4","4","3","4","2","1","5","4","4","4","3","4","4","2","1","2","2","2","2","1","2","1","1","0","1","1","0","0","0","1","0","1","1","0","1","0","1","5","2","2","1","4","5","4","4","5","4","1","803273008734150658","陈","417","","","","","","","","","","","","","","","","","","","true","13","3","moral","910","other","他人","","","","","","","","","","","","","","","","",""
"null","","null","html-keyboard-response","89","213692","0.0-6.0-1.0-6.0-0.15","4","4","3","3","3","4","3","4","4","3","4","2","1","5","4","4","4","3","4","4","2","1","2","2","2","2","1","2","1","1","0","1","1","0","0","0","1","0","1","1","0","1","0","1","5","2","2","1","4","5","4","4","5","4","1","803273008734150658","陈","417","","","","","","","","","","","","","","","","","","","","","","","","","","","","","","","","","","","","","","","","","",""
"630","<p style=""color:white; font-size: 35px;"">善良</p>","i","categorize-html","90","214327","0.0-6.0-1.0-6.0-1.15","4","4","3","3","3","4","3","4","4","3","4","2","1","5","4","4","4","3","4","4","2","1","2","2","2","2","1","2","1","1","0","1","1","0","0","0","1","0","1","1","0","1","0","1","5","2","2","1","4","5","4","4","5","4","1","803273008734150658","陈","417","","","","","","","","","","","","","","","","","","","true","13","3","moral","630","positive","善良","","","","","","","","","","","","","","","","",""
"null","","null","html-keyboard-response","91","214579","0.0-6.0-1.0-6.0-0.16","4","4","3","3","3","4","3","4","4","3","4","2","1","5","4","4","4","3","4","4","2","1","2","2","2","2","1","2","1","1","0","1","1","0","0","0","1","0","1","1","0","1","0","1","5","2","2","1","4","5","4","4","5","4","1","803273008734150658","陈","417","","","","","","","","","","","","","","","","","","","","","","","","","","","","","","","","","","","","","","","","","",""
"655","<p style=""color:rgb(150, 250, 100); font-size: 35px;"">我</p>","i","categorize-html","92","215239","0.0-6.0-1.0-6.0-1.16","4","4","3","3","3","4","3","4","4","3","4","2","1","5","4","4","4","3","4","4","2","1","2","2","2","2","1","2","1","1","0","1","1","0","0","0","1","0","1","1","0","1","0","1","5","2","2","1","4","5","4","4","5","4","1","803273008734150658","陈","417","","","","","","","","","","","","","","","","","","","true","13","3","moral","655","self","我","","","","","","","","","","","","","","","","",""
"null","","null","html-keyboard-response","93","215492","0.0-6.0-1.0-6.0-0.17","4","4","3","3","3","4","3","4","4","3","4","2","1","5","4","4","4","3","4","4","2","1","2","2","2","2","1","2","1","1","0","1","1","0","0","0","1","0","1","1","0","1","0","1","5","2","2","1","4","5","4","4","5","4","1","803273008734150658","陈","417","","","","","","","","","","","","","","","","","","","","","","","","","","","","","","","","","","","","","","","","","",""
"1078","<p style=""color:white; font-size: 35px;"">高尚</p>","i","categorize-html","94","216575","0.0-6.0-1.0-6.0-1.17","4","4","3","3","3","4","3","4","4","3","4","2","1","5","4","4","4","3","4","4","2","1","2","2","2","2","1","2","1","1","0","1","1","0","0","0","1","0","1","1","0","1","0","1","5","2","2","1","4","5","4","4","5","4","1","803273008734150658","陈","417","","","","","","","","","","","","","","","","","","","true","13","3","moral","1078","positive","高尚","","","","","","","","","","","","","","","","",""
"null","","null","html-keyboard-response","95","216828","0.0-6.0-1.0-6.0-0.18","4","4","3","3","3","4","3","4","4","3","4","2","1","5","4","4","4","3","4","4","2","1","2","2","2","2","1","2","1","1","0","1","1","0","0","0","1","0","1","1","0","1","0","1","5","2","2","1","4","5","4","4","5","4","1","803273008734150658","陈","417","","","","","","","","","","","","","","","","","","","","","","","","","","","","","","","","","","","","","","","","","",""
"694","<p style=""color:rgb(150, 250, 100); font-size: 35px;"">别人的</p>","e","categorize-html","96","217527","0.0-6.0-1.0-6.0-1.18","4","4","3","3","3","4","3","4","4","3","4","2","1","5","4","4","4","3","4","4","2","1","2","2","2","2","1","2","1","1","0","1","1","0","0","0","1","0","1","1","0","1","0","1","5","2","2","1","4","5","4","4","5","4","1","803273008734150658","陈","417","","","","","","","","","","","","","","","","","","","true","13","3","moral","694","other","别人的","","","","","","","","","","","","","","","","",""
"null","","null","html-keyboard-response","97","217779","0.0-6.0-1.0-6.0-0.19","4","4","3","3","3","4","3","4","4","3","4","2","1","5","4","4","4","3","4","4","2","1","2","2","2","2","1","2","1","1","0","1","1","0","0","0","1","0","1","1","0","1","0","1","5","2","2","1","4","5","4","4","5","4","1","803273008734150658","陈","417","","","","","","","","","","","","","","","","","","","","","","","","","","","","","","","","","","","","","","","","","",""
"879","<p style=""color:white; font-size: 35px;"">缺德</p>","e","categorize-html","98","218663","0.0-6.0-1.0-6.0-1.19","4","4","3","3","3","4","3","4","4","3","4","2","1","5","4","4","4","3","4","4","2","1","2","2","2","2","1","2","1","1","0","1","1","0","0","0","1","0","1","1","0","1","0","1","5","2","2","1","4","5","4","4","5","4","1","803273008734150658","陈","417","","","","","","","","","","","","","","","","","","","true","13","3","moral","879","negative","缺德","","","","","","","","","","","","","","","","",""
"null","","null","html-keyboard-response","99","218916","0.0-6.0-1.0-6.0-0.20","4","4","3","3","3","4","3","4","4","3","4","2","1","5","4","4","4","3","4","4","2","1","2","2","2","2","1","2","1","1","0","1","1","0","0","0","1","0","1","1","0","1","0","1","5","2","2","1","4","5","4","4","5","4","1","803273008734150658","陈","417","","","","","","","","","","","","","","","","","","","","","","","","","","","","","","","","","","","","","","","","","",""
"901","<p style=""color:rgb(150, 250, 100); font-size: 35px;"">别人</p>","e","categorize-html","100","219821","0.0-6.0-1.0-6.0-1.20","4","4","3","3","3","4","3","4","4","3","4","2","1","5","4","4","4","3","4","4","2","1","2","2","2","2","1","2","1","1","0","1","1","0","0","0","1","0","1","1","0","1","0","1","5","2","2","1","4","5","4","4","5","4","1","803273008734150658","陈","417","","","","","","","","","","","","","","","","","","","true","13","3","moral","901","other","别人","","","","","","","","","","","","","","","","",""
"null","","null","html-keyboard-response","101","220076","0.0-6.0-1.0-6.0-0.21","4","4","3","3","3","4","3","4","4","3","4","2","1","5","4","4","4","3","4","4","2","1","2","2","2","2","1","2","1","1","0","1","1","0","0","0","1","0","1","1","0","1","0","1","5","2","2","1","4","5","4","4","5","4","1","803273008734150658","陈","417","","","","","","","","","","","","","","","","","","","","","","","","","","","","","","","","","","","","","","","","","",""
"798","<p style=""color:white; font-size: 35px;"">君子</p>","i","categorize-html","102","220879","0.0-6.0-1.0-6.0-1.21","4","4","3","3","3","4","3","4","4","3","4","2","1","5","4","4","4","3","4","4","2","1","2","2","2","2","1","2","1","1","0","1","1","0","0","0","1","0","1","1","0","1","0","1","5","2","2","1","4","5","4","4","5","4","1","803273008734150658","陈","417","","","","","","","","","","","","","","","","","","","true","13","3","moral","798","positive","君子","","","","","","","","","","","","","","","","",""
"null","","null","html-keyboard-response","103","221132","0.0-6.0-1.0-6.0-0.22","4","4","3","3","3","4","3","4","4","3","4","2","1","5","4","4","4","3","4","4","2","1","2","2","2","2","1","2","1","1","0","1","1","0","0","0","1","0","1","1","0","1","0","1","5","2","2","1","4","5","4","4","5","4","1","803273008734150658","陈","417","","","","","","","","","","","","","","","","","","","","","","","","","","","","","","","","","","","","","","","","","",""
"982","<p style=""color:rgb(150, 250, 100); font-size: 35px;"">本人的</p>","i","categorize-html","104","222119","0.0-6.0-1.0-6.0-1.22","4","4","3","3","3","4","3","4","4","3","4","2","1","5","4","4","4","3","4","4","2","1","2","2","2","2","1","2","1","1","0","1","1","0","0","0","1","0","1","1","0","1","0","1","5","2","2","1","4","5","4","4","5","4","1","803273008734150658","陈","417","","","","","","","","","","","","","","","","","","","true","13","3","moral","982","self","本人的","","","","","","","","","","","","","","","","",""
"null","","null","html-keyboard-response","105","222372","0.0-6.0-1.0-6.0-0.23","4","4","3","3","3","4","3","4","4","3","4","2","1","5","4","4","4","3","4","4","2","1","2","2","2","2","1","2","1","1","0","1","1","0","0","0","1","0","1","1","0","1","0","1","5","2","2","1","4","5","4","4","5","4","1","803273008734150658","陈","417","","","","","","","","","","","","","","","","","","","","","","","","","","","","","","","","","","","","","","","","","",""
"685","<p style=""color:white; font-size: 35px;"">卑鄙</p>","e","categorize-html","106","223063","0.0-6.0-1.0-6.0-1.23","4","4","3","3","3","4","3","4","4","3","4","2","1","5","4","4","4","3","4","4","2","1","2","2","2","2","1","2","1","1","0","1","1","0","0","0","1","0","1","1","0","1","0","1","5","2","2","1","4","5","4","4","5","4","1","803273008734150658","陈","417","","","","","","","","","","","","","","","","","","","true","13","3","moral","685","negative","卑鄙","","","","","","","","","","","","","","","","",""
"787","
    <div class=""tag-bottom""><p>
    —— 任务4：对“他人/消极”词和“自我/积极”词分类 ——<p/>
    <span style=""color:#78DCE8""><b>与刚才的任务完全相同，请再次对这四类词语分类</b></span><p/>
    <span style=""color:#FFD866""><b>请根据上方标签的提示，尽可能正确并且快速地做出按键反应</b></span><p/>
    当按键错误时屏幕中会出现<span style=""color:red""> X </span>，需要按另一个键纠正才能继续<br/><p/>
    请把双手食指分别放在键盘的“E”键和“I”键上<p/>
    按<空格键>开始
    </p></div>"," ","html-keyboard-response","107","223852","0.0-6.0-1.0-7.0","4","4","3","3","3","4","3","4","4","3","4","2","1","5","4","4","4","3","4","4","2","1","2","2","2","2","1","2","1","1","0","1","1","0","0","0","1","0","1","1","0","1","0","1","5","2","2","1","4","5","4","4","5","4","1","803273008734150658","陈","417","","","","","","","","","","","","","","","","","","","","","","","","","","","","","","","","","","","","","","","","","",""
"null","","null","html-keyboard-response","108","224108","0.0-6.0-1.0-8.0-0.0","4","4","3","3","3","4","3","4","4","3","4","2","1","5","4","4","4","3","4","4","2","1","2","2","2","2","1","2","1","1","0","1","1","0","0","0","1","0","1","1","0","1","0","1","5","2","2","1","4","5","4","4","5","4","1","803273008734150658","陈","417","","","","","","","","","","","","","","","","","","","","","","","","","","","","","","","","","","","","","","","","","",""
"860","<p style=""color:rgb(150, 250, 100); font-size: 35px;"">自己的</p>","i","categorize-html","109","224975","0.0-6.0-1.0-8.0-1.0","4","4","3","3","3","4","3","4","4","3","4","2","1","5","4","4","4","3","4","4","2","1","2","2","2","2","1","2","1","1","0","1","1","0","0","0","1","0","1","1","0","1","0","1","5","2","2","1","4","5","4","4","5","4","1","803273008734150658","陈","417","","","","","","","","","","","","","","","","","","","true","14","4","moral","860","self","自己的","","","","","","","","","","","","","","","","",""
"null","","null","html-keyboard-response","110","225229","0.0-6.0-1.0-8.0-0.1","4","4","3","3","3","4","3","4","4","3","4","2","1","5","4","4","4","3","4","4","2","1","2","2","2","2","1","2","1","1","0","1","1","0","0","0","1","0","1","1","0","1","0","1","5","2","2","1","4","5","4","4","5","4","1","803273008734150658","陈","417","","","","","","","","","","","","","","","","","","","","","","","","","","","","","","","","","","","","","","","","","",""
"1309","<p style=""color:white; font-size: 35px;"">廉正</p>","i","categorize-html","111","226543","0.0-6.0-1.0-8.0-1.1","4","4","3","3","3","4","3","4","4","3","4","2","1","5","4","4","4","3","4","4","2","1","2","2","2","2","1","2","1","1","0","1","1","0","0","0","1","0","1","1","0","1","0","1","5","2","2","1","4","5","4","4","5","4","1","803273008734150658","陈","417","","","","","","","","","","","","","","","","","","","true","14","4","moral","1309","positive","廉正","","","","","","","","","","","","","","","","",""
"null","","null","html-keyboard-response","112","226795","0.0-6.0-1.0-8.0-0.2","4","4","3","3","3","4","3","4","4","3","4","2","1","5","4","4","4","3","4","4","2","1","2","2","2","2","1","2","1","1","0","1","1","0","0","0","1","0","1","1","0","1","0","1","5","2","2","1","4","5","4","4","5","4","1","803273008734150658","陈","417","","","","","","","","","","","","","","","","","","","","","","","","","","","","","","","","","","","","","","","","","",""
"511","<p style=""color:rgb(150, 250, 100); font-size: 35px;"">别人的</p>","e","categorize-html","113","227311","0.0-6.0-1.0-8.0-1.2","4","4","3","3","3","4","3","4","4","3","4","2","1","5","4","4","4","3","4","4","2","1","2","2","2","2","1","2","1","1","0","1","1","0","0","0","1","0","1","1","0","1","0","1","5","2","2","1","4","5","4","4","5","4","1","803273008734150658","陈","417","","","","","","","","","","","","","","","","","","","true","14","4","moral","511","other","别人的","","","","","","","","","","","","","","","","",""
"null","","null","html-keyboard-response","114","227564","0.0-6.0-1.0-8.0-0.3","4","4","3","3","3","4","3","4","4","3","4","2","1","5","4","4","4","3","4","4","2","1","2","2","2","2","1","2","1","1","0","1","1","0","0","0","1","0","1","1","0","1","0","1","5","2","2","1","4","5","4","4","5","4","1","803273008734150658","陈","417","","","","","","","","","","","","","","","","","","","","","","","","","","","","","","","","","","","","","","","","","",""
"846","<p style=""color:white; font-size: 35px;"">不孝</p>","e","categorize-html","115","228415","0.0-6.0-1.0-8.0-1.3","4","4","3","3","3","4","3","4","4","3","4","2","1","5","4","4","4","3","4","4","2","1","2","2","2","2","1","2","1","1","0","1","1","0","0","0","1","0","1","1","0","1","0","1","5","2","2","1","4","5","4","4","5","4","1","803273008734150658","陈","417","","","","","","","","","","","","","","","","","","","true","14","4","moral","846","negative","不孝","","","","","","","","","","","","","","","","",""
"null","","null","html-keyboard-response","116","228668","0.0-6.0-1.0-8.0-0.4","4","4","3","3","3","4","3","4","4","3","4","2","1","5","4","4","4","3","4","4","2","1","2","2","2","2","1","2","1","1","0","1","1","0","0","0","1","0","1","1","0","1","0","1","5","2","2","1","4","5","4","4","5","4","1","803273008734150658","陈","417","","","","","","","","","","","","","","","","","","","","","","","","","","","","","","","","","","","","","","","","","",""
"590","<p style=""color:rgb(150, 250, 100); font-size: 35px;"">他的</p>","e","categorize-html","117","229263","0.0-6.0-1.0-8.0-1.4","4","4","3","3","3","4","3","4","4","3","4","2","1","5","4","4","4","3","4","4","2","1","2","2","2","2","1","2","1","1","0","1","1","0","0","0","1","0","1","1","0","1","0","1","5","2","2","1","4","5","4","4","5","4","1","803273008734150658","陈","417","","","","","","","","","","","","","","","","","","","true","14","4","moral","590","other","他的","","","","","","","","","","","","","","","","",""
"null","","null","html-keyboard-response","118","229516","0.0-6.0-1.0-8.0-0.5","4","4","3","3","3","4","3","4","4","3","4","2","1","5","4","4","4","3","4","4","2","1","2","2","2","2","1","2","1","1","0","1","1","0","0","0","1","0","1","1","0","1","0","1","5","2","2","1","4","5","4","4","5","4","1","803273008734150658","陈","417","","","","","","","","","","","","","","","","","","","","","","","","","","","","","","","","","","","","","","","","","",""
"734","<p style=""color:white; font-size: 35px;"">高尚</p>","i","categorize-html","119","230255","0.0-6.0-1.0-8.0-1.5","4","4","3","3","3","4","3","4","4","3","4","2","1","5","4","4","4","3","4","4","2","1","2","2","2","2","1","2","1","1","0","1","1","0","0","0","1","0","1","1","0","1","0","1","5","2","2","1","4","5","4","4","5","4","1","803273008734150658","陈","417","","","","","","","","","","","","","","","","","","","true","14","4","moral","734","positive","高尚","","","","","","","","","","","","","","","","",""
"null","","null","html-keyboard-response","120","230508","0.0-6.0-1.0-8.0-0.6","4","4","3","3","3","4","3","4","4","3","4","2","1","5","4","4","4","3","4","4","2","1","2","2","2","2","1","2","1","1","0","1","1","0","0","0","1","0","1","1","0","1","0","1","5","2","2","1","4","5","4","4","5","4","1","803273008734150658","陈","417","","","","","","","","","","","","","","","","","","","","","","","","","","","","","","","","","","","","","","","","","",""
"734","<p style=""color:rgb(150, 250, 100); font-size: 35px;"">自己的</p>","i","categorize-html","121","231247","0.0-6.0-1.0-8.0-1.6","4","4","3","3","3","4","3","4","4","3","4","2","1","5","4","4","4","3","4","4","2","1","2","2","2","2","1","2","1","1","0","1","1","0","0","0","1","0","1","1","0","1","0","1","5","2","2","1","4","5","4","4","5","4","1","803273008734150658","陈","417","","","","","","","","","","","","","","","","","","","true","14","4","moral","734","self","自己的","","","","","","","","","","","","","","","","",""
"null","","null","html-keyboard-response","122","231500","0.0-6.0-1.0-8.0-0.7","4","4","3","3","3","4","3","4","4","3","4","2","1","5","4","4","4","3","4","4","2","1","2","2","2","2","1","2","1","1","0","1","1","0","0","0","1","0","1","1","0","1","0","1","5","2","2","1","4","5","4","4","5","4","1","803273008734150658","陈","417","","","","","","","","","","","","","","","","","","","","","","","","","","","","","","","","","","","","","","","","","",""
"750","<p style=""color:white; font-size: 35px;"">小人</p>","e","categorize-html","123","232255","0.0-6.0-1.0-8.0-1.7","4","4","3","3","3","4","3","4","4","3","4","2","1","5","4","4","4","3","4","4","2","1","2","2","2","2","1","2","1","1","0","1","1","0","0","0","1","0","1","1","0","1","0","1","5","2","2","1","4","5","4","4","5","4","1","803273008734150658","陈","417","","","","","","","","","","","","","","","","","","","true","14","4","moral","750","negative","小人","","","","","","","","","","","","","","","","",""
"null","","null","html-keyboard-response","124","232508","0.0-6.0-1.0-8.0-0.8","4","4","3","3","3","4","3","4","4","3","4","2","1","5","4","4","4","3","4","4","2","1","2","2","2","2","1","2","1","1","0","1","1","0","0","0","1","0","1","1","0","1","0","1","5","2","2","1","4","5","4","4","5","4","1","803273008734150658","陈","417","","","","","","","","","","","","","","","","","","","","","","","","","","","","","","","","","","","","","","","","","",""
"662","<p style=""color:rgb(150, 250, 100); font-size: 35px;"">本人</p>","i","categorize-html","125","233175","0.0-6.0-1.0-8.0-1.8","4","4","3","3","3","4","3","4","4","3","4","2","1","5","4","4","4","3","4","4","2","1","2","2","2","2","1","2","1","1","0","1","1","0","0","0","1","0","1","1","0","1","0","1","5","2","2","1","4","5","4","4","5","4","1","803273008734150658","陈","417","","","","","","","","","","","","","","","","","","","true","14","4","moral","662","self","本人","","","","","","","","","","","","","","","","",""
"null","","null","html-keyboard-response","126","233427","0.0-6.0-1.0-8.0-0.9","4","4","3","3","3","4","3","4","4","3","4","2","1","5","4","4","4","3","4","4","2","1","2","2","2","2","1","2","1","1","0","1","1","0","0","0","1","0","1","1","0","1","0","1","5","2","2","1","4","5","4","4","5","4","1","803273008734150658","陈","417","","","","","","","","","","","","","","","","","","","","","","","","","","","","","","","","","","","","","","","","","",""
"655","<p style=""color:white; font-size: 35px;"">高尚</p>","i","categorize-html","127","234087","0.0-6.0-1.0-8.0-1.9","4","4","3","3","3","4","3","4","4","3","4","2","1","5","4","4","4","3","4","4","2","1","2","2","2","2","1","2","1","1","0","1","1","0","0","0","1","0","1","1","0","1","0","1","5","2","2","1","4","5","4","4","5","4","1","803273008734150658","陈","417","","","","","","","","","","","","","","","","","","","true","14","4","moral","655","positive","高尚","","","","","","","","","","","","","","","","",""
"null","","null","html-keyboard-response","128","234340","0.0-6.0-1.0-8.0-0.10","4","4","3","3","3","4","3","4","4","3","4","2","1","5","4","4","4","3","4","4","2","1","2","2","2","2","1","2","1","1","0","1","1","0","0","0","1","0","1","1","0","1","0","1","5","2","2","1","4","5","4","4","5","4","1","803273008734150658","陈","417","","","","","","","","","","","","","","","","","","","","","","","","","","","","","","","","","","","","","","","","","",""
"814","<p style=""color:rgb(150, 250, 100); font-size: 35px;"">他人的</p>","e","categorize-html","129","235159","0.0-6.0-1.0-8.0-1.10","4","4","3","3","3","4","3","4","4","3","4","2","1","5","4","4","4","3","4","4","2","1","2","2","2","2","1","2","1","1","0","1","1","0","0","0","1","0","1","1","0","1","0","1","5","2","2","1","4","5","4","4","5","4","1","803273008734150658","陈","417","","","","","","","","","","","","","","","","","","","true","14","4","moral","814","other","他人的","","","","","","","","","","","","","","","","",""
"null","","null","html-keyboard-response","130","235411","0.0-6.0-1.0-8.0-0.11","4","4","3","3","3","4","3","4","4","3","4","2","1","5","4","4","4","3","4","4","2","1","2","2","2","2","1","2","1","1","0","1","1","0","0","0","1","0","1","1","0","1","0","1","5","2","2","1","4","5","4","4","5","4","1","803273008734150658","陈","417","","","","","","","","","","","","","","","","","","","","","","","","","","","","","","","","","","","","","","","","","",""
"703","<p style=""color:white; font-size: 35px;"">黑心</p>","e","categorize-html","131","236119","0.0-6.0-1.0-8.0-1.11","4","4","3","3","3","4","3","4","4","3","4","2","1","5","4","4","4","3","4","4","2","1","2","2","2","2","1","2","1","1","0","1","1","0","0","0","1","0","1","1","0","1","0","1","5","2","2","1","4","5","4","4","5","4","1","803273008734150658","陈","417","","","","","","","","","","","","","","","","","","","true","14","4","moral","703","negative","黑心","","","","","","","","","","","","","","","","",""
"null","","null","html-keyboard-response","132","236372","0.0-6.0-1.0-8.0-0.12","4","4","3","3","3","4","3","4","4","3","4","2","1","5","4","4","4","3","4","4","2","1","2","2","2","2","1","2","1","1","0","1","1","0","0","0","1","0","1","1","0","1","0","1","5","2","2","1","4","5","4","4","5","4","1","803273008734150658","陈","417","","","","","","","","","","","","","","","","","","","","","","","","","","","","","","","","","","","","","","","","","",""
"814","<p style=""color:rgb(150, 250, 100); font-size: 35px;"">别人</p>","e","categorize-html","133","237191","0.0-6.0-1.0-8.0-1.12","4","4","3","3","3","4","3","4","4","3","4","2","1","5","4","4","4","3","4","4","2","1","2","2","2","2","1","2","1","1","0","1","1","0","0","0","1","0","1","1","0","1","0","1","5","2","2","1","4","5","4","4","5","4","1","803273008734150658","陈","417","","","","","","","","","","","","","","","","","","","true","14","4","moral","814","other","别人","","","","","","","","","","","","","","","","",""
"null","","null","html-keyboard-response","134","237444","0.0-6.0-1.0-8.0-0.13","4","4","3","3","3","4","3","4","4","3","4","2","1","5","4","4","4","3","4","4","2","1","2","2","2","2","1","2","1","1","0","1","1","0","0","0","1","0","1","1","0","1","0","1","5","2","2","1","4","5","4","4","5","4","1","803273008734150658","陈","417","","","","","","","","","","","","","","","","","","","","","","","","","","","","","","","","","","","","","","","","","",""
"646","<p style=""color:white; font-size: 35px;"">君子</p>","i","categorize-html","135","238095","0.0-6.0-1.0-8.0-1.13","4","4","3","3","3","4","3","4","4","3","4","2","1","5","4","4","4","3","4","4","2","1","2","2","2","2","1","2","1","1","0","1","1","0","0","0","1","0","1","1","0","1","0","1","5","2","2","1","4","5","4","4","5","4","1","803273008734150658","陈","417","","","","","","","","","","","","","","","","","","","true","14","4","moral","646","positive","君子","","","","","","","","","","","","","","","","",""
"null","","null","html-keyboard-response","136","238347","0.0-6.0-1.0-8.0-0.14","4","4","3","3","3","4","3","4","4","3","4","2","1","5","4","4","4","3","4","4","2","1","2","2","2","2","1","2","1","1","0","1","1","0","0","0","1","0","1","1","0","1","0","1","5","2","2","1","4","5","4","4","5","4","1","803273008734150658","陈","417","","","","","","","","","","","","","","","","","","","","","","","","","","","","","","","","","","","","","","","","","",""
"1031","<p style=""color:rgb(150, 250, 100); font-size: 35px;"">本人</p>","i","categorize-html","137","239383","0.0-6.0-1.0-8.0-1.14","4","4","3","3","3","4","3","4","4","3","4","2","1","5","4","4","4","3","4","4","2","1","2","2","2","2","1","2","1","1","0","1","1","0","0","0","1","0","1","1","0","1","0","1","5","2","2","1","4","5","4","4","5","4","1","803273008734150658","陈","417","","","","","","","","","","","","","","","","","","","true","14","4","moral","1031","self","本人","","","","","","","","","","","","","","","","",""
"null","","null","html-keyboard-response","138","239636","0.0-6.0-1.0-8.0-0.15","4","4","3","3","3","4","3","4","4","3","4","2","1","5","4","4","4","3","4","4","2","1","2","2","2","2","1","2","1","1","0","1","1","0","0","0","1","0","1","1","0","1","0","1","5","2","2","1","4","5","4","4","5","4","1","803273008734150658","陈","417","","","","","","","","","","","","","","","","","","","","","","","","","","","","","","","","","","","","","","","","","",""
"661","<p style=""color:white; font-size: 35px;"">缺德</p>","e","categorize-html","139","240303","0.0-6.0-1.0-8.0-1.15","4","4","3","3","3","4","3","4","4","3","4","2","1","5","4","4","4","3","4","4","2","1","2","2","2","2","1","2","1","1","0","1","1","0","0","0","1","0","1","1","0","1","0","1","5","2","2","1","4","5","4","4","5","4","1","803273008734150658","陈","417","","","","","","","","","","","","","","","","","","","true","14","4","moral","661","negative","缺德","","","","","","","","","","","","","","","","",""
"null","","null","html-keyboard-response","140","240556","0.0-6.0-1.0-8.0-0.16","4","4","3","3","3","4","3","4","4","3","4","2","1","5","4","4","4","3","4","4","2","1","2","2","2","2","1","2","1","1","0","1","1","0","0","0","1","0","1","1","0","1","0","1","5","2","2","1","4","5","4","4","5","4","1","803273008734150658","陈","417","","","","","","","","","","","","","","","","","","","","","","","","","","","","","","","","","","","","","","","","","",""
"766","<p style=""color:rgb(150, 250, 100); font-size: 35px;"">自己</p>","i","categorize-html","141","241327","0.0-6.0-1.0-8.0-1.16","4","4","3","3","3","4","3","4","4","3","4","2","1","5","4","4","4","3","4","4","2","1","2","2","2","2","1","2","1","1","0","1","1","0","0","0","1","0","1","1","0","1","0","1","5","2","2","1","4","5","4","4","5","4","1","803273008734150658","陈","417","","","","","","","","","","","","","","","","","","","true","14","4","moral","766","self","自己","","","","","","","","","","","","","","","","",""
"null","","null","html-keyboard-response","142","241580","0.0-6.0-1.0-8.0-0.17","4","4","3","3","3","4","3","4","4","3","4","2","1","5","4","4","4","3","4","4","2","1","2","2","2","2","1","2","1","1","0","1","1","0","0","0","1","0","1","1","0","1","0","1","5","2","2","1","4","5","4","4","5","4","1","803273008734150658","陈","417","","","","","","","","","","","","","","","","","","","","","","","","","","","","","","","","","","","","","","","","","",""
"742","<p style=""color:white; font-size: 35px;"">善良</p>","i","categorize-html","143","242327","0.0-6.0-1.0-8.0-1.17","4","4","3","3","3","4","3","4","4","3","4","2","1","5","4","4","4","3","4","4","2","1","2","2","2","2","1","2","1","1","0","1","1","0","0","0","1","0","1","1","0","1","0","1","5","2","2","1","4","5","4","4","5","4","1","803273008734150658","陈","417","","","","","","","","","","","","","","","","","","","true","14","4","moral","742","positive","善良","","","","","","","","","","","","","","","","",""
"null","","null","html-keyboard-response","144","242580","0.0-6.0-1.0-8.0-0.18","4","4","3","3","3","4","3","4","4","3","4","2","1","5","4","4","4","3","4","4","2","1","2","2","2","2","1","2","1","1","0","1","1","0","0","0","1","0","1","1","0","1","0","1","5","2","2","1","4","5","4","4","5","4","1","803273008734150658","陈","417","","","","","","","","","","","","","","","","","","","","","","","","","","","","","","","","","","","","","","","","","",""
"637","<p style=""color:rgb(150, 250, 100); font-size: 35px;"">他人的</p>","e","categorize-html","145","243223","0.0-6.0-1.0-8.0-1.18","4","4","3","3","3","4","3","4","4","3","4","2","1","5","4","4","4","3","4","4","2","1","2","2","2","2","1","2","1","1","0","1","1","0","0","0","1","0","1","1","0","1","0","1","5","2","2","1","4","5","4","4","5","4","1","803273008734150658","陈","417","","","","","","","","","","","","","","","","","","","true","14","4","moral","637","other","他人的","","","","","","","","","","","","","","","","",""
"null","","null","html-keyboard-response","146","243476","0.0-6.0-1.0-8.0-0.19","4","4","3","3","3","4","3","4","4","3","4","2","1","5","4","4","4","3","4","4","2","1","2","2","2","2","1","2","1","1","0","1","1","0","0","0","1","0","1","1","0","1","0","1","5","2","2","1","4","5","4","4","5","4","1","803273008734150658","陈","417","","","","","","","","","","","","","","","","","","","","","","","","","","","","","","","","","","","","","","","","","",""
"1085","<p style=""color:white; font-size: 35px;"">黑心</p>","i","categorize-html","147","246036","0.0-6.0-1.0-8.0-1.19","4","4","3","3","3","4","3","4","4","3","4","2","1","5","4","4","4","3","4","4","2","1","2","2","2","2","1","2","1","1","0","1","1","0","0","0","1","0","1","1","0","1","0","1","5","2","2","1","4","5","4","4","5","4","1","803273008734150658","陈","417","","","","","","","","","","","","","","","","","","","false","14","4","moral","1661.5434782608695","negative","黑心","","","","","","","","","","","","","","","","",""
"null","","null","html-keyboard-response","148","246292","0.0-6.0-1.0-8.0-0.20","4","4","3","3","3","4","3","4","4","3","4","2","1","5","4","4","4","3","4","4","2","1","2","2","2","2","1","2","1","1","0","1","1","0","0","0","1","0","1","1","0","1","0","1","5","2","2","1","4","5","4","4","5","4","1","803273008734150658","陈","417","","","","","","","","","","","","","","","","","","","","","","","","","","","","","","","","","","","","","","","","","",""
"2598","<p style=""color:rgb(150, 250, 100); font-size: 35px;"">他的</p>","e","categorize-html","149","248895","0.0-6.0-1.0-8.0-1.20","4","4","3","3","3","4","3","4","4","3","4","2","1","5","4","4","4","3","4","4","2","1","2","2","2","2","1","2","1","1","0","1","1","0","0","0","1","0","1","1","0","1","0","1","5","2","2","1","4","5","4","4","5","4","1","803273008734150658","陈","417","","","","","","","","","","","","","","","","","","","true","14","4","moral","2598","other","他的","","","","","","","","","","","","","","","","",""
"null","","null","html-keyboard-response","150","249148","0.0-6.0-1.0-8.0-0.21","4","4","3","3","3","4","3","4","4","3","4","2","1","5","4","4","4","3","4","4","2","1","2","2","2","2","1","2","1","1","0","1","1","0","0","0","1","0","1","1","0","1","0","1","5","2","2","1","4","5","4","4","5","4","1","803273008734150658","陈","417","","","","","","","","","","","","","","","","","","","","","","","","","","","","","","","","","","","","","","","","","",""
"3694","<p style=""color:white; font-size: 35px;"">不孝</p>","e","categorize-html","151","252848","0.0-6.0-1.0-8.0-1.21","4","4","3","3","3","4","3","4","4","3","4","2","1","5","4","4","4","3","4","4","2","1","2","2","2","2","1","2","1","1","0","1","1","0","0","0","1","0","1","1","0","1","0","1","5","2","2","1","4","5","4","4","5","4","1","803273008734150658","陈","417","","","","","","","","","","","","","","","","","","","true","14","4","moral","3694","negative","不孝","","","","","","","","","","","","","","","","",""
"null","","null","html-keyboard-response","152","253101","0.0-6.0-1.0-8.0-0.22","4","4","3","3","3","4","3","4","4","3","4","2","1","5","4","4","4","3","4","4","2","1","2","2","2","2","1","2","1","1","0","1","1","0","0","0","1","0","1","1","0","1","0","1","5","2","2","1","4","5","4","4","5","4","1","803273008734150658","陈","417","","","","","","","","","","","","","","","","","","","","","","","","","","","","","","","","","","","","","","","","","",""
"582","<p style=""color:rgb(150, 250, 100); font-size: 35px;"">自己</p>","i","categorize-html","153","253688","0.0-6.0-1.0-8.0-1.22","4","4","3","3","3","4","3","4","4","3","4","2","1","5","4","4","4","3","4","4","2","1","2","2","2","2","1","2","1","1","0","1","1","0","0","0","1","0","1","1","0","1","0","1","5","2","2","1","4","5","4","4","5","4","1","803273008734150658","陈","417","","","","","","","","","","","","","","","","","","","true","14","4","moral","582","self","自己","","","","","","","","","","","","","","","","",""
"null","","null","html-keyboard-response","154","253941","0.0-6.0-1.0-8.0-0.23","4","4","3","3","3","4","3","4","4","3","4","2","1","5","4","4","4","3","4","4","2","1","2","2","2","2","1","2","1","1","0","1","1","0","0","0","1","0","1","1","0","1","0","1","5","2","2","1","4","5","4","4","5","4","1","803273008734150658","陈","417","","","","","","","","","","","","","","","","","","","","","","","","","","","","","","","","","","","","","","","","","",""
"2078","<p style=""color:white; font-size: 35px;"">诚信</p>","i","categorize-html","155","256024","0.0-6.0-1.0-8.0-1.23","4","4","3","3","3","4","3","4","4","3","4","2","1","5","4","4","4","3","4","4","2","1","2","2","2","2","1","2","1","1","0","1","1","0","0","0","1","0","1","1","0","1","0","1","5","2","2","1","4","5","4","4","5","4","1","803273008734150658","陈","417","","","","","","","","","","","","","","","","","","","true","14","4","moral","2078","positive","诚信","","","","","","","","","","","","","","","","",""
"null","","null","html-keyboard-response","156","256277","0.0-6.0-1.0-8.0-0.24","4","4","3","3","3","4","3","4","4","3","4","2","1","5","4","4","4","3","4","4","2","1","2","2","2","2","1","2","1","1","0","1","1","0","0","0","1","0","1","1","0","1","0","1","5","2","2","1","4","5","4","4","5","4","1","803273008734150658","陈","417","","","","","","","","","","","","","","","","","","","","","","","","","","","","","","","","","","","","","","","","","",""
"2173","<p style=""color:rgb(150, 250, 100); font-size: 35px;"">他人</p>","e","categorize-html","157","258456","0.0-6.0-1.0-8.0-1.24","4","4","3","3","3","4","3","4","4","3","4","2","1","5","4","4","4","3","4","4","2","1","2","2","2","2","1","2","1","1","0","1","1","0","0","0","1","0","1","1","0","1","0","1","5","2","2","1","4","5","4","4","5","4","1","803273008734150658","陈","417","","","","","","","","","","","","","","","","","","","true","14","4","moral","2173","other","他人","","","","","","","","","","","","","","","","",""
"null","","null","html-keyboard-response","158","258709","0.0-6.0-1.0-8.0-0.25","4","4","3","3","3","4","3","4","4","3","4","2","1","5","4","4","4","3","4","4","2","1","2","2","2","2","1","2","1","1","0","1","1","0","0","0","1","0","1","1","0","1","0","1","5","2","2","1","4","5","4","4","5","4","1","803273008734150658","陈","417","","","","","","","","","","","","","","","","","","","","","","","","","","","","","","","","","","","","","","","","","",""
"2269","<p style=""color:white; font-size: 35px;"">正直</p>","i","categorize-html","159","260984","0.0-6.0-1.0-8.0-1.25","4","4","3","3","3","4","3","4","4","3","4","2","1","5","4","4","4","3","4","4","2","1","2","2","2","2","1","2","1","1","0","1","1","0","0","0","1","0","1","1","0","1","0","1","5","2","2","1","4","5","4","4","5","4","1","803273008734150658","陈","417","","","","","","","","","","","","","","","","","","","true","14","4","moral","2269","positive","正直","","","","","","","","","","","","","","","","",""
"null","","null","html-keyboard-response","160","261237","0.0-6.0-1.0-8.0-0.26","4","4","3","3","3","4","3","4","4","3","4","2","1","5","4","4","4","3","4","4","2","1","2","2","2","2","1","2","1","1","0","1","1","0","0","0","1","0","1","1","0","1","0","1","5","2","2","1","4","5","4","4","5","4","1","803273008734150658","陈","417","","","","","","","","","","","","","","","","","","","","","","","","","","","","","","","","","","","","","","","","","",""
"2182","<p style=""color:rgb(150, 250, 100); font-size: 35px;"">我</p>","i","categorize-html","161","263424","0.0-6.0-1.0-8.0-1.26","4","4","3","3","3","4","3","4","4","3","4","2","1","5","4","4","4","3","4","4","2","1","2","2","2","2","1","2","1","1","0","1","1","0","0","0","1","0","1","1","0","1","0","1","5","2","2","1","4","5","4","4","5","4","1","803273008734150658","陈","417","","","","","","","","","","","","","","","","","","","true","14","4","moral","2182","self","我","","","","","","","","","","","","","","","","",""
"null","","null","html-keyboard-response","162","263677","0.0-6.0-1.0-8.0-0.27","4","4","3","3","3","4","3","4","4","3","4","2","1","5","4","4","4","3","4","4","2","1","2","2","2","2","1","2","1","1","0","1","1","0","0","0","1","0","1","1","0","1","0","1","5","2","2","1","4","5","4","4","5","4","1","803273008734150658","陈","417","","","","","","","","","","","","","","","","","","","","","","","","","","","","","","","","","","","","","","","","","",""
"1597","<p style=""color:white; font-size: 35px;"">卑鄙</p>","e","categorize-html","163","265280","0.0-6.0-1.0-8.0-1.27","4","4","3","3","3","4","3","4","4","3","4","2","1","5","4","4","4","3","4","4","2","1","2","2","2","2","1","2","1","1","0","1","1","0","0","0","1","0","1","1","0","1","0","1","5","2","2","1","4","5","4","4","5","4","1","803273008734150658","陈","417","","","","","","","","","","","","","","","","","","","true","14","4","moral","1597","negative","卑鄙","","","","","","","","","","","","","","","","",""
"null","","null","html-keyboard-response","164","265534","0.0-6.0-1.0-8.0-0.28","4","4","3","3","3","4","3","4","4","3","4","2","1","5","4","4","4","3","4","4","2","1","2","2","2","2","1","2","1","1","0","1","1","0","0","0","1","0","1","1","0","1","0","1","5","2","2","1","4","5","4","4","5","4","1","803273008734150658","陈","417","","","","","","","","","","","","","","","","","","","","","","","","","","","","","","","","","","","","","","","","","",""
"869","<p style=""color:rgb(150, 250, 100); font-size: 35px;"">我</p>","i","categorize-html","165","266407","0.0-6.0-1.0-8.0-1.28","4","4","3","3","3","4","3","4","4","3","4","2","1","5","4","4","4","3","4","4","2","1","2","2","2","2","1","2","1","1","0","1","1","0","0","0","1","0","1","1","0","1","0","1","5","2","2","1","4","5","4","4","5","4","1","803273008734150658","陈","417","","","","","","","","","","","","","","","","","","","true","14","4","moral","869","self","我","","","","","","","","","","","","","","","","",""
"null","","null","html-keyboard-response","166","266661","0.0-6.0-1.0-8.0-0.29","4","4","3","3","3","4","3","4","4","3","4","2","1","5","4","4","4","3","4","4","2","1","2","2","2","2","1","2","1","1","0","1","1","0","0","0","1","0","1","1","0","1","0","1","5","2","2","1","4","5","4","4","5","4","1","803273008734150658","陈","417","","","","","","","","","","","","","","","","","","","","","","","","","","","","","","","","","","","","","","","","","",""
"598","<p style=""color:white; font-size: 35px;"">小人</p>","e","categorize-html","167","267264","0.0-6.0-1.0-8.0-1.29","4","4","3","3","3","4","3","4","4","3","4","2","1","5","4","4","4","3","4","4","2","1","2","2","2","2","1","2","1","1","0","1","1","0","0","0","1","0","1","1","0","1","0","1","5","2","2","1","4","5","4","4","5","4","1","803273008734150658","陈","417","","","","","","","","","","","","","","","","","","","true","14","4","moral","598","negative","小人","","","","","","","","","","","","","","","","",""
"null","","null","html-keyboard-response","168","267517","0.0-6.0-1.0-8.0-0.30","4","4","3","3","3","4","3","4","4","3","4","2","1","5","4","4","4","3","4","4","2","1","2","2","2","2","1","2","1","1","0","1","1","0","0","0","1","0","1","1","0","1","0","1","5","2","2","1","4","5","4","4","5","4","1","803273008734150658","陈","417","","","","","","","","","","","","","","","","","","","","","","","","","","","","","","","","","","","","","","","","","",""
"542","<p style=""color:rgb(150, 250, 100); font-size: 35px;"">别人</p>","e","categorize-html","169","268064","0.0-6.0-1.0-8.0-1.30","4","4","3","3","3","4","3","4","4","3","4","2","1","5","4","4","4","3","4","4","2","1","2","2","2","2","1","2","1","1","0","1","1","0","0","0","1","0","1","1","0","1","0","1","5","2","2","1","4","5","4","4","5","4","1","803273008734150658","陈","417","","","","","","","","","","","","","","","","","","","true","14","4","moral","542","other","别人","","","","","","","","","","","","","","","","",""
"null","","null","html-keyboard-response","170","268317","0.0-6.0-1.0-8.0-0.31","4","4","3","3","3","4","3","4","4","3","4","2","1","5","4","4","4","3","4","4","2","1","2","2","2","2","1","2","1","1","0","1","1","0","0","0","1","0","1","1","0","1","0","1","5","2","2","1","4","5","4","4","5","4","1","803273008734150658","陈","417","","","","","","","","","","","","","","","","","","","","","","","","","","","","","","","","","","","","","","","","","",""
"646","<p style=""color:white; font-size: 35px;"">君子</p>","i","categorize-html","171","268968","0.0-6.0-1.0-8.0-1.31","4","4","3","3","3","4","3","4","4","3","4","2","1","5","4","4","4","3","4","4","2","1","2","2","2","2","1","2","1","1","0","1","1","0","0","0","1","0","1","1","0","1","0","1","5","2","2","1","4","5","4","4","5","4","1","803273008734150658","陈","417","","","","","","","","","","","","","","","","","","","true","14","4","moral","646","positive","君子","","","","","","","","","","","","","","","","",""
"null","","null","html-keyboard-response","172","269221","0.0-6.0-1.0-8.0-0.32","4","4","3","3","3","4","3","4","4","3","4","2","1","5","4","4","4","3","4","4","2","1","2","2","2","2","1","2","1","1","0","1","1","0","0","0","1","0","1","1","0","1","0","1","5","2","2","1","4","5","4","4","5","4","1","803273008734150658","陈","417","","","","","","","","","","","","","","","","","","","","","","","","","","","","","","","","","","","","","","","","","",""
"582","<p style=""color:rgb(150, 250, 100); font-size: 35px;"">他</p>","e","categorize-html","173","269807","0.0-6.0-1.0-8.0-1.32","4","4","3","3","3","4","3","4","4","3","4","2","1","5","4","4","4","3","4","4","2","1","2","2","2","2","1","2","1","1","0","1","1","0","0","0","1","0","1","1","0","1","0","1","5","2","2","1","4","5","4","4","5","4","1","803273008734150658","陈","417","","","","","","","","","","","","","","","","","","","true","14","4","moral","582","other","他","","","","","","","","","","","","","","","","",""
"null","","null","html-keyboard-response","174","270061","0.0-6.0-1.0-8.0-0.33","4","4","3","3","3","4","3","4","4","3","4","2","1","5","4","4","4","3","4","4","2","1","2","2","2","2","1","2","1","1","0","1","1","0","0","0","1","0","1","1","0","1","0","1","5","2","2","1","4","5","4","4","5","4","1","803273008734150658","陈","417","","","","","","","","","","","","","","","","","","","","","","","","","","","","","","","","","","","","","","","","","",""
"814","<p style=""color:white; font-size: 35px;"">廉正</p>","i","categorize-html","175","270880","0.0-6.0-1.0-8.0-1.33","4","4","3","3","3","4","3","4","4","3","4","2","1","5","4","4","4","3","4","4","2","1","2","2","2","2","1","2","1","1","0","1","1","0","0","0","1","0","1","1","0","1","0","1","5","2","2","1","4","5","4","4","5","4","1","803273008734150658","陈","417","","","","","","","","","","","","","","","","","","","true","14","4","moral","814","positive","廉正","","","","","","","","","","","","","","","","",""
"null","","null","html-keyboard-response","176","271133","0.0-6.0-1.0-8.0-0.34","4","4","3","3","3","4","3","4","4","3","4","2","1","5","4","4","4","3","4","4","2","1","2","2","2","2","1","2","1","1","0","1","1","0","0","0","1","0","1","1","0","1","0","1","5","2","2","1","4","5","4","4","5","4","1","803273008734150658","陈","417","","","","","","","","","","","","","","","","","","","","","","","","","","","","","","","","","","","","","","","","","",""
"678","<p style=""color:rgb(150, 250, 100); font-size: 35px;"">本人的</p>","i","categorize-html","177","271815","0.0-6.0-1.0-8.0-1.34","4","4","3","3","3","4","3","4","4","3","4","2","1","5","4","4","4","3","4","4","2","1","2","2","2","2","1","2","1","1","0","1","1","0","0","0","1","0","1","1","0","1","0","1","5","2","2","1","4","5","4","4","5","4","1","803273008734150658","陈","417","","","","","","","","","","","","","","","","","","","true","14","4","moral","678","self","本人的","","","","","","","","","","","","","","","","",""
"null","","null","html-keyboard-response","178","272069","0.0-6.0-1.0-8.0-0.35","4","4","3","3","3","4","3","4","4","3","4","2","1","5","4","4","4","3","4","4","2","1","2","2","2","2","1","2","1","1","0","1","1","0","0","0","1","0","1","1","0","1","0","1","5","2","2","1","4","5","4","4","5","4","1","803273008734150658","陈","417","","","","","","","","","","","","","","","","","","","","","","","","","","","","","","","","","","","","","","","","","",""
"710","<p style=""color:white; font-size: 35px;"">缺德</p>","e","categorize-html","179","272783","0.0-6.0-1.0-8.0-1.35","4","4","3","3","3","4","3","4","4","3","4","2","1","5","4","4","4","3","4","4","2","1","2","2","2","2","1","2","1","1","0","1","1","0","0","0","1","0","1","1","0","1","0","1","5","2","2","1","4","5","4","4","5","4","1","803273008734150658","陈","417","","","","","","","","","","","","","","","","","","","true","14","4","moral","710","negative","缺德","","","","","","","","","","","","","","","","",""
"null","","null","html-keyboard-response","180","273037","0.0-6.0-1.0-8.0-0.36","4","4","3","3","3","4","3","4","4","3","4","2","1","5","4","4","4","3","4","4","2","1","2","2","2","2","1","2","1","1","0","1","1","0","0","0","1","0","1","1","0","1","0","1","5","2","2","1","4","5","4","4","5","4","1","803273008734150658","陈","417","","","","","","","","","","","","","","","","","","","","","","","","","","","","","","","","","","","","","","","","","",""
"670","<p style=""color:rgb(150, 250, 100); font-size: 35px;"">我的</p>","i","categorize-html","181","273712","0.0-6.0-1.0-8.0-1.36","4","4","3","3","3","4","3","4","4","3","4","2","1","5","4","4","4","3","4","4","2","1","2","2","2","2","1","2","1","1","0","1","1","0","0","0","1","0","1","1","0","1","0","1","5","2","2","1","4","5","4","4","5","4","1","803273008734150658","陈","417","","","","","","","","","","","","","","","","","","","true","14","4","moral","670","self","我的","","","","","","","","","","","","","","","","",""
"null","","null","html-keyboard-response","182","273965","0.0-6.0-1.0-8.0-0.37","4","4","3","3","3","4","3","4","4","3","4","2","1","5","4","4","4","3","4","4","2","1","2","2","2","2","1","2","1","1","0","1","1","0","0","0","1","0","1","1","0","1","0","1","5","2","2","1","4","5","4","4","5","4","1","803273008734150658","陈","417","","","","","","","","","","","","","","","","","","","","","","","","","","","","","","","","","","","","","","","","","",""
"1446","<p style=""color:white; font-size: 35px;"">诚信</p>","i","categorize-html","183","275415","0.0-6.0-1.0-8.0-1.37","4","4","3","3","3","4","3","4","4","3","4","2","1","5","4","4","4","3","4","4","2","1","2","2","2","2","1","2","1","1","0","1","1","0","0","0","1","0","1","1","0","1","0","1","5","2","2","1","4","5","4","4","5","4","1","803273008734150658","陈","417","","","","","","","","","","","","","","","","","","","true","14","4","moral","1446","positive","诚信","","","","","","","","","","","","","","","","",""
"null","","null","html-keyboard-response","184","275669","0.0-6.0-1.0-8.0-0.38","4","4","3","3","3","4","3","4","4","3","4","2","1","5","4","4","4","3","4","4","2","1","2","2","2","2","1","2","1","1","0","1","1","0","0","0","1","0","1","1","0","1","0","1","5","2","2","1","4","5","4","4","5","4","1","803273008734150658","陈","417","","","","","","","","","","","","","","","","","","","","","","","","","","","","","","","","","","","","","","","","","",""
"757","<p style=""color:rgb(150, 250, 100); font-size: 35px;"">他</p>","i","categorize-html","185","276956","0.0-6.0-1.0-8.0-1.38","4","4","3","3","3","4","3","4","4","3","4","2","1","5","4","4","4","3","4","4","2","1","2","2","2","2","1","2","1","1","0","1","1","0","0","0","1","0","1","1","0","1","0","1","5","2","2","1","4","5","4","4","5","4","1","803273008734150658","陈","417","","","","","","","","","","","","","","","","","","","false","14","4","moral","1661.5434782608695","other","他","","","","","","","","","","","","","","","","",""
"null","","null","html-keyboard-response","186","277213","0.0-6.0-1.0-8.0-0.39","4","4","3","3","3","4","3","4","4","3","4","2","1","5","4","4","4","3","4","4","2","1","2","2","2","2","1","2","1","1","0","1","1","0","0","0","1","0","1","1","0","1","0","1","5","2","2","1","4","5","4","4","5","4","1","803273008734150658","陈","417","","","","","","","","","","","","","","","","","","","","","","","","","","","","","","","","","","","","","","","","","",""
"1717","<p style=""color:white; font-size: 35px;"">卑鄙</p>","e","categorize-html","187","278935","0.0-6.0-1.0-8.0-1.39","4","4","3","3","3","4","3","4","4","3","4","2","1","5","4","4","4","3","4","4","2","1","2","2","2","2","1","2","1","1","0","1","1","0","0","0","1","0","1","1","0","1","0","1","5","2","2","1","4","5","4","4","5","4","1","803273008734150658","陈","417","","","","","","","","","","","","","","","","","","","true","14","4","moral","1717","negative","卑鄙","","","","","","","","","","","","","","","","",""
"null","","null","html-keyboard-response","188","279189","0.0-6.0-1.0-8.0-0.40","4","4","3","3","3","4","3","4","4","3","4","2","1","5","4","4","4","3","4","4","2","1","2","2","2","2","1","2","1","1","0","1","1","0","0","0","1","0","1","1","0","1","0","1","5","2","2","1","4","5","4","4","5","4","1","803273008734150658","陈","417","","","","","","","","","","","","","","","","","","","","","","","","","","","","","","","","","","","","","","","","","",""
"1605","<p style=""color:rgb(150, 250, 100); font-size: 35px;"">本人的</p>","i","categorize-html","189","280799","0.0-6.0-1.0-8.0-1.40","4","4","3","3","3","4","3","4","4","3","4","2","1","5","4","4","4","3","4","4","2","1","2","2","2","2","1","2","1","1","0","1","1","0","0","0","1","0","1","1","0","1","0","1","5","2","2","1","4","5","4","4","5","4","1","803273008734150658","陈","417","","","","","","","","","","","","","","","","","","","true","14","4","moral","1605","self","本人的","","","","","","","","","","","","","","","","",""
"null","","null","html-keyboard-response","190","281053","0.0-6.0-1.0-8.0-0.41","4","4","3","3","3","4","3","4","4","3","4","2","1","5","4","4","4","3","4","4","2","1","2","2","2","2","1","2","1","1","0","1","1","0","0","0","1","0","1","1","0","1","0","1","5","2","2","1","4","5","4","4","5","4","1","803273008734150658","陈","417","","","","","","","","","","","","","","","","","","","","","","","","","","","","","","","","","","","","","","","","","",""
"757","<p style=""color:white; font-size: 35px;"">不仁</p>","e","categorize-html","191","281815","0.0-6.0-1.0-8.0-1.41","4","4","3","3","3","4","3","4","4","3","4","2","1","5","4","4","4","3","4","4","2","1","2","2","2","2","1","2","1","1","0","1","1","0","0","0","1","0","1","1","0","1","0","1","5","2","2","1","4","5","4","4","5","4","1","803273008734150658","陈","417","","","","","","","","","","","","","","","","","","","true","14","4","moral","757","negative","不仁","","","","","","","","","","","","","","","","",""
"null","","null","html-keyboard-response","192","282069","0.0-6.0-1.0-8.0-0.42","4","4","3","3","3","4","3","4","4","3","4","2","1","5","4","4","4","3","4","4","2","1","2","2","2","2","1","2","1","1","0","1","1","0","0","0","1","0","1","1","0","1","0","1","5","2","2","1","4","5","4","4","5","4","1","803273008734150658","陈","417","","","","","","","","","","","","","","","","","","","","","","","","","","","","","","","","","","","","","","","","","",""
