"rt","stimulus","response","trial_type","trial_index","time_elapsed","internal_node_id","ses_1","ses_2","ses_3","ses_4","ses_5","ses_6","ses_7","ses_8","ses_9","ses_10","coreself_1","coreself_2","coreself_3","coreself_4","coreself_5","coreself_6","coreself_7","coreself_8","coreself_9","coreself_10","SGPS_1","SGPS_2","SGPS_3","SGPS_4","SGPS_5","SGPS_6","SGPS_7","SGPS_8","SGPS_9","NPI1","NPI2","NPI3","NPI4","NPI5","NPI6","NPI7","NPI8","NPI9","NPI10","NPI11","NPI12","NPI13","NPI14","NPI15","hsns_1","hsns_2","hsns_3","hsns_4","hsns_5","trap1","hsns_6","hsns_7","hsns_8","hsns_9","hsns_10","subj_idx","friend_name","ParticipantID","value","success","user_agent","responses","item_order","radio_event_ids","radio_event_times","key_event_times","mouse_event_times","straightlining","zigzagging","honeypot","timeout","failed_images","failed_audio","failed_video","view_history","response_type","key_press","avg_frame_time","center_x","center_y","correct_response","correct","identity","Image","word","condition","task_id","screen_id","time_stamp","version_attrib","version_target","IAT","RT","varname","summary","version_attrib2","version_target2","question_order","correct_answer","trap1_item"
"8705","
   <p><div style = ""color: white;font-size:25px;"">您好，欢迎参加本次实验。</div> </p>
   <p><div style = ""color: white;font-size:25px;"">为充分保障您的权利，请确保您已经知晓并同意《参与实验同意书》以及《数据公开知情同意书》。</div></p>
   <p><div style = ""color: white;font-size:25px;"">如果您未见过上述内容，请咨询实验员。</div></p>
   <p><div style = ""color: white;font-size:25px;"">如果您选择继续实验，则表示您已经清楚两份知情同意书的内容并同意。</div></p>
   <p><div style = ""color: pink;font-size:30px;"">请确保您记得day0的实验编号，您将在本次实验输入该编号，若您忘记，请咨询实验员后作答。</div></p>
   <p><div style = ""color: lightblue;font-size:25px;"">请您尽可能认真地作答，我们将依据您在各问卷和按键任务中的作答质量发放报酬。</div></p>
   <p> <div style = ""color: green;font-size:25px;""><按空格键至下页></div> </p>
   "," ","html-keyboard-response","0","8714","0.0-0.0","3","3","4","3","4","3","3","3","4","4","4","5","4","3","3","4","4","3","4","4","1","2","2","2","2","2","2","2","1","1","0","0","1","0","0","0","1","0","1","1","0","1","0","0","4","2","2","1","2","5","3","4","3","2","1","803360750616846338","姜","201","","","","","","","","","","","","","","","","","","","","","","","","","","","","","","","","","","","","","","","","","",""
"","","","call-function","1","8717","0.0-1.0-0.0","3","3","4","3","4","3","3","3","4","4","4","5","4","3","3","4","4","3","4","4","1","2","2","2","2","2","2","2","1","1","0","0","1","0","0","0","1","0","1","1","0","1","0","0","4","2","2","1","2","5","3","4","3","2","1","803360750616846338","姜","201","","","","","","","","","","","","","","","","","","","","","","","","","","","","","","","","","","","","","","","","","",""
"50872","","{""friend_name"":""姜"",""ParticipantID"":""201""}","survey-html-form","2","59592","0.0-1.0-1.0","3","3","4","3","4","3","3","3","4","4","4","5","4","3","3","4","4","3","4","4","1","2","2","2","2","2","2","2","1","1","0","0","1","0","0","0","1","0","1","1","0","1","0","0","4","2","2","1","2","5","3","4","3","2","1","803360750616846338","姜","201","","","","","","","","","","","","","","","","","","","","","","","","","","","","","","","","","","","","","","","","","",""
"","","","fullscreen","3","61612","0.0-2.0","3","3","4","3","4","3","3","3","4","4","4","5","4","3","3","4","4","3","4","4","1","2","2","2","2","2","2","2","1","1","0","0","1","0","0","0","1","0","1","1","0","1","0","0","4","2","2","1","2","5","3","4","3","2","1","803360750616846338","姜","201","","true","{}","","","","","","","","","","","","","","","","","","","","","","","","","","","","","","","","","","","","","","",""
"37566.700000047684","","{""Q01"":""3"",""Q02"":""3"",""Q03"":""4"",""Q04"":""3"",""Q05"":""4"",""Q06"":""3"",""Q07"":""3"",""Q08"":""3"",""Q09"":""4"",""Q10"":""4""}","survey-template","4","99194","0.0-3.0","3","3","4","3","4","3","3","3","4","4","4","5","4","3","3","4","4","3","4","4","1","2","2","2","2","2","2","2","1","1","0","0","1","0","0","0","1","0","1","1","0","1","0","0","4","2","2","1","2","5","3","4","3","2","1","803360750616846338","姜","201","","","","{""Q01"":""3"",""Q02"":""3"",""Q03"":""4"",""Q04"":""3"",""Q05"":""4"",""Q06"":""3"",""Q07"":""3"",""Q08"":""3"",""Q09"":""4"",""Q10"":""4""}","[0,1,2,3,4,5,6,7,8,9]","[""Q01"",""Q02"",""Q03"",""Q04"",""Q05"",""Q06"",""Q07"",""Q08"",""Q08"",""Q09"",""Q10""]","[10255.100000143051,11762.799999952316,13530.600000143051,14842,17334.5,18960.5,20476.200000047684,22520,29670.200000047684,34438.90000009537,35834.60000014305]","[]","[10255.100000143051,11762.799999952316,13530.600000143051,14842,17334.5,18424.799999952316,18960.5,20476.200000047684,22520,28684.400000095367,29134.299999952316,29670.200000047684,34438.90000009537,35834.60000014305,37564.40000009537]","0.5","0.2222222222222222","0","","","","","","","","","","","","","","","","","","","","","","","","","","","","","",""
"34834","","{""Q01"":""4"",""Q02"":""5"",""Q03"":""4"",""Q04"":""3"",""Q05"":""3"",""Q06"":""4"",""Q07"":""4"",""Q08"":""3"",""Q09"":""4"",""Q10"":""4""}","survey-template","5","134046","0.0-4.0","3","3","4","3","4","3","3","3","4","4","4","5","4","3","3","4","4","3","4","4","1","2","2","2","2","2","2","2","1","1","0","0","1","0","0","0","1","0","1","1","0","1","0","0","4","2","2","1","2","5","3","4","3","2","1","803360750616846338","姜","201","","","","{""Q01"":""4"",""Q02"":""5"",""Q03"":""4"",""Q04"":""3"",""Q05"":""3"",""Q06"":""4"",""Q07"":""4"",""Q08"":""3"",""Q09"":""4"",""Q10"":""4""}","[0,1,2,3,4,5,6,7,8,9]","[""Q01"",""Q02"",""Q03"",""Q04"",""Q05"",""Q05"",""Q06"",""Q07"",""Q08"",""Q09"",""Q10""]","[1787.5,5404.5,7385.299999952316,9247.600000143051,12248.600000143051,13485.700000047684,15529.299999952316,16675.299999952316,20147.200000047684,23131.299999952316,32641.10000014305]","[]","[1787.5,5404.5,7385.299999952316,9247.600000143051,12248.600000143051,13485.700000047684,14907.600000143051,15127.200000047684,15529.299999952316,16675.299999952316,20147.200000047684,23131.299999952316,32641.10000014305,34827.299999952316]","0.3","0.5555555555555556","0","","","","","","","","","","","","","","","","","","","","","","","","","","","","","",""
"","","","preload","6","134369","0.0-5.0","3","3","4","3","4","3","3","3","4","4","4","5","4","3","3","4","4","3","4","4","1","2","2","2","2","2","2","2","1","1","0","0","1","0","0","0","1","0","1","1","0","1","0","0","4","2","2","1","2","5","3","4","3","2","1","803360750616846338","姜","201","","true","","","","","","","","","","","false","[]","[]","[]","","","","","","","","","","","","","","","","","","","","","","","","","",""
"14695","","","instructions","7","149066","0.0-6.0","3","3","4","3","4","3","3","3","4","4","4","5","4","3","3","4","4","3","4","4","1","2","2","2","2","2","2","2","1","1","0","0","1","0","0","0","1","0","1","1","0","1","0","0","4","2","2","1","2","5","3","4","3","2","1","803360750616846338","姜","201","","","","","","","","","","","","","","","","","[{""page_index"":0,""viewing_time"":14694}]","","","","","","","","","","","","","","","","","","","","","","","","",""
"35489","","","instructions","8","184558","0.0-7.0-1.0-0.0","3","3","4","3","4","3","3","3","4","4","4","5","4","3","3","4","4","3","4","4","1","2","2","2","2","2","2","2","1","1","0","0","1","0","0","0","1","0","1","1","0","1","0","0","4","2","2","1","2","5","3","4","3","2","1","803360750616846338","姜","201","","","","","","","","","","","","","","","","","[{""page_index"":0,""viewing_time"":26624},{""page_index"":1,""viewing_time"":6616},{""page_index"":2,""viewing_time"":2248}]","","","","","","","","","","","","","","","","","","","","","","","","",""
"611","","j","psychophysics","9","186179","0.0-7.0-1.0-1.0-0.0-0.0","3","3","4","3","4","3","3","3","4","4","4","5","4","3","3","4","4","3","4","4","1","2","2","2","2","2","2","2","1","1","0","0","1","0","0","0","1","0","1","1","0","1","0","0","4","2","2","1","2","5","3","4","3","2","1","803360750616846338","姜","201","","","","match","","","","","","","","","","","","","","key","j","16.68383157894714","640","356","f","false","nonmatch","img/square.png","五边","方形","ALT1_2","prac_ALT1_2","","","","","","","","","","","",""
"null","<span style='color:red; font-size: 70px;'>错误! </span>","null","html-keyboard-response","10","186683","0.0-7.0-1.0-1.0-0.0-1.0","3","3","4","3","4","3","3","3","4","4","4","5","4","3","3","4","4","3","4","4","1","2","2","2","2","2","2","2","1","1","0","0","1","0","0","0","1","0","1","1","0","1","0","0","4","2","2","1","2","5","3","4","3","2","1","803360750616846338","姜","201","","","","","","","","","","","","","","","","","","","","","","","","","","","","","","feedback_test","","","","","","","","","","","",""
"554","","f","psychophysics","11","188247","0.0-7.0-1.0-1.0-0.0-0.1","3","3","4","3","4","3","3","3","4","4","4","5","4","3","3","4","4","3","4","4","1","2","2","2","2","2","2","2","1","1","0","0","1","0","0","0","1","0","1","1","0","1","0","0","4","2","2","1","2","5","3","4","3","2","1","803360750616846338","姜","201","","","","nonmatch","","","","","","","","","","","","","","key","f","16.866619565217306","640","356","f","true","nonmatch","img/ellipse.png","五边","椭圆","ALT1_2","prac_ALT1_2","","","","","","","","","","","",""
"null","<span style='color:GreenYellow; font-size: 70px;'>正确! </span>","null","html-keyboard-response","12","188764","0.0-7.0-1.0-1.0-0.0-1.1","3","3","4","3","4","3","3","3","4","4","4","5","4","3","3","4","4","3","4","4","1","2","2","2","2","2","2","2","1","1","0","0","1","0","0","0","1","0","1","1","0","1","0","0","4","2","2","1","2","5","3","4","3","2","1","803360750616846338","姜","201","","","","","","","","","","","","","","","","","","","","","","","","","","","","","","feedback_test","","","","","","","","","","","",""
"546","","j","psychophysics","13","190313","0.0-7.0-1.0-1.0-0.0-0.2","3","3","4","3","4","3","3","3","4","4","4","5","4","3","3","4","4","3","4","4","1","2","2","2","2","2","2","2","1","1","0","0","1","0","0","0","1","0","1","1","0","1","0","0","4","2","2","1","2","5","3","4","3","2","1","803360750616846338","姜","201","","","","match","","","","","","","","","","","","","","key","j","16.685109890109903","640","356","j","true","match","img/ellipse.png","椭圆","椭圆","ALT1_2","prac_ALT1_2","","","","","","","","","","","",""
"null","<span style='color:GreenYellow; font-size: 70px;'>正确! </span>","null","html-keyboard-response","14","190816","0.0-7.0-1.0-1.0-0.0-1.2","3","3","4","3","4","3","3","3","4","4","4","5","4","3","3","4","4","3","4","4","1","2","2","2","2","2","2","2","1","1","0","0","1","0","0","0","1","0","1","1","0","1","0","0","4","2","2","1","2","5","3","4","3","2","1","803360750616846338","姜","201","","","","","","","","","","","","","","","","","","","","","","","","","","","","","","feedback_test","","","","","","","","","","","",""
"530","","j","psychophysics","15","192349","0.0-7.0-1.0-1.0-0.0-0.3","3","3","4","3","4","3","3","3","4","4","4","5","4","3","3","4","4","3","4","4","1","2","2","2","2","2","2","2","1","1","0","0","1","0","0","0","1","0","1","1","0","1","0","0","4","2","2","1","2","5","3","4","3","2","1","803360750616846338","姜","201","","","","match","","","","","","","","","","","","","","key","j","16.685406593406626","640","356","f","false","nonmatch","img/square.png","梯形","方形","ALT1_2","prac_ALT1_2","","","","","","","","","","","",""
"null","<span style='color:red; font-size: 70px;'>错误! </span>","null","html-keyboard-response","16","192852","0.0-7.0-1.0-1.0-0.0-1.3","3","3","4","3","4","3","3","3","4","4","4","5","4","3","3","4","4","3","4","4","1","2","2","2","2","2","2","2","1","1","0","0","1","0","0","0","1","0","1","1","0","1","0","0","4","2","2","1","2","5","3","4","3","2","1","803360750616846338","姜","201","","","","","","","","","","","","","","","","","","","","","","","","","","","","","","feedback_test","","","","","","","","","","","",""
"692","","f","psychophysics","17","194554","0.0-7.0-1.0-1.0-0.0-0.4","3","3","4","3","4","3","3","3","4","4","4","5","4","3","3","4","4","3","4","4","1","2","2","2","2","2","2","2","1","1","0","0","1","0","0","0","1","0","1","1","0","1","0","0","4","2","2","1","2","5","3","4","3","2","1","803360750616846338","姜","201","","","","nonmatch","","","","","","","","","","","","","","key","f","16.685419999999866","640","356","f","true","nonmatch","img/pentagon.png","梯形","五边","ALT1_2","prac_ALT1_2","","","","","","","","","","","",""
"null","<span style='color:GreenYellow; font-size: 70px;'>正确! </span>","null","html-keyboard-response","18","195057","0.0-7.0-1.0-1.0-0.0-1.4","3","3","4","3","4","3","3","3","4","4","4","5","4","3","3","4","4","3","4","4","1","2","2","2","2","2","2","2","1","1","0","0","1","0","0","0","1","0","1","1","0","1","0","0","4","2","2","1","2","5","3","4","3","2","1","803360750616846338","姜","201","","","","","","","","","","","","","","","","","","","","","","","","","","","","","","feedback_test","","","","","","","","","","","",""
"593","","j","psychophysics","19","196653","0.0-7.0-1.0-1.0-0.0-0.5","3","3","4","3","4","3","3","3","4","4","4","5","4","3","3","4","4","3","4","4","1","2","2","2","2","2","2","2","1","1","0","0","1","0","0","0","1","0","1","1","0","1","0","0","4","2","2","1","2","5","3","4","3","2","1","803360750616846338","姜","201","","","","match","","","","","","","","","","","","","","key","j","16.685074468085077","640","356","j","true","match","img/trapezoid.png","梯形","梯形","ALT1_2","prac_ALT1_2","","","","","","","","","","","",""
"null","<span style='color:GreenYellow; font-size: 70px;'>正确! </span>","null","html-keyboard-response","20","197156","0.0-7.0-1.0-1.0-0.0-1.5","3","3","4","3","4","3","3","3","4","4","4","5","4","3","3","4","4","3","4","4","1","2","2","2","2","2","2","2","1","1","0","0","1","0","0","0","1","0","1","1","0","1","0","0","4","2","2","1","2","5","3","4","3","2","1","803360750616846338","姜","201","","","","","","","","","","","","","","","","","","","","","","","","","","","","","","feedback_test","","","","","","","","","","","",""
"534","","j","psychophysics","21","198694","0.0-7.0-1.0-1.0-0.0-0.6","3","3","4","3","4","3","3","3","4","4","4","5","4","3","3","4","4","3","4","4","1","2","2","2","2","2","2","2","1","1","0","0","1","0","0","0","1","0","1","1","0","1","0","0","4","2","2","1","2","5","3","4","3","2","1","803360750616846338","姜","201","","","","match","","","","","","","","","","","","","","key","j","16.68535164835163","640","356","j","true","match","img/square.png","方形","方形","ALT1_2","prac_ALT1_2","","","","","","","","","","","",""
"null","<span style='color:GreenYellow; font-size: 70px;'>正确! </span>","null","html-keyboard-response","22","199197","0.0-7.0-1.0-1.0-0.0-1.6","3","3","4","3","4","3","3","3","4","4","4","5","4","3","3","4","4","3","4","4","1","2","2","2","2","2","2","2","1","1","0","0","1","0","0","0","1","0","1","1","0","1","0","0","4","2","2","1","2","5","3","4","3","2","1","803360750616846338","姜","201","","","","","","","","","","","","","","","","","","","","","","","","","","","","","","feedback_test","","","","","","","","","","","",""
"529","","f","psychophysics","23","200728","0.0-7.0-1.0-1.0-0.0-0.7","3","3","4","3","4","3","3","3","4","4","4","5","4","3","3","4","4","3","4","4","1","2","2","2","2","2","2","2","1","1","0","0","1","0","0","0","1","0","1","1","0","1","0","0","4","2","2","1","2","5","3","4","3","2","1","803360750616846338","姜","201","","","","nonmatch","","","","","","","","","","","","","","key","f","16.870733333333433","640","356","f","true","nonmatch","img/trapezoid.png","方形","梯形","ALT1_2","prac_ALT1_2","","","","","","","","","","","",""
"null","<span style='color:GreenYellow; font-size: 70px;'>正确! </span>","null","html-keyboard-response","24","201230","0.0-7.0-1.0-1.0-0.0-1.7","3","3","4","3","4","3","3","3","4","4","4","5","4","3","3","4","4","3","4","4","1","2","2","2","2","2","2","2","1","1","0","0","1","0","0","0","1","0","1","1","0","1","0","0","4","2","2","1","2","5","3","4","3","2","1","803360750616846338","姜","201","","","","","","","","","","","","","","","","","","","","","","","","","","","","","","feedback_test","","","","","","","","","","","",""
"560","","j","psychophysics","25","202793","0.0-7.0-1.0-1.0-0.0-0.8","3","3","4","3","4","3","3","3","4","4","4","5","4","3","3","4","4","3","4","4","1","2","2","2","2","2","2","2","1","1","0","0","1","0","0","0","1","0","1","1","0","1","0","0","4","2","2","1","2","5","3","4","3","2","1","803360750616846338","姜","201","","","","match","","","","","","","","","","","","","","key","j","16.685217391304437","640","356","j","true","match","img/square.png","方形","方形","ALT1_2","prac_ALT1_2","","","","","","","","","","","",""
"null","<span style='color:GreenYellow; font-size: 70px;'>正确! </span>","null","html-keyboard-response","26","203296","0.0-7.0-1.0-1.0-0.0-1.8","3","3","4","3","4","3","3","3","4","4","4","5","4","3","3","4","4","3","4","4","1","2","2","2","2","2","2","2","1","1","0","0","1","0","0","0","1","0","1","1","0","1","0","0","4","2","2","1","2","5","3","4","3","2","1","803360750616846338","姜","201","","","","","","","","","","","","","","","","","","","","","","","","","","","","","","feedback_test","","","","","","","","","","","",""
"550","","j","psychophysics","27","204849","0.0-7.0-1.0-1.0-0.0-0.9","3","3","4","3","4","3","3","3","4","4","4","5","4","3","3","4","4","3","4","4","1","2","2","2","2","2","2","2","1","1","0","0","1","0","0","0","1","0","1","1","0","1","0","0","4","2","2","1","2","5","3","4","3","2","1","803360750616846338","姜","201","","","","match","","","","","","","","","","","","","","key","j","16.685175824176092","640","356","j","true","match","img/ellipse.png","椭圆","椭圆","ALT1_2","prac_ALT1_2","","","","","","","","","","","",""
"null","<span style='color:GreenYellow; font-size: 70px;'>正确! </span>","null","html-keyboard-response","28","205352","0.0-7.0-1.0-1.0-0.0-1.9","3","3","4","3","4","3","3","3","4","4","4","5","4","3","3","4","4","3","4","4","1","2","2","2","2","2","2","2","1","1","0","0","1","0","0","0","1","0","1","1","0","1","0","0","4","2","2","1","2","5","3","4","3","2","1","803360750616846338","姜","201","","","","","","","","","","","","","","","","","","","","","","","","","","","","","","feedback_test","","","","","","","","","","","",""
"525","","j","psychophysics","29","206881","0.0-7.0-1.0-1.0-0.0-0.10","3","3","4","3","4","3","3","3","4","4","4","5","4","3","3","4","4","3","4","4","1","2","2","2","2","2","2","2","1","1","0","0","1","0","0","0","1","0","1","1","0","1","0","0","4","2","2","1","2","5","3","4","3","2","1","803360750616846338","姜","201","","","","match","","","","","","","","","","","","","","key","j","16.870811111111024","640","356","j","true","match","img/ellipse.png","椭圆","椭圆","ALT1_2","prac_ALT1_2","","","","","","","","","","","",""
"null","<span style='color:GreenYellow; font-size: 70px;'>正确! </span>","null","html-keyboard-response","30","207383","0.0-7.0-1.0-1.0-0.0-1.10","3","3","4","3","4","3","3","3","4","4","4","5","4","3","3","4","4","3","4","4","1","2","2","2","2","2","2","2","1","1","0","0","1","0","0","0","1","0","1","1","0","1","0","0","4","2","2","1","2","5","3","4","3","2","1","803360750616846338","姜","201","","","","","","","","","","","","","","","","","","","","","","","","","","","","","","feedback_test","","","","","","","","","","","",""
"504","","f","psychophysics","31","208890","0.0-7.0-1.0-1.0-0.0-0.11","3","3","4","3","4","3","3","3","4","4","4","5","4","3","3","4","4","3","4","4","1","2","2","2","2","2","2","2","1","1","0","0","1","0","0","0","1","0","1","1","0","1","0","0","4","2","2","1","2","5","3","4","3","2","1","803360750616846338","姜","201","","","","nonmatch","","","","","","","","","","","","","","key","f","16.685438202247038","640","356","f","true","nonmatch","img/square.png","椭圆","方形","ALT1_2","prac_ALT1_2","","","","","","","","","","","",""
"null","<span style='color:GreenYellow; font-size: 70px;'>正确! </span>","null","html-keyboard-response","32","209392","0.0-7.0-1.0-1.0-0.0-1.11","3","3","4","3","4","3","3","3","4","4","4","5","4","3","3","4","4","3","4","4","1","2","2","2","2","2","2","2","1","1","0","0","1","0","0","0","1","0","1","1","0","1","0","0","4","2","2","1","2","5","3","4","3","2","1","803360750616846338","姜","201","","","","","","","","","","","","","","","","","","","","","","","","","","","","","","feedback_test","","","","","","","","","","","",""
"737","","j","psychophysics","33","211134","0.0-7.0-1.0-1.0-0.0-0.12","3","3","4","3","4","3","3","3","4","4","4","5","4","3","3","4","4","3","4","4","1","2","2","2","2","2","2","2","1","1","0","0","1","0","0","0","1","0","1","1","0","1","0","0","4","2","2","1","2","5","3","4","3","2","1","803360750616846338","姜","201","","","","match","","","","","","","","","","","","","","key","j","16.58970873786427","640","356","j","true","match","img/trapezoid.png","梯形","梯形","ALT1_2","prac_ALT1_2","","","","","","","","","","","",""
"null","<span style='color:GreenYellow; font-size: 70px;'>正确! </span>","null","html-keyboard-response","34","211638","0.0-7.0-1.0-1.0-0.0-1.12","3","3","4","3","4","3","3","3","4","4","4","5","4","3","3","4","4","3","4","4","1","2","2","2","2","2","2","2","1","1","0","0","1","0","0","0","1","0","1","1","0","1","0","0","4","2","2","1","2","5","3","4","3","2","1","803360750616846338","姜","201","","","","","","","","","","","","","","","","","","","","","","","","","","","","","","feedback_test","","","","","","","","","","","",""
"668","","j","psychophysics","35","213309","0.0-7.0-1.0-1.0-0.0-0.13","3","3","4","3","4","3","3","3","4","4","4","5","4","3","3","4","4","3","4","4","1","2","2","2","2","2","2","2","1","1","0","0","1","0","0","0","1","0","1","1","0","1","0","0","4","2","2","1","2","5","3","4","3","2","1","803360750616846338","姜","201","","","","match","","","","","","","","","","","","","","key","j","16.685459183673352","640","356","j","true","match","img/trapezoid.png","梯形","梯形","ALT1_2","prac_ALT1_2","","","","","","","","","","","",""
"null","<span style='color:GreenYellow; font-size: 70px;'>正确! </span>","null","html-keyboard-response","36","213813","0.0-7.0-1.0-1.0-0.0-1.13","3","3","4","3","4","3","3","3","4","4","4","5","4","3","3","4","4","3","4","4","1","2","2","2","2","2","2","2","1","1","0","0","1","0","0","0","1","0","1","1","0","1","0","0","4","2","2","1","2","5","3","4","3","2","1","803360750616846338","姜","201","","","","","","","","","","","","","","","","","","","","","","","","","","","","","","feedback_test","","","","","","","","","","","",""
"587","","f","psychophysics","37","215408","0.0-7.0-1.0-1.0-0.0-0.14","3","3","4","3","4","3","3","3","4","4","4","5","4","3","3","4","4","3","4","4","1","2","2","2","2","2","2","2","1","1","0","0","1","0","0","0","1","0","1","1","0","1","0","0","4","2","2","1","2","5","3","4","3","2","1","803360750616846338","姜","201","","","","nonmatch","","","","","","","","","","","","","","key","f","16.685148936170314","640","356","f","true","nonmatch","img/pentagon.png","方形","五边","ALT1_2","prac_ALT1_2","","","","","","","","","","","",""
"null","<span style='color:GreenYellow; font-size: 70px;'>正确! </span>","null","html-keyboard-response","38","215910","0.0-7.0-1.0-1.0-0.0-1.14","3","3","4","3","4","3","3","3","4","4","4","5","4","3","3","4","4","3","4","4","1","2","2","2","2","2","2","2","1","1","0","0","1","0","0","0","1","0","1","1","0","1","0","0","4","2","2","1","2","5","3","4","3","2","1","803360750616846338","姜","201","","","","","","","","","","","","","","","","","","","","","","","","","","","","","","feedback_test","","","","","","","","","","","",""
"513","","f","psychophysics","39","217426","0.0-7.0-1.0-1.0-0.0-0.15","3","3","4","3","4","3","3","3","4","4","4","5","4","3","3","4","4","3","4","4","1","2","2","2","2","2","2","2","1","1","0","0","1","0","0","0","1","0","1","1","0","1","0","0","4","2","2","1","2","5","3","4","3","2","1","803360750616846338","姜","201","","","","nonmatch","","","","","","","","","","","","","","key","f","16.68512222222214","640","356","j","false","match","img/square.png","方形","方形","ALT1_2","prac_ALT1_2","","","","","","","","","","","",""
"null","<span style='color:red; font-size: 70px;'>错误! </span>","null","html-keyboard-response","40","217928","0.0-7.0-1.0-1.0-0.0-1.15","3","3","4","3","4","3","3","3","4","4","4","5","4","3","3","4","4","3","4","4","1","2","2","2","2","2","2","2","1","1","0","0","1","0","0","0","1","0","1","1","0","1","0","0","4","2","2","1","2","5","3","4","3","2","1","803360750616846338","姜","201","","","","","","","","","","","","","","","","","","","","","","","","","","","","","","feedback_test","","","","","","","","","","","",""
"531","","f","psychophysics","41","219464","0.0-7.0-1.0-1.0-0.0-0.16","3","3","4","3","4","3","3","3","4","4","4","5","4","3","3","4","4","3","4","4","1","2","2","2","2","2","2","2","1","1","0","0","1","0","0","0","1","0","1","1","0","1","0","0","4","2","2","1","2","5","3","4","3","2","1","803360750616846338","姜","201","","","","nonmatch","","","","","","","","","","","","","","key","f","16.870744444444426","640","356","f","true","nonmatch","img/trapezoid.png","五边","梯形","ALT1_2","prac_ALT1_2","","","","","","","","","","","",""
"null","<span style='color:GreenYellow; font-size: 70px;'>正确! </span>","null","html-keyboard-response","42","219967","0.0-7.0-1.0-1.0-0.0-1.16","3","3","4","3","4","3","3","3","4","4","4","5","4","3","3","4","4","3","4","4","1","2","2","2","2","2","2","2","1","1","0","0","1","0","0","0","1","0","1","1","0","1","0","0","4","2","2","1","2","5","3","4","3","2","1","803360750616846338","姜","201","","","","","","","","","","","","","","","","","","","","","","","","","","","","","","feedback_test","","","","","","","","","","","",""
"564","","f","psychophysics","43","221539","0.0-7.0-1.0-1.0-0.0-0.17","3","3","4","3","4","3","3","3","4","4","4","5","4","3","3","4","4","3","4","4","1","2","2","2","2","2","2","2","1","1","0","0","1","0","0","0","1","0","1","1","0","1","0","0","4","2","2","1","2","5","3","4","3","2","1","803360750616846338","姜","201","","","","nonmatch","","","","","","","","","","","","","","key","f","16.685096774193624","640","356","f","true","nonmatch","img/pentagon.png","椭圆","五边","ALT1_2","prac_ALT1_2","","","","","","","","","","","",""
"null","<span style='color:GreenYellow; font-size: 70px;'>正确! </span>","null","html-keyboard-response","44","222049","0.0-7.0-1.0-1.0-0.0-1.17","3","3","4","3","4","3","3","3","4","4","4","5","4","3","3","4","4","3","4","4","1","2","2","2","2","2","2","2","1","1","0","0","1","0","0","0","1","0","1","1","0","1","0","0","4","2","2","1","2","5","3","4","3","2","1","803360750616846338","姜","201","","","","","","","","","","","","","","","","","","","","","","","","","","","","","","feedback_test","","","","","","","","","","","",""
"506","","j","psychophysics","45","223559","0.0-7.0-1.0-1.0-0.0-0.18","3","3","4","3","4","3","3","3","4","4","4","5","4","3","3","4","4","3","4","4","1","2","2","2","2","2","2","2","1","1","0","0","1","0","0","0","1","0","1","1","0","1","0","0","4","2","2","1","2","5","3","4","3","2","1","803360750616846338","姜","201","","","","match","","","","","","","","","","","","","","key","j","16.68538202247203","640","356","j","true","match","img/pentagon.png","五边","五边","ALT1_2","prac_ALT1_2","","","","","","","","","","","",""
"null","<span style='color:GreenYellow; font-size: 70px;'>正确! </span>","null","html-keyboard-response","46","224063","0.0-7.0-1.0-1.0-0.0-1.18","3","3","4","3","4","3","3","3","4","4","4","5","4","3","3","4","4","3","4","4","1","2","2","2","2","2","2","2","1","1","0","0","1","0","0","0","1","0","1","1","0","1","0","0","4","2","2","1","2","5","3","4","3","2","1","803360750616846338","姜","201","","","","","","","","","","","","","","","","","","","","","","","","","","","","","","feedback_test","","","","","","","","","","","",""
"509","","f","psychophysics","47","225576","0.0-7.0-1.0-1.0-0.0-0.19","3","3","4","3","4","3","3","3","4","4","4","5","4","3","3","4","4","3","4","4","1","2","2","2","2","2","2","2","1","1","0","0","1","0","0","0","1","0","1","1","0","1","0","0","4","2","2","1","2","5","3","4","3","2","1","803360750616846338","姜","201","","","","nonmatch","","","","","","","","","","","","","","key","f","16.685306818181825","640","356","f","true","nonmatch","img/ellipse.png","梯形","椭圆","ALT1_2","prac_ALT1_2","","","","","","","","","","","",""
"null","<span style='color:GreenYellow; font-size: 70px;'>正确! </span>","null","html-keyboard-response","48","226077","0.0-7.0-1.0-1.0-0.0-1.19","3","3","4","3","4","3","3","3","4","4","4","5","4","3","3","4","4","3","4","4","1","2","2","2","2","2","2","2","1","1","0","0","1","0","0","0","1","0","1","1","0","1","0","0","4","2","2","1","2","5","3","4","3","2","1","803360750616846338","姜","201","","","","","","","","","","","","","","","","","","","","","","","","","","","","","","feedback_test","","","","","","","","","","","",""
"518","","j","psychophysics","49","227604","0.0-7.0-1.0-1.0-0.0-0.20","3","3","4","3","4","3","3","3","4","4","4","5","4","3","3","4","4","3","4","4","1","2","2","2","2","2","2","2","1","1","0","0","1","0","0","0","1","0","1","1","0","1","0","0","4","2","2","1","2","5","3","4","3","2","1","803360750616846338","姜","201","","","","match","","","","","","","","","","","","","","key","j","16.613539325842815","640","356","j","true","match","img/pentagon.png","五边","五边","ALT1_2","prac_ALT1_2","","","","","","","","","","","",""
"null","<span style='color:GreenYellow; font-size: 70px;'>正确! </span>","null","html-keyboard-response","50","228110","0.0-7.0-1.0-1.0-0.0-1.20","3","3","4","3","4","3","3","3","4","4","4","5","4","3","3","4","4","3","4","4","1","2","2","2","2","2","2","2","1","1","0","0","1","0","0","0","1","0","1","1","0","1","0","0","4","2","2","1","2","5","3","4","3","2","1","803360750616846338","姜","201","","","","","","","","","","","","","","","","","","","","","","","","","","","","","","feedback_test","","","","","","","","","","","",""
"460","","f","psychophysics","51","229572","0.0-7.0-1.0-1.0-0.0-0.21","3","3","4","3","4","3","3","3","4","4","4","5","4","3","3","4","4","3","4","4","1","2","2","2","2","2","2","2","1","1","0","0","1","0","0","0","1","0","1","1","0","1","0","0","4","2","2","1","2","5","3","4","3","2","1","803360750616846338","姜","201","","","","nonmatch","","","","","","","","","","","","","","key","f","16.879290697674488","640","356","f","true","nonmatch","img/ellipse.png","方形","椭圆","ALT1_2","prac_ALT1_2","","","","","","","","","","","",""
"null","<span style='color:GreenYellow; font-size: 70px;'>正确! </span>","null","html-keyboard-response","52","230073","0.0-7.0-1.0-1.0-0.0-1.21","3","3","4","3","4","3","3","3","4","4","4","5","4","3","3","4","4","3","4","4","1","2","2","2","2","2","2","2","1","1","0","0","1","0","0","0","1","0","1","1","0","1","0","0","4","2","2","1","2","5","3","4","3","2","1","803360750616846338","姜","201","","","","","","","","","","","","","","","","","","","","","","","","","","","","","","feedback_test","","","","","","","","","","","",""
"663","","f","psychophysics","53","231742","0.0-7.0-1.0-1.0-0.0-0.22","3","3","4","3","4","3","3","3","4","4","4","5","4","3","3","4","4","3","4","4","1","2","2","2","2","2","2","2","1","1","0","0","1","0","0","0","1","0","1","1","0","1","0","0","4","2","2","1","2","5","3","4","3","2","1","803360750616846338","姜","201","","","","nonmatch","","","","","","","","","","","","","","key","f","16.685387755101797","640","356","f","true","nonmatch","img/trapezoid.png","椭圆","梯形","ALT1_2","prac_ALT1_2","","","","","","","","","","","",""
"null","<span style='color:GreenYellow; font-size: 70px;'>正确! </span>","null","html-keyboard-response","54","232256","0.0-7.0-1.0-1.0-0.0-1.22","3","3","4","3","4","3","3","3","4","4","4","5","4","3","3","4","4","3","4","4","1","2","2","2","2","2","2","2","1","1","0","0","1","0","0","0","1","0","1","1","0","1","0","0","4","2","2","1","2","5","3","4","3","2","1","803360750616846338","姜","201","","","","","","","","","","","","","","","","","","","","","","","","","","","","","","feedback_test","","","","","","","","","","","",""
"555","","j","psychophysics","55","233814","0.0-7.0-1.0-1.0-0.0-0.23","3","3","4","3","4","3","3","3","4","4","4","5","4","3","3","4","4","3","4","4","1","2","2","2","2","2","2","2","1","1","0","0","1","0","0","0","1","0","1","1","0","1","0","0","4","2","2","1","2","5","3","4","3","2","1","803360750616846338","姜","201","","","","match","","","","","","","","","","","","","","key","j","16.685152173912883","640","356","j","true","match","img/pentagon.png","五边","五边","ALT1_2","prac_ALT1_2","","","","","","","","","","","",""
"null","<span style='color:GreenYellow; font-size: 70px;'>正确! </span>","null","html-keyboard-response","56","234317","0.0-7.0-1.0-1.0-0.0-1.23","3","3","4","3","4","3","3","3","4","4","4","5","4","3","3","4","4","3","4","4","1","2","2","2","2","2","2","2","1","1","0","0","1","0","0","0","1","0","1","1","0","1","0","0","4","2","2","1","2","5","3","4","3","2","1","803360750616846338","姜","201","","","","","","","","","","","","","","","","","","","","","","","","","","","","","","feedback_test","","","","","","","","","","","",""
"542","","j","psychophysics","57","235862","0.0-7.0-1.0-1.0-0.0-0.24","3","3","4","3","4","3","3","3","4","4","4","5","4","3","3","4","4","3","4","4","1","2","2","2","2","2","2","2","1","1","0","0","1","0","0","0","1","0","1","1","0","1","0","0","4","2","2","1","2","5","3","4","3","2","1","803360750616846338","姜","201","","","","match","","","","","","","","","","","","","","key","j","16.68534065934076","640","356","j","true","match","img/square.png","方形","方形","ALT1_2","prac_ALT1_2","","","","","","","","","","","",""
"null","<span style='color:GreenYellow; font-size: 70px;'>正确! </span>","null","html-keyboard-response","58","236367","0.0-7.0-1.0-1.0-0.0-1.24","3","3","4","3","4","3","3","3","4","4","4","5","4","3","3","4","4","3","4","4","1","2","2","2","2","2","2","2","1","1","0","0","1","0","0","0","1","0","1","1","0","1","0","0","4","2","2","1","2","5","3","4","3","2","1","803360750616846338","姜","201","","","","","","","","","","","","","","","","","","","","","","","","","","","","","","feedback_test","","","","","","","","","","","",""
"515","","j","psychophysics","59","237885","0.0-7.0-1.0-1.0-0.0-0.25","3","3","4","3","4","3","3","3","4","4","4","5","4","3","3","4","4","3","4","4","1","2","2","2","2","2","2","2","1","1","0","0","1","0","0","0","1","0","1","1","0","1","0","0","4","2","2","1","2","5","3","4","3","2","1","803360750616846338","姜","201","","","","match","","","","","","","","","","","","","","key","j","16.685179775280897","640","356","j","true","match","img/trapezoid.png","梯形","梯形","ALT1_2","prac_ALT1_2","","","","","","","","","","","",""
"null","<span style='color:GreenYellow; font-size: 70px;'>正确! </span>","null","html-keyboard-response","60","238388","0.0-7.0-1.0-1.0-0.0-1.25","3","3","4","3","4","3","3","3","4","4","4","5","4","3","3","4","4","3","4","4","1","2","2","2","2","2","2","2","1","1","0","0","1","0","0","0","1","0","1","1","0","1","0","0","4","2","2","1","2","5","3","4","3","2","1","803360750616846338","姜","201","","","","","","","","","","","","","","","","","","","","","","","","","","","","","","feedback_test","","","","","","","","","","","",""
"646","","f","psychophysics","61","240036","0.0-7.0-1.0-1.0-0.0-0.26","3","3","4","3","4","3","3","3","4","4","4","5","4","3","3","4","4","3","4","4","1","2","2","2","2","2","2","2","1","1","0","0","1","0","0","0","1","0","1","1","0","1","0","0","4","2","2","1","2","5","3","4","3","2","1","803360750616846338","姜","201","","","","nonmatch","","","","","","","","","","","","","","key","f","16.85730927835036","640","356","f","true","nonmatch","img/square.png","梯形","方形","ALT1_2","prac_ALT1_2","","","","","","","","","","","",""
"null","<span style='color:GreenYellow; font-size: 70px;'>正确! </span>","null","html-keyboard-response","62","240539","0.0-7.0-1.0-1.0-0.0-1.26","3","3","4","3","4","3","3","3","4","4","4","5","4","3","3","4","4","3","4","4","1","2","2","2","2","2","2","2","1","1","0","0","1","0","0","0","1","0","1","1","0","1","0","0","4","2","2","1","2","5","3","4","3","2","1","803360750616846338","姜","201","","","","","","","","","","","","","","","","","","","","","","","","","","","","","","feedback_test","","","","","","","","","","","",""
"496","","j","psychophysics","63","242037","0.0-7.0-1.0-1.0-0.0-0.27","3","3","4","3","4","3","3","3","4","4","4","5","4","3","3","4","4","3","4","4","1","2","2","2","2","2","2","2","1","1","0","0","1","0","0","0","1","0","1","1","0","1","0","0","4","2","2","1","2","5","3","4","3","2","1","803360750616846338","姜","201","","","","match","","","","","","","","","","","","","","key","j","16.68521348314603","640","356","j","true","match","img/square.png","方形","方形","ALT1_2","prac_ALT1_2","","","","","","","","","","","",""
"null","<span style='color:GreenYellow; font-size: 70px;'>正确! </span>","null","html-keyboard-response","64","242539","0.0-7.0-1.0-1.0-0.0-1.27","3","3","4","3","4","3","3","3","4","4","4","5","4","3","3","4","4","3","4","4","1","2","2","2","2","2","2","2","1","1","0","0","1","0","0","0","1","0","1","1","0","1","0","0","4","2","2","1","2","5","3","4","3","2","1","803360750616846338","姜","201","","","","","","","","","","","","","","","","","","","","","","","","","","","","","","feedback_test","","","","","","","","","","","",""
"572","","f","psychophysics","65","244123","0.0-7.0-1.0-1.0-0.0-0.28","3","3","4","3","4","3","3","3","4","4","4","5","4","3","3","4","4","3","4","4","1","2","2","2","2","2","2","2","1","1","0","0","1","0","0","0","1","0","1","1","0","1","0","0","4","2","2","1","2","5","3","4","3","2","1","803360750616846338","姜","201","","","","nonmatch","","","","","","","","","","","","","","key","f","16.685159574468074","640","356","f","true","nonmatch","img/square.png","五边","方形","ALT1_2","prac_ALT1_2","","","","","","","","","","","",""
"null","<span style='color:GreenYellow; font-size: 70px;'>正确! </span>","null","html-keyboard-response","66","244625","0.0-7.0-1.0-1.0-0.0-1.28","3","3","4","3","4","3","3","3","4","4","4","5","4","3","3","4","4","3","4","4","1","2","2","2","2","2","2","2","1","1","0","0","1","0","0","0","1","0","1","1","0","1","0","0","4","2","2","1","2","5","3","4","3","2","1","803360750616846338","姜","201","","","","","","","","","","","","","","","","","","","","","","","","","","","","","","feedback_test","","","","","","","","","","","",""
"645","","f","psychophysics","67","246274","0.0-7.0-1.0-1.0-0.0-0.29","3","3","4","3","4","3","3","3","4","4","4","5","4","3","3","4","4","3","4","4","1","2","2","2","2","2","2","2","1","1","0","0","1","0","0","0","1","0","1","1","0","1","0","0","4","2","2","1","2","5","3","4","3","2","1","803360750616846338","姜","201","","","","nonmatch","","","","","","","","","","","","","","key","f","16.685306122449017","640","356","f","true","nonmatch","img/trapezoid.png","五边","梯形","ALT1_2","prac_ALT1_2","","","","","","","","","","","",""
"null","<span style='color:GreenYellow; font-size: 70px;'>正确! </span>","null","html-keyboard-response","68","246777","0.0-7.0-1.0-1.0-0.0-1.29","3","3","4","3","4","3","3","3","4","4","4","5","4","3","3","4","4","3","4","4","1","2","2","2","2","2","2","2","1","1","0","0","1","0","0","0","1","0","1","1","0","1","0","0","4","2","2","1","2","5","3","4","3","2","1","803360750616846338","姜","201","","","","","","","","","","","","","","","","","","","","","","","","","","","","","","feedback_test","","","","","","","","","","","",""
"573","","j","psychophysics","69","248352","0.0-7.0-1.0-1.0-0.0-0.30","3","3","4","3","4","3","3","3","4","4","4","5","4","3","3","4","4","3","4","4","1","2","2","2","2","2","2","2","1","1","0","0","1","0","0","0","1","0","1","1","0","1","0","0","4","2","2","1","2","5","3","4","3","2","1","803360750616846338","姜","201","","","","match","","","","","","","","","","","","","","key","j","16.68532608695671","640","356","j","true","match","img/trapezoid.png","梯形","梯形","ALT1_2","prac_ALT1_2","","","","","","","","","","","",""
"null","<span style='color:GreenYellow; font-size: 70px;'>正确! </span>","null","html-keyboard-response","70","248857","0.0-7.0-1.0-1.0-0.0-1.30","3","3","4","3","4","3","3","3","4","4","4","5","4","3","3","4","4","3","4","4","1","2","2","2","2","2","2","2","1","1","0","0","1","0","0","0","1","0","1","1","0","1","0","0","4","2","2","1","2","5","3","4","3","2","1","803360750616846338","姜","201","","","","","","","","","","","","","","","","","","","","","","","","","","","","","","feedback_test","","","","","","","","","","","",""
"572","","f","psychophysics","71","250432","0.0-7.0-1.0-1.0-0.0-0.31","3","3","4","3","4","3","3","3","4","4","4","5","4","3","3","4","4","3","4","4","1","2","2","2","2","2","2","2","1","1","0","0","1","0","0","0","1","0","1","1","0","1","0","0","4","2","2","1","2","5","3","4","3","2","1","803360750616846338","姜","201","","","","nonmatch","","","","","","","","","","","","","","key","f","16.686698924731314","640","356","f","true","nonmatch","img/square.png","椭圆","方形","ALT1_2","prac_ALT1_2","","","","","","","","","","","",""
"null","<span style='color:GreenYellow; font-size: 70px;'>正确! </span>","null","html-keyboard-response","72","250934","0.0-7.0-1.0-1.0-0.0-1.31","3","3","4","3","4","3","3","3","4","4","4","5","4","3","3","4","4","3","4","4","1","2","2","2","2","2","2","2","1","1","0","0","1","0","0","0","1","0","1","1","0","1","0","0","4","2","2","1","2","5","3","4","3","2","1","803360750616846338","姜","201","","","","","","","","","","","","","","","","","","","","","","","","","","","","","","feedback_test","","","","","","","","","","","",""
"560","","j","psychophysics","73","252497","0.0-7.0-1.0-1.0-0.0-0.32","3","3","4","3","4","3","3","3","4","4","4","5","4","3","3","4","4","3","4","4","1","2","2","2","2","2","2","2","1","1","0","0","1","0","0","0","1","0","1","1","0","1","0","0","4","2","2","1","2","5","3","4","3","2","1","803360750616846338","姜","201","","","","match","","","","","","","","","","","","","","key","j","16.685152173912883","640","356","j","true","match","img/ellipse.png","椭圆","椭圆","ALT1_2","prac_ALT1_2","","","","","","","","","","","",""
"null","<span style='color:GreenYellow; font-size: 70px;'>正确! </span>","null","html-keyboard-response","74","253000","0.0-7.0-1.0-1.0-0.0-1.32","3","3","4","3","4","3","3","3","4","4","4","5","4","3","3","4","4","3","4","4","1","2","2","2","2","2","2","2","1","1","0","0","1","0","0","0","1","0","1","1","0","1","0","0","4","2","2","1","2","5","3","4","3","2","1","803360750616846338","姜","201","","","","","","","","","","","","","","","","","","","","","","","","","","","","","","feedback_test","","","","","","","","","","","",""
"461","","f","psychophysics","75","254468","0.0-7.0-1.0-1.0-0.0-0.33","3","3","4","3","4","3","3","3","4","4","4","5","4","3","3","4","4","3","4","4","1","2","2","2","2","2","2","2","1","1","0","0","1","0","0","0","1","0","1","1","0","1","0","0","4","2","2","1","2","5","3","4","3","2","1","803360750616846338","姜","201","","","","nonmatch","","","","","","","","","","","","","","key","f","16.6850114942531","640","356","f","true","nonmatch","img/ellipse.png","梯形","椭圆","ALT1_2","prac_ALT1_2","","","","","","","","","","","",""
"null","<span style='color:GreenYellow; font-size: 70px;'>正确! </span>","null","html-keyboard-response","76","254971","0.0-7.0-1.0-1.0-0.0-1.33","3","3","4","3","4","3","3","3","4","4","4","5","4","3","3","4","4","3","4","4","1","2","2","2","2","2","2","2","1","1","0","0","1","0","0","0","1","0","1","1","0","1","0","0","4","2","2","1","2","5","3","4","3","2","1","803360750616846338","姜","201","","","","","","","","","","","","","","","","","","","","","","","","","","","","","","feedback_test","","","","","","","","","","","",""
"632","","j","psychophysics","77","256606","0.0-7.0-1.0-1.0-0.0-0.34","3","3","4","3","4","3","3","3","4","4","4","5","4","3","3","4","4","3","4","4","1","2","2","2","2","2","2","2","1","1","0","0","1","0","0","0","1","0","1","1","0","1","0","0","4","2","2","1","2","5","3","4","3","2","1","803360750616846338","姜","201","","","","match","","","","","","","","","","","","","","key","j","16.68518749999991","640","356","j","true","match","img/ellipse.png","椭圆","椭圆","ALT1_2","prac_ALT1_2","","","","","","","","","","","",""
"null","<span style='color:GreenYellow; font-size: 70px;'>正确! </span>","null","html-keyboard-response","78","257109","0.0-7.0-1.0-1.0-0.0-1.34","3","3","4","3","4","3","3","3","4","4","4","5","4","3","3","4","4","3","4","4","1","2","2","2","2","2","2","2","1","1","0","0","1","0","0","0","1","0","1","1","0","1","0","0","4","2","2","1","2","5","3","4","3","2","1","803360750616846338","姜","201","","","","","","","","","","","","","","","","","","","","","","","","","","","","","","feedback_test","","","","","","","","","","","",""
"531","","f","psychophysics","79","258643","0.0-7.0-1.0-1.0-0.0-0.35","3","3","4","3","4","3","3","3","4","4","4","5","4","3","3","4","4","3","4","4","1","2","2","2","2","2","2","2","1","1","0","0","1","0","0","0","1","0","1","1","0","1","0","0","4","2","2","1","2","5","3","4","3","2","1","803360750616846338","姜","201","","","","nonmatch","","","","","","","","","","","","","","key","f","16.870833333333334","640","356","f","true","nonmatch","img/trapezoid.png","椭圆","梯形","ALT1_2","prac_ALT1_2","","","","","","","","","","","",""
"null","<span style='color:GreenYellow; font-size: 70px;'>正确! </span>","null","html-keyboard-response","80","259146","0.0-7.0-1.0-1.0-0.0-1.35","3","3","4","3","4","3","3","3","4","4","4","5","4","3","3","4","4","3","4","4","1","2","2","2","2","2","2","2","1","1","0","0","1","0","0","0","1","0","1","1","0","1","0","0","4","2","2","1","2","5","3","4","3","2","1","803360750616846338","姜","201","","","","","","","","","","","","","","","","","","","","","","","","","","","","","","feedback_test","","","","","","","","","","","",""
"564","","j","psychophysics","81","260723","0.0-7.0-1.0-1.0-0.0-0.36","3","3","4","3","4","3","3","3","4","4","4","5","4","3","3","4","4","3","4","4","1","2","2","2","2","2","2","2","1","1","0","0","1","0","0","0","1","0","1","1","0","1","0","0","4","2","2","1","2","5","3","4","3","2","1","803360750616846338","姜","201","","","","match","","","","","","","","","","","","","","key","j","16.69747311827947","640","356","j","true","match","img/trapezoid.png","梯形","梯形","ALT1_2","prac_ALT1_2","","","","","","","","","","","",""
"null","<span style='color:GreenYellow; font-size: 70px;'>正确! </span>","null","html-keyboard-response","82","261228","0.0-7.0-1.0-1.0-0.0-1.36","3","3","4","3","4","3","3","3","4","4","4","5","4","3","3","4","4","3","4","4","1","2","2","2","2","2","2","2","1","1","0","0","1","0","0","0","1","0","1","1","0","1","0","0","4","2","2","1","2","5","3","4","3","2","1","803360750616846338","姜","201","","","","","","","","","","","","","","","","","","","","","","","","","","","","","","feedback_test","","","","","","","","","","","",""
"527","","j","psychophysics","83","262758","0.0-7.0-1.0-1.0-0.0-0.37","3","3","4","3","4","3","3","3","4","4","4","5","4","3","3","4","4","3","4","4","1","2","2","2","2","2","2","2","1","1","0","0","1","0","0","0","1","0","1","1","0","1","0","0","4","2","2","1","2","5","3","4","3","2","1","803360750616846338","姜","201","","","","match","","","","","","","","","","","","","","key","j","16.685461538461944","640","356","j","true","match","img/ellipse.png","椭圆","椭圆","ALT1_2","prac_ALT1_2","","","","","","","","","","","",""
"null","<span style='color:GreenYellow; font-size: 70px;'>正确! </span>","null","html-keyboard-response","84","263267","0.0-7.0-1.0-1.0-0.0-1.37","3","3","4","3","4","3","3","3","4","4","4","5","4","3","3","4","4","3","4","4","1","2","2","2","2","2","2","2","1","1","0","0","1","0","0","0","1","0","1","1","0","1","0","0","4","2","2","1","2","5","3","4","3","2","1","803360750616846338","姜","201","","","","","","","","","","","","","","","","","","","","","","","","","","","","","","feedback_test","","","","","","","","","","","",""
"547","","f","psychophysics","85","264818","0.0-7.0-1.0-1.0-0.0-0.38","3","3","4","3","4","3","3","3","4","4","4","5","4","3","3","4","4","3","4","4","1","2","2","2","2","2","2","2","1","1","0","0","1","0","0","0","1","0","1","1","0","1","0","0","4","2","2","1","2","5","3","4","3","2","1","803360750616846338","姜","201","","","","nonmatch","","","","","","","","","","","","","","key","f","16.68536263736282","640","356","f","true","nonmatch","img/ellipse.png","五边","椭圆","ALT1_2","prac_ALT1_2","","","","","","","","","","","",""
"null","<span style='color:GreenYellow; font-size: 70px;'>正确! </span>","null","html-keyboard-response","86","265322","0.0-7.0-1.0-1.0-0.0-1.38","3","3","4","3","4","3","3","3","4","4","4","5","4","3","3","4","4","3","4","4","1","2","2","2","2","2","2","2","1","1","0","0","1","0","0","0","1","0","1","1","0","1","0","0","4","2","2","1","2","5","3","4","3","2","1","803360750616846338","姜","201","","","","","","","","","","","","","","","","","","","","","","","","","","","","","","feedback_test","","","","","","","","","","","",""
"556","","j","psychophysics","87","266881","0.0-7.0-1.0-1.0-0.0-0.39","3","3","4","3","4","3","3","3","4","4","4","5","4","3","3","4","4","3","4","4","1","2","2","2","2","2","2","2","1","1","0","0","1","0","0","0","1","0","1","1","0","1","0","0","4","2","2","1","2","5","3","4","3","2","1","803360750616846338","姜","201","","","","match","","","","","","","","","","","","","","key","j","16.68535164835131","640","356","j","true","match","img/pentagon.png","五边","五边","ALT1_2","prac_ALT1_2","","","","","","","","","","","",""
"null","<span style='color:GreenYellow; font-size: 70px;'>正确! </span>","null","html-keyboard-response","88","267384","0.0-7.0-1.0-1.0-0.0-1.39","3","3","4","3","4","3","3","3","4","4","4","5","4","3","3","4","4","3","4","4","1","2","2","2","2","2","2","2","1","1","0","0","1","0","0","0","1","0","1","1","0","1","0","0","4","2","2","1","2","5","3","4","3","2","1","803360750616846338","姜","201","","","","","","","","","","","","","","","","","","","","","","","","","","","","","","feedback_test","","","","","","","","","","","",""
"503","","f","psychophysics","89","268890","0.0-7.0-1.0-1.0-0.0-0.40","3","3","4","3","4","3","3","3","4","4","4","5","4","3","3","4","4","3","4","4","1","2","2","2","2","2","2","2","1","1","0","0","1","0","0","0","1","0","1","1","0","1","0","0","4","2","2","1","2","5","3","4","3","2","1","803360750616846338","姜","201","","","","nonmatch","","","","","","","","","","","","","","key","f","16.6853181818184","640","356","f","true","nonmatch","img/pentagon.png","椭圆","五边","ALT1_2","prac_ALT1_2","","","","","","","","","","","",""
"null","<span style='color:GreenYellow; font-size: 70px;'>正确! </span>","null","html-keyboard-response","90","269394","0.0-7.0-1.0-1.0-0.0-1.40","3","3","4","3","4","3","3","3","4","4","4","5","4","3","3","4","4","3","4","4","1","2","2","2","2","2","2","2","1","1","0","0","1","0","0","0","1","0","1","1","0","1","0","0","4","2","2","1","2","5","3","4","3","2","1","803360750616846338","姜","201","","","","","","","","","","","","","","","","","","","","","","","","","","","","","","feedback_test","","","","","","","","","","","",""
"551","","j","psychophysics","91","270951","0.0-7.0-1.0-1.0-0.0-0.41","3","3","4","3","4","3","3","3","4","4","4","5","4","3","3","4","4","3","4","4","1","2","2","2","2","2","2","2","1","1","0","0","1","0","0","0","1","0","1","1","0","1","0","0","4","2","2","1","2","5","3","4","3","2","1","803360750616846338","姜","201","","","","match","","","","","","","","","","","","","","key","j","16.685428571428687","640","356","f","false","nonmatch","img/trapezoid.png","方形","梯形","ALT1_2","prac_ALT1_2","","","","","","","","","","","",""
"null","<span style='color:red; font-size: 70px;'>错误! </span>","null","html-keyboard-response","92","271453","0.0-7.0-1.0-1.0-0.0-1.41","3","3","4","3","4","3","3","3","4","4","4","5","4","3","3","4","4","3","4","4","1","2","2","2","2","2","2","2","1","1","0","0","1","0","0","0","1","0","1","1","0","1","0","0","4","2","2","1","2","5","3","4","3","2","1","803360750616846338","姜","201","","","","","","","","","","","","","","","","","","","","","","","","","","","","","","feedback_test","","","","","","","","","","","",""
"553","","j","psychophysics","93","273010","0.0-7.0-1.0-1.0-0.0-0.42","3","3","4","3","4","3","3","3","4","4","4","5","4","3","3","4","4","3","4","4","1","2","2","2","2","2","2","2","1","1","0","0","1","0","0","0","1","0","1","1","0","1","0","0","4","2","2","1","2","5","3","4","3","2","1","803360750616846338","姜","201","","","","match","","","","","","","","","","","","","","key","j","16.685439560439562","640","356","j","true","match","img/pentagon.png","五边","五边","ALT1_2","prac_ALT1_2","","","","","","","","","","","",""
"null","<span style='color:GreenYellow; font-size: 70px;'>正确! </span>","null","html-keyboard-response","94","273511","0.0-7.0-1.0-1.0-0.0-1.42","3","3","4","3","4","3","3","3","4","4","4","5","4","3","3","4","4","3","4","4","1","2","2","2","2","2","2","2","1","1","0","0","1","0","0","0","1","0","1","1","0","1","0","0","4","2","2","1","2","5","3","4","3","2","1","803360750616846338","姜","201","","","","","","","","","","","","","","","","","","","","","","","","","","","","","","feedback_test","","","","","","","","","","","",""
"596","","f","psychophysics","95","275110","0.0-7.0-1.0-1.0-0.0-0.43","3","3","4","3","4","3","3","3","4","4","4","5","4","3","3","4","4","3","4","4","1","2","2","2","2","2","2","2","1","1","0","0","1","0","0","0","1","0","1","1","0","1","0","0","4","2","2","1","2","5","3","4","3","2","1","803360750616846338","姜","201","","","","nonmatch","","","","","","","","","","","","","","key","f","16.862723404255526","640","356","f","true","nonmatch","img/ellipse.png","方形","椭圆","ALT1_2","prac_ALT1_2","","","","","","","","","","","",""
"null","<span style='color:GreenYellow; font-size: 70px;'>正确! </span>","null","html-keyboard-response","96","275612","0.0-7.0-1.0-1.0-0.0-1.43","3","3","4","3","4","3","3","3","4","4","4","5","4","3","3","4","4","3","4","4","1","2","2","2","2","2","2","2","1","1","0","0","1","0","0","0","1","0","1","1","0","1","0","0","4","2","2","1","2","5","3","4","3","2","1","803360750616846338","姜","201","","","","","","","","","","","","","","","","","","","","","","","","","","","","","","feedback_test","","","","","","","","","","","",""
"509","","j","psychophysics","97","277125","0.0-7.0-1.0-1.0-0.0-0.44","3","3","4","3","4","3","3","3","4","4","4","5","4","3","3","4","4","3","4","4","1","2","2","2","2","2","2","2","1","1","0","0","1","0","0","0","1","0","1","1","0","1","0","0","4","2","2","1","2","5","3","4","3","2","1","803360750616846338","姜","201","","","","match","","","","","","","","","","","","","","key","j","16.685494382022696","640","356","j","true","match","img/square.png","方形","方形","ALT1_2","prac_ALT1_2","","","","","","","","","","","",""
"null","<span style='color:GreenYellow; font-size: 70px;'>正确! </span>","null","html-keyboard-response","98","277628","0.0-7.0-1.0-1.0-0.0-1.44","3","3","4","3","4","3","3","3","4","4","4","5","4","3","3","4","4","3","4","4","1","2","2","2","2","2","2","2","1","1","0","0","1","0","0","0","1","0","1","1","0","1","0","0","4","2","2","1","2","5","3","4","3","2","1","803360750616846338","姜","201","","","","","","","","","","","","","","","","","","","","","","","","","","","","","","feedback_test","","","","","","","","","","","",""
"635","","f","psychophysics","99","279265","0.0-7.0-1.0-1.0-0.0-0.45","3","3","4","3","4","3","3","3","4","4","4","5","4","3","3","4","4","3","4","4","1","2","2","2","2","2","2","2","1","1","0","0","1","0","0","0","1","0","1","1","0","1","0","0","4","2","2","1","2","5","3","4","3","2","1","803360750616846338","姜","201","","","","nonmatch","","","","","","","","","","","","","","key","f","16.685278350515556","640","356","f","true","nonmatch","img/pentagon.png","方形","五边","ALT1_2","prac_ALT1_2","","","","","","","","","","","",""
"null","<span style='color:GreenYellow; font-size: 70px;'>正确! </span>","null","html-keyboard-response","100","279766","0.0-7.0-1.0-1.0-0.0-1.45","3","3","4","3","4","3","3","3","4","4","4","5","4","3","3","4","4","3","4","4","1","2","2","2","2","2","2","2","1","1","0","0","1","0","0","0","1","0","1","1","0","1","0","0","4","2","2","1","2","5","3","4","3","2","1","803360750616846338","姜","201","","","","","","","","","","","","","","","","","","","","","","","","","","","","","","feedback_test","","","","","","","","","","","",""
"617","","j","psychophysics","101","281386","0.0-7.0-1.0-1.0-0.0-0.46","3","3","4","3","4","3","3","3","4","4","4","5","4","3","3","4","4","3","4","4","1","2","2","2","2","2","2","2","1","1","0","0","1","0","0","0","1","0","1","1","0","1","0","0","4","2","2","1","2","5","3","4","3","2","1","803360750616846338","姜","201","","","","match","","","","","","","","","","","","","","key","j","16.685336842105453","640","356","j","true","match","img/pentagon.png","五边","五边","ALT1_2","prac_ALT1_2","","","","","","","","","","","",""
"null","<span style='color:GreenYellow; font-size: 70px;'>正确! </span>","null","html-keyboard-response","102","281888","0.0-7.0-1.0-1.0-0.0-1.46","3","3","4","3","4","3","3","3","4","4","4","5","4","3","3","4","4","3","4","4","1","2","2","2","2","2","2","2","1","1","0","0","1","0","0","0","1","0","1","1","0","1","0","0","4","2","2","1","2","5","3","4","3","2","1","803360750616846338","姜","201","","","","","","","","","","","","","","","","","","","","","","","","","","","","","","feedback_test","","","","","","","","","","","",""
"607","","f","psychophysics","103","283500","0.0-7.0-1.0-1.0-0.0-0.47","3","3","4","3","4","3","3","3","4","4","4","5","4","3","3","4","4","3","4","4","1","2","2","2","2","2","2","2","1","1","0","0","1","0","0","0","1","0","1","1","0","1","0","0","4","2","2","1","2","5","3","4","3","2","1","803360750616846338","姜","201","","","","nonmatch","","","","","","","","","","","","","","key","f","16.685210526315494","640","356","f","true","nonmatch","img/pentagon.png","梯形","五边","ALT1_2","prac_ALT1_2","","","","","","","","","","","",""
"null","<span style='color:GreenYellow; font-size: 70px;'>正确! </span>","null","html-keyboard-response","104","284001","0.0-7.0-1.0-1.0-0.0-1.47","3","3","4","3","4","3","3","3","4","4","4","5","4","3","3","4","4","3","4","4","1","2","2","2","2","2","2","2","1","1","0","0","1","0","0","0","1","0","1","1","0","1","0","0","4","2","2","1","2","5","3","4","3","2","1","803360750616846338","姜","201","","","","","","","","","","","","","","","","","","","","","","","","","","","","","","feedback_test","","","","","","","","","","","",""
"6378","<style>.context{color:white; font-size: 35px; line-height:40px}</style>                          <div><p class='context'>您正确回答了92% 的试次。</p><p class='context'>您的平均反应时为565毫秒。</p><p class='context'>恭喜您完成练习。按空格键进入正式实验。</p><p class='footer' style='font-size: 35px; line-height:40px;'>请在进入正式实验实验之前将您的<span style='color: lightgreen;'>食指</span>放在电脑键盘的相应键位上进行按键。</p>"," ","html-keyboard-response","105","290384","0.0-7.0-1.0-2.0","3","3","4","3","4","3","3","3","4","4","4","5","4","3","3","4","4","3","4","4","1","2","2","2","2","2","2","2","1","1","0","0","1","0","0","0","1","0","1","1","0","1","0","0","4","2","2","1","2","5","3","4","3","2","1","803360750616846338","姜","201","","","","","","","","","","","","","","","","","","","","","","","","","","","","","","","","","","","","","","","","","",""
"2123","
  <p style='color: white; font-size: 22px'>请您将手指放在按键上，准备进入正式的匹配任务。</p>
  <p> <div style = ""color: green""><按空格键进入下一阶段的匹配任务></div></p>
  "," ","html-keyboard-response","106","292519","0.0-7.0-1.0-3.0","3","3","4","3","4","3","3","3","4","4","4","5","4","3","3","4","4","3","4","4","1","2","2","2","2","2","2","2","1","1","0","0","1","0","0","0","1","0","1","1","0","1","0","0","4","2","2","1","2","5","3","4","3","2","1","803360750616846338","姜","201","","","","","","","","","","","","","","","","","","","","","","","","","","","","","","","","","","","","","","","","","",""
"518","","f","psychophysics","107","294040","0.0-7.0-1.0-4.0-0.0-0.0","3","3","4","3","4","3","3","3","4","4","4","5","4","3","3","4","4","3","4","4","1","2","2","2","2","2","2","2","1","1","0","0","1","0","0","0","1","0","1","1","0","1","0","0","4","2","2","1","2","5","3","4","3","2","1","803360750616846338","姜","201","","","","nonmatch","","","","","","","","","","","","","","key","f","16.685269662921364","640","356","f","true","nonmatch","img/ellipse.png","五边","椭圆","ALT1","formal_ALT1_2","","","","","","","","","","","",""
"null","<span style='color:GreenYellow; font-size: 70px;'>正确! </span>","null","html-keyboard-response","108","294545","0.0-7.0-1.0-4.0-0.0-1.0","3","3","4","3","4","3","3","3","4","4","4","5","4","3","3","4","4","3","4","4","1","2","2","2","2","2","2","2","1","1","0","0","1","0","0","0","1","0","1","1","0","1","0","0","4","2","2","1","2","5","3","4","3","2","1","803360750616846338","姜","201","","","","","","","","","","","","","","","","","","","","","","","","","","","","","","feedback_test","","","","","","","","","","","",""
"597","","j","psychophysics","109","296146","0.0-7.0-1.0-4.0-0.0-0.1","3","3","4","3","4","3","3","3","4","4","4","5","4","3","3","4","4","3","4","4","1","2","2","2","2","2","2","2","1","1","0","0","1","0","0","0","1","0","1","1","0","1","0","0","4","2","2","1","2","5","3","4","3","2","1","803360750616846338","姜","201","","","","match","","","","","","","","","","","","","","key","j","16.68504210526283","640","356","j","true","match","img/trapezoid.png","梯形","梯形","ALT1","formal_ALT1_2","","","","","","","","","","","",""
"null","<span style='color:GreenYellow; font-size: 70px;'>正确! </span>","null","html-keyboard-response","110","296649","0.0-7.0-1.0-4.0-0.0-1.1","3","3","4","3","4","3","3","3","4","4","4","5","4","3","3","4","4","3","4","4","1","2","2","2","2","2","2","2","1","1","0","0","1","0","0","0","1","0","1","1","0","1","0","0","4","2","2","1","2","5","3","4","3","2","1","803360750616846338","姜","201","","","","","","","","","","","","","","","","","","","","","","","","","","","","","","feedback_test","","","","","","","","","","","",""
"501","","f","psychophysics","111","298154","0.0-7.0-1.0-4.0-0.0-0.2","3","3","4","3","4","3","3","3","4","4","4","5","4","3","3","4","4","3","4","4","1","2","2","2","2","2","2","2","1","1","0","0","1","0","0","0","1","0","1","1","0","1","0","0","4","2","2","1","2","5","3","4","3","2","1","803360750616846338","姜","201","","","","nonmatch","","","","","","","","","","","","","","key","f","16.685011363635898","640","356","f","true","nonmatch","img/ellipse.png","方形","椭圆","ALT1","formal_ALT1_2","","","","","","","","","","","",""
"null","<span style='color:GreenYellow; font-size: 70px;'>正确! </span>","null","html-keyboard-response","112","298657","0.0-7.0-1.0-4.0-0.0-1.2","3","3","4","3","4","3","3","3","4","4","4","5","4","3","3","4","4","3","4","4","1","2","2","2","2","2","2","2","1","1","0","0","1","0","0","0","1","0","1","1","0","1","0","0","4","2","2","1","2","5","3","4","3","2","1","803360750616846338","姜","201","","","","","","","","","","","","","","","","","","","","","","","","","","","","","","feedback_test","","","","","","","","","","","",""
"562","","j","psychophysics","113","300222","0.0-7.0-1.0-4.0-0.0-0.3","3","3","4","3","4","3","3","3","4","4","4","5","4","3","3","4","4","3","4","4","1","2","2","2","2","2","2","2","1","1","0","0","1","0","0","0","1","0","1","1","0","1","0","0","4","2","2","1","2","5","3","4","3","2","1","803360750616846338","姜","201","","","","match","","","","","","","","","","","","","","key","j","16.68521739130412","640","356","j","true","match","img/trapezoid.png","梯形","梯形","ALT1","formal_ALT1_2","","","","","","","","","","","",""
"null","<span style='color:GreenYellow; font-size: 70px;'>正确! </span>","null","html-keyboard-response","114","300724","0.0-7.0-1.0-4.0-0.0-1.3","3","3","4","3","4","3","3","3","4","4","4","5","4","3","3","4","4","3","4","4","1","2","2","2","2","2","2","2","1","1","0","0","1","0","0","0","1","0","1","1","0","1","0","0","4","2","2","1","2","5","3","4","3","2","1","803360750616846338","姜","201","","","","","","","","","","","","","","","","","","","","","","","","","","","","","","feedback_test","","","","","","","","","","","",""
"498","","j","psychophysics","115","302225","0.0-7.0-1.0-4.0-0.0-0.4","3","3","4","3","4","3","3","3","4","4","4","5","4","3","3","4","4","3","4","4","1","2","2","2","2","2","2","2","1","1","0","0","1","0","0","0","1","0","1","1","0","1","0","0","4","2","2","1","2","5","3","4","3","2","1","803360750616846338","姜","201","","","","match","","","","","","","","","","","","","","key","j","16.875022727272484","640","356","j","true","match","img/square.png","方形","方形","ALT1","formal_ALT1_2","","","","","","","","","","","",""
"null","<span style='color:GreenYellow; font-size: 70px;'>正确! </span>","null","html-keyboard-response","116","302728","0.0-7.0-1.0-4.0-0.0-1.4","3","3","4","3","4","3","3","3","4","4","4","5","4","3","3","4","4","3","4","4","1","2","2","2","2","2","2","2","1","1","0","0","1","0","0","0","1","0","1","1","0","1","0","0","4","2","2","1","2","5","3","4","3","2","1","803360750616846338","姜","201","","","","","","","","","","","","","","","","","","","","","","","","","","","","","","feedback_test","","","","","","","","","","","",""
"539","","j","psychophysics","117","304272","0.0-7.0-1.0-4.0-0.0-0.5","3","3","4","3","4","3","3","3","4","4","4","5","4","3","3","4","4","3","4","4","1","2","2","2","2","2","2","2","1","1","0","0","1","0","0","0","1","0","1","1","0","1","0","0","4","2","2","1","2","5","3","4","3","2","1","803360750616846338","姜","201","","","","match","","","","","","","","","","","","","","key","j","16.68621978021974","640","356","j","true","match","img/ellipse.png","椭圆","椭圆","ALT1","formal_ALT1_2","","","","","","","","","","","",""
"null","<span style='color:GreenYellow; font-size: 70px;'>正确! </span>","null","html-keyboard-response","118","304774","0.0-7.0-1.0-4.0-0.0-1.5","3","3","4","3","4","3","3","3","4","4","4","5","4","3","3","4","4","3","4","4","1","2","2","2","2","2","2","2","1","1","0","0","1","0","0","0","1","0","1","1","0","1","0","0","4","2","2","1","2","5","3","4","3","2","1","803360750616846338","姜","201","","","","","","","","","","","","","","","","","","","","","","","","","","","","","","feedback_test","","","","","","","","","","","",""
"659","","f","psychophysics","119","306436","0.0-7.0-1.0-4.0-0.0-0.6","3","3","4","3","4","3","3","3","4","4","4","5","4","3","3","4","4","3","4","4","1","2","2","2","2","2","2","2","1","1","0","0","1","0","0","0","1","0","1","1","0","1","0","0","4","2","2","1","2","5","3","4","3","2","1","803360750616846338","姜","201","","","","nonmatch","","","","","","","","","","","","","","key","f","16.857216494845","640","356","f","true","nonmatch","img/trapezoid.png","方形","梯形","ALT1","formal_ALT1_2","","","","","","","","","","","",""
"null","<span style='color:GreenYellow; font-size: 70px;'>正确! </span>","null","html-keyboard-response","120","306943","0.0-7.0-1.0-4.0-0.0-1.6","3","3","4","3","4","3","3","3","4","4","4","5","4","3","3","4","4","3","4","4","1","2","2","2","2","2","2","2","1","1","0","0","1","0","0","0","1","0","1","1","0","1","0","0","4","2","2","1","2","5","3","4","3","2","1","803360750616846338","姜","201","","","","","","","","","","","","","","","","","","","","","","","","","","","","","","feedback_test","","","","","","","","","","","",""
"511","","j","psychophysics","121","308459","0.0-7.0-1.0-4.0-0.0-0.7","3","3","4","3","4","3","3","3","4","4","4","5","4","3","3","4","4","3","4","4","1","2","2","2","2","2","2","2","1","1","0","0","1","0","0","0","1","0","1","1","0","1","0","0","4","2","2","1","2","5","3","4","3","2","1","803360750616846338","姜","201","","","","match","","","","","","","","","","","","","","key","j","16.685266666666656","640","356","j","true","match","img/pentagon.png","五边","五边","ALT1","formal_ALT1_2","","","","","","","","","","","",""
"null","<span style='color:GreenYellow; font-size: 70px;'>正确! </span>","null","html-keyboard-response","122","308961","0.0-7.0-1.0-4.0-0.0-1.7","3","3","4","3","4","3","3","3","4","4","4","5","4","3","3","4","4","3","4","4","1","2","2","2","2","2","2","2","1","1","0","0","1","0","0","0","1","0","1","1","0","1","0","0","4","2","2","1","2","5","3","4","3","2","1","803360750616846338","姜","201","","","","","","","","","","","","","","","","","","","","","","","","","","","","","","feedback_test","","","","","","","","","","","",""
"709","","f","psychophysics","123","310678","0.0-7.0-1.0-4.0-0.0-0.8","3","3","4","3","4","3","3","3","4","4","4","5","4","3","3","4","4","3","4","4","1","2","2","2","2","2","2","2","1","1","0","0","1","0","0","0","1","0","1","1","0","1","0","0","4","2","2","1","2","5","3","4","3","2","1","803360750616846338","姜","201","","","","nonmatch","","","","","","","","","","","","","","key","f","16.68544554455485","640","356","f","true","nonmatch","img/pentagon.png","梯形","五边","ALT1","formal_ALT1_2","","","","","","","","","","","",""
"null","<span style='color:GreenYellow; font-size: 70px;'>正确! </span>","null","html-keyboard-response","124","311182","0.0-7.0-1.0-4.0-0.0-1.8","3","3","4","3","4","3","3","3","4","4","4","5","4","3","3","4","4","3","4","4","1","2","2","2","2","2","2","2","1","1","0","0","1","0","0","0","1","0","1","1","0","1","0","0","4","2","2","1","2","5","3","4","3","2","1","803360750616846338","姜","201","","","","","","","","","","","","","","","","","","","","","","","","","","","","","","feedback_test","","","","","","","","","","","",""
"579","","f","psychophysics","125","312764","0.0-7.0-1.0-4.0-0.0-0.9","3","3","4","3","4","3","3","3","4","4","4","5","4","3","3","4","4","3","4","4","1","2","2","2","2","2","2","2","1","1","0","0","1","0","0","0","1","0","1","1","0","1","0","0","4","2","2","1","2","5","3","4","3","2","1","803360750616846338","姜","201","","","","nonmatch","","","","","","","","","","","","","","key","f","16.864666666666558","640","356","f","true","nonmatch","img/square.png","椭圆","方形","ALT1","formal_ALT1_2","","","","","","","","","","","",""
"null","<span style='color:GreenYellow; font-size: 70px;'>正确! </span>","null","html-keyboard-response","126","313266","0.0-7.0-1.0-4.0-0.0-1.9","3","3","4","3","4","3","3","3","4","4","4","5","4","3","3","4","4","3","4","4","1","2","2","2","2","2","2","2","1","1","0","0","1","0","0","0","1","0","1","1","0","1","0","0","4","2","2","1","2","5","3","4","3","2","1","803360750616846338","姜","201","","","","","","","","","","","","","","","","","","","","","","","","","","","","","","feedback_test","","","","","","","","","","","",""
"503","","j","psychophysics","127","314771","0.0-7.0-1.0-4.0-0.0-0.10","3","3","4","3","4","3","3","3","4","4","4","5","4","3","3","4","4","3","4","4","1","2","2","2","2","2","2","2","1","1","0","0","1","0","0","0","1","0","1","1","0","1","0","0","4","2","2","1","2","5","3","4","3","2","1","803360750616846338","姜","201","","","","match","","","","","","","","","","","","","","key","j","16.685044943820685","640","356","j","true","match","img/ellipse.png","椭圆","椭圆","ALT1","formal_ALT1_2","","","","","","","","","","","",""
"null","<span style='color:GreenYellow; font-size: 70px;'>正确! </span>","null","html-keyboard-response","128","315274","0.0-7.0-1.0-4.0-0.0-1.10","3","3","4","3","4","3","3","3","4","4","4","5","4","3","3","4","4","3","4","4","1","2","2","2","2","2","2","2","1","1","0","0","1","0","0","0","1","0","1","1","0","1","0","0","4","2","2","1","2","5","3","4","3","2","1","803360750616846338","姜","201","","","","","","","","","","","","","","","","","","","","","","","","","","","","","","feedback_test","","","","","","","","","","","",""
"479","","f","psychophysics","129","316757","0.0-7.0-1.0-4.0-0.0-0.11","3","3","4","3","4","3","3","3","4","4","4","5","4","3","3","4","4","3","4","4","1","2","2","2","2","2","2","2","1","1","0","0","1","0","0","0","1","0","1","1","0","1","0","0","4","2","2","1","2","5","3","4","3","2","1","803360750616846338","姜","201","","","","nonmatch","","","","","","","","","","","","","","key","f","16.87708045976991","640","356","f","true","nonmatch","img/ellipse.png","梯形","椭圆","ALT1","formal_ALT1_2","","","","","","","","","","","",""
"null","<span style='color:GreenYellow; font-size: 70px;'>正确! </span>","null","html-keyboard-response","130","317260","0.0-7.0-1.0-4.0-0.0-1.11","3","3","4","3","4","3","3","3","4","4","4","5","4","3","3","4","4","3","4","4","1","2","2","2","2","2","2","2","1","1","0","0","1","0","0","0","1","0","1","1","0","1","0","0","4","2","2","1","2","5","3","4","3","2","1","803360750616846338","姜","201","","","","","","","","","","","","","","","","","","","","","","","","","","","","","","feedback_test","","","","","","","","","","","",""
"539","","j","psychophysics","131","318802","0.0-7.0-1.0-4.0-0.0-0.12","3","3","4","3","4","3","3","3","4","4","4","5","4","3","3","4","4","3","4","4","1","2","2","2","2","2","2","2","1","1","0","0","1","0","0","0","1","0","1","1","0","1","0","0","4","2","2","1","2","5","3","4","3","2","1","803360750616846338","姜","201","","","","match","","","","","","","","","","","","","","key","j","16.687326086956485","640","356","j","true","match","img/ellipse.png","椭圆","椭圆","ALT1","formal_ALT1_2","","","","","","","","","","","",""
"null","<span style='color:GreenYellow; font-size: 70px;'>正确! </span>","null","html-keyboard-response","132","319305","0.0-7.0-1.0-4.0-0.0-1.12","3","3","4","3","4","3","3","3","4","4","4","5","4","3","3","4","4","3","4","4","1","2","2","2","2","2","2","2","1","1","0","0","1","0","0","0","1","0","1","1","0","1","0","0","4","2","2","1","2","5","3","4","3","2","1","803360750616846338","姜","201","","","","","","","","","","","","","","","","","","","","","","","","","","","","","","feedback_test","","","","","","","","","","","",""
"616","","j","psychophysics","133","320925","0.0-7.0-1.0-4.0-0.0-0.13","3","3","4","3","4","3","3","3","4","4","4","5","4","3","3","4","4","3","4","4","1","2","2","2","2","2","2","2","1","1","0","0","1","0","0","0","1","0","1","1","0","1","0","0","4","2","2","1","2","5","3","4","3","2","1","803360750616846338","姜","201","","","","match","","","","","","","","","","","","","","key","j","16.861031578947472","640","356","j","true","match","img/trapezoid.png","梯形","梯形","ALT1","formal_ALT1_2","","","","","","","","","","","",""
"null","<span style='color:GreenYellow; font-size: 70px;'>正确! </span>","null","html-keyboard-response","134","321428","0.0-7.0-1.0-4.0-0.0-1.13","3","3","4","3","4","3","3","3","4","4","4","5","4","3","3","4","4","3","4","4","1","2","2","2","2","2","2","2","1","1","0","0","1","0","0","0","1","0","1","1","0","1","0","0","4","2","2","1","2","5","3","4","3","2","1","803360750616846338","姜","201","","","","","","","","","","","","","","","","","","","","","","","","","","","","","","feedback_test","","","","","","","","","","","",""
"527","","f","psychophysics","135","322959","0.0-7.0-1.0-4.0-0.0-0.14","3","3","4","3","4","3","3","3","4","4","4","5","4","3","3","4","4","3","4","4","1","2","2","2","2","2","2","2","1","1","0","0","1","0","0","0","1","0","1","1","0","1","0","0","4","2","2","1","2","5","3","4","3","2","1","803360750616846338","姜","201","","","","nonmatch","","","","","","","","","","","","","","key","f","16.68522222222204","640","356","f","true","nonmatch","img/pentagon.png","椭圆","五边","ALT1","formal_ALT1_2","","","","","","","","","","","",""
"null","<span style='color:GreenYellow; font-size: 70px;'>正确! </span>","null","html-keyboard-response","136","323460","0.0-7.0-1.0-4.0-0.0-1.14","3","3","4","3","4","3","3","3","4","4","4","5","4","3","3","4","4","3","4","4","1","2","2","2","2","2","2","2","1","1","0","0","1","0","0","0","1","0","1","1","0","1","0","0","4","2","2","1","2","5","3","4","3","2","1","803360750616846338","姜","201","","","","","","","","","","","","","","","","","","","","","","","","","","","","","","feedback_test","","","","","","","","","","","",""
"583","","f","psychophysics","137","325048","0.0-7.0-1.0-4.0-0.0-0.15","3","3","4","3","4","3","3","3","4","4","4","5","4","3","3","4","4","3","4","4","1","2","2","2","2","2","2","2","1","1","0","0","1","0","0","0","1","0","1","1","0","1","0","0","4","2","2","1","2","5","3","4","3","2","1","803360750616846338","姜","201","","","","nonmatch","","","","","","","","","","","","","","key","f","16.685244680851067","640","356","f","true","nonmatch","img/square.png","五边","方形","ALT1","formal_ALT1_2","","","","","","","","","","","",""
"null","<span style='color:GreenYellow; font-size: 70px;'>正确! </span>","null","html-keyboard-response","138","325550","0.0-7.0-1.0-4.0-0.0-1.15","3","3","4","3","4","3","3","3","4","4","4","5","4","3","3","4","4","3","4","4","1","2","2","2","2","2","2","2","1","1","0","0","1","0","0","0","1","0","1","1","0","1","0","0","4","2","2","1","2","5","3","4","3","2","1","803360750616846338","姜","201","","","","","","","","","","","","","","","","","","","","","","","","","","","","","","feedback_test","","","","","","","","","","","",""
"589","","f","psychophysics","139","327143","0.0-7.0-1.0-4.0-0.0-0.16","3","3","4","3","4","3","3","3","4","4","4","5","4","3","3","4","4","3","4","4","1","2","2","2","2","2","2","2","1","1","0","0","1","0","0","0","1","0","1","1","0","1","0","0","4","2","2","1","2","5","3","4","3","2","1","803360750616846338","姜","201","","","","nonmatch","","","","","","","","","","","","","","key","f","16.86470967741941","640","356","f","true","nonmatch","img/pentagon.png","方形","五边","ALT1","formal_ALT1_2","","","","","","","","","","","",""
"null","<span style='color:GreenYellow; font-size: 70px;'>正确! </span>","null","html-keyboard-response","140","327650","0.0-7.0-1.0-4.0-0.0-1.16","3","3","4","3","4","3","3","3","4","4","4","5","4","3","3","4","4","3","4","4","1","2","2","2","2","2","2","2","1","1","0","0","1","0","0","0","1","0","1","1","0","1","0","0","4","2","2","1","2","5","3","4","3","2","1","803360750616846338","姜","201","","","","","","","","","","","","","","","","","","","","","","","","","","","","","","feedback_test","","","","","","","","","","","",""
"523","","j","psychophysics","141","329178","0.0-7.0-1.0-4.0-0.0-0.17","3","3","4","3","4","3","3","3","4","4","4","5","4","3","3","4","4","3","4","4","1","2","2","2","2","2","2","2","1","1","0","0","1","0","0","0","1","0","1","1","0","1","0","0","4","2","2","1","2","5","3","4","3","2","1","803360750616846338","姜","201","","","","match","","","","","","","","","","","","","","key","j","16.685122222222464","640","356","j","true","match","img/square.png","方形","方形","ALT1","formal_ALT1_2","","","","","","","","","","","",""
"null","<span style='color:GreenYellow; font-size: 70px;'>正确! </span>","null","html-keyboard-response","142","329683","0.0-7.0-1.0-4.0-0.0-1.17","3","3","4","3","4","3","3","3","4","4","4","5","4","3","3","4","4","3","4","4","1","2","2","2","2","2","2","2","1","1","0","0","1","0","0","0","1","0","1","1","0","1","0","0","4","2","2","1","2","5","3","4","3","2","1","803360750616846338","姜","201","","","","","","","","","","","","","","","","","","","","","","","","","","","","","","feedback_test","","","","","","","","","","","",""
"500","","f","psychophysics","143","331185","0.0-7.0-1.0-4.0-0.0-0.18","3","3","4","3","4","3","3","3","4","4","4","5","4","3","3","4","4","3","4","4","1","2","2","2","2","2","2","2","1","1","0","0","1","0","0","0","1","0","1","1","0","1","0","0","4","2","2","1","2","5","3","4","3","2","1","803360750616846338","姜","201","","","","nonmatch","","","","","","","","","","","","","","key","f","16.875","640","356","j","false","match","img/pentagon.png","五边","五边","ALT1","formal_ALT1_2","","","","","","","","","","","",""
"null","<span style='color:red; font-size: 70px;'>错误! </span>","null","html-keyboard-response","144","331688","0.0-7.0-1.0-4.0-0.0-1.18","3","3","4","3","4","3","3","3","4","4","4","5","4","3","3","4","4","3","4","4","1","2","2","2","2","2","2","2","1","1","0","0","1","0","0","0","1","0","1","1","0","1","0","0","4","2","2","1","2","5","3","4","3","2","1","803360750616846338","姜","201","","","","","","","","","","","","","","","","","","","","","","","","","","","","","","feedback_test","","","","","","","","","","","",""
"539","","j","psychophysics","145","333229","0.0-7.0-1.0-4.0-0.0-0.19","3","3","4","3","4","3","3","3","4","4","4","5","4","3","3","4","4","3","4","4","1","2","2","2","2","2","2","2","1","1","0","0","1","0","0","0","1","0","1","1","0","1","0","0","4","2","2","1","2","5","3","4","3","2","1","803360750616846338","姜","201","","","","match","","","","","","","","","","","","","","key","j","16.68527777777765","640","356","f","false","nonmatch","img/square.png","梯形","方形","ALT1","formal_ALT1_2","","","","","","","","","","","",""
"null","<span style='color:red; font-size: 70px;'>错误! </span>","null","html-keyboard-response","146","333738","0.0-7.0-1.0-4.0-0.0-1.19","3","3","4","3","4","3","3","3","4","4","4","5","4","3","3","4","4","3","4","4","1","2","2","2","2","2","2","2","1","1","0","0","1","0","0","0","1","0","1","1","0","1","0","0","4","2","2","1","2","5","3","4","3","2","1","803360750616846338","姜","201","","","","","","","","","","","","","","","","","","","","","","","","","","","","","","feedback_test","","","","","","","","","","","",""
"525","","j","psychophysics","147","335272","0.0-7.0-1.0-4.0-0.0-0.20","3","3","4","3","4","3","3","3","4","4","4","5","4","3","3","4","4","3","4","4","1","2","2","2","2","2","2","2","1","1","0","0","1","0","0","0","1","0","1","1","0","1","0","0","4","2","2","1","2","5","3","4","3","2","1","803360750616846338","姜","201","","","","match","","","","","","","","","","","","","","key","j","16.685384615384564","640","356","j","true","match","img/square.png","方形","方形","ALT1","formal_ALT1_2","","","","","","","","","","","",""
"null","<span style='color:GreenYellow; font-size: 70px;'>正确! </span>","null","html-keyboard-response","148","335773","0.0-7.0-1.0-4.0-0.0-1.20","3","3","4","3","4","3","3","3","4","4","4","5","4","3","3","4","4","3","4","4","1","2","2","2","2","2","2","2","1","1","0","0","1","0","0","0","1","0","1","1","0","1","0","0","4","2","2","1","2","5","3","4","3","2","1","803360750616846338","姜","201","","","","","","","","","","","","","","","","","","","","","","","","","","","","","","feedback_test","","","","","","","","","","","",""
"521","","j","psychophysics","149","337296","0.0-7.0-1.0-4.0-0.0-0.21","3","3","4","3","4","3","3","3","4","4","4","5","4","3","3","4","4","3","4","4","1","2","2","2","2","2","2","2","1","1","0","0","1","0","0","0","1","0","1","1","0","1","0","0","4","2","2","1","2","5","3","4","3","2","1","803360750616846338","姜","201","","","","match","","","","","","","","","","","","","","key","j","16.685280898876954","640","356","j","true","match","img/pentagon.png","五边","五边","ALT1","formal_ALT1_2","","","","","","","","","","","",""
"null","<span style='color:GreenYellow; font-size: 70px;'>正确! </span>","null","html-keyboard-response","150","337799","0.0-7.0-1.0-4.0-0.0-1.21","3","3","4","3","4","3","3","3","4","4","4","5","4","3","3","4","4","3","4","4","1","2","2","2","2","2","2","2","1","1","0","0","1","0","0","0","1","0","1","1","0","1","0","0","4","2","2","1","2","5","3","4","3","2","1","803360750616846338","姜","201","","","","","","","","","","","","","","","","","","","","","","","","","","","","","","feedback_test","","","","","","","","","","","",""
"742","","f","psychophysics","151","339543","0.0-7.0-1.0-4.0-0.0-0.22","3","3","4","3","4","3","3","3","4","4","4","5","4","3","3","4","4","3","4","4","1","2","2","2","2","2","2","2","1","1","0","0","1","0","0","0","1","0","1","1","0","1","0","0","4","2","2","1","2","5","3","4","3","2","1","803360750616846338","姜","201","","","","nonmatch","","","","","","","","","","","","","","key","f","16.68803846153829","640","356","f","true","nonmatch","img/trapezoid.png","椭圆","梯形","ALT1","formal_ALT1_2","","","","","","","","","","","",""
"null","<span style='color:GreenYellow; font-size: 70px;'>正确! </span>","null","html-keyboard-response","152","340046","0.0-7.0-1.0-4.0-0.0-1.22","3","3","4","3","4","3","3","3","4","4","4","5","4","3","3","4","4","3","4","4","1","2","2","2","2","2","2","2","1","1","0","0","1","0","0","0","1","0","1","1","0","1","0","0","4","2","2","1","2","5","3","4","3","2","1","803360750616846338","姜","201","","","","","","","","","","","","","","","","","","","","","","","","","","","","","","feedback_test","","","","","","","","","","","",""
"587","","f","psychophysics","153","341637","0.0-7.0-1.0-4.0-0.0-0.23","3","3","4","3","4","3","3","3","4","4","4","5","4","3","3","4","4","3","4","4","1","2","2","2","2","2","2","2","1","1","0","0","1","0","0","0","1","0","1","1","0","1","0","0","4","2","2","1","2","5","3","4","3","2","1","803360750616846338","姜","201","","","","nonmatch","","","","","","","","","","","","","","key","f","16.86458064516085","640","356","f","true","nonmatch","img/trapezoid.png","五边","梯形","ALT1","formal_ALT1_2","","","","","","","","","","","",""
"null","<span style='color:GreenYellow; font-size: 70px;'>正确! </span>","null","html-keyboard-response","154","342151","0.0-7.0-1.0-4.0-0.0-1.23","3","3","4","3","4","3","3","3","4","4","4","5","4","3","3","4","4","3","4","4","1","2","2","2","2","2","2","2","1","1","0","0","1","0","0","0","1","0","1","1","0","1","0","0","4","2","2","1","2","5","3","4","3","2","1","803360750616846338","姜","201","","","","","","","","","","","","","","","","","","","","","","","","","","","","","","feedback_test","","","","","","","","","","","",""
"609","","j","psychophysics","155","343764","0.0-7.0-1.0-4.0-0.0-0.24","3","3","4","3","4","3","3","3","4","4","4","5","4","3","3","4","4","3","4","4","1","2","2","2","2","2","2","2","1","1","0","0","1","0","0","0","1","0","1","1","0","1","0","0","4","2","2","1","2","5","3","4","3","2","1","803360750616846338","姜","201","","","","match","","","","","","","","","","","","","","key","j","16.68527368421078","640","356","j","true","match","img/trapezoid.png","梯形","梯形","ALT1","formal_ALT1_2","","","","","","","","","","","",""
"null","<span style='color:GreenYellow; font-size: 70px;'>正确! </span>","null","html-keyboard-response","156","344266","0.0-7.0-1.0-4.0-0.0-1.24","3","3","4","3","4","3","3","3","4","4","4","5","4","3","3","4","4","3","4","4","1","2","2","2","2","2","2","2","1","1","0","0","1","0","0","0","1","0","1","1","0","1","0","0","4","2","2","1","2","5","3","4","3","2","1","803360750616846338","姜","201","","","","","","","","","","","","","","","","","","","","","","","","","","","","","","feedback_test","","","","","","","","","","","",""
"521","","f","psychophysics","157","345791","0.0-7.0-1.0-4.0-0.0-0.25","3","3","4","3","4","3","3","3","4","4","4","5","4","3","3","4","4","3","4","4","1","2","2","2","2","2","2","2","1","1","0","0","1","0","0","0","1","0","1","1","0","1","0","0","4","2","2","1","2","5","3","4","3","2","1","803360750616846338","姜","201","","","","nonmatch","","","","","","","","","","","","","","key","f","16.687822222222003","640","356","f","true","nonmatch","img/ellipse.png","五边","椭圆","ALT1","formal_ALT1_2","","","","","","","","","","","",""
"null","<span style='color:GreenYellow; font-size: 70px;'>正确! </span>","null","html-keyboard-response","158","346295","0.0-7.0-1.0-4.0-0.0-1.25","3","3","4","3","4","3","3","3","4","4","4","5","4","3","3","4","4","3","4","4","1","2","2","2","2","2","2","2","1","1","0","0","1","0","0","0","1","0","1","1","0","1","0","0","4","2","2","1","2","5","3","4","3","2","1","803360750616846338","姜","201","","","","","","","","","","","","","","","","","","","","","","","","","","","","","","feedback_test","","","","","","","","","","","",""
"520","","j","psychophysics","159","347823","0.0-7.0-1.0-4.0-0.0-0.26","3","3","4","3","4","3","3","3","4","4","4","5","4","3","3","4","4","3","4","4","1","2","2","2","2","2","2","2","1","1","0","0","1","0","0","0","1","0","1","1","0","1","0","0","4","2","2","1","2","5","3","4","3","2","1","803360750616846338","姜","201","","","","match","","","","","","","","","","","","","","key","j","16.685344444444247","640","356","j","true","match","img/square.png","方形","方形","ALT1","formal_ALT1_2","","","","","","","","","","","",""
"null","<span style='color:GreenYellow; font-size: 70px;'>正确! </span>","null","html-keyboard-response","160","348325","0.0-7.0-1.0-4.0-0.0-1.26","3","3","4","3","4","3","3","3","4","4","4","5","4","3","3","4","4","3","4","4","1","2","2","2","2","2","2","2","1","1","0","0","1","0","0","0","1","0","1","1","0","1","0","0","4","2","2","1","2","5","3","4","3","2","1","803360750616846338","姜","201","","","","","","","","","","","","","","","","","","","","","","","","","","","","","","feedback_test","","","","","","","","","","","",""
"593","","f","psychophysics","161","349921","0.0-7.0-1.0-4.0-0.0-0.27","3","3","4","3","4","3","3","3","4","4","4","5","4","3","3","4","4","3","4","4","1","2","2","2","2","2","2","2","1","1","0","0","1","0","0","0","1","0","1","1","0","1","0","0","4","2","2","1","2","5","3","4","3","2","1","803360750616846338","姜","201","","","","nonmatch","","","","","","","","","","","","","","key","f","16.684494736842126","640","356","f","true","nonmatch","img/trapezoid.png","椭圆","梯形","ALT1","formal_ALT1_2","","","","","","","","","","","",""
"null","<span style='color:GreenYellow; font-size: 70px;'>正确! </span>","null","html-keyboard-response","162","350424","0.0-7.0-1.0-4.0-0.0-1.27","3","3","4","3","4","3","3","3","4","4","4","5","4","3","3","4","4","3","4","4","1","2","2","2","2","2","2","2","1","1","0","0","1","0","0","0","1","0","1","1","0","1","0","0","4","2","2","1","2","5","3","4","3","2","1","803360750616846338","姜","201","","","","","","","","","","","","","","","","","","","","","","","","","","","","","","feedback_test","","","","","","","","","","","",""
"787","","f","psychophysics","163","352217","0.0-7.0-1.0-4.0-0.0-0.28","3","3","4","3","4","3","3","3","4","4","4","5","4","3","3","4","4","3","4","4","1","2","2","2","2","2","2","2","1","1","0","0","1","0","0","0","1","0","1","1","0","1","0","0","4","2","2","1","2","5","3","4","3","2","1","803360750616846338","姜","201","","","","nonmatch","","","","","","","","","","","","","","key","f","16.68532380952411","640","356","f","true","nonmatch","img/square.png","梯形","方形","ALT1","formal_ALT1_2","","","","","","","","","","","",""
"null","<span style='color:GreenYellow; font-size: 70px;'>正确! </span>","null","html-keyboard-response","164","352722","0.0-7.0-1.0-4.0-0.0-1.28","3","3","4","3","4","3","3","3","4","4","4","5","4","3","3","4","4","3","4","4","1","2","2","2","2","2","2","2","1","1","0","0","1","0","0","0","1","0","1","1","0","1","0","0","4","2","2","1","2","5","3","4","3","2","1","803360750616846338","姜","201","","","","","","","","","","","","","","","","","","","","","","","","","","","","","","feedback_test","","","","","","","","","","","",""
"623","","f","psychophysics","165","354348","0.0-7.0-1.0-4.0-0.0-0.29","3","3","4","3","4","3","3","3","4","4","4","5","4","3","3","4","4","3","4","4","1","2","2","2","2","2","2","2","1","1","0","0","1","0","0","0","1","0","1","1","0","1","0","0","4","2","2","1","2","5","3","4","3","2","1","803360750616846338","姜","201","","","","nonmatch","","","","","","","","","","","","","","key","f","16.686010416666857","640","356","f","true","nonmatch","img/trapezoid.png","方形","梯形","ALT1","formal_ALT1_2","","","","","","","","","","","",""
"null","<span style='color:GreenYellow; font-size: 70px;'>正确! </span>","null","html-keyboard-response","166","354858","0.0-7.0-1.0-4.0-0.0-1.29","3","3","4","3","4","3","3","3","4","4","4","5","4","3","3","4","4","3","4","4","1","2","2","2","2","2","2","2","1","1","0","0","1","0","0","0","1","0","1","1","0","1","0","0","4","2","2","1","2","5","3","4","3","2","1","803360750616846338","姜","201","","","","","","","","","","","","","","","","","","","","","","","","","","","","","","feedback_test","","","","","","","","","","","",""
"519","","j","psychophysics","167","356379","0.0-7.0-1.0-4.0-0.0-0.30","3","3","4","3","4","3","3","3","4","4","4","5","4","3","3","4","4","3","4","4","1","2","2","2","2","2","2","2","1","1","0","0","1","0","0","0","1","0","1","1","0","1","0","0","4","2","2","1","2","5","3","4","3","2","1","803360750616846338","姜","201","","","","match","","","","","","","","","","","","","","key","j","16.685344444444247","640","356","j","true","match","img/ellipse.png","椭圆","椭圆","ALT1","formal_ALT1_2","","","","","","","","","","","",""
"null","<span style='color:GreenYellow; font-size: 70px;'>正确! </span>","null","html-keyboard-response","168","356882","0.0-7.0-1.0-4.0-0.0-1.30","3","3","4","3","4","3","3","3","4","4","4","5","4","3","3","4","4","3","4","4","1","2","2","2","2","2","2","2","1","1","0","0","1","0","0","0","1","0","1","1","0","1","0","0","4","2","2","1","2","5","3","4","3","2","1","803360750616846338","姜","201","","","","","","","","","","","","","","","","","","","","","","","","","","","","","","feedback_test","","","","","","","","","","","",""
"563","","f","psychophysics","169","358448","0.0-7.0-1.0-4.0-0.0-0.31","3","3","4","3","4","3","3","3","4","4","4","5","4","3","3","4","4","3","4","4","1","2","2","2","2","2","2","2","1","1","0","0","1","0","0","0","1","0","1","1","0","1","0","0","4","2","2","1","2","5","3","4","3","2","1","803360750616846338","姜","201","","","","nonmatch","","","","","","","","","","","","","","key","f","16.86873626373619","640","356","f","true","nonmatch","img/square.png","椭圆","方形","ALT1","formal_ALT1_2","","","","","","","","","","","",""
"null","<span style='color:GreenYellow; font-size: 70px;'>正确! </span>","null","html-keyboard-response","170","358961","0.0-7.0-1.0-4.0-0.0-1.31","3","3","4","3","4","3","3","3","4","4","4","5","4","3","3","4","4","3","4","4","1","2","2","2","2","2","2","2","1","1","0","0","1","0","0","0","1","0","1","1","0","1","0","0","4","2","2","1","2","5","3","4","3","2","1","803360750616846338","姜","201","","","","","","","","","","","","","","","","","","","","","","","","","","","","","","feedback_test","","","","","","","","","","","",""
"679","","f","psychophysics","171","360645","0.0-7.0-1.0-4.0-0.0-0.32","3","3","4","3","4","3","3","3","4","4","4","5","4","3","3","4","4","3","4","4","1","2","2","2","2","2","2","2","1","1","0","0","1","0","0","0","1","0","1","1","0","1","0","0","4","2","2","1","2","5","3","4","3","2","1","803360750616846338","姜","201","","","","nonmatch","","","","","","","","","","","","","","key","f","16.683545454545182","640","356","f","true","nonmatch","img/square.png","五边","方形","ALT1","formal_ALT1_2","","","","","","","","","","","",""
"null","<span style='color:GreenYellow; font-size: 70px;'>正确! </span>","null","html-keyboard-response","172","361154","0.0-7.0-1.0-4.0-0.0-1.32","3","3","4","3","4","3","3","3","4","4","4","5","4","3","3","4","4","3","4","4","1","2","2","2","2","2","2","2","1","1","0","0","1","0","0","0","1","0","1","1","0","1","0","0","4","2","2","1","2","5","3","4","3","2","1","803360750616846338","姜","201","","","","","","","","","","","","","","","","","","","","","","","","","","","","","","feedback_test","","","","","","","","","","","",""
"566","","j","psychophysics","173","362723","0.0-7.0-1.0-4.0-0.0-0.33","3","3","4","3","4","3","3","3","4","4","4","5","4","3","3","4","4","3","4","4","1","2","2","2","2","2","2","2","1","1","0","0","1","0","0","0","1","0","1","1","0","1","0","0","4","2","2","1","2","5","3","4","3","2","1","803360750616846338","姜","201","","","","match","","","","","","","","","","","","","","key","j","16.685326086956394","640","356","j","true","match","img/trapezoid.png","梯形","梯形","ALT1","formal_ALT1_2","","","","","","","","","","","",""
"null","<span style='color:GreenYellow; font-size: 70px;'>正确! </span>","null","html-keyboard-response","174","363226","0.0-7.0-1.0-4.0-0.0-1.33","3","3","4","3","4","3","3","3","4","4","4","5","4","3","3","4","4","3","4","4","1","2","2","2","2","2","2","2","1","1","0","0","1","0","0","0","1","0","1","1","0","1","0","0","4","2","2","1","2","5","3","4","3","2","1","803360750616846338","姜","201","","","","","","","","","","","","","","","","","","","","","","","","","","","","","","feedback_test","","","","","","","","","","","",""
"548","","j","psychophysics","175","364777","0.0-7.0-1.0-4.0-0.0-0.34","3","3","4","3","4","3","3","3","4","4","4","5","4","3","3","4","4","3","4","4","1","2","2","2","2","2","2","2","1","1","0","0","1","0","0","0","1","0","1","1","0","1","0","0","4","2","2","1","2","5","3","4","3","2","1","803360750616846338","姜","201","","","","match","","","","","","","","","","","","","","key","j","16.685166666666433","640","356","j","true","match","img/ellipse.png","椭圆","椭圆","ALT1","formal_ALT1_2","","","","","","","","","","","",""
"null","<span style='color:GreenYellow; font-size: 70px;'>正确! </span>","null","html-keyboard-response","176","365280","0.0-7.0-1.0-4.0-0.0-1.34","3","3","4","3","4","3","3","3","4","4","4","5","4","3","3","4","4","3","4","4","1","2","2","2","2","2","2","2","1","1","0","0","1","0","0","0","1","0","1","1","0","1","0","0","4","2","2","1","2","5","3","4","3","2","1","803360750616846338","姜","201","","","","","","","","","","","","","","","","","","","","","","","","","","","","","","feedback_test","","","","","","","","","","","",""
"573","","j","psychophysics","177","366858","0.0-7.0-1.0-4.0-0.0-0.35","3","3","4","3","4","3","3","3","4","4","4","5","4","3","3","4","4","3","4","4","1","2","2","2","2","2","2","2","1","1","0","0","1","0","0","0","1","0","1","1","0","1","0","0","4","2","2","1","2","5","3","4","3","2","1","803360750616846338","姜","201","","","","match","","","","","","","","","","","","","","key","j","16.56326881720389","640","356","j","true","match","img/pentagon.png","五边","五边","ALT1","formal_ALT1_2","","","","","","","","","","","",""
"null","<span style='color:GreenYellow; font-size: 70px;'>正确! </span>","null","html-keyboard-response","178","367361","0.0-7.0-1.0-4.0-0.0-1.35","3","3","4","3","4","3","3","3","4","4","4","5","4","3","3","4","4","3","4","4","1","2","2","2","2","2","2","2","1","1","0","0","1","0","0","0","1","0","1","1","0","1","0","0","4","2","2","1","2","5","3","4","3","2","1","803360750616846338","姜","201","","","","","","","","","","","","","","","","","","","","","","","","","","","","","","feedback_test","","","","","","","","","","","",""
"559","","j","psychophysics","179","368927","0.0-7.0-1.0-4.0-0.0-0.36","3","3","4","3","4","3","3","3","4","4","4","5","4","3","3","4","4","3","4","4","1","2","2","2","2","2","2","2","1","1","0","0","1","0","0","0","1","0","1","1","0","1","0","0","4","2","2","1","2","5","3","4","3","2","1","803360750616846338","姜","201","","","","match","","","","","","","","","","","","","","key","j","16.68545652173887","640","356","j","true","match","img/pentagon.png","五边","五边","ALT1","formal_ALT1_2","","","","","","","","","","","",""
"null","<span style='color:GreenYellow; font-size: 70px;'>正确! </span>","null","html-keyboard-response","180","369431","0.0-7.0-1.0-4.0-0.0-1.36","3","3","4","3","4","3","3","3","4","4","4","5","4","3","3","4","4","3","4","4","1","2","2","2","2","2","2","2","1","1","0","0","1","0","0","0","1","0","1","1","0","1","0","0","4","2","2","1","2","5","3","4","3","2","1","803360750616846338","姜","201","","","","","","","","","","","","","","","","","","","","","","","","","","","","","","feedback_test","","","","","","","","","","","",""
"645","","f","psychophysics","181","371078","0.0-7.0-1.0-4.0-0.0-0.37","3","3","4","3","4","3","3","3","4","4","4","5","4","3","3","4","4","3","4","4","1","2","2","2","2","2","2","2","1","1","0","0","1","0","0","0","1","0","1","1","0","1","0","0","4","2","2","1","2","5","3","4","3","2","1","803360750616846338","姜","201","","","","nonmatch","","","","","","","","","","","","","","key","f","16.685122448979516","640","356","f","true","nonmatch","img/pentagon.png","梯形","五边","ALT1","formal_ALT1_2","","","","","","","","","","","",""
