"rt","stimulus","response","trial_type","trial_index","time_elapsed","internal_node_id","ses_1","ses_2","ses_3","ses_4","ses_5","ses_6","ses_7","ses_8","ses_9","ses_10","coreself_1","coreself_2","coreself_3","coreself_4","coreself_5","coreself_6","coreself_7","coreself_8","coreself_9","coreself_10","SGPS_1","SGPS_2","SGPS_3","SGPS_4","SGPS_5","SGPS_6","SGPS_7","SGPS_8","SGPS_9","NPI1","NPI2","NPI3","NPI4","NPI5","NPI6","NPI7","NPI8","NPI9","NPI10","NPI11","NPI12","NPI13","NPI14","NPI15","hsns_1","hsns_2","hsns_3","hsns_4","hsns_5","trap1","hsns_6","hsns_7","hsns_8","hsns_9","hsns_10","subj_idx","friend_name","ParticipantID","value","success","user_agent","responses","item_order","radio_event_ids","radio_event_times","key_event_times","mouse_event_times","straightlining","zigzagging","honeypot","timeout","failed_images","failed_audio","failed_video","version_attrib","version_target","correct","IAT","screen_id","task_id","RT","condition","word","varname","summary","version_attrib2","version_target2","time_stamp","view_history","response_type","key_press","avg_frame_time","center_x","center_y","correct_response","identity","Image","question_order","correct_answer","trap1_item"
"54168","
   <p><div style = ""color: white;font-size:25px;"">您好，欢迎参加本次实验。</div> </p>
   <p><div style = ""color: white;font-size:25px;"">为充分保障您的权利，请确保您已经知晓并同意《参与实验同意书》以及《数据公开知情同意书》。</div></p>
   <p><div style = ""color: white;font-size:25px;"">如果您未见过上述内容，请咨询实验员。</div></p>
   <p><div style = ""color: white;font-size:25px;"">如果您选择继续实验，则表示您已经清楚两份知情同意书的内容并同意。</div></p>
   <p><div style = ""color: pink;font-size:30px;"">请确保您记得day0的实验编号，您将在本次实验输入该编号，若您忘记，请咨询实验员后作答。</div></p>
   <p><div style = ""color: lightblue;font-size:25px;"">请您尽可能认真地作答，我们将依据您在各问卷和按键任务中的作答质量发放报酬。</div></p>
   <p> <div style = ""color: green;font-size:25px;""><按空格键至下页></div> </p>
   "," ","html-keyboard-response","0","54173","0.0-0.0","4","4","4","3","4","4","3","3","3","4","4","1","2","4","3","4","4","3","4","4","2","1","2","1","1","1","2","1","2","1","0","1","1","0","0","1","1","0","1","1","0","1","0","1","5","2","2","1","5","5","4","5","4","4","2","790191134524710914","黄","6","","","","","","","","","","","","","","","","","","","","","","","","","","","","","","","","","","","","","","","","","",""
"","","","call-function","1","54177","0.0-1.0-0.0","4","4","4","3","4","4","3","3","3","4","4","1","2","4","3","4","4","3","4","4","2","1","2","1","1","1","2","1","2","1","0","1","1","0","0","1","1","0","1","1","0","1","0","1","5","2","2","1","5","5","4","5","4","4","2","790191134524710914","黄","6","","","","","","","","","","","","","","","","","","","","","","","","","","","","","","","","","","","","","","","","","",""
"14952","","{""friend_name"":""黄"",""ParticipantID"":""6""}","survey-html-form","2","69132","0.0-1.0-1.0","4","4","4","3","4","4","3","3","3","4","4","1","2","4","3","4","4","3","4","4","2","1","2","1","1","1","2","1","2","1","0","1","1","0","0","1","1","0","1","1","0","1","0","1","5","2","2","1","5","5","4","5","4","4","2","790191134524710914","黄","6","","","","","","","","","","","","","","","","","","","","","","","","","","","","","","","","","","","","","","","","","",""
"","","","fullscreen","3","70222","0.0-2.0","4","4","4","3","4","4","3","3","3","4","4","1","2","4","3","4","4","3","4","4","2","1","2","1","1","1","2","1","2","1","0","1","1","0","0","1","1","0","1","1","0","1","0","1","5","2","2","1","5","5","4","5","4","4","2","790191134524710914","黄","6","","true","{}","","","","","","","","","","","","","","","","","","","","","","","","","","","","","","","","","","","","","","",""
"25227.60000000149","","{""Q01"":""4"",""Q02"":""4"",""Q03"":""4"",""Q04"":""3"",""Q05"":""4"",""Q06"":""4"",""Q07"":""3"",""Q08"":""3"",""Q09"":""3"",""Q10"":""4""}","survey-template","4","95456","0.0-3.0","4","4","4","3","4","4","3","3","3","4","4","1","2","4","3","4","4","3","4","4","2","1","2","1","1","1","2","1","2","1","0","1","1","0","0","1","1","0","1","1","0","1","0","1","5","2","2","1","5","5","4","5","4","4","2","790191134524710914","黄","6","","","","{""Q01"":""4"",""Q02"":""4"",""Q03"":""4"",""Q04"":""3"",""Q05"":""4"",""Q06"":""4"",""Q07"":""3"",""Q08"":""3"",""Q09"":""3"",""Q10"":""4""}","[0,1,2,3,4,5,6,7,8,9]","[""Q01"",""Q02"",""Q03"",""Q04"",""Q05"",""Q06"",""Q07"",""Q08"",""Q09"",""Q10""]","[8208.400000002235,8728.300000000745,10216,12079.60000000149,13559.60000000149,14711.900000002235,16575.699999999255,17655.800000000745,18567.699999999255,19495.60000000149]","[]","[8208.400000002235,8728.300000000745,10216,12079.60000000149,13559.60000000149,14711.900000002235,16575.699999999255,17655.800000000745,18567.699999999255,19256.60000000149,19495.60000000149,25223.800000000745]","0.3","0.5555555555555556","0","","","","","","","","","","","","","","","","","","","","","","","","","","","","","",""
"26656.5","","{""Q01"":""4"",""Q02"":""1"",""Q03"":""2"",""Q04"":""4"",""Q05"":""3"",""Q06"":""4"",""Q07"":""4"",""Q08"":""3"",""Q09"":""4"",""Q10"":""4""}","survey-template","5","122136","0.0-4.0","4","4","4","3","4","4","3","3","3","4","4","1","2","4","3","4","4","3","4","4","2","1","2","1","1","1","2","1","2","1","0","1","1","0","0","1","1","0","1","1","0","1","0","1","5","2","2","1","5","5","4","5","4","4","2","790191134524710914","黄","6","","","","{""Q01"":""4"",""Q02"":""1"",""Q03"":""2"",""Q04"":""4"",""Q05"":""3"",""Q06"":""4"",""Q07"":""4"",""Q08"":""3"",""Q09"":""4"",""Q10"":""4""}","[0,1,2,3,4,5,6,7,8,9]","[""Q01"",""Q02"",""Q03"",""Q02"",""Q04"",""Q05"",""Q06"",""Q07"",""Q08"",""Q09"",""Q10""]","[3349.199999999255,3909,6749.099999997765,7685.199999999255,9117.29999999702,11517.29999999702,12709.29999999702,16749.099999997765,18740.89999999851,20349,21189]","[]","[3349.199999999255,3909,6749.099999997765,7325.099999997765,7685.199999999255,9117.29999999702,11517.29999999702,12709.29999999702,16749.099999997765,18740.89999999851,19517.199999999255,20349,21189,26653.199999999255]","0.5","0.6666666666666666","0","","","","","","","","","","","","","","","","","","","","","","","","","","","","","",""
"","","","preload","6","122183","0.0-5.0","4","4","4","3","4","4","3","3","3","4","4","1","2","4","3","4","4","3","4","4","2","1","2","1","1","1","2","1","2","1","0","1","1","0","0","1","1","0","1","1","0","1","0","1","5","2","2","1","5","5","4","5","4","4","2","790191134524710914","黄","6","","true","","","","","","","","","","","false","[]","[]","[]","","","","","","","","","","","","","","","","","","","","","","","","","",""
"18705","
    <h3>词语分类任务</h3>
    <p>在接下来的任务中，你需要对一系列词语进行分类。</p>
    <p>请先熟悉这些词语，这有利于你完成接下来的任务。</p>
    <table align=""center"" border=1 cellpadding=3 cellspacing=0>
    <tr> <th>类别</th> <th>词语</th> </tr>
    <tr> <td>&emsp;积极&emsp;</td> <td>&emsp;能干、全能、全才、高效、精干、天才&emsp;</td> </tr>
    <tr> <td>&emsp;消极&emsp;</td> <td>&emsp;无能、低能、废物、拙笨、愚钝、蠢笨&emsp;</td> </tr>
    <tr> <td>&emsp;自我&emsp;</td> <td>&emsp;我、我的、自己、自己的、本人、本人的&emsp;</td> </tr>
    <tr> <td>&emsp;他人&emsp;</td> <td>&emsp;他、他的、别人、别人的、他人、他人的&emsp;</td> </tr>
    </table><br/>","0","html-button-response","7","140892","0.0-6.0-0.0-0.0","4","4","4","3","4","4","3","3","3","4","4","1","2","4","3","4","4","3","4","4","2","1","2","1","1","1","2","1","2","1","0","1","1","0","0","1","1","0","1","1","0","1","0","1","5","2","2","1","5","5","4","5","4","4","2","790191134524710914","黄","6","","","","","","","","","","","","","","","","","1","1","","","","","","","","","","","","","","","","","","","","","","","",""
"3330","
    <div class=""tag-bottom"">
    <p> —— 任务1：对“自我”词和“他人”词分类 ——<p/>
    不同词语会出现在屏幕中央，类别标签将始终显示在屏幕上方<p/>   
    <span style=""color:#FFD866""><b>请根据上方标签的提示，尽可能正确并且快速地做出按键反应</b></span><p/>
    当按键错误时屏幕中会出现<span style=""color:red""> X </span>，需要按另一个键纠正才能继续<br/><p/>
    请把双手食指分别放在键盘的“E”键和“I”键上<p/>
    按<空格键>开始
    </p></div>"," ","html-keyboard-response","8","144234","0.0-6.0-0.0-1.0","4","4","4","3","4","4","3","3","3","4","4","1","2","4","3","4","4","3","4","4","2","1","2","1","1","1","2","1","2","1","0","1","1","0","0","1","1","0","1","1","0","1","0","1","5","2","2","1","5","5","4","5","4","4","2","790191134524710914","黄","6","","","","","","","","","","","","","","","","","","","","","","","","","","","","","","","","","","","","","","","","","",""
"null","","null","html-keyboard-response","9","144489","0.0-6.0-0.0-2.0-0.0","4","4","4","3","4","4","3","3","3","4","4","1","2","4","3","4","4","3","4","4","2","1","2","1","1","1","2","1","2","1","0","1","1","0","0","1","1","0","1","1","0","1","0","1","5","2","2","1","5","5","4","5","4","4","2","790191134524710914","黄","6","","","","","","","","","","","","","","","","","","","","","","","","","","","","","","","","","","","","","","","","","",""
"668","<p style=""color:rgb(150, 250, 100); font-size: 35px;"">我的</p>","e","categorize-html","10","145166","0.0-6.0-0.0-2.0-1.0","4","4","4","3","4","4","3","3","3","4","4","1","2","4","3","4","4","3","4","4","2","1","2","1","1","1","2","1","2","1","0","1","1","0","0","1","1","0","1","1","0","1","0","1","5","2","2","1","5","5","4","5","4","4","2","790191134524710914","黄","6","","","","","","","","","","","","","","","","","","","true","1","1","ability","668","self","我的","","","","","","","","","","","","","","","","",""
"null","","null","html-keyboard-response","11","145425","0.0-6.0-0.0-2.0-0.1","4","4","4","3","4","4","3","3","3","4","4","1","2","4","3","4","4","3","4","4","2","1","2","1","1","1","2","1","2","1","0","1","1","0","0","1","1","0","1","1","0","1","0","1","5","2","2","1","5","5","4","5","4","4","2","790191134524710914","黄","6","","","","","","","","","","","","","","","","","","","","","","","","","","","","","","","","","","","","","","","","","",""
"623","<p style=""color:rgb(150, 250, 100); font-size: 35px;"">本人</p>","e","categorize-html","12","146054","0.0-6.0-0.0-2.0-1.1","4","4","4","3","4","4","3","3","3","4","4","1","2","4","3","4","4","3","4","4","2","1","2","1","1","1","2","1","2","1","0","1","1","0","0","1","1","0","1","1","0","1","0","1","5","2","2","1","5","5","4","5","4","4","2","790191134524710914","黄","6","","","","","","","","","","","","","","","","","","","true","1","1","ability","623","self","本人","","","","","","","","","","","","","","","","",""
"null","","null","html-keyboard-response","13","146306","0.0-6.0-0.0-2.0-0.2","4","4","4","3","4","4","3","3","3","4","4","1","2","4","3","4","4","3","4","4","2","1","2","1","1","1","2","1","2","1","0","1","1","0","0","1","1","0","1","1","0","1","0","1","5","2","2","1","5","5","4","5","4","4","2","790191134524710914","黄","6","","","","","","","","","","","","","","","","","","","","","","","","","","","","","","","","","","","","","","","","","",""
"439","<p style=""color:rgb(150, 250, 100); font-size: 35px;"">别人</p>","i","categorize-html","14","146749","0.0-6.0-0.0-2.0-1.2","4","4","4","3","4","4","3","3","3","4","4","1","2","4","3","4","4","3","4","4","2","1","2","1","1","1","2","1","2","1","0","1","1","0","0","1","1","0","1","1","0","1","0","1","5","2","2","1","5","5","4","5","4","4","2","790191134524710914","黄","6","","","","","","","","","","","","","","","","","","","true","1","1","ability","439","other","别人","","","","","","","","","","","","","","","","",""
"null","","null","html-keyboard-response","15","147009","0.0-6.0-0.0-2.0-0.3","4","4","4","3","4","4","3","3","3","4","4","1","2","4","3","4","4","3","4","4","2","1","2","1","1","1","2","1","2","1","0","1","1","0","0","1","1","0","1","1","0","1","0","1","5","2","2","1","5","5","4","5","4","4","2","790191134524710914","黄","6","","","","","","","","","","","","","","","","","","","","","","","","","","","","","","","","","","","","","","","","","",""
"1559","<p style=""color:rgb(150, 250, 100); font-size: 35px;"">他人</p>","i","categorize-html","16","148573","0.0-6.0-0.0-2.0-1.3","4","4","4","3","4","4","3","3","3","4","4","1","2","4","3","4","4","3","4","4","2","1","2","1","1","1","2","1","2","1","0","1","1","0","0","1","1","0","1","1","0","1","0","1","5","2","2","1","5","5","4","5","4","4","2","790191134524710914","黄","6","","","","","","","","","","","","","","","","","","","true","1","1","ability","1559","other","他人","","","","","","","","","","","","","","","","",""
"null","","null","html-keyboard-response","17","148826","0.0-6.0-0.0-2.0-0.4","4","4","4","3","4","4","3","3","3","4","4","1","2","4","3","4","4","3","4","4","2","1","2","1","1","1","2","1","2","1","0","1","1","0","0","1","1","0","1","1","0","1","0","1","5","2","2","1","5","5","4","5","4","4","2","790191134524710914","黄","6","","","","","","","","","","","","","","","","","","","","","","","","","","","","","","","","","","","","","","","","","",""
"1575","<p style=""color:rgb(150, 250, 100); font-size: 35px;"">别人的</p>","i","categorize-html","18","150405","0.0-6.0-0.0-2.0-1.4","4","4","4","3","4","4","3","3","3","4","4","1","2","4","3","4","4","3","4","4","2","1","2","1","1","1","2","1","2","1","0","1","1","0","0","1","1","0","1","1","0","1","0","1","5","2","2","1","5","5","4","5","4","4","2","790191134524710914","黄","6","","","","","","","","","","","","","","","","","","","true","1","1","ability","1575","other","别人的","","","","","","","","","","","","","","","","",""
"null","","null","html-keyboard-response","19","150658","0.0-6.0-0.0-2.0-0.5","4","4","4","3","4","4","3","3","3","4","4","1","2","4","3","4","4","3","4","4","2","1","2","1","1","1","2","1","2","1","0","1","1","0","0","1","1","0","1","1","0","1","0","1","5","2","2","1","5","5","4","5","4","4","2","790191134524710914","黄","6","","","","","","","","","","","","","","","","","","","","","","","","","","","","","","","","","","","","","","","","","",""
"839","<p style=""color:rgb(150, 250, 100); font-size: 35px;"">本人的</p>","e","categorize-html","20","151502","0.0-6.0-0.0-2.0-1.5","4","4","4","3","4","4","3","3","3","4","4","1","2","4","3","4","4","3","4","4","2","1","2","1","1","1","2","1","2","1","0","1","1","0","0","1","1","0","1","1","0","1","0","1","5","2","2","1","5","5","4","5","4","4","2","790191134524710914","黄","6","","","","","","","","","","","","","","","","","","","true","1","1","ability","839","self","本人的","","","","","","","","","","","","","","","","",""
"null","","null","html-keyboard-response","21","151762","0.0-6.0-0.0-2.0-0.6","4","4","4","3","4","4","3","3","3","4","4","1","2","4","3","4","4","3","4","4","2","1","2","1","1","1","2","1","2","1","0","1","1","0","0","1","1","0","1","1","0","1","0","1","5","2","2","1","5","5","4","5","4","4","2","790191134524710914","黄","6","","","","","","","","","","","","","","","","","","","","","","","","","","","","","","","","","","","","","","","","","",""
"631","<p style=""color:rgb(150, 250, 100); font-size: 35px;"">自己的</p>","e","categorize-html","22","152397","0.0-6.0-0.0-2.0-1.6","4","4","4","3","4","4","3","3","3","4","4","1","2","4","3","4","4","3","4","4","2","1","2","1","1","1","2","1","2","1","0","1","1","0","0","1","1","0","1","1","0","1","0","1","5","2","2","1","5","5","4","5","4","4","2","790191134524710914","黄","6","","","","","","","","","","","","","","","","","","","true","1","1","ability","631","self","自己的","","","","","","","","","","","","","","","","",""
"null","","null","html-keyboard-response","23","152658","0.0-6.0-0.0-2.0-0.7","4","4","4","3","4","4","3","3","3","4","4","1","2","4","3","4","4","3","4","4","2","1","2","1","1","1","2","1","2","1","0","1","1","0","0","1","1","0","1","1","0","1","0","1","5","2","2","1","5","5","4","5","4","4","2","790191134524710914","黄","6","","","","","","","","","","","","","","","","","","","","","","","","","","","","","","","","","","","","","","","","","",""
"526","<p style=""color:rgb(150, 250, 100); font-size: 35px;"">自己</p>","e","categorize-html","24","153189","0.0-6.0-0.0-2.0-1.7","4","4","4","3","4","4","3","3","3","4","4","1","2","4","3","4","4","3","4","4","2","1","2","1","1","1","2","1","2","1","0","1","1","0","0","1","1","0","1","1","0","1","0","1","5","2","2","1","5","5","4","5","4","4","2","790191134524710914","黄","6","","","","","","","","","","","","","","","","","","","true","1","1","ability","526","self","自己","","","","","","","","","","","","","","","","",""
"null","","null","html-keyboard-response","25","153442","0.0-6.0-0.0-2.0-0.8","4","4","4","3","4","4","3","3","3","4","4","1","2","4","3","4","4","3","4","4","2","1","2","1","1","1","2","1","2","1","0","1","1","0","0","1","1","0","1","1","0","1","0","1","5","2","2","1","5","5","4","5","4","4","2","790191134524710914","黄","6","","","","","","","","","","","","","","","","","","","","","","","","","","","","","","","","","","","","","","","","","",""
"574","<p style=""color:rgb(150, 250, 100); font-size: 35px;"">他的</p>","i","categorize-html","26","154021","0.0-6.0-0.0-2.0-1.8","4","4","4","3","4","4","3","3","3","4","4","1","2","4","3","4","4","3","4","4","2","1","2","1","1","1","2","1","2","1","0","1","1","0","0","1","1","0","1","1","0","1","0","1","5","2","2","1","5","5","4","5","4","4","2","790191134524710914","黄","6","","","","","","","","","","","","","","","","","","","true","1","1","ability","574","other","他的","","","","","","","","","","","","","","","","",""
"null","","null","html-keyboard-response","27","154274","0.0-6.0-0.0-2.0-0.9","4","4","4","3","4","4","3","3","3","4","4","1","2","4","3","4","4","3","4","4","2","1","2","1","1","1","2","1","2","1","0","1","1","0","0","1","1","0","1","1","0","1","0","1","5","2","2","1","5","5","4","5","4","4","2","790191134524710914","黄","6","","","","","","","","","","","","","","","","","","","","","","","","","","","","","","","","","","","","","","","","","",""
"527","<p style=""color:rgb(150, 250, 100); font-size: 35px;"">他</p>","i","categorize-html","28","154805","0.0-6.0-0.0-2.0-1.9","4","4","4","3","4","4","3","3","3","4","4","1","2","4","3","4","4","3","4","4","2","1","2","1","1","1","2","1","2","1","0","1","1","0","0","1","1","0","1","1","0","1","0","1","5","2","2","1","5","5","4","5","4","4","2","790191134524710914","黄","6","","","","","","","","","","","","","","","","","","","true","1","1","ability","527","other","他","","","","","","","","","","","","","","","","",""
"null","","null","html-keyboard-response","29","155058","0.0-6.0-0.0-2.0-0.10","4","4","4","3","4","4","3","3","3","4","4","1","2","4","3","4","4","3","4","4","2","1","2","1","1","1","2","1","2","1","0","1","1","0","0","1","1","0","1","1","0","1","0","1","5","2","2","1","5","5","4","5","4","4","2","790191134524710914","黄","6","","","","","","","","","","","","","","","","","","","","","","","","","","","","","","","","","","","","","","","","","",""
"518","<p style=""color:rgb(150, 250, 100); font-size: 35px;"">他人的</p>","i","categorize-html","30","155583","0.0-6.0-0.0-2.0-1.10","4","4","4","3","4","4","3","3","3","4","4","1","2","4","3","4","4","3","4","4","2","1","2","1","1","1","2","1","2","1","0","1","1","0","0","1","1","0","1","1","0","1","0","1","5","2","2","1","5","5","4","5","4","4","2","790191134524710914","黄","6","","","","","","","","","","","","","","","","","","","true","1","1","ability","518","other","他人的","","","","","","","","","","","","","","","","",""
"null","","null","html-keyboard-response","31","155841","0.0-6.0-0.0-2.0-0.11","4","4","4","3","4","4","3","3","3","4","4","1","2","4","3","4","4","3","4","4","2","1","2","1","1","1","2","1","2","1","0","1","1","0","0","1","1","0","1","1","0","1","0","1","5","2","2","1","5","5","4","5","4","4","2","790191134524710914","黄","6","","","","","","","","","","","","","","","","","","","","","","","","","","","","","","","","","","","","","","","","","",""
"519","<p style=""color:rgb(150, 250, 100); font-size: 35px;"">我</p>","e","categorize-html","32","156365","0.0-6.0-0.0-2.0-1.11","4","4","4","3","4","4","3","3","3","4","4","1","2","4","3","4","4","3","4","4","2","1","2","1","1","1","2","1","2","1","0","1","1","0","0","1","1","0","1","1","0","1","0","1","5","2","2","1","5","5","4","5","4","4","2","790191134524710914","黄","6","","","","","","","","","","","","","","","","","","","true","1","1","ability","519","self","我","","","","","","","","","","","","","","","","",""
"1219","
    <div class=""tag-bottom""><p>
    —— 任务2：对“积极”词和“消极”词分类 ——<p/>   
    <span style=""color:#78DCE8""><b>注意上方，类别标签和需要分类的词语都已经改变</b></span><p/>
    <span style=""color:#FFD866""><b>请根据上方标签的提示，尽可能正确并且快速地做出按键反应</b></span><p/>
    当按键错误时屏幕中会出现<span style=""color:red""> X </span>，需要按另一个键纠正才能继续<br/><p/>
    请把双手食指分别放在键盘的“E”键和“I”键上<p/>
    按<空格键>开始
    </p></div>"," ","html-keyboard-response","33","157586","0.0-6.0-0.0-3.0","4","4","4","3","4","4","3","3","3","4","4","1","2","4","3","4","4","3","4","4","2","1","2","1","1","1","2","1","2","1","0","1","1","0","0","1","1","0","1","1","0","1","0","1","5","2","2","1","5","5","4","5","4","4","2","790191134524710914","黄","6","","","","","","","","","","","","","","","","","","","","","","","","","","","","","","","","","","","","","","","","","",""
"null","","null","html-keyboard-response","34","157841","0.0-6.0-0.0-4.0-0.0","4","4","4","3","4","4","3","3","3","4","4","1","2","4","3","4","4","3","4","4","2","1","2","1","1","1","2","1","2","1","0","1","1","0","0","1","1","0","1","1","0","1","0","1","5","2","2","1","5","5","4","5","4","4","2","790191134524710914","黄","6","","","","","","","","","","","","","","","","","","","","","","","","","","","","","","","","","","","","","","","","","",""
"975","<p style=""color:white; font-size: 35px;"">无能</p>","e","categorize-html","35","159330","0.0-6.0-0.0-4.0-1.0","4","4","4","3","4","4","3","3","3","4","4","1","2","4","3","4","4","3","4","4","2","1","2","1","1","1","2","1","2","1","0","1","1","0","0","1","1","0","1","1","0","1","0","1","5","2","2","1","5","5","4","5","4","4","2","790191134524710914","黄","6","","","","","","","","","","","","","","","","","","","false","2","2","ability","975","negative","无能","","","","","","","","","","","","","","","","",""
"null","","null","html-keyboard-response","36","159585","0.0-6.0-0.0-4.0-0.1","4","4","4","3","4","4","3","3","3","4","4","1","2","4","3","4","4","3","4","4","2","1","2","1","1","1","2","1","2","1","0","1","1","0","0","1","1","0","1","1","0","1","0","1","5","2","2","1","5","5","4","5","4","4","2","790191134524710914","黄","6","","","","","","","","","","","","","","","","","","","","","","","","","","","","","","","","","","","","","","","","","",""
"615","<p style=""color:white; font-size: 35px;"">愚钝</p>","i","categorize-html","37","160206","0.0-6.0-0.0-4.0-1.1","4","4","4","3","4","4","3","3","3","4","4","1","2","4","3","4","4","3","4","4","2","1","2","1","1","1","2","1","2","1","0","1","1","0","0","1","1","0","1","1","0","1","0","1","5","2","2","1","5","5","4","5","4","4","2","790191134524710914","黄","6","","","","","","","","","","","","","","","","","","","true","2","2","ability","615","negative","愚钝","","","","","","","","","","","","","","","","",""
"null","","null","html-keyboard-response","38","160465","0.0-6.0-0.0-4.0-0.2","4","4","4","3","4","4","3","3","3","4","4","1","2","4","3","4","4","3","4","4","2","1","2","1","1","1","2","1","2","1","0","1","1","0","0","1","1","0","1","1","0","1","0","1","5","2","2","1","5","5","4","5","4","4","2","790191134524710914","黄","6","","","","","","","","","","","","","","","","","","","","","","","","","","","","","","","","","","","","","","","","","",""
"575","<p style=""color:white; font-size: 35px;"">蠢笨</p>","i","categorize-html","39","161045","0.0-6.0-0.0-4.0-1.2","4","4","4","3","4","4","3","3","3","4","4","1","2","4","3","4","4","3","4","4","2","1","2","1","1","1","2","1","2","1","0","1","1","0","0","1","1","0","1","1","0","1","0","1","5","2","2","1","5","5","4","5","4","4","2","790191134524710914","黄","6","","","","","","","","","","","","","","","","","","","true","2","2","ability","575","negative","蠢笨","","","","","","","","","","","","","","","","",""
"null","","null","html-keyboard-response","40","161297","0.0-6.0-0.0-4.0-0.3","4","4","4","3","4","4","3","3","3","4","4","1","2","4","3","4","4","3","4","4","2","1","2","1","1","1","2","1","2","1","0","1","1","0","0","1","1","0","1","1","0","1","0","1","5","2","2","1","5","5","4","5","4","4","2","790191134524710914","黄","6","","","","","","","","","","","","","","","","","","","","","","","","","","","","","","","","","","","","","","","","","",""
"760","<p style=""color:white; font-size: 35px;"">废物</p>","e","categorize-html","41","162514","0.0-6.0-0.0-4.0-1.3","4","4","4","3","4","4","3","3","3","4","4","1","2","4","3","4","4","3","4","4","2","1","2","1","1","1","2","1","2","1","0","1","1","0","0","1","1","0","1","1","0","1","0","1","5","2","2","1","5","5","4","5","4","4","2","790191134524710914","黄","6","","","","","","","","","","","","","","","","","","","false","2","2","ability","760","negative","废物","","","","","","","","","","","","","","","","",""
"null","","null","html-keyboard-response","42","162769","0.0-6.0-0.0-4.0-0.4","4","4","4","3","4","4","3","3","3","4","4","1","2","4","3","4","4","3","4","4","2","1","2","1","1","1","2","1","2","1","0","1","1","0","0","1","1","0","1","1","0","1","0","1","5","2","2","1","5","5","4","5","4","4","2","790191134524710914","黄","6","","","","","","","","","","","","","","","","","","","","","","","","","","","","","","","","","","","","","","","","","",""
"679","<p style=""color:white; font-size: 35px;"">天才</p>","e","categorize-html","43","163453","0.0-6.0-0.0-4.0-1.4","4","4","4","3","4","4","3","3","3","4","4","1","2","4","3","4","4","3","4","4","2","1","2","1","1","1","2","1","2","1","0","1","1","0","0","1","1","0","1","1","0","1","0","1","5","2","2","1","5","5","4","5","4","4","2","790191134524710914","黄","6","","","","","","","","","","","","","","","","","","","true","2","2","ability","679","positive","天才","","","","","","","","","","","","","","","","",""
"null","","null","html-keyboard-response","44","163705","0.0-6.0-0.0-4.0-0.5","4","4","4","3","4","4","3","3","3","4","4","1","2","4","3","4","4","3","4","4","2","1","2","1","1","1","2","1","2","1","0","1","1","0","0","1","1","0","1","1","0","1","0","1","5","2","2","1","5","5","4","5","4","4","2","790191134524710914","黄","6","","","","","","","","","","","","","","","","","","","","","","","","","","","","","","","","","","","","","","","","","",""
"679","<p style=""color:white; font-size: 35px;"">拙笨</p>","i","categorize-html","45","164390","0.0-6.0-0.0-4.0-1.5","4","4","4","3","4","4","3","3","3","4","4","1","2","4","3","4","4","3","4","4","2","1","2","1","1","1","2","1","2","1","0","1","1","0","0","1","1","0","1","1","0","1","0","1","5","2","2","1","5","5","4","5","4","4","2","790191134524710914","黄","6","","","","","","","","","","","","","","","","","","","true","2","2","ability","679","negative","拙笨","","","","","","","","","","","","","","","","",""
"null","","null","html-keyboard-response","46","164641","0.0-6.0-0.0-4.0-0.6","4","4","4","3","4","4","3","3","3","4","4","1","2","4","3","4","4","3","4","4","2","1","2","1","1","1","2","1","2","1","0","1","1","0","0","1","1","0","1","1","0","1","0","1","5","2","2","1","5","5","4","5","4","4","2","790191134524710914","黄","6","","","","","","","","","","","","","","","","","","","","","","","","","","","","","","","","","","","","","","","","","",""
"783","<p style=""color:white; font-size: 35px;"">全能</p>","e","categorize-html","47","165429","0.0-6.0-0.0-4.0-1.6","4","4","4","3","4","4","3","3","3","4","4","1","2","4","3","4","4","3","4","4","2","1","2","1","1","1","2","1","2","1","0","1","1","0","0","1","1","0","1","1","0","1","0","1","5","2","2","1","5","5","4","5","4","4","2","790191134524710914","黄","6","","","","","","","","","","","","","","","","","","","true","2","2","ability","783","positive","全能","","","","","","","","","","","","","","","","",""
"null","","null","html-keyboard-response","48","165681","0.0-6.0-0.0-4.0-0.7","4","4","4","3","4","4","3","3","3","4","4","1","2","4","3","4","4","3","4","4","2","1","2","1","1","1","2","1","2","1","0","1","1","0","0","1","1","0","1","1","0","1","0","1","5","2","2","1","5","5","4","5","4","4","2","790191134524710914","黄","6","","","","","","","","","","","","","","","","","","","","","","","","","","","","","","","","","","","","","","","","","",""
"543","<p style=""color:white; font-size: 35px;"">全才</p>","e","categorize-html","49","166229","0.0-6.0-0.0-4.0-1.7","4","4","4","3","4","4","3","3","3","4","4","1","2","4","3","4","4","3","4","4","2","1","2","1","1","1","2","1","2","1","0","1","1","0","0","1","1","0","1","1","0","1","0","1","5","2","2","1","5","5","4","5","4","4","2","790191134524710914","黄","6","","","","","","","","","","","","","","","","","","","true","2","2","ability","543","positive","全才","","","","","","","","","","","","","","","","",""
"null","","null","html-keyboard-response","50","166481","0.0-6.0-0.0-4.0-0.8","4","4","4","3","4","4","3","3","3","4","4","1","2","4","3","4","4","3","4","4","2","1","2","1","1","1","2","1","2","1","0","1","1","0","0","1","1","0","1","1","0","1","0","1","5","2","2","1","5","5","4","5","4","4","2","790191134524710914","黄","6","","","","","","","","","","","","","","","","","","","","","","","","","","","","","","","","","","","","","","","","","",""
"783","<p style=""color:white; font-size: 35px;"">低能</p>","i","categorize-html","51","167269","0.0-6.0-0.0-4.0-1.8","4","4","4","3","4","4","3","3","3","4","4","1","2","4","3","4","4","3","4","4","2","1","2","1","1","1","2","1","2","1","0","1","1","0","0","1","1","0","1","1","0","1","0","1","5","2","2","1","5","5","4","5","4","4","2","790191134524710914","黄","6","","","","","","","","","","","","","","","","","","","true","2","2","ability","783","negative","低能","","","","","","","","","","","","","","","","",""
"null","","null","html-keyboard-response","52","167521","0.0-6.0-0.0-4.0-0.9","4","4","4","3","4","4","3","3","3","4","4","1","2","4","3","4","4","3","4","4","2","1","2","1","1","1","2","1","2","1","0","1","1","0","0","1","1","0","1","1","0","1","0","1","5","2","2","1","5","5","4","5","4","4","2","790191134524710914","黄","6","","","","","","","","","","","","","","","","","","","","","","","","","","","","","","","","","","","","","","","","","",""
"815","<p style=""color:white; font-size: 35px;"">能干</p>","i","categorize-html","53","168762","0.0-6.0-0.0-4.0-1.9","4","4","4","3","4","4","3","3","3","4","4","1","2","4","3","4","4","3","4","4","2","1","2","1","1","1","2","1","2","1","0","1","1","0","0","1","1","0","1","1","0","1","0","1","5","2","2","1","5","5","4","5","4","4","2","790191134524710914","黄","6","","","","","","","","","","","","","","","","","","","false","2","2","ability","815","positive","能干","","","","","","","","","","","","","","","","",""
"null","","null","html-keyboard-response","54","169017","0.0-6.0-0.0-4.0-0.10","4","4","4","3","4","4","3","3","3","4","4","1","2","4","3","4","4","3","4","4","2","1","2","1","1","1","2","1","2","1","0","1","1","0","0","1","1","0","1","1","0","1","0","1","5","2","2","1","5","5","4","5","4","4","2","790191134524710914","黄","6","","","","","","","","","","","","","","","","","","","","","","","","","","","","","","","","","","","","","","","","","",""
"695","<p style=""color:white; font-size: 35px;"">高效</p>","e","categorize-html","55","169717","0.0-6.0-0.0-4.0-1.10","4","4","4","3","4","4","3","3","3","4","4","1","2","4","3","4","4","3","4","4","2","1","2","1","1","1","2","1","2","1","0","1","1","0","0","1","1","0","1","1","0","1","0","1","5","2","2","1","5","5","4","5","4","4","2","790191134524710914","黄","6","","","","","","","","","","","","","","","","","","","true","2","2","ability","695","positive","高效","","","","","","","","","","","","","","","","",""
"null","","null","html-keyboard-response","56","169970","0.0-6.0-0.0-4.0-0.11","4","4","4","3","4","4","3","3","3","4","4","1","2","4","3","4","4","3","4","4","2","1","2","1","1","1","2","1","2","1","0","1","1","0","0","1","1","0","1","1","0","1","0","1","5","2","2","1","5","5","4","5","4","4","2","790191134524710914","黄","6","","","","","","","","","","","","","","","","","","","","","","","","","","","","","","","","","","","","","","","","","",""
"591","<p style=""color:white; font-size: 35px;"">精干</p>","e","categorize-html","57","170565","0.0-6.0-0.0-4.0-1.11","4","4","4","3","4","4","3","3","3","4","4","1","2","4","3","4","4","3","4","4","2","1","2","1","1","1","2","1","2","1","0","1","1","0","0","1","1","0","1","1","0","1","0","1","5","2","2","1","5","5","4","5","4","4","2","790191134524710914","黄","6","","","","","","","","","","","","","","","","","","","true","2","2","ability","591","positive","精干","","","","","","","","","","","","","","","","",""
"683","
    <div class=""tag-bottom""><p>
    —— 任务3：对“自我/积极”词和“他人/消极”词分类 ——<p/>
    <span style=""color:#78DCE8""><b>注意上方，之前的四类词语将混合在一起交替呈现</b></span><p/>
    <span style=""color:#FFD866""><b>请根据上方标签的提示，尽可能正确并且快速地做出按键反应</b></span><p/>
    当按键错误时屏幕中会出现<span style=""color:red""> X </span>，需要按另一个键纠正才能继续<br/><p/>
    请把双手食指分别放在键盘的“E”键和“I”键上<p/>
    按<空格键>开始
    </p></div>"," ","html-keyboard-response","58","171250","0.0-6.0-0.0-5.0","4","4","4","3","4","4","3","3","3","4","4","1","2","4","3","4","4","3","4","4","2","1","2","1","1","1","2","1","2","1","0","1","1","0","0","1","1","0","1","1","0","1","0","1","5","2","2","1","5","5","4","5","4","4","2","790191134524710914","黄","6","","","","","","","","","","","","","","","","","","","","","","","","","","","","","","","","","","","","","","","","","",""
"null","","null","html-keyboard-response","59","171506","0.0-6.0-0.0-6.0-0.0","4","4","4","3","4","4","3","3","3","4","4","1","2","4","3","4","4","3","4","4","2","1","2","1","1","1","2","1","2","1","0","1","1","0","0","1","1","0","1","1","0","1","0","1","5","2","2","1","5","5","4","5","4","4","2","790191134524710914","黄","6","","","","","","","","","","","","","","","","","","","","","","","","","","","","","","","","","","","","","","","","","",""
"734","<p style=""color:rgb(150, 250, 100); font-size: 35px;"">他人</p>","i","categorize-html","60","172246","0.0-6.0-0.0-6.0-1.0","4","4","4","3","4","4","3","3","3","4","4","1","2","4","3","4","4","3","4","4","2","1","2","1","1","1","2","1","2","1","0","1","1","0","0","1","1","0","1","1","0","1","0","1","5","2","2","1","5","5","4","5","4","4","2","790191134524710914","黄","6","","","","","","","","","","","","","","","","","","","true","3","3","ability","734","other","他人","","","","","","","","","","","","","","","","",""
"null","","null","html-keyboard-response","61","172506","0.0-6.0-0.0-6.0-0.1","4","4","4","3","4","4","3","3","3","4","4","1","2","4","3","4","4","3","4","4","2","1","2","1","1","1","2","1","2","1","0","1","1","0","0","1","1","0","1","1","0","1","0","1","5","2","2","1","5","5","4","5","4","4","2","790191134524710914","黄","6","","","","","","","","","","","","","","","","","","","","","","","","","","","","","","","","","","","","","","","","","",""
"766","<p style=""color:white; font-size: 35px;"">废物</p>","e","categorize-html","62","173698","0.0-6.0-0.0-6.0-1.1","4","4","4","3","4","4","3","3","3","4","4","1","2","4","3","4","4","3","4","4","2","1","2","1","1","1","2","1","2","1","0","1","1","0","0","1","1","0","1","1","0","1","0","1","5","2","2","1","5","5","4","5","4","4","2","790191134524710914","黄","6","","","","","","","","","","","","","","","","","","","false","3","3","ability","1246.9545454545455","negative","废物","","","","","","","","","","","","","","","","",""
"null","","null","html-keyboard-response","63","173954","0.0-6.0-0.0-6.0-0.2","4","4","4","3","4","4","3","3","3","4","4","1","2","4","3","4","4","3","4","4","2","1","2","1","1","1","2","1","2","1","0","1","1","0","0","1","1","0","1","1","0","1","0","1","5","2","2","1","5","5","4","5","4","4","2","790191134524710914","黄","6","","","","","","","","","","","","","","","","","","","","","","","","","","","","","","","","","","","","","","","","","",""
"566","<p style=""color:rgb(150, 250, 100); font-size: 35px;"">自己</p>","e","categorize-html","64","174525","0.0-6.0-0.0-6.0-1.2","4","4","4","3","4","4","3","3","3","4","4","1","2","4","3","4","4","3","4","4","2","1","2","1","1","1","2","1","2","1","0","1","1","0","0","1","1","0","1","1","0","1","0","1","5","2","2","1","5","5","4","5","4","4","2","790191134524710914","黄","6","","","","","","","","","","","","","","","","","","","true","3","3","ability","566","self","自己","","","","","","","","","","","","","","","","",""
"null","","null","html-keyboard-response","65","174778","0.0-6.0-0.0-6.0-0.3","4","4","4","3","4","4","3","3","3","4","4","1","2","4","3","4","4","3","4","4","2","1","2","1","1","1","2","1","2","1","0","1","1","0","0","1","1","0","1","1","0","1","0","1","5","2","2","1","5","5","4","5","4","4","2","790191134524710914","黄","6","","","","","","","","","","","","","","","","","","","","","","","","","","","","","","","","","","","","","","","","","",""
"614","<p style=""color:white; font-size: 35px;"">全才</p>","e","categorize-html","66","175398","0.0-6.0-0.0-6.0-1.3","4","4","4","3","4","4","3","3","3","4","4","1","2","4","3","4","4","3","4","4","2","1","2","1","1","1","2","1","2","1","0","1","1","0","0","1","1","0","1","1","0","1","0","1","5","2","2","1","5","5","4","5","4","4","2","790191134524710914","黄","6","","","","","","","","","","","","","","","","","","","true","3","3","ability","614","positive","全才","","","","","","","","","","","","","","","","",""
"null","","null","html-keyboard-response","67","175658","0.0-6.0-0.0-6.0-0.4","4","4","4","3","4","4","3","3","3","4","4","1","2","4","3","4","4","3","4","4","2","1","2","1","1","1","2","1","2","1","0","1","1","0","0","1","1","0","1","1","0","1","0","1","5","2","2","1","5","5","4","5","4","4","2","790191134524710914","黄","6","","","","","","","","","","","","","","","","","","","","","","","","","","","","","","","","","","","","","","","","","",""
"518","<p style=""color:rgb(150, 250, 100); font-size: 35px;"">自己的</p>","e","categorize-html","68","176181","0.0-6.0-0.0-6.0-1.4","4","4","4","3","4","4","3","3","3","4","4","1","2","4","3","4","4","3","4","4","2","1","2","1","1","1","2","1","2","1","0","1","1","0","0","1","1","0","1","1","0","1","0","1","5","2","2","1","5","5","4","5","4","4","2","790191134524710914","黄","6","","","","","","","","","","","","","","","","","","","true","3","3","ability","518","self","自己的","","","","","","","","","","","","","","","","",""
"null","","null","html-keyboard-response","69","176441","0.0-6.0-0.0-6.0-0.5","4","4","4","3","4","4","3","3","3","4","4","1","2","4","3","4","4","3","4","4","2","1","2","1","1","1","2","1","2","1","0","1","1","0","0","1","1","0","1","1","0","1","0","1","5","2","2","1","5","5","4","5","4","4","2","790191134524710914","黄","6","","","","","","","","","","","","","","","","","","","","","","","","","","","","","","","","","","","","","","","","","",""
"919","<p style=""color:white; font-size: 35px;"">能干</p>","e","categorize-html","70","177366","0.0-6.0-0.0-6.0-1.5","4","4","4","3","4","4","3","3","3","4","4","1","2","4","3","4","4","3","4","4","2","1","2","1","1","1","2","1","2","1","0","1","1","0","0","1","1","0","1","1","0","1","0","1","5","2","2","1","5","5","4","5","4","4","2","790191134524710914","黄","6","","","","","","","","","","","","","","","","","","","true","3","3","ability","919","positive","能干","","","","","","","","","","","","","","","","",""
"null","","null","html-keyboard-response","71","177625","0.0-6.0-0.0-6.0-0.6","4","4","4","3","4","4","3","3","3","4","4","1","2","4","3","4","4","3","4","4","2","1","2","1","1","1","2","1","2","1","0","1","1","0","0","1","1","0","1","1","0","1","0","1","5","2","2","1","5","5","4","5","4","4","2","790191134524710914","黄","6","","","","","","","","","","","","","","","","","","","","","","","","","","","","","","","","","","","","","","","","","",""
"679","<p style=""color:rgb(150, 250, 100); font-size: 35px;"">他</p>","i","categorize-html","72","178309","0.0-6.0-0.0-6.0-1.6","4","4","4","3","4","4","3","3","3","4","4","1","2","4","3","4","4","3","4","4","2","1","2","1","1","1","2","1","2","1","0","1","1","0","0","1","1","0","1","1","0","1","0","1","5","2","2","1","5","5","4","5","4","4","2","790191134524710914","黄","6","","","","","","","","","","","","","","","","","","","true","3","3","ability","679","other","他","","","","","","","","","","","","","","","","",""
"null","","null","html-keyboard-response","73","178561","0.0-6.0-0.0-6.0-0.7","4","4","4","3","4","4","3","3","3","4","4","1","2","4","3","4","4","3","4","4","2","1","2","1","1","1","2","1","2","1","0","1","1","0","0","1","1","0","1","1","0","1","0","1","5","2","2","1","5","5","4","5","4","4","2","790191134524710914","黄","6","","","","","","","","","","","","","","","","","","","","","","","","","","","","","","","","","","","","","","","","","",""
"599","<p style=""color:white; font-size: 35px;"">无能</p>","i","categorize-html","74","179165","0.0-6.0-0.0-6.0-1.7","4","4","4","3","4","4","3","3","3","4","4","1","2","4","3","4","4","3","4","4","2","1","2","1","1","1","2","1","2","1","0","1","1","0","0","1","1","0","1","1","0","1","0","1","5","2","2","1","5","5","4","5","4","4","2","790191134524710914","黄","6","","","","","","","","","","","","","","","","","","","true","3","3","ability","599","negative","无能","","","","","","","","","","","","","","","","",""
"null","","null","html-keyboard-response","75","179425","0.0-6.0-0.0-6.0-0.8","4","4","4","3","4","4","3","3","3","4","4","1","2","4","3","4","4","3","4","4","2","1","2","1","1","1","2","1","2","1","0","1","1","0","0","1","1","0","1","1","0","1","0","1","5","2","2","1","5","5","4","5","4","4","2","790191134524710914","黄","6","","","","","","","","","","","","","","","","","","","","","","","","","","","","","","","","","","","","","","","","","",""
"575","<p style=""color:rgb(150, 250, 100); font-size: 35px;"">他人的</p>","i","categorize-html","76","180005","0.0-6.0-0.0-6.0-1.8","4","4","4","3","4","4","3","3","3","4","4","1","2","4","3","4","4","3","4","4","2","1","2","1","1","1","2","1","2","1","0","1","1","0","0","1","1","0","1","1","0","1","0","1","5","2","2","1","5","5","4","5","4","4","2","790191134524710914","黄","6","","","","","","","","","","","","","","","","","","","true","3","3","ability","575","other","他人的","","","","","","","","","","","","","","","","",""
"null","","null","html-keyboard-response","77","180265","0.0-6.0-0.0-6.0-0.9","4","4","4","3","4","4","3","3","3","4","4","1","2","4","3","4","4","3","4","4","2","1","2","1","1","1","2","1","2","1","0","1","1","0","0","1","1","0","1","1","0","1","0","1","5","2","2","1","5","5","4","5","4","4","2","790191134524710914","黄","6","","","","","","","","","","","","","","","","","","","","","","","","","","","","","","","","","","","","","","","","","",""
"559","<p style=""color:white; font-size: 35px;"">拙笨</p>","i","categorize-html","78","180829","0.0-6.0-0.0-6.0-1.9","4","4","4","3","4","4","3","3","3","4","4","1","2","4","3","4","4","3","4","4","2","1","2","1","1","1","2","1","2","1","0","1","1","0","0","1","1","0","1","1","0","1","0","1","5","2","2","1","5","5","4","5","4","4","2","790191134524710914","黄","6","","","","","","","","","","","","","","","","","","","true","3","3","ability","559","negative","拙笨","","","","","","","","","","","","","","","","",""
"null","","null","html-keyboard-response","79","181081","0.0-6.0-0.0-6.0-0.10","4","4","4","3","4","4","3","3","3","4","4","1","2","4","3","4","4","3","4","4","2","1","2","1","1","1","2","1","2","1","0","1","1","0","0","1","1","0","1","1","0","1","0","1","5","2","2","1","5","5","4","5","4","4","2","790191134524710914","黄","6","","","","","","","","","","","","","","","","","","","","","","","","","","","","","","","","","","","","","","","","","",""
"575","<p style=""color:rgb(150, 250, 100); font-size: 35px;"">我的</p>","e","categorize-html","80","181661","0.0-6.0-0.0-6.0-1.10","4","4","4","3","4","4","3","3","3","4","4","1","2","4","3","4","4","3","4","4","2","1","2","1","1","1","2","1","2","1","0","1","1","0","0","1","1","0","1","1","0","1","0","1","5","2","2","1","5","5","4","5","4","4","2","790191134524710914","黄","6","","","","","","","","","","","","","","","","","","","true","3","3","ability","575","self","我的","","","","","","","","","","","","","","","","",""
"null","","null","html-keyboard-response","81","181913","0.0-6.0-0.0-6.0-0.11","4","4","4","3","4","4","3","3","3","4","4","1","2","4","3","4","4","3","4","4","2","1","2","1","1","1","2","1","2","1","0","1","1","0","0","1","1","0","1","1","0","1","0","1","5","2","2","1","5","5","4","5","4","4","2","790191134524710914","黄","6","","","","","","","","","","","","","","","","","","","","","","","","","","","","","","","","","","","","","","","","","",""
"663","<p style=""color:white; font-size: 35px;"">全能</p>","e","categorize-html","82","182582","0.0-6.0-0.0-6.0-1.11","4","4","4","3","4","4","3","3","3","4","4","1","2","4","3","4","4","3","4","4","2","1","2","1","1","1","2","1","2","1","0","1","1","0","0","1","1","0","1","1","0","1","0","1","5","2","2","1","5","5","4","5","4","4","2","790191134524710914","黄","6","","","","","","","","","","","","","","","","","","","true","3","3","ability","663","positive","全能","","","","","","","","","","","","","","","","",""
"null","","null","html-keyboard-response","83","182841","0.0-6.0-0.0-6.0-0.12","4","4","4","3","4","4","3","3","3","4","4","1","2","4","3","4","4","3","4","4","2","1","2","1","1","1","2","1","2","1","0","1","1","0","0","1","1","0","1","1","0","1","0","1","5","2","2","1","5","5","4","5","4","4","2","790191134524710914","黄","6","","","","","","","","","","","","","","","","","","","","","","","","","","","","","","","","","","","","","","","","","",""
"543","<p style=""color:rgb(150, 250, 100); font-size: 35px;"">本人的</p>","e","categorize-html","84","183389","0.0-6.0-0.0-6.0-1.12","4","4","4","3","4","4","3","3","3","4","4","1","2","4","3","4","4","3","4","4","2","1","2","1","1","1","2","1","2","1","0","1","1","0","0","1","1","0","1","1","0","1","0","1","5","2","2","1","5","5","4","5","4","4","2","790191134524710914","黄","6","","","","","","","","","","","","","","","","","","","true","3","3","ability","543","self","本人的","","","","","","","","","","","","","","","","",""
"null","","null","html-keyboard-response","85","183641","0.0-6.0-0.0-6.0-0.13","4","4","4","3","4","4","3","3","3","4","4","1","2","4","3","4","4","3","4","4","2","1","2","1","1","1","2","1","2","1","0","1","1","0","0","1","1","0","1","1","0","1","0","1","5","2","2","1","5","5","4","5","4","4","2","790191134524710914","黄","6","","","","","","","","","","","","","","","","","","","","","","","","","","","","","","","","","","","","","","","","","",""
"591","<p style=""color:white; font-size: 35px;"">蠢笨</p>","i","categorize-html","86","184237","0.0-6.0-0.0-6.0-1.13","4","4","4","3","4","4","3","3","3","4","4","1","2","4","3","4","4","3","4","4","2","1","2","1","1","1","2","1","2","1","0","1","1","0","0","1","1","0","1","1","0","1","0","1","5","2","2","1","5","5","4","5","4","4","2","790191134524710914","黄","6","","","","","","","","","","","","","","","","","","","true","3","3","ability","591","negative","蠢笨","","","","","","","","","","","","","","","","",""
"null","","null","html-keyboard-response","87","184489","0.0-6.0-0.0-6.0-0.14","4","4","4","3","4","4","3","3","3","4","4","1","2","4","3","4","4","3","4","4","2","1","2","1","1","1","2","1","2","1","0","1","1","0","0","1","1","0","1","1","0","1","0","1","5","2","2","1","5","5","4","5","4","4","2","790191134524710914","黄","6","","","","","","","","","","","","","","","","","","","","","","","","","","","","","","","","","","","","","","","","","",""
"687","<p style=""color:rgb(150, 250, 100); font-size: 35px;"">别人</p>","e","categorize-html","88","185610","0.0-6.0-0.0-6.0-1.14","4","4","4","3","4","4","3","3","3","4","4","1","2","4","3","4","4","3","4","4","2","1","2","1","1","1","2","1","2","1","0","1","1","0","0","1","1","0","1","1","0","1","0","1","5","2","2","1","5","5","4","5","4","4","2","790191134524710914","黄","6","","","","","","","","","","","","","","","","","","","false","3","3","ability","1246.9545454545455","other","别人","","","","","","","","","","","","","","","","",""
"null","","null","html-keyboard-response","89","185866","0.0-6.0-0.0-6.0-0.15","4","4","4","3","4","4","3","3","3","4","4","1","2","4","3","4","4","3","4","4","2","1","2","1","1","1","2","1","2","1","0","1","1","0","0","1","1","0","1","1","0","1","0","1","5","2","2","1","5","5","4","5","4","4","2","790191134524710914","黄","6","","","","","","","","","","","","","","","","","","","","","","","","","","","","","","","","","","","","","","","","","",""
"695","<p style=""color:white; font-size: 35px;"">天才</p>","e","categorize-html","90","186566","0.0-6.0-0.0-6.0-1.15","4","4","4","3","4","4","3","3","3","4","4","1","2","4","3","4","4","3","4","4","2","1","2","1","1","1","2","1","2","1","0","1","1","0","0","1","1","0","1","1","0","1","0","1","5","2","2","1","5","5","4","5","4","4","2","790191134524710914","黄","6","","","","","","","","","","","","","","","","","","","true","3","3","ability","695","positive","天才","","","","","","","","","","","","","","","","",""
"null","","null","html-keyboard-response","91","186818","0.0-6.0-0.0-6.0-0.16","4","4","4","3","4","4","3","3","3","4","4","1","2","4","3","4","4","3","4","4","2","1","2","1","1","1","2","1","2","1","0","1","1","0","0","1","1","0","1","1","0","1","0","1","5","2","2","1","5","5","4","5","4","4","2","790191134524710914","黄","6","","","","","","","","","","","","","","","","","","","","","","","","","","","","","","","","","","","","","","","","","",""
"630","<p style=""color:rgb(150, 250, 100); font-size: 35px;"">本人</p>","e","categorize-html","92","187454","0.0-6.0-0.0-6.0-1.16","4","4","4","3","4","4","3","3","3","4","4","1","2","4","3","4","4","3","4","4","2","1","2","1","1","1","2","1","2","1","0","1","1","0","0","1","1","0","1","1","0","1","0","1","5","2","2","1","5","5","4","5","4","4","2","790191134524710914","黄","6","","","","","","","","","","","","","","","","","","","true","3","3","ability","630","self","本人","","","","","","","","","","","","","","","","",""
"null","","null","html-keyboard-response","93","187706","0.0-6.0-0.0-6.0-0.17","4","4","4","3","4","4","3","3","3","4","4","1","2","4","3","4","4","3","4","4","2","1","2","1","1","1","2","1","2","1","0","1","1","0","0","1","1","0","1","1","0","1","0","1","5","2","2","1","5","5","4","5","4","4","2","790191134524710914","黄","6","","","","","","","","","","","","","","","","","","","","","","","","","","","","","","","","","","","","","","","","","",""
"663","<p style=""color:white; font-size: 35px;"">低能</p>","i","categorize-html","94","188374","0.0-6.0-0.0-6.0-1.17","4","4","4","3","4","4","3","3","3","4","4","1","2","4","3","4","4","3","4","4","2","1","2","1","1","1","2","1","2","1","0","1","1","0","0","1","1","0","1","1","0","1","0","1","5","2","2","1","5","5","4","5","4","4","2","790191134524710914","黄","6","","","","","","","","","","","","","","","","","","","true","3","3","ability","663","negative","低能","","","","","","","","","","","","","","","","",""
"null","","null","html-keyboard-response","95","188634","0.0-6.0-0.0-6.0-0.18","4","4","4","3","4","4","3","3","3","4","4","1","2","4","3","4","4","3","4","4","2","1","2","1","1","1","2","1","2","1","0","1","1","0","0","1","1","0","1","1","0","1","0","1","5","2","2","1","5","5","4","5","4","4","2","790191134524710914","黄","6","","","","","","","","","","","","","","","","","","","","","","","","","","","","","","","","","","","","","","","","","",""
"583","<p style=""color:rgb(150, 250, 100); font-size: 35px;"">别人的</p>","i","categorize-html","96","189222","0.0-6.0-0.0-6.0-1.18","4","4","4","3","4","4","3","3","3","4","4","1","2","4","3","4","4","3","4","4","2","1","2","1","1","1","2","1","2","1","0","1","1","0","0","1","1","0","1","1","0","1","0","1","5","2","2","1","5","5","4","5","4","4","2","790191134524710914","黄","6","","","","","","","","","","","","","","","","","","","true","3","3","ability","583","other","别人的","","","","","","","","","","","","","","","","",""
"null","","null","html-keyboard-response","97","189474","0.0-6.0-0.0-6.0-0.19","4","4","4","3","4","4","3","3","3","4","4","1","2","4","3","4","4","3","4","4","2","1","2","1","1","1","2","1","2","1","0","1","1","0","0","1","1","0","1","1","0","1","0","1","5","2","2","1","5","5","4","5","4","4","2","790191134524710914","黄","6","","","","","","","","","","","","","","","","","","","","","","","","","","","","","","","","","","","","","","","","","",""
"766","<p style=""color:white; font-size: 35px;"">高效</p>","e","categorize-html","98","190246","0.0-6.0-0.0-6.0-1.19","4","4","4","3","4","4","3","3","3","4","4","1","2","4","3","4","4","3","4","4","2","1","2","1","1","1","2","1","2","1","0","1","1","0","0","1","1","0","1","1","0","1","0","1","5","2","2","1","5","5","4","5","4","4","2","790191134524710914","黄","6","","","","","","","","","","","","","","","","","","","true","3","3","ability","766","positive","高效","","","","","","","","","","","","","","","","",""
"null","","null","html-keyboard-response","99","190498","0.0-6.0-0.0-6.0-0.20","4","4","4","3","4","4","3","3","3","4","4","1","2","4","3","4","4","3","4","4","2","1","2","1","1","1","2","1","2","1","0","1","1","0","0","1","1","0","1","1","0","1","0","1","5","2","2","1","5","5","4","5","4","4","2","790191134524710914","黄","6","","","","","","","","","","","","","","","","","","","","","","","","","","","","","","","","","","","","","","","","","",""
"766","<p style=""color:rgb(150, 250, 100); font-size: 35px;"">他的</p>","i","categorize-html","100","191270","0.0-6.0-0.0-6.0-1.20","4","4","4","3","4","4","3","3","3","4","4","1","2","4","3","4","4","3","4","4","2","1","2","1","1","1","2","1","2","1","0","1","1","0","0","1","1","0","1","1","0","1","0","1","5","2","2","1","5","5","4","5","4","4","2","790191134524710914","黄","6","","","","","","","","","","","","","","","","","","","true","3","3","ability","766","other","他的","","","","","","","","","","","","","","","","",""
"null","","null","html-keyboard-response","101","191522","0.0-6.0-0.0-6.0-0.21","4","4","4","3","4","4","3","3","3","4","4","1","2","4","3","4","4","3","4","4","2","1","2","1","1","1","2","1","2","1","0","1","1","0","0","1","1","0","1","1","0","1","0","1","5","2","2","1","5","5","4","5","4","4","2","790191134524710914","黄","6","","","","","","","","","","","","","","","","","","","","","","","","","","","","","","","","","","","","","","","","","",""
"702","<p style=""color:white; font-size: 35px;"">精干</p>","e","categorize-html","102","192230","0.0-6.0-0.0-6.0-1.21","4","4","4","3","4","4","3","3","3","4","4","1","2","4","3","4","4","3","4","4","2","1","2","1","1","1","2","1","2","1","0","1","1","0","0","1","1","0","1","1","0","1","0","1","5","2","2","1","5","5","4","5","4","4","2","790191134524710914","黄","6","","","","","","","","","","","","","","","","","","","true","3","3","ability","702","positive","精干","","","","","","","","","","","","","","","","",""
"null","","null","html-keyboard-response","103","192490","0.0-6.0-0.0-6.0-0.22","4","4","4","3","4","4","3","3","3","4","4","1","2","4","3","4","4","3","4","4","2","1","2","1","1","1","2","1","2","1","0","1","1","0","0","1","1","0","1","1","0","1","0","1","5","2","2","1","5","5","4","5","4","4","2","790191134524710914","黄","6","","","","","","","","","","","","","","","","","","","","","","","","","","","","","","","","","","","","","","","","","",""
"607","<p style=""color:rgb(150, 250, 100); font-size: 35px;"">我</p>","e","categorize-html","104","193102","0.0-6.0-0.0-6.0-1.22","4","4","4","3","4","4","3","3","3","4","4","1","2","4","3","4","4","3","4","4","2","1","2","1","1","1","2","1","2","1","0","1","1","0","0","1","1","0","1","1","0","1","0","1","5","2","2","1","5","5","4","5","4","4","2","790191134524710914","黄","6","","","","","","","","","","","","","","","","","","","true","3","3","ability","607","self","我","","","","","","","","","","","","","","","","",""
"null","","null","html-keyboard-response","105","193362","0.0-6.0-0.0-6.0-0.23","4","4","4","3","4","4","3","3","3","4","4","1","2","4","3","4","4","3","4","4","2","1","2","1","1","1","2","1","2","1","0","1","1","0","0","1","1","0","1","1","0","1","0","1","5","2","2","1","5","5","4","5","4","4","2","790191134524710914","黄","6","","","","","","","","","","","","","","","","","","","","","","","","","","","","","","","","","","","","","","","","","",""
"686","<p style=""color:white; font-size: 35px;"">愚钝</p>","i","categorize-html","106","194054","0.0-6.0-0.0-6.0-1.23","4","4","4","3","4","4","3","3","3","4","4","1","2","4","3","4","4","3","4","4","2","1","2","1","1","1","2","1","2","1","0","1","1","0","0","1","1","0","1","1","0","1","0","1","5","2","2","1","5","5","4","5","4","4","2","790191134524710914","黄","6","","","","","","","","","","","","","","","","","","","true","3","3","ability","686","negative","愚钝","","","","","","","","","","","","","","","","",""
"746","
    <div class=""tag-bottom""><p>
    —— 任务4：对“自我/积极”词和“他人/消极”词分类 ——<p/>
    <span style=""color:#78DCE8""><b>与刚才的任务完全相同，请再次对这四类词语分类</b></span><p/>
    <span style=""color:#FFD866""><b>请根据上方标签的提示，尽可能正确并且快速地做出按键反应</b></span><p/>
    当按键错误时屏幕中会出现<span style=""color:red""> X </span>，需要按另一个键纠正才能继续<br/><p/>
    请把双手食指分别放在键盘的“E”键和“I”键上<p/>
    按<空格键>开始
    </p></div>"," ","html-keyboard-response","107","194802","0.0-6.0-0.0-7.0","4","4","4","3","4","4","3","3","3","4","4","1","2","4","3","4","4","3","4","4","2","1","2","1","1","1","2","1","2","1","0","1","1","0","0","1","1","0","1","1","0","1","0","1","5","2","2","1","5","5","4","5","4","4","2","790191134524710914","黄","6","","","","","","","","","","","","","","","","","","","","","","","","","","","","","","","","","","","","","","","","","",""
"null","","null","html-keyboard-response","108","195058","0.0-6.0-0.0-8.0-0.0","4","4","4","3","4","4","3","3","3","4","4","1","2","4","3","4","4","3","4","4","2","1","2","1","1","1","2","1","2","1","0","1","1","0","0","1","1","0","1","1","0","1","0","1","5","2","2","1","5","5","4","5","4","4","2","790191134524710914","黄","6","","","","","","","","","","","","","","","","","","","","","","","","","","","","","","","","","","","","","","","","","",""
"541","<p style=""color:rgb(150, 250, 100); font-size: 35px;"">自己的</p>","e","categorize-html","109","195606","0.0-6.0-0.0-8.0-1.0","4","4","4","3","4","4","3","3","3","4","4","1","2","4","3","4","4","3","4","4","2","1","2","1","1","1","2","1","2","1","0","1","1","0","0","1","1","0","1","1","0","1","0","1","5","2","2","1","5","5","4","5","4","4","2","790191134524710914","黄","6","","","","","","","","","","","","","","","","","","","true","4","4","ability","541","self","自己的","","","","","","","","","","","","","","","","",""
"null","","null","html-keyboard-response","110","195858","0.0-6.0-0.0-8.0-0.1","4","4","4","3","4","4","3","3","3","4","4","1","2","4","3","4","4","3","4","4","2","1","2","1","1","1","2","1","2","1","0","1","1","0","0","1","1","0","1","1","0","1","0","1","5","2","2","1","5","5","4","5","4","4","2","790191134524710914","黄","6","","","","","","","","","","","","","","","","","","","","","","","","","","","","","","","","","","","","","","","","","",""
"694","<p style=""color:white; font-size: 35px;"">废物</p>","i","categorize-html","111","196558","0.0-6.0-0.0-8.0-1.1","4","4","4","3","4","4","3","3","3","4","4","1","2","4","3","4","4","3","4","4","2","1","2","1","1","1","2","1","2","1","0","1","1","0","0","1","1","0","1","1","0","1","0","1","5","2","2","1","5","5","4","5","4","4","2","790191134524710914","黄","6","","","","","","","","","","","","","","","","","","","true","4","4","ability","694","negative","废物","","","","","","","","","","","","","","","","",""
"null","","null","html-keyboard-response","112","196810","0.0-6.0-0.0-8.0-0.2","4","4","4","3","4","4","3","3","3","4","4","1","2","4","3","4","4","3","4","4","2","1","2","1","1","1","2","1","2","1","0","1","1","0","0","1","1","0","1","1","0","1","0","1","5","2","2","1","5","5","4","5","4","4","2","790191134524710914","黄","6","","","","","","","","","","","","","","","","","","","","","","","","","","","","","","","","","","","","","","","","","",""
"942","<p style=""color:rgb(150, 250, 100); font-size: 35px;"">他人的</p>","i","categorize-html","113","197758","0.0-6.0-0.0-8.0-1.2","4","4","4","3","4","4","3","3","3","4","4","1","2","4","3","4","4","3","4","4","2","1","2","1","1","1","2","1","2","1","0","1","1","0","0","1","1","0","1","1","0","1","0","1","5","2","2","1","5","5","4","5","4","4","2","790191134524710914","黄","6","","","","","","","","","","","","","","","","","","","true","4","4","ability","942","other","他人的","","","","","","","","","","","","","","","","",""
"null","","null","html-keyboard-response","114","198010","0.0-6.0-0.0-8.0-0.3","4","4","4","3","4","4","3","3","3","4","4","1","2","4","3","4","4","3","4","4","2","1","2","1","1","1","2","1","2","1","0","1","1","0","0","1","1","0","1","1","0","1","0","1","5","2","2","1","5","5","4","5","4","4","2","790191134524710914","黄","6","","","","","","","","","","","","","","","","","","","","","","","","","","","","","","","","","","","","","","","","","",""
"735","<p style=""color:white; font-size: 35px;"">高效</p>","e","categorize-html","115","198751","0.0-6.0-0.0-8.0-1.3","4","4","4","3","4","4","3","3","3","4","4","1","2","4","3","4","4","3","4","4","2","1","2","1","1","1","2","1","2","1","0","1","1","0","0","1","1","0","1","1","0","1","0","1","5","2","2","1","5","5","4","5","4","4","2","790191134524710914","黄","6","","","","","","","","","","","","","","","","","","","true","4","4","ability","735","positive","高效","","","","","","","","","","","","","","","","",""
"null","","null","html-keyboard-response","116","199010","0.0-6.0-0.0-8.0-0.4","4","4","4","3","4","4","3","3","3","4","4","1","2","4","3","4","4","3","4","4","2","1","2","1","1","1","2","1","2","1","0","1","1","0","0","1","1","0","1","1","0","1","0","1","5","2","2","1","5","5","4","5","4","4","2","790191134524710914","黄","6","","","","","","","","","","","","","","","","","","","","","","","","","","","","","","","","","","","","","","","","","",""
"759","<p style=""color:rgb(150, 250, 100); font-size: 35px;"">本人</p>","e","categorize-html","117","199774","0.0-6.0-0.0-8.0-1.4","4","4","4","3","4","4","3","3","3","4","4","1","2","4","3","4","4","3","4","4","2","1","2","1","1","1","2","1","2","1","0","1","1","0","0","1","1","0","1","1","0","1","0","1","5","2","2","1","5","5","4","5","4","4","2","790191134524710914","黄","6","","","","","","","","","","","","","","","","","","","true","4","4","ability","759","self","本人","","","","","","","","","","","","","","","","",""
"null","","null","html-keyboard-response","118","200034","0.0-6.0-0.0-8.0-0.5","4","4","4","3","4","4","3","3","3","4","4","1","2","4","3","4","4","3","4","4","2","1","2","1","1","1","2","1","2","1","0","1","1","0","0","1","1","0","1","1","0","1","0","1","5","2","2","1","5","5","4","5","4","4","2","790191134524710914","黄","6","","","","","","","","","","","","","","","","","","","","","","","","","","","","","","","","","","","","","","","","","",""
"591","<p style=""color:white; font-size: 35px;"">无能</p>","i","categorize-html","119","200629","0.0-6.0-0.0-8.0-1.5","4","4","4","3","4","4","3","3","3","4","4","1","2","4","3","4","4","3","4","4","2","1","2","1","1","1","2","1","2","1","0","1","1","0","0","1","1","0","1","1","0","1","0","1","5","2","2","1","5","5","4","5","4","4","2","790191134524710914","黄","6","","","","","","","","","","","","","","","","","","","true","4","4","ability","591","negative","无能","","","","","","","","","","","","","","","","",""
"null","","null","html-keyboard-response","120","200882","0.0-6.0-0.0-8.0-0.6","4","4","4","3","4","4","3","3","3","4","4","1","2","4","3","4","4","3","4","4","2","1","2","1","1","1","2","1","2","1","0","1","1","0","0","1","1","0","1","1","0","1","0","1","5","2","2","1","5","5","4","5","4","4","2","790191134524710914","黄","6","","","","","","","","","","","","","","","","","","","","","","","","","","","","","","","","","","","","","","","","","",""
"679","<p style=""color:rgb(150, 250, 100); font-size: 35px;"">别人的</p>","i","categorize-html","121","201566","0.0-6.0-0.0-8.0-1.6","4","4","4","3","4","4","3","3","3","4","4","1","2","4","3","4","4","3","4","4","2","1","2","1","1","1","2","1","2","1","0","1","1","0","0","1","1","0","1","1","0","1","0","1","5","2","2","1","5","5","4","5","4","4","2","790191134524710914","黄","6","","","","","","","","","","","","","","","","","","","true","4","4","ability","679","other","别人的","","","","","","","","","","","","","","","","",""
"null","","null","html-keyboard-response","122","201818","0.0-6.0-0.0-8.0-0.7","4","4","4","3","4","4","3","3","3","4","4","1","2","4","3","4","4","3","4","4","2","1","2","1","1","1","2","1","2","1","0","1","1","0","0","1","1","0","1","1","0","1","0","1","5","2","2","1","5","5","4","5","4","4","2","790191134524710914","黄","6","","","","","","","","","","","","","","","","","","","","","","","","","","","","","","","","","","","","","","","","","",""
"599","<p style=""color:white; font-size: 35px;"">精干</p>","e","categorize-html","123","202421","0.0-6.0-0.0-8.0-1.7","4","4","4","3","4","4","3","3","3","4","4","1","2","4","3","4","4","3","4","4","2","1","2","1","1","1","2","1","2","1","0","1","1","0","0","1","1","0","1","1","0","1","0","1","5","2","2","1","5","5","4","5","4","4","2","790191134524710914","黄","6","","","","","","","","","","","","","","","","","","","true","4","4","ability","599","positive","精干","","","","","","","","","","","","","","","","",""
"null","","null","html-keyboard-response","124","202682","0.0-6.0-0.0-8.0-0.8","4","4","4","3","4","4","3","3","3","4","4","1","2","4","3","4","4","3","4","4","2","1","2","1","1","1","2","1","2","1","0","1","1","0","0","1","1","0","1","1","0","1","0","1","5","2","2","1","5","5","4","5","4","4","2","790191134524710914","黄","6","","","","","","","","","","","","","","","","","","","","","","","","","","","","","","","","","","","","","","","","","",""
"743","<p style=""color:rgb(150, 250, 100); font-size: 35px;"">我的</p>","e","categorize-html","125","203430","0.0-6.0-0.0-8.0-1.8","4","4","4","3","4","4","3","3","3","4","4","1","2","4","3","4","4","3","4","4","2","1","2","1","1","1","2","1","2","1","0","1","1","0","0","1","1","0","1","1","0","1","0","1","5","2","2","1","5","5","4","5","4","4","2","790191134524710914","黄","6","","","","","","","","","","","","","","","","","","","true","4","4","ability","743","self","我的","","","","","","","","","","","","","","","","",""
"null","","null","html-keyboard-response","126","203682","0.0-6.0-0.0-8.0-0.9","4","4","4","3","4","4","3","3","3","4","4","1","2","4","3","4","4","3","4","4","2","1","2","1","1","1","2","1","2","1","0","1","1","0","0","1","1","0","1","1","0","1","0","1","5","2","2","1","5","5","4","5","4","4","2","790191134524710914","黄","6","","","","","","","","","","","","","","","","","","","","","","","","","","","","","","","","","","","","","","","","","",""
"814","<p style=""color:white; font-size: 35px;"">精干</p>","i","categorize-html","127","205170","0.0-6.0-0.0-8.0-1.9","4","4","4","3","4","4","3","3","3","4","4","1","2","4","3","4","4","3","4","4","2","1","2","1","1","1","2","1","2","1","0","1","1","0","0","1","1","0","1","1","0","1","0","1","5","2","2","1","5","5","4","5","4","4","2","790191134524710914","黄","6","","","","","","","","","","","","","","","","","","","false","4","4","ability","1377.282608695652","positive","精干","","","","","","","","","","","","","","","","",""
"null","","null","html-keyboard-response","128","205426","0.0-6.0-0.0-8.0-0.10","4","4","4","3","4","4","3","3","3","4","4","1","2","4","3","4","4","3","4","4","2","1","2","1","1","1","2","1","2","1","0","1","1","0","0","1","1","0","1","1","0","1","0","1","5","2","2","1","5","5","4","5","4","4","2","790191134524710914","黄","6","","","","","","","","","","","","","","","","","","","","","","","","","","","","","","","","","","","","","","","","","",""
"671","<p style=""color:rgb(150, 250, 100); font-size: 35px;"">他</p>","i","categorize-html","129","206101","0.0-6.0-0.0-8.0-1.10","4","4","4","3","4","4","3","3","3","4","4","1","2","4","3","4","4","3","4","4","2","1","2","1","1","1","2","1","2","1","0","1","1","0","0","1","1","0","1","1","0","1","0","1","5","2","2","1","5","5","4","5","4","4","2","790191134524710914","黄","6","","","","","","","","","","","","","","","","","","","true","4","4","ability","671","other","他","","","","","","","","","","","","","","","","",""
"null","","null","html-keyboard-response","130","206354","0.0-6.0-0.0-8.0-0.11","4","4","4","3","4","4","3","3","3","4","4","1","2","4","3","4","4","3","4","4","2","1","2","1","1","1","2","1","2","1","0","1","1","0","0","1","1","0","1","1","0","1","0","1","5","2","2","1","5","5","4","5","4","4","2","790191134524710914","黄","6","","","","","","","","","","","","","","","","","","","","","","","","","","","","","","","","","","","","","","","","","",""
"750","<p style=""color:white; font-size: 35px;"">废物</p>","i","categorize-html","131","207110","0.0-6.0-0.0-8.0-1.11","4","4","4","3","4","4","3","3","3","4","4","1","2","4","3","4","4","3","4","4","2","1","2","1","1","1","2","1","2","1","0","1","1","0","0","1","1","0","1","1","0","1","0","1","5","2","2","1","5","5","4","5","4","4","2","790191134524710914","黄","6","","","","","","","","","","","","","","","","","","","true","4","4","ability","750","negative","废物","","","","","","","","","","","","","","","","",""
"null","","null","html-keyboard-response","132","207362","0.0-6.0-0.0-8.0-0.12","4","4","4","3","4","4","3","3","3","4","4","1","2","4","3","4","4","3","4","4","2","1","2","1","1","1","2","1","2","1","0","1","1","0","0","1","1","0","1","1","0","1","0","1","5","2","2","1","5","5","4","5","4","4","2","790191134524710914","黄","6","","","","","","","","","","","","","","","","","","","","","","","","","","","","","","","","","","","","","","","","","",""
"542","<p style=""color:rgb(150, 250, 100); font-size: 35px;"">自己的</p>","e","categorize-html","133","207909","0.0-6.0-0.0-8.0-1.12","4","4","4","3","4","4","3","3","3","4","4","1","2","4","3","4","4","3","4","4","2","1","2","1","1","1","2","1","2","1","0","1","1","0","0","1","1","0","1","1","0","1","0","1","5","2","2","1","5","5","4","5","4","4","2","790191134524710914","黄","6","","","","","","","","","","","","","","","","","","","true","4","4","ability","542","self","自己的","","","","","","","","","","","","","","","","",""
"null","","null","html-keyboard-response","134","208162","0.0-6.0-0.0-8.0-0.13","4","4","4","3","4","4","3","3","3","4","4","1","2","4","3","4","4","3","4","4","2","1","2","1","1","1","2","1","2","1","0","1","1","0","0","1","1","0","1","1","0","1","0","1","5","2","2","1","5","5","4","5","4","4","2","790191134524710914","黄","6","","","","","","","","","","","","","","","","","","","","","","","","","","","","","","","","","","","","","","","","","",""
"1046","<p style=""color:white; font-size: 35px;"">低能</p>","i","categorize-html","135","209214","0.0-6.0-0.0-8.0-1.13","4","4","4","3","4","4","3","3","3","4","4","1","2","4","3","4","4","3","4","4","2","1","2","1","1","1","2","1","2","1","0","1","1","0","0","1","1","0","1","1","0","1","0","1","5","2","2","1","5","5","4","5","4","4","2","790191134524710914","黄","6","","","","","","","","","","","","","","","","","","","true","4","4","ability","1046","negative","低能","","","","","","","","","","","","","","","","",""
"null","","null","html-keyboard-response","136","209466","0.0-6.0-0.0-8.0-0.14","4","4","4","3","4","4","3","3","3","4","4","1","2","4","3","4","4","3","4","4","2","1","2","1","1","1","2","1","2","1","0","1","1","0","0","1","1","0","1","1","0","1","0","1","5","2","2","1","5","5","4","5","4","4","2","790191134524710914","黄","6","","","","","","","","","","","","","","","","","","","","","","","","","","","","","","","","","","","","","","","","","",""
"910","<p style=""color:rgb(150, 250, 100); font-size: 35px;"">别人的</p>","i","categorize-html","137","210382","0.0-6.0-0.0-8.0-1.14","4","4","4","3","4","4","3","3","3","4","4","1","2","4","3","4","4","3","4","4","2","1","2","1","1","1","2","1","2","1","0","1","1","0","0","1","1","0","1","1","0","1","0","1","5","2","2","1","5","5","4","5","4","4","2","790191134524710914","黄","6","","","","","","","","","","","","","","","","","","","true","4","4","ability","910","other","别人的","","","","","","","","","","","","","","","","",""
"null","","null","html-keyboard-response","138","210634","0.0-6.0-0.0-8.0-0.15","4","4","4","3","4","4","3","3","3","4","4","1","2","4","3","4","4","3","4","4","2","1","2","1","1","1","2","1","2","1","0","1","1","0","0","1","1","0","1","1","0","1","0","1","5","2","2","1","5","5","4","5","4","4","2","790191134524710914","黄","6","","","","","","","","","","","","","","","","","","","","","","","","","","","","","","","","","","","","","","","","","",""
"910","<p style=""color:white; font-size: 35px;"">全才</p>","e","categorize-html","139","211550","0.0-6.0-0.0-8.0-1.15","4","4","4","3","4","4","3","3","3","4","4","1","2","4","3","4","4","3","4","4","2","1","2","1","1","1","2","1","2","1","0","1","1","0","0","1","1","0","1","1","0","1","0","1","5","2","2","1","5","5","4","5","4","4","2","790191134524710914","黄","6","","","","","","","","","","","","","","","","","","","true","4","4","ability","910","positive","全才","","","","","","","","","","","","","","","","",""
"null","","null","html-keyboard-response","140","211802","0.0-6.0-0.0-8.0-0.16","4","4","4","3","4","4","3","3","3","4","4","1","2","4","3","4","4","3","4","4","2","1","2","1","1","1","2","1","2","1","0","1","1","0","0","1","1","0","1","1","0","1","0","1","5","2","2","1","5","5","4","5","4","4","2","790191134524710914","黄","6","","","","","","","","","","","","","","","","","","","","","","","","","","","","","","","","","","","","","","","","","",""
"758","<p style=""color:rgb(150, 250, 100); font-size: 35px;"">别人</p>","i","categorize-html","141","212566","0.0-6.0-0.0-8.0-1.16","4","4","4","3","4","4","3","3","3","4","4","1","2","4","3","4","4","3","4","4","2","1","2","1","1","1","2","1","2","1","0","1","1","0","0","1","1","0","1","1","0","1","0","1","5","2","2","1","5","5","4","5","4","4","2","790191134524710914","黄","6","","","","","","","","","","","","","","","","","","","true","4","4","ability","758","other","别人","","","","","","","","","","","","","","","","",""
"null","","null","html-keyboard-response","142","212818","0.0-6.0-0.0-8.0-0.17","4","4","4","3","4","4","3","3","3","4","4","1","2","4","3","4","4","3","4","4","2","1","2","1","1","1","2","1","2","1","0","1","1","0","0","1","1","0","1","1","0","1","0","1","5","2","2","1","5","5","4","5","4","4","2","790191134524710914","黄","6","","","","","","","","","","","","","","","","","","","","","","","","","","","","","","","","","","","","","","","","","",""
"574","<p style=""color:white; font-size: 35px;"">愚钝</p>","i","categorize-html","143","213398","0.0-6.0-0.0-8.0-1.17","4","4","4","3","4","4","3","3","3","4","4","1","2","4","3","4","4","3","4","4","2","1","2","1","1","1","2","1","2","1","0","1","1","0","0","1","1","0","1","1","0","1","0","1","5","2","2","1","5","5","4","5","4","4","2","790191134524710914","黄","6","","","","","","","","","","","","","","","","","","","true","4","4","ability","574","negative","愚钝","","","","","","","","","","","","","","","","",""
"null","","null","html-keyboard-response","144","213650","0.0-6.0-0.0-8.0-0.18","4","4","4","3","4","4","3","3","3","4","4","1","2","4","3","4","4","3","4","4","2","1","2","1","1","1","2","1","2","1","0","1","1","0","0","1","1","0","1","1","0","1","0","1","5","2","2","1","5","5","4","5","4","4","2","790191134524710914","黄","6","","","","","","","","","","","","","","","","","","","","","","","","","","","","","","","","","","","","","","","","","",""
"623","<p style=""color:rgb(150, 250, 100); font-size: 35px;"">本人</p>","e","categorize-html","145","214278","0.0-6.0-0.0-8.0-1.18","4","4","4","3","4","4","3","3","3","4","4","1","2","4","3","4","4","3","4","4","2","1","2","1","1","1","2","1","2","1","0","1","1","0","0","1","1","0","1","1","0","1","0","1","5","2","2","1","5","5","4","5","4","4","2","790191134524710914","黄","6","","","","","","","","","","","","","","","","","","","true","4","4","ability","623","self","本人","","","","","","","","","","","","","","","","",""
"null","","null","html-keyboard-response","146","214530","0.0-6.0-0.0-8.0-0.19","4","4","4","3","4","4","3","3","3","4","4","1","2","4","3","4","4","3","4","4","2","1","2","1","1","1","2","1","2","1","0","1","1","0","0","1","1","0","1","1","0","1","0","1","5","2","2","1","5","5","4","5","4","4","2","790191134524710914","黄","6","","","","","","","","","","","","","","","","","","","","","","","","","","","","","","","","","","","","","","","","","",""
"542","<p style=""color:white; font-size: 35px;"">天才</p>","e","categorize-html","147","215077","0.0-6.0-0.0-8.0-1.19","4","4","4","3","4","4","3","3","3","4","4","1","2","4","3","4","4","3","4","4","2","1","2","1","1","1","2","1","2","1","0","1","1","0","0","1","1","0","1","1","0","1","0","1","5","2","2","1","5","5","4","5","4","4","2","790191134524710914","黄","6","","","","","","","","","","","","","","","","","","","true","4","4","ability","542","positive","天才","","","","","","","","","","","","","","","","",""
"null","","null","html-keyboard-response","148","215330","0.0-6.0-0.0-8.0-0.20","4","4","4","3","4","4","3","3","3","4","4","1","2","4","3","4","4","3","4","4","2","1","2","1","1","1","2","1","2","1","0","1","1","0","0","1","1","0","1","1","0","1","0","1","5","2","2","1","5","5","4","5","4","4","2","790191134524710914","黄","6","","","","","","","","","","","","","","","","","","","","","","","","","","","","","","","","","","","","","","","","","",""
"758","<p style=""color:rgb(150, 250, 100); font-size: 35px;"">他人的</p>","i","categorize-html","149","216094","0.0-6.0-0.0-8.0-1.20","4","4","4","3","4","4","3","3","3","4","4","1","2","4","3","4","4","3","4","4","2","1","2","1","1","1","2","1","2","1","0","1","1","0","0","1","1","0","1","1","0","1","0","1","5","2","2","1","5","5","4","5","4","4","2","790191134524710914","黄","6","","","","","","","","","","","","","","","","","","","true","4","4","ability","758","other","他人的","","","","","","","","","","","","","","","","",""
"null","","null","html-keyboard-response","150","216354","0.0-6.0-0.0-8.0-0.21","4","4","4","3","4","4","3","3","3","4","4","1","2","4","3","4","4","3","4","4","2","1","2","1","1","1","2","1","2","1","0","1","1","0","0","1","1","0","1","1","0","1","0","1","5","2","2","1","5","5","4","5","4","4","2","790191134524710914","黄","6","","","","","","","","","","","","","","","","","","","","","","","","","","","","","","","","","","","","","","","","","",""
"710","<p style=""color:white; font-size: 35px;"">无能</p>","i","categorize-html","151","217069","0.0-6.0-0.0-8.0-1.21","4","4","4","3","4","4","3","3","3","4","4","1","2","4","3","4","4","3","4","4","2","1","2","1","1","1","2","1","2","1","0","1","1","0","0","1","1","0","1","1","0","1","0","1","5","2","2","1","5","5","4","5","4","4","2","790191134524710914","黄","6","","","","","","","","","","","","","","","","","","","true","4","4","ability","710","negative","无能","","","","","","","","","","","","","","","","",""
"null","","null","html-keyboard-response","152","217322","0.0-6.0-0.0-8.0-0.22","4","4","4","3","4","4","3","3","3","4","4","1","2","4","3","4","4","3","4","4","2","1","2","1","1","1","2","1","2","1","0","1","1","0","0","1","1","0","1","1","0","1","0","1","5","2","2","1","5","5","4","5","4","4","2","790191134524710914","黄","6","","","","","","","","","","","","","","","","","","","","","","","","","","","","","","","","","","","","","","","","","",""
"550","<p style=""color:rgb(150, 250, 100); font-size: 35px;"">我</p>","e","categorize-html","153","217877","0.0-6.0-0.0-8.0-1.22","4","4","4","3","4","4","3","3","3","4","4","1","2","4","3","4","4","3","4","4","2","1","2","1","1","1","2","1","2","1","0","1","1","0","0","1","1","0","1","1","0","1","0","1","5","2","2","1","5","5","4","5","4","4","2","790191134524710914","黄","6","","","","","","","","","","","","","","","","","","","true","4","4","ability","550","self","我","","","","","","","","","","","","","","","","",""
"null","","null","html-keyboard-response","154","218130","0.0-6.0-0.0-8.0-0.23","4","4","4","3","4","4","3","3","3","4","4","1","2","4","3","4","4","3","4","4","2","1","2","1","1","1","2","1","2","1","0","1","1","0","0","1","1","0","1","1","0","1","0","1","5","2","2","1","5","5","4","5","4","4","2","790191134524710914","黄","6","","","","","","","","","","","","","","","","","","","","","","","","","","","","","","","","","","","","","","","","","",""
"767","<p style=""color:white; font-size: 35px;"">能干</p>","e","categorize-html","155","218904","0.0-6.0-0.0-8.0-1.23","4","4","4","3","4","4","3","3","3","4","4","1","2","4","3","4","4","3","4","4","2","1","2","1","1","1","2","1","2","1","0","1","1","0","0","1","1","0","1","1","0","1","0","1","5","2","2","1","5","5","4","5","4","4","2","790191134524710914","黄","6","","","","","","","","","","","","","","","","","","","true","4","4","ability","767","positive","能干","","","","","","","","","","","","","","","","",""
"null","","null","html-keyboard-response","156","219162","0.0-6.0-0.0-8.0-0.24","4","4","4","3","4","4","3","3","3","4","4","1","2","4","3","4","4","3","4","4","2","1","2","1","1","1","2","1","2","1","0","1","1","0","0","1","1","0","1","1","0","1","0","1","5","2","2","1","5","5","4","5","4","4","2","790191134524710914","黄","6","","","","","","","","","","","","","","","","","","","","","","","","","","","","","","","","","","","","","","","","","",""
"623","<p style=""color:rgb(150, 250, 100); font-size: 35px;"">他人</p>","i","categorize-html","157","219789","0.0-6.0-0.0-8.0-1.24","4","4","4","3","4","4","3","3","3","4","4","1","2","4","3","4","4","3","4","4","2","1","2","1","1","1","2","1","2","1","0","1","1","0","0","1","1","0","1","1","0","1","0","1","5","2","2","1","5","5","4","5","4","4","2","790191134524710914","黄","6","","","","","","","","","","","","","","","","","","","true","4","4","ability","623","other","他人","","","","","","","","","","","","","","","","",""
"null","","null","html-keyboard-response","158","220042","0.0-6.0-0.0-8.0-0.25","4","4","4","3","4","4","3","3","3","4","4","1","2","4","3","4","4","3","4","4","2","1","2","1","1","1","2","1","2","1","0","1","1","0","0","1","1","0","1","1","0","1","0","1","5","2","2","1","5","5","4","5","4","4","2","790191134524710914","黄","6","","","","","","","","","","","","","","","","","","","","","","","","","","","","","","","","","","","","","","","","","",""
"2167","<p style=""color:white; font-size: 35px;"">全能</p>","e","categorize-html","159","222214","0.0-6.0-0.0-8.0-1.25","4","4","4","3","4","4","3","3","3","4","4","1","2","4","3","4","4","3","4","4","2","1","2","1","1","1","2","1","2","1","0","1","1","0","0","1","1","0","1","1","0","1","0","1","5","2","2","1","5","5","4","5","4","4","2","790191134524710914","黄","6","","","","","","","","","","","","","","","","","","","true","4","4","ability","2167","positive","全能","","","","","","","","","","","","","","","","",""
"null","","null","html-keyboard-response","160","222466","0.0-6.0-0.0-8.0-0.26","4","4","4","3","4","4","3","3","3","4","4","1","2","4","3","4","4","3","4","4","2","1","2","1","1","1","2","1","2","1","0","1","1","0","0","1","1","0","1","1","0","1","0","1","5","2","2","1","5","5","4","5","4","4","2","790191134524710914","黄","6","","","","","","","","","","","","","","","","","","","","","","","","","","","","","","","","","","","","","","","","","",""
"543","<p style=""color:rgb(150, 250, 100); font-size: 35px;"">我的</p>","e","categorize-html","161","223013","0.0-6.0-0.0-8.0-1.26","4","4","4","3","4","4","3","3","3","4","4","1","2","4","3","4","4","3","4","4","2","1","2","1","1","1","2","1","2","1","0","1","1","0","0","1","1","0","1","1","0","1","0","1","5","2","2","1","5","5","4","5","4","4","2","790191134524710914","黄","6","","","","","","","","","","","","","","","","","","","true","4","4","ability","543","self","我的","","","","","","","","","","","","","","","","",""
"null","","null","html-keyboard-response","162","223266","0.0-6.0-0.0-8.0-0.27","4","4","4","3","4","4","3","3","3","4","4","1","2","4","3","4","4","3","4","4","2","1","2","1","1","1","2","1","2","1","0","1","1","0","0","1","1","0","1","1","0","1","0","1","5","2","2","1","5","5","4","5","4","4","2","790191134524710914","黄","6","","","","","","","","","","","","","","","","","","","","","","","","","","","","","","","","","","","","","","","","","",""
"751","<p style=""color:white; font-size: 35px;"">蠢笨</p>","i","categorize-html","163","224021","0.0-6.0-0.0-8.0-1.27","4","4","4","3","4","4","3","3","3","4","4","1","2","4","3","4","4","3","4","4","2","1","2","1","1","1","2","1","2","1","0","1","1","0","0","1","1","0","1","1","0","1","0","1","5","2","2","1","5","5","4","5","4","4","2","790191134524710914","黄","6","","","","","","","","","","","","","","","","","","","true","4","4","ability","751","negative","蠢笨","","","","","","","","","","","","","","","","",""
"null","","null","html-keyboard-response","164","224274","0.0-6.0-0.0-8.0-0.28","4","4","4","3","4","4","3","3","3","4","4","1","2","4","3","4","4","3","4","4","2","1","2","1","1","1","2","1","2","1","0","1","1","0","0","1","1","0","1","1","0","1","0","1","5","2","2","1","5","5","4","5","4","4","2","790191134524710914","黄","6","","","","","","","","","","","","","","","","","","","","","","","","","","","","","","","","","","","","","","","","","",""
"574","<p style=""color:rgb(150, 250, 100); font-size: 35px;"">他的</p>","i","categorize-html","165","224854","0.0-6.0-0.0-8.0-1.28","4","4","4","3","4","4","3","3","3","4","4","1","2","4","3","4","4","3","4","4","2","1","2","1","1","1","2","1","2","1","0","1","1","0","0","1","1","0","1","1","0","1","0","1","5","2","2","1","5","5","4","5","4","4","2","790191134524710914","黄","6","","","","","","","","","","","","","","","","","","","true","4","4","ability","574","other","他的","","","","","","","","","","","","","","","","",""
"null","","null","html-keyboard-response","166","225106","0.0-6.0-0.0-8.0-0.29","4","4","4","3","4","4","3","3","3","4","4","1","2","4","3","4","4","3","4","4","2","1","2","1","1","1","2","1","2","1","0","1","1","0","0","1","1","0","1","1","0","1","0","1","5","2","2","1","5","5","4","5","4","4","2","790191134524710914","黄","6","","","","","","","","","","","","","","","","","","","","","","","","","","","","","","","","","","","","","","","","","",""
"974","<p style=""color:white; font-size: 35px;"">全才</p>","e","categorize-html","167","226085","0.0-6.0-0.0-8.0-1.29","4","4","4","3","4","4","3","3","3","4","4","1","2","4","3","4","4","3","4","4","2","1","2","1","1","1","2","1","2","1","0","1","1","0","0","1","1","0","1","1","0","1","0","1","5","2","2","1","5","5","4","5","4","4","2","790191134524710914","黄","6","","","","","","","","","","","","","","","","","","","true","4","4","ability","974","positive","全才","","","","","","","","","","","","","","","","",""
"null","","null","html-keyboard-response","168","226338","0.0-6.0-0.0-8.0-0.30","4","4","4","3","4","4","3","3","3","4","4","1","2","4","3","4","4","3","4","4","2","1","2","1","1","1","2","1","2","1","0","1","1","0","0","1","1","0","1","1","0","1","0","1","5","2","2","1","5","5","4","5","4","4","2","790191134524710914","黄","6","","","","","","","","","","","","","","","","","","","","","","","","","","","","","","","","","","","","","","","","","",""
"559","<p style=""color:rgb(150, 250, 100); font-size: 35px;"">自己</p>","e","categorize-html","169","226901","0.0-6.0-0.0-8.0-1.30","4","4","4","3","4","4","3","3","3","4","4","1","2","4","3","4","4","3","4","4","2","1","2","1","1","1","2","1","2","1","0","1","1","0","0","1","1","0","1","1","0","1","0","1","5","2","2","1","5","5","4","5","4","4","2","790191134524710914","黄","6","","","","","","","","","","","","","","","","","","","true","4","4","ability","559","self","自己","","","","","","","","","","","","","","","","",""
"null","","null","html-keyboard-response","170","227154","0.0-6.0-0.0-8.0-0.31","4","4","4","3","4","4","3","3","3","4","4","1","2","4","3","4","4","3","4","4","2","1","2","1","1","1","2","1","2","1","0","1","1","0","0","1","1","0","1","1","0","1","0","1","5","2","2","1","5","5","4","5","4","4","2","790191134524710914","黄","6","","","","","","","","","","","","","","","","","","","","","","","","","","","","","","","","","","","","","","","","","",""
"846","<p style=""color:white; font-size: 35px;"">愚钝</p>","i","categorize-html","171","228005","0.0-6.0-0.0-8.0-1.31","4","4","4","3","4","4","3","3","3","4","4","1","2","4","3","4","4","3","4","4","2","1","2","1","1","1","2","1","2","1","0","1","1","0","0","1","1","0","1","1","0","1","0","1","5","2","2","1","5","5","4","5","4","4","2","790191134524710914","黄","6","","","","","","","","","","","","","","","","","","","true","4","4","ability","846","negative","愚钝","","","","","","","","","","","","","","","","",""
"null","","null","html-keyboard-response","172","228258","0.0-6.0-0.0-8.0-0.32","4","4","4","3","4","4","3","3","3","4","4","1","2","4","3","4","4","3","4","4","2","1","2","1","1","1","2","1","2","1","0","1","1","0","0","1","1","0","1","1","0","1","0","1","5","2","2","1","5","5","4","5","4","4","2","790191134524710914","黄","6","","","","","","","","","","","","","","","","","","","","","","","","","","","","","","","","","","","","","","","","","",""
"702","<p style=""color:rgb(150, 250, 100); font-size: 35px;"">本人的</p>","e","categorize-html","173","228965","0.0-6.0-0.0-8.0-1.32","4","4","4","3","4","4","3","3","3","4","4","1","2","4","3","4","4","3","4","4","2","1","2","1","1","1","2","1","2","1","0","1","1","0","0","1","1","0","1","1","0","1","0","1","5","2","2","1","5","5","4","5","4","4","2","790191134524710914","黄","6","","","","","","","","","","","","","","","","","","","true","4","4","ability","702","self","本人的","","","","","","","","","","","","","","","","",""
"null","","null","html-keyboard-response","174","229218","0.0-6.0-0.0-8.0-0.33","4","4","4","3","4","4","3","3","3","4","4","1","2","4","3","4","4","3","4","4","2","1","2","1","1","1","2","1","2","1","0","1","1","0","0","1","1","0","1","1","0","1","0","1","5","2","2","1","5","5","4","5","4","4","2","790191134524710914","黄","6","","","","","","","","","","","","","","","","","","","","","","","","","","","","","","","","","","","","","","","","","",""
"1334","<p style=""color:white; font-size: 35px;"">拙笨</p>","i","categorize-html","175","230557","0.0-6.0-0.0-8.0-1.33","4","4","4","3","4","4","3","3","3","4","4","1","2","4","3","4","4","3","4","4","2","1","2","1","1","1","2","1","2","1","0","1","1","0","0","1","1","0","1","1","0","1","0","1","5","2","2","1","5","5","4","5","4","4","2","790191134524710914","黄","6","","","","","","","","","","","","","","","","","","","true","4","4","ability","1334","negative","拙笨","","","","","","","","","","","","","","","","",""
"null","","null","html-keyboard-response","176","230810","0.0-6.0-0.0-8.0-0.34","4","4","4","3","4","4","3","3","3","4","4","1","2","4","3","4","4","3","4","4","2","1","2","1","1","1","2","1","2","1","0","1","1","0","0","1","1","0","1","1","0","1","0","1","5","2","2","1","5","5","4","5","4","4","2","790191134524710914","黄","6","","","","","","","","","","","","","","","","","","","","","","","","","","","","","","","","","","","","","","","","","",""
"758","<p style=""color:rgb(150, 250, 100); font-size: 35px;"">他人</p>","i","categorize-html","177","231574","0.0-6.0-0.0-8.0-1.34","4","4","4","3","4","4","3","3","3","4","4","1","2","4","3","4","4","3","4","4","2","1","2","1","1","1","2","1","2","1","0","1","1","0","0","1","1","0","1","1","0","1","0","1","5","2","2","1","5","5","4","5","4","4","2","790191134524710914","黄","6","","","","","","","","","","","","","","","","","","","true","4","4","ability","758","other","他人","","","","","","","","","","","","","","","","",""
"null","","null","html-keyboard-response","178","231826","0.0-6.0-0.0-8.0-0.35","4","4","4","3","4","4","3","3","3","4","4","1","2","4","3","4","4","3","4","4","2","1","2","1","1","1","2","1","2","1","0","1","1","0","0","1","1","0","1","1","0","1","0","1","5","2","2","1","5","5","4","5","4","4","2","790191134524710914","黄","6","","","","","","","","","","","","","","","","","","","","","","","","","","","","","","","","","","","","","","","","","",""
"926","<p style=""color:white; font-size: 35px;"">能干</p>","i","categorize-html","179","233258","0.0-6.0-0.0-8.0-1.35","4","4","4","3","4","4","3","3","3","4","4","1","2","4","3","4","4","3","4","4","2","1","2","1","1","1","2","1","2","1","0","1","1","0","0","1","1","0","1","1","0","1","0","1","5","2","2","1","5","5","4","5","4","4","2","790191134524710914","黄","6","","","","","","","","","","","","","","","","","","","false","4","4","ability","1377.282608695652","positive","能干","","","","","","","","","","","","","","","","",""
"null","","null","html-keyboard-response","180","233514","0.0-6.0-0.0-8.0-0.36","4","4","4","3","4","4","3","3","3","4","4","1","2","4","3","4","4","3","4","4","2","1","2","1","1","1","2","1","2","1","0","1","1","0","0","1","1","0","1","1","0","1","0","1","5","2","2","1","5","5","4","5","4","4","2","790191134524710914","黄","6","","","","","","","","","","","","","","","","","","","","","","","","","","","","","","","","","","","","","","","","","",""
"686","<p style=""color:rgb(150, 250, 100); font-size: 35px;"">他的</p>","i","categorize-html","181","234207","0.0-6.0-0.0-8.0-1.36","4","4","4","3","4","4","3","3","3","4","4","1","2","4","3","4","4","3","4","4","2","1","2","1","1","1","2","1","2","1","0","1","1","0","0","1","1","0","1","1","0","1","0","1","5","2","2","1","5","5","4","5","4","4","2","790191134524710914","黄","6","","","","","","","","","","","","","","","","","","","true","4","4","ability","686","other","他的","","","","","","","","","","","","","","","","",""
"null","","null","html-keyboard-response","182","234466","0.0-6.0-0.0-8.0-0.37","4","4","4","3","4","4","3","3","3","4","4","1","2","4","3","4","4","3","4","4","2","1","2","1","1","1","2","1","2","1","0","1","1","0","0","1","1","0","1","1","0","1","0","1","5","2","2","1","5","5","4","5","4","4","2","790191134524710914","黄","6","","","","","","","","","","","","","","","","","","","","","","","","","","","","","","","","","","","","","","","","","",""
"766","<p style=""color:white; font-size: 35px;"">蠢笨</p>","i","categorize-html","183","235238","0.0-6.0-0.0-8.0-1.37","4","4","4","3","4","4","3","3","3","4","4","1","2","4","3","4","4","3","4","4","2","1","2","1","1","1","2","1","2","1","0","1","1","0","0","1","1","0","1","1","0","1","0","1","5","2","2","1","5","5","4","5","4","4","2","790191134524710914","黄","6","","","","","","","","","","","","","","","","","","","true","4","4","ability","766","negative","蠢笨","","","","","","","","","","","","","","","","",""
"null","","null","html-keyboard-response","184","235490","0.0-6.0-0.0-8.0-0.38","4","4","4","3","4","4","3","3","3","4","4","1","2","4","3","4","4","3","4","4","2","1","2","1","1","1","2","1","2","1","0","1","1","0","0","1","1","0","1","1","0","1","0","1","5","2","2","1","5","5","4","5","4","4","2","790191134524710914","黄","6","","","","","","","","","","","","","","","","","","","","","","","","","","","","","","","","","","","","","","","","","",""
"854","<p style=""color:rgb(150, 250, 100); font-size: 35px;"">本人的</p>","e","categorize-html","185","236349","0.0-6.0-0.0-8.0-1.38","4","4","4","3","4","4","3","3","3","4","4","1","2","4","3","4","4","3","4","4","2","1","2","1","1","1","2","1","2","1","0","1","1","0","0","1","1","0","1","1","0","1","0","1","5","2","2","1","5","5","4","5","4","4","2","790191134524710914","黄","6","","","","","","","","","","","","","","","","","","","true","4","4","ability","854","self","本人的","","","","","","","","","","","","","","","","",""
"null","","null","html-keyboard-response","186","236602","0.0-6.0-0.0-8.0-0.39","4","4","4","3","4","4","3","3","3","4","4","1","2","4","3","4","4","3","4","4","2","1","2","1","1","1","2","1","2","1","0","1","1","0","0","1","1","0","1","1","0","1","0","1","5","2","2","1","5","5","4","5","4","4","2","790191134524710914","黄","6","","","","","","","","","","","","","","","","","","","","","","","","","","","","","","","","","","","","","","","","","",""
"910","<p style=""color:white; font-size: 35px;"">高效</p>","e","categorize-html","187","237517","0.0-6.0-0.0-8.0-1.39","4","4","4","3","4","4","3","3","3","4","4","1","2","4","3","4","4","3","4","4","2","1","2","1","1","1","2","1","2","1","0","1","1","0","0","1","1","0","1","1","0","1","0","1","5","2","2","1","5","5","4","5","4","4","2","790191134524710914","黄","6","","","","","","","","","","","","","","","","","","","true","4","4","ability","910","positive","高效","","","","","","","","","","","","","","","","",""
"null","","null","html-keyboard-response","188","237770","0.0-6.0-0.0-8.0-0.40","4","4","4","3","4","4","3","3","3","4","4","1","2","4","3","4","4","3","4","4","2","1","2","1","1","1","2","1","2","1","0","1","1","0","0","1","1","0","1","1","0","1","0","1","5","2","2","1","5","5","4","5","4","4","2","790191134524710914","黄","6","","","","","","","","","","","","","","","","","","","","","","","","","","","","","","","","","","","","","","","","","",""
"910","<p style=""color:rgb(150, 250, 100); font-size: 35px;"">别人</p>","i","categorize-html","189","238685","0.0-6.0-0.0-8.0-1.40","4","4","4","3","4","4","3","3","3","4","4","1","2","4","3","4","4","3","4","4","2","1","2","1","1","1","2","1","2","1","0","1","1","0","0","1","1","0","1","1","0","1","0","1","5","2","2","1","5","5","4","5","4","4","2","790191134524710914","黄","6","","","","","","","","","","","","","","","","","","","true","4","4","ability","910","other","别人","","","","","","","","","","","","","","","","",""
"null","","null","html-keyboard-response","190","238939","0.0-6.0-0.0-8.0-0.41","4","4","4","3","4","4","3","3","3","4","4","1","2","4","3","4","4","3","4","4","2","1","2","1","1","1","2","1","2","1","0","1","1","0","0","1","1","0","1","1","0","1","0","1","5","2","2","1","5","5","4","5","4","4","2","790191134524710914","黄","6","","","","","","","","","","","","","","","","","","","","","","","","","","","","","","","","","","","","","","","","","",""
"1070","<p style=""color:white; font-size: 35px;"">拙笨</p>","i","categorize-html","191","240013","0.0-6.0-0.0-8.0-1.41","4","4","4","3","4","4","3","3","3","4","4","1","2","4","3","4","4","3","4","4","2","1","2","1","1","1","2","1","2","1","0","1","1","0","0","1","1","0","1","1","0","1","0","1","5","2","2","1","5","5","4","5","4","4","2","790191134524710914","黄","6","","","","","","","","","","","","","","","","","","","true","4","4","ability","1070","negative","拙笨","","","","","","","","","","","","","","","","",""
"null","","null","html-keyboard-response","192","240266","0.0-6.0-0.0-8.0-0.42","4","4","4","3","4","4","3","3","3","4","4","1","2","4","3","4","4","3","4","4","2","1","2","1","1","1","2","1","2","1","0","1","1","0","0","1","1","0","1","1","0","1","0","1","5","2","2","1","5","5","4","5","4","4","2","790191134524710914","黄","6","","","","","","","","","","","","","","","","","","","","","","","","","","","","","","","","","","","","","","","","","",""
"599","<p style=""color:rgb(150, 250, 100); font-size: 35px;"">我</p>","e","categorize-html","193","240869","0.0-6.0-0.0-8.0-1.42","4","4","4","3","4","4","3","3","3","4","4","1","2","4","3","4","4","3","4","4","2","1","2","1","1","1","2","1","2","1","0","1","1","0","0","1","1","0","1","1","0","1","0","1","5","2","2","1","5","5","4","5","4","4","2","790191134524710914","黄","6","","","","","","","","","","","","","","","","","","","true","4","4","ability","599","self","我","","","","","","","","","","","","","","","","",""
