"rt","stimulus","response","trial_type","trial_index","time_elapsed","internal_node_id","ses_1","ses_2","ses_3","ses_4","ses_5","ses_6","ses_7","ses_8","ses_9","ses_10","coreself_1","coreself_2","coreself_3","coreself_4","coreself_5","coreself_6","coreself_7","coreself_8","coreself_9","coreself_10","SGPS_1","SGPS_2","SGPS_3","SGPS_4","SGPS_5","SGPS_6","SGPS_7","SGPS_8","SGPS_9","NPI1","NPI2","NPI3","NPI4","NPI5","NPI6","NPI7","NPI8","NPI9","NPI10","NPI11","NPI12","NPI13","NPI14","NPI15","hsns_1","hsns_2","hsns_3","hsns_4","hsns_5","trap1","hsns_6","hsns_7","hsns_8","hsns_9","hsns_10","subj_idx","friend_name","ParticipantID","value","success","user_agent","responses","item_order","radio_event_ids","radio_event_times","key_event_times","mouse_event_times","straightlining","zigzagging","honeypot","timeout","failed_images","failed_audio","failed_video","version_attrib","version_target","correct","IAT","screen_id","task_id","RT","condition","word","varname","summary","version_attrib2","version_target2","time_stamp","view_history","response_type","key_press","avg_frame_time","center_x","center_y","correct_response","identity","Image","question_order","correct_answer","trap1_item"
"1331","
   <p><div style = ""color: white;font-size:25px;"">您好，欢迎参加本次实验。</div> </p>
   <p><div style = ""color: white;font-size:25px;"">为充分保障您的权利，请确保您已经知晓并同意《参与实验同意书》以及《数据公开知情同意书》。</div></p>
   <p><div style = ""color: white;font-size:25px;"">如果您未见过上述内容，请咨询实验员。</div></p>
   <p><div style = ""color: white;font-size:25px;"">如果您选择继续实验，则表示您已经清楚两份知情同意书的内容并同意。</div></p>
   <p><div style = ""color: pink;font-size:30px;"">请确保您记得day0的实验编号，您将在本次实验输入该编号，若您忘记，请咨询实验员后作答。</div></p>
   <p><div style = ""color: lightblue;font-size:25px;"">请您尽可能认真地作答，我们将依据您在各问卷和按键任务中的作答质量发放报酬。</div></p>
   <p> <div style = ""color: green;font-size:25px;""><按空格键至下页></div> </p>
   "," ","html-keyboard-response","0","1334","0.0-0.0","3","4","4","3","3","3","3","1","3","4","4","3","2","4","4","4","4","5","4","4","4","5","4","4","4","5","4","4","5","1","1","0","0","1","1","1","1","0","0","1","0","1","0","0","4","5","4","4","5","3","4","4","5","2","3","802285339656986625","李","103","","","","","","","","","","","","","","","","","","","","","","","","","","","","","","","","","","","","","","","","","",""
"","","","call-function","1","1335","0.0-1.0-0.0","3","4","4","3","3","3","3","1","3","4","4","3","2","4","4","4","4","5","4","4","4","5","4","4","4","5","4","4","5","1","1","0","0","1","1","1","1","0","0","1","0","1","0","0","4","5","4","4","5","3","4","4","5","2","3","802285339656986625","李","103","","","","","","","","","","","","","","","","","","","","","","","","","","","","","","","","","","","","","","","","","",""
"27026","","{""friend_name"":""李"",""ParticipantID"":""103""}","survey-html-form","2","28362","0.0-1.0-1.0","3","4","4","3","3","3","3","1","3","4","4","3","2","4","4","4","4","5","4","4","4","5","4","4","4","5","4","4","5","1","1","0","0","1","1","1","1","0","0","1","0","1","0","0","4","5","4","4","5","3","4","4","5","2","3","802285339656986625","李","103","","","","","","","","","","","","","","","","","","","","","","","","","","","","","","","","","","","","","","","","","",""
"","","","fullscreen","3","29707","0.0-2.0","3","4","4","3","3","3","3","1","3","4","4","3","2","4","4","4","4","5","4","4","4","5","4","4","4","5","4","4","5","1","1","0","0","1","1","1","1","0","0","1","0","1","0","0","4","5","4","4","5","3","4","4","5","2","3","802285339656986625","李","103","","true","","","","","","","","","","","","","","","","","","","","","","","","","","","","","","","","","","","","","","","",""
"26238.050000043586","","{""Q01"":""3"",""Q02"":""4"",""Q03"":""4"",""Q04"":""3"",""Q05"":""3"",""Q06"":""3"",""Q07"":""3"",""Q08"":""1"",""Q09"":""3"",""Q10"":""4""}","survey-template","4","55949","0.0-3.0","3","4","4","3","3","3","3","1","3","4","4","3","2","4","4","4","4","5","4","4","4","5","4","4","4","5","4","4","5","1","1","0","0","1","1","1","1","0","0","1","0","1","0","0","4","5","4","4","5","3","4","4","5","2","3","802285339656986625","李","103","","","","{""Q01"":""3"",""Q02"":""4"",""Q03"":""4"",""Q04"":""3"",""Q05"":""3"",""Q06"":""3"",""Q07"":""3"",""Q08"":""1"",""Q09"":""3"",""Q10"":""4""}","[0,1,2,3,4,5,6,7,8,9]","[""Q01"",""Q02"",""Q03"",""Q04"",""Q05"",""Q06"",""Q07"",""Q08"",""Q09"",""Q10"",""Q10""]","[5850.300000049174,6980.740000028163,9232.77500004042,10893.294999958016,14324.415000039153,15356.679999968037,16212.745000026189,18452.58499996271,19869.384999969043,21116.46000004839,23252.600000007078]","[]","[5850.300000049174,6980.740000028163,9232.77500004042,10893.294999958016,14324.415000039153,15356.679999968037,16212.745000026189,18452.58499996271,19869.384999969043,21116.46000004839,23252.600000007078,26236.44000000786]","0.4","0.6666666666666666","0","","","","","","","","","","","","","","","","","","","","","","","","","","","","","",""
"22249.294999986887","","{""Q01"":""4"",""Q02"":""3"",""Q03"":""2"",""Q04"":""4"",""Q05"":""4"",""Q06"":""4"",""Q07"":""4"",""Q08"":""5"",""Q09"":""4"",""Q10"":""4""}","survey-template","5","78207","0.0-4.0","3","4","4","3","3","3","3","1","3","4","4","3","2","4","4","4","4","5","4","4","4","5","4","4","4","5","4","4","5","1","1","0","0","1","1","1","1","0","0","1","0","1","0","0","4","5","4","4","5","3","4","4","5","2","3","802285339656986625","李","103","","","","{""Q01"":""4"",""Q02"":""3"",""Q03"":""2"",""Q04"":""4"",""Q05"":""4"",""Q06"":""4"",""Q07"":""4"",""Q08"":""5"",""Q09"":""4"",""Q10"":""4""}","[0,1,2,3,4,5,6,7,8,9]","[""Q01"",""Q02"",""Q03"",""Q04"",""Q05"",""Q06"",""Q07"",""Q07"",""Q08"",""Q09"",""Q10""]","[3821.419999934733,4784.355000010692,6224.764999933541,6990.224999957718,8687.04499991145,10440.635000006296,11646.57499990426,12934.26999996882,14420.404999982566,16189.939999952912,20438.149999943562]","[]","[2381.8549999268726,3821.419999934733,4784.355000010692,6224.764999933541,6990.224999957718,8687.04499991145,10440.635000006296,11646.57499990426,12934.26999996882,14420.404999982566,16189.939999952912,20438.149999943562,22246.904999949038]","0.5","0.3333333333333333","0","","","","","","","","","","","","","","","","","","","","","","","","","","","","","",""
"","","","preload","6","78629","0.0-5.0","3","4","4","3","3","3","3","1","3","4","4","3","2","4","4","4","4","5","4","4","4","5","4","4","4","5","4","4","5","1","1","0","0","1","1","1","1","0","0","1","0","1","0","0","4","5","4","4","5","3","4","4","5","2","3","802285339656986625","李","103","","true","","","","","","","","","","","false","[]","[]","[]","","","","","","","","","","","","","","","","","","","","","","","","","",""
"38741","
    <h3>词语分类任务</h3>
    <p>在接下来的任务中，你需要对一系列词语进行分类。</p>
    <p>请先熟悉这些词语，这有利于你完成接下来的任务。</p>
    <table align=""center"" border=1 cellpadding=3 cellspacing=0>
    <tr> <th>类别</th> <th>词语</th> </tr>
    <tr> <td>&emsp;积极&emsp;</td> <td>&emsp;能干、全能、全才、高效、精干、天才&emsp;</td> </tr>
    <tr> <td>&emsp;消极&emsp;</td> <td>&emsp;无能、低能、废物、拙笨、愚钝、蠢笨&emsp;</td> </tr>
    <tr> <td>&emsp;自我&emsp;</td> <td>&emsp;我、我的、自己、自己的、本人、本人的&emsp;</td> </tr>
    <tr> <td>&emsp;他人&emsp;</td> <td>&emsp;他、他的、别人、别人的、他人、他人的&emsp;</td> </tr>
    </table><br/>","0","html-button-response","7","117372","0.0-6.0-0.0-0.0","3","4","4","3","3","3","3","1","3","4","4","3","2","4","4","4","4","5","4","4","4","5","4","4","4","5","4","4","5","1","1","0","0","1","1","1","1","0","0","1","0","1","0","0","4","5","4","4","5","3","4","4","5","2","3","802285339656986625","李","103","","","","","","","","","","","","","","","","","1","1","","","","","","","","","","","","","","","","","","","","","","","",""
"4673","
    <div class=""tag-bottom"">
    <p> —— 任务1：对“自我”词和“他人”词分类 ——<p/>
    不同词语会出现在屏幕中央，类别标签将始终显示在屏幕上方<p/>   
    <span style=""color:#FFD866""><b>请根据上方标签的提示，尽可能正确并且快速地做出按键反应</b></span><p/>
    当按键错误时屏幕中会出现<span style=""color:red""> X </span>，需要按另一个键纠正才能继续<br/><p/>
    请把双手食指分别放在键盘的“E”键和“I”键上<p/>
    按<空格键>开始
    </p></div>"," ","html-keyboard-response","8","122051","0.0-6.0-0.0-1.0","3","4","4","3","3","3","3","1","3","4","4","3","2","4","4","4","4","5","4","4","4","5","4","4","4","5","4","4","5","1","1","0","0","1","1","1","1","0","0","1","0","1","0","0","4","5","4","4","5","3","4","4","5","2","3","802285339656986625","李","103","","","","","","","","","","","","","","","","","","","","","","","","","","","","","","","","","","","","","","","","","",""
"null","","null","html-keyboard-response","9","122304","0.0-6.0-0.0-2.0-0.0","3","4","4","3","3","3","3","1","3","4","4","3","2","4","4","4","4","5","4","4","4","5","4","4","4","5","4","4","5","1","1","0","0","1","1","1","1","0","0","1","0","1","0","0","4","5","4","4","5","3","4","4","5","2","3","802285339656986625","李","103","","","","","","","","","","","","","","","","","","","","","","","","","","","","","","","","","","","","","","","","","",""
"1830","<p style=""color:rgb(150, 250, 100); font-size: 35px;"">他</p>","i","categorize-html","10","124141","0.0-6.0-0.0-2.0-1.0","3","4","4","3","3","3","3","1","3","4","4","3","2","4","4","4","4","5","4","4","4","5","4","4","4","5","4","4","5","1","1","0","0","1","1","1","1","0","0","1","0","1","0","0","4","5","4","4","5","3","4","4","5","2","3","802285339656986625","李","103","","","","","","","","","","","","","","","","","","","true","1","1","ability","1830","other","他","","","","","","","","","","","","","","","","",""
"null","","null","html-keyboard-response","11","124393","0.0-6.0-0.0-2.0-0.1","3","4","4","3","3","3","3","1","3","4","4","3","2","4","4","4","4","5","4","4","4","5","4","4","4","5","4","4","5","1","1","0","0","1","1","1","1","0","0","1","0","1","0","0","4","5","4","4","5","3","4","4","5","2","3","802285339656986625","李","103","","","","","","","","","","","","","","","","","","","","","","","","","","","","","","","","","","","","","","","","","",""
"843","<p style=""color:rgb(150, 250, 100); font-size: 35px;"">他人的</p>","i","categorize-html","12","125239","0.0-6.0-0.0-2.0-1.1","3","4","4","3","3","3","3","1","3","4","4","3","2","4","4","4","4","5","4","4","4","5","4","4","4","5","4","4","5","1","1","0","0","1","1","1","1","0","0","1","0","1","0","0","4","5","4","4","5","3","4","4","5","2","3","802285339656986625","李","103","","","","","","","","","","","","","","","","","","","true","1","1","ability","843","other","他人的","","","","","","","","","","","","","","","","",""
"null","","null","html-keyboard-response","13","125491","0.0-6.0-0.0-2.0-0.2","3","4","4","3","3","3","3","1","3","4","4","3","2","4","4","4","4","5","4","4","4","5","4","4","4","5","4","4","5","1","1","0","0","1","1","1","1","0","0","1","0","1","0","0","4","5","4","4","5","3","4","4","5","2","3","802285339656986625","李","103","","","","","","","","","","","","","","","","","","","","","","","","","","","","","","","","","","","","","","","","","",""
"578","<p style=""color:rgb(150, 250, 100); font-size: 35px;"">我</p>","e","categorize-html","14","126071","0.0-6.0-0.0-2.0-1.2","3","4","4","3","3","3","3","1","3","4","4","3","2","4","4","4","4","5","4","4","4","5","4","4","4","5","4","4","5","1","1","0","0","1","1","1","1","0","0","1","0","1","0","0","4","5","4","4","5","3","4","4","5","2","3","802285339656986625","李","103","","","","","","","","","","","","","","","","","","","true","1","1","ability","578","self","我","","","","","","","","","","","","","","","","",""
"null","","null","html-keyboard-response","15","126338","0.0-6.0-0.0-2.0-0.3","3","4","4","3","3","3","3","1","3","4","4","3","2","4","4","4","4","5","4","4","4","5","4","4","4","5","4","4","5","1","1","0","0","1","1","1","1","0","0","1","0","1","0","0","4","5","4","4","5","3","4","4","5","2","3","802285339656986625","李","103","","","","","","","","","","","","","","","","","","","","","","","","","","","","","","","","","","","","","","","","","",""
"596","<p style=""color:rgb(150, 250, 100); font-size: 35px;"">别人</p>","i","categorize-html","16","126936","0.0-6.0-0.0-2.0-1.3","3","4","4","3","3","3","3","1","3","4","4","3","2","4","4","4","4","5","4","4","4","5","4","4","4","5","4","4","5","1","1","0","0","1","1","1","1","0","0","1","0","1","0","0","4","5","4","4","5","3","4","4","5","2","3","802285339656986625","李","103","","","","","","","","","","","","","","","","","","","true","1","1","ability","596","other","别人","","","","","","","","","","","","","","","","",""
"null","","null","html-keyboard-response","17","127188","0.0-6.0-0.0-2.0-0.4","3","4","4","3","3","3","3","1","3","4","4","3","2","4","4","4","4","5","4","4","4","5","4","4","4","5","4","4","5","1","1","0","0","1","1","1","1","0","0","1","0","1","0","0","4","5","4","4","5","3","4","4","5","2","3","802285339656986625","李","103","","","","","","","","","","","","","","","","","","","","","","","","","","","","","","","","","","","","","","","","","",""
"644","<p style=""color:rgb(150, 250, 100); font-size: 35px;"">他的</p>","i","categorize-html","18","127835","0.0-6.0-0.0-2.0-1.4","3","4","4","3","3","3","3","1","3","4","4","3","2","4","4","4","4","5","4","4","4","5","4","4","4","5","4","4","5","1","1","0","0","1","1","1","1","0","0","1","0","1","0","0","4","5","4","4","5","3","4","4","5","2","3","802285339656986625","李","103","","","","","","","","","","","","","","","","","","","true","1","1","ability","644","other","他的","","","","","","","","","","","","","","","","",""
"null","","null","html-keyboard-response","19","128087","0.0-6.0-0.0-2.0-0.5","3","4","4","3","3","3","3","1","3","4","4","3","2","4","4","4","4","5","4","4","4","5","4","4","4","5","4","4","5","1","1","0","0","1","1","1","1","0","0","1","0","1","0","0","4","5","4","4","5","3","4","4","5","2","3","802285339656986625","李","103","","","","","","","","","","","","","","","","","","","","","","","","","","","","","","","","","","","","","","","","","",""
"462","<p style=""color:rgb(150, 250, 100); font-size: 35px;"">我的</p>","e","categorize-html","20","128551","0.0-6.0-0.0-2.0-1.5","3","4","4","3","3","3","3","1","3","4","4","3","2","4","4","4","4","5","4","4","4","5","4","4","4","5","4","4","5","1","1","0","0","1","1","1","1","0","0","1","0","1","0","0","4","5","4","4","5","3","4","4","5","2","3","802285339656986625","李","103","","","","","","","","","","","","","","","","","","","true","1","1","ability","462","self","我的","","","","","","","","","","","","","","","","",""
"null","","null","html-keyboard-response","21","128802","0.0-6.0-0.0-2.0-0.6","3","4","4","3","3","3","3","1","3","4","4","3","2","4","4","4","4","5","4","4","4","5","4","4","4","5","4","4","5","1","1","0","0","1","1","1","1","0","0","1","0","1","0","0","4","5","4","4","5","3","4","4","5","2","3","802285339656986625","李","103","","","","","","","","","","","","","","","","","","","","","","","","","","","","","","","","","","","","","","","","","",""
"487","<p style=""color:rgb(150, 250, 100); font-size: 35px;"">别人的</p>","i","categorize-html","22","129292","0.0-6.0-0.0-2.0-1.6","3","4","4","3","3","3","3","1","3","4","4","3","2","4","4","4","4","5","4","4","4","5","4","4","4","5","4","4","5","1","1","0","0","1","1","1","1","0","0","1","0","1","0","0","4","5","4","4","5","3","4","4","5","2","3","802285339656986625","李","103","","","","","","","","","","","","","","","","","","","true","1","1","ability","487","other","别人的","","","","","","","","","","","","","","","","",""
"null","","null","html-keyboard-response","23","129543","0.0-6.0-0.0-2.0-0.7","3","4","4","3","3","3","3","1","3","4","4","3","2","4","4","4","4","5","4","4","4","5","4","4","4","5","4","4","5","1","1","0","0","1","1","1","1","0","0","1","0","1","0","0","4","5","4","4","5","3","4","4","5","2","3","802285339656986625","李","103","","","","","","","","","","","","","","","","","","","","","","","","","","","","","","","","","","","","","","","","","",""
"499","<p style=""color:rgb(150, 250, 100); font-size: 35px;"">自己</p>","e","categorize-html","24","130045","0.0-6.0-0.0-2.0-1.7","3","4","4","3","3","3","3","1","3","4","4","3","2","4","4","4","4","5","4","4","4","5","4","4","4","5","4","4","5","1","1","0","0","1","1","1","1","0","0","1","0","1","0","0","4","5","4","4","5","3","4","4","5","2","3","802285339656986625","李","103","","","","","","","","","","","","","","","","","","","true","1","1","ability","499","self","自己","","","","","","","","","","","","","","","","",""
"null","","null","html-keyboard-response","25","130297","0.0-6.0-0.0-2.0-0.8","3","4","4","3","3","3","3","1","3","4","4","3","2","4","4","4","4","5","4","4","4","5","4","4","4","5","4","4","5","1","1","0","0","1","1","1","1","0","0","1","0","1","0","0","4","5","4","4","5","3","4","4","5","2","3","802285339656986625","李","103","","","","","","","","","","","","","","","","","","","","","","","","","","","","","","","","","","","","","","","","","",""
"500","<p style=""color:rgb(150, 250, 100); font-size: 35px;"">本人</p>","e","categorize-html","26","130799","0.0-6.0-0.0-2.0-1.8","3","4","4","3","3","3","3","1","3","4","4","3","2","4","4","4","4","5","4","4","4","5","4","4","4","5","4","4","5","1","1","0","0","1","1","1","1","0","0","1","0","1","0","0","4","5","4","4","5","3","4","4","5","2","3","802285339656986625","李","103","","","","","","","","","","","","","","","","","","","true","1","1","ability","500","self","本人","","","","","","","","","","","","","","","","",""
"null","","null","html-keyboard-response","27","131050","0.0-6.0-0.0-2.0-0.9","3","4","4","3","3","3","3","1","3","4","4","3","2","4","4","4","4","5","4","4","4","5","4","4","4","5","4","4","5","1","1","0","0","1","1","1","1","0","0","1","0","1","0","0","4","5","4","4","5","3","4","4","5","2","3","802285339656986625","李","103","","","","","","","","","","","","","","","","","","","","","","","","","","","","","","","","","","","","","","","","","",""
"486","<p style=""color:rgb(150, 250, 100); font-size: 35px;"">他人</p>","i","categorize-html","28","131539","0.0-6.0-0.0-2.0-1.9","3","4","4","3","3","3","3","1","3","4","4","3","2","4","4","4","4","5","4","4","4","5","4","4","4","5","4","4","5","1","1","0","0","1","1","1","1","0","0","1","0","1","0","0","4","5","4","4","5","3","4","4","5","2","3","802285339656986625","李","103","","","","","","","","","","","","","","","","","","","true","1","1","ability","486","other","他人","","","","","","","","","","","","","","","","",""
"null","","null","html-keyboard-response","29","131790","0.0-6.0-0.0-2.0-0.10","3","4","4","3","3","3","3","1","3","4","4","3","2","4","4","4","4","5","4","4","4","5","4","4","4","5","4","4","5","1","1","0","0","1","1","1","1","0","0","1","0","1","0","0","4","5","4","4","5","3","4","4","5","2","3","802285339656986625","李","103","","","","","","","","","","","","","","","","","","","","","","","","","","","","","","","","","","","","","","","","","",""
"1778","<p style=""color:rgb(150, 250, 100); font-size: 35px;"">自己的</p>","e","categorize-html","30","133571","0.0-6.0-0.0-2.0-1.10","3","4","4","3","3","3","3","1","3","4","4","3","2","4","4","4","4","5","4","4","4","5","4","4","4","5","4","4","5","1","1","0","0","1","1","1","1","0","0","1","0","1","0","0","4","5","4","4","5","3","4","4","5","2","3","802285339656986625","李","103","","","","","","","","","","","","","","","","","","","true","1","1","ability","1778","self","自己的","","","","","","","","","","","","","","","","",""
"null","","null","html-keyboard-response","31","133822","0.0-6.0-0.0-2.0-0.11","3","4","4","3","3","3","3","1","3","4","4","3","2","4","4","4","4","5","4","4","4","5","4","4","4","5","4","4","5","1","1","0","0","1","1","1","1","0","0","1","0","1","0","0","4","5","4","4","5","3","4","4","5","2","3","802285339656986625","李","103","","","","","","","","","","","","","","","","","","","","","","","","","","","","","","","","","","","","","","","","","",""
"664","<p style=""color:rgb(150, 250, 100); font-size: 35px;"">本人的</p>","e","categorize-html","32","134489","0.0-6.0-0.0-2.0-1.11","3","4","4","3","3","3","3","1","3","4","4","3","2","4","4","4","4","5","4","4","4","5","4","4","4","5","4","4","5","1","1","0","0","1","1","1","1","0","0","1","0","1","0","0","4","5","4","4","5","3","4","4","5","2","3","802285339656986625","李","103","","","","","","","","","","","","","","","","","","","true","1","1","ability","664","self","本人的","","","","","","","","","","","","","","","","",""
"1433","
    <div class=""tag-bottom""><p>
    —— 任务2：对“积极”词和“消极”词分类 ——<p/>   
    <span style=""color:#78DCE8""><b>注意上方，类别标签和需要分类的词语都已经改变</b></span><p/>
    <span style=""color:#FFD866""><b>请根据上方标签的提示，尽可能正确并且快速地做出按键反应</b></span><p/>
    当按键错误时屏幕中会出现<span style=""color:red""> X </span>，需要按另一个键纠正才能继续<br/><p/>
    请把双手食指分别放在键盘的“E”键和“I”键上<p/>
    按<空格键>开始
    </p></div>"," ","html-keyboard-response","33","135923","0.0-6.0-0.0-3.0","3","4","4","3","3","3","3","1","3","4","4","3","2","4","4","4","4","5","4","4","4","5","4","4","4","5","4","4","5","1","1","0","0","1","1","1","1","0","0","1","0","1","0","0","4","5","4","4","5","3","4","4","5","2","3","802285339656986625","李","103","","","","","","","","","","","","","","","","","","","","","","","","","","","","","","","","","","","","","","","","","",""
"null","","null","html-keyboard-response","34","136173","0.0-6.0-0.0-4.0-0.0","3","4","4","3","3","3","3","1","3","4","4","3","2","4","4","4","4","5","4","4","4","5","4","4","4","5","4","4","5","1","1","0","0","1","1","1","1","0","0","1","0","1","0","0","4","5","4","4","5","3","4","4","5","2","3","802285339656986625","李","103","","","","","","","","","","","","","","","","","","","","","","","","","","","","","","","","","","","","","","","","","",""
"893","<p style=""color:white; font-size: 35px;"">能干</p>","e","categorize-html","35","137069","0.0-6.0-0.0-4.0-1.0","3","4","4","3","3","3","3","1","3","4","4","3","2","4","4","4","4","5","4","4","4","5","4","4","4","5","4","4","5","1","1","0","0","1","1","1","1","0","0","1","0","1","0","0","4","5","4","4","5","3","4","4","5","2","3","802285339656986625","李","103","","","","","","","","","","","","","","","","","","","true","2","2","ability","893","positive","能干","","","","","","","","","","","","","","","","",""
"null","","null","html-keyboard-response","36","137320","0.0-6.0-0.0-4.0-0.1","3","4","4","3","3","3","3","1","3","4","4","3","2","4","4","4","4","5","4","4","4","5","4","4","4","5","4","4","5","1","1","0","0","1","1","1","1","0","0","1","0","1","0","0","4","5","4","4","5","3","4","4","5","2","3","802285339656986625","李","103","","","","","","","","","","","","","","","","","","","","","","","","","","","","","","","","","","","","","","","","","",""
"593","<p style=""color:white; font-size: 35px;"">精干</p>","e","categorize-html","37","137915","0.0-6.0-0.0-4.0-1.1","3","4","4","3","3","3","3","1","3","4","4","3","2","4","4","4","4","5","4","4","4","5","4","4","4","5","4","4","5","1","1","0","0","1","1","1","1","0","0","1","0","1","0","0","4","5","4","4","5","3","4","4","5","2","3","802285339656986625","李","103","","","","","","","","","","","","","","","","","","","true","2","2","ability","593","positive","精干","","","","","","","","","","","","","","","","",""
"null","","null","html-keyboard-response","38","138166","0.0-6.0-0.0-4.0-0.2","3","4","4","3","3","3","3","1","3","4","4","3","2","4","4","4","4","5","4","4","4","5","4","4","4","5","4","4","5","1","1","0","0","1","1","1","1","0","0","1","0","1","0","0","4","5","4","4","5","3","4","4","5","2","3","802285339656986625","李","103","","","","","","","","","","","","","","","","","","","","","","","","","","","","","","","","","","","","","","","","","",""
"524","<p style=""color:white; font-size: 35px;"">蠢笨</p>","i","categorize-html","39","138694","0.0-6.0-0.0-4.0-1.2","3","4","4","3","3","3","3","1","3","4","4","3","2","4","4","4","4","5","4","4","4","5","4","4","4","5","4","4","5","1","1","0","0","1","1","1","1","0","0","1","0","1","0","0","4","5","4","4","5","3","4","4","5","2","3","802285339656986625","李","103","","","","","","","","","","","","","","","","","","","true","2","2","ability","524","negative","蠢笨","","","","","","","","","","","","","","","","",""
"null","","null","html-keyboard-response","40","138945","0.0-6.0-0.0-4.0-0.3","3","4","4","3","3","3","3","1","3","4","4","3","2","4","4","4","4","5","4","4","4","5","4","4","4","5","4","4","5","1","1","0","0","1","1","1","1","0","0","1","0","1","0","0","4","5","4","4","5","3","4","4","5","2","3","802285339656986625","李","103","","","","","","","","","","","","","","","","","","","","","","","","","","","","","","","","","","","","","","","","","",""
"1894","<p style=""color:white; font-size: 35px;"">愚钝</p>","i","categorize-html","41","140842","0.0-6.0-0.0-4.0-1.3","3","4","4","3","3","3","3","1","3","4","4","3","2","4","4","4","4","5","4","4","4","5","4","4","4","5","4","4","5","1","1","0","0","1","1","1","1","0","0","1","0","1","0","0","4","5","4","4","5","3","4","4","5","2","3","802285339656986625","李","103","","","","","","","","","","","","","","","","","","","true","2","2","ability","1894","negative","愚钝","","","","","","","","","","","","","","","","",""
"null","","null","html-keyboard-response","42","141093","0.0-6.0-0.0-4.0-0.4","3","4","4","3","3","3","3","1","3","4","4","3","2","4","4","4","4","5","4","4","4","5","4","4","4","5","4","4","5","1","1","0","0","1","1","1","1","0","0","1","0","1","0","0","4","5","4","4","5","3","4","4","5","2","3","802285339656986625","李","103","","","","","","","","","","","","","","","","","","","","","","","","","","","","","","","","","","","","","","","","","",""
"754","<p style=""color:white; font-size: 35px;"">全能</p>","e","categorize-html","43","141849","0.0-6.0-0.0-4.0-1.4","3","4","4","3","3","3","3","1","3","4","4","3","2","4","4","4","4","5","4","4","4","5","4","4","4","5","4","4","5","1","1","0","0","1","1","1","1","0","0","1","0","1","0","0","4","5","4","4","5","3","4","4","5","2","3","802285339656986625","李","103","","","","","","","","","","","","","","","","","","","true","2","2","ability","754","positive","全能","","","","","","","","","","","","","","","","",""
"null","","null","html-keyboard-response","44","142101","0.0-6.0-0.0-4.0-0.5","3","4","4","3","3","3","3","1","3","4","4","3","2","4","4","4","4","5","4","4","4","5","4","4","4","5","4","4","5","1","1","0","0","1","1","1","1","0","0","1","0","1","0","0","4","5","4","4","5","3","4","4","5","2","3","802285339656986625","李","103","","","","","","","","","","","","","","","","","","","","","","","","","","","","","","","","","","","","","","","","","",""
"515","<p style=""color:white; font-size: 35px;"">拙笨</p>","i","categorize-html","45","142618","0.0-6.0-0.0-4.0-1.5","3","4","4","3","3","3","3","1","3","4","4","3","2","4","4","4","4","5","4","4","4","5","4","4","4","5","4","4","5","1","1","0","0","1","1","1","1","0","0","1","0","1","0","0","4","5","4","4","5","3","4","4","5","2","3","802285339656986625","李","103","","","","","","","","","","","","","","","","","","","true","2","2","ability","515","negative","拙笨","","","","","","","","","","","","","","","","",""
"null","","null","html-keyboard-response","46","142869","0.0-6.0-0.0-4.0-0.6","3","4","4","3","3","3","3","1","3","4","4","3","2","4","4","4","4","5","4","4","4","5","4","4","4","5","4","4","5","1","1","0","0","1","1","1","1","0","0","1","0","1","0","0","4","5","4","4","5","3","4","4","5","2","3","802285339656986625","李","103","","","","","","","","","","","","","","","","","","","","","","","","","","","","","","","","","","","","","","","","","",""
"591","<p style=""color:white; font-size: 35px;"">全才</p>","e","categorize-html","47","143463","0.0-6.0-0.0-4.0-1.6","3","4","4","3","3","3","3","1","3","4","4","3","2","4","4","4","4","5","4","4","4","5","4","4","4","5","4","4","5","1","1","0","0","1","1","1","1","0","0","1","0","1","0","0","4","5","4","4","5","3","4","4","5","2","3","802285339656986625","李","103","","","","","","","","","","","","","","","","","","","true","2","2","ability","591","positive","全才","","","","","","","","","","","","","","","","",""
"null","","null","html-keyboard-response","48","143714","0.0-6.0-0.0-4.0-0.7","3","4","4","3","3","3","3","1","3","4","4","3","2","4","4","4","4","5","4","4","4","5","4","4","4","5","4","4","5","1","1","0","0","1","1","1","1","0","0","1","0","1","0","0","4","5","4","4","5","3","4","4","5","2","3","802285339656986625","李","103","","","","","","","","","","","","","","","","","","","","","","","","","","","","","","","","","","","","","","","","","",""
"567","<p style=""color:white; font-size: 35px;"">天才</p>","e","categorize-html","49","144283","0.0-6.0-0.0-4.0-1.7","3","4","4","3","3","3","3","1","3","4","4","3","2","4","4","4","4","5","4","4","4","5","4","4","4","5","4","4","5","1","1","0","0","1","1","1","1","0","0","1","0","1","0","0","4","5","4","4","5","3","4","4","5","2","3","802285339656986625","李","103","","","","","","","","","","","","","","","","","","","true","2","2","ability","567","positive","天才","","","","","","","","","","","","","","","","",""
"null","","null","html-keyboard-response","50","144535","0.0-6.0-0.0-4.0-0.8","3","4","4","3","3","3","3","1","3","4","4","3","2","4","4","4","4","5","4","4","4","5","4","4","4","5","4","4","5","1","1","0","0","1","1","1","1","0","0","1","0","1","0","0","4","5","4","4","5","3","4","4","5","2","3","802285339656986625","李","103","","","","","","","","","","","","","","","","","","","","","","","","","","","","","","","","","","","","","","","","","",""
"512","<p style=""color:white; font-size: 35px;"">高效</p>","e","categorize-html","51","145049","0.0-6.0-0.0-4.0-1.8","3","4","4","3","3","3","3","1","3","4","4","3","2","4","4","4","4","5","4","4","4","5","4","4","4","5","4","4","5","1","1","0","0","1","1","1","1","0","0","1","0","1","0","0","4","5","4","4","5","3","4","4","5","2","3","802285339656986625","李","103","","","","","","","","","","","","","","","","","","","true","2","2","ability","512","positive","高效","","","","","","","","","","","","","","","","",""
"null","","null","html-keyboard-response","52","145301","0.0-6.0-0.0-4.0-0.9","3","4","4","3","3","3","3","1","3","4","4","3","2","4","4","4","4","5","4","4","4","5","4","4","4","5","4","4","5","1","1","0","0","1","1","1","1","0","0","1","0","1","0","0","4","5","4","4","5","3","4","4","5","2","3","802285339656986625","李","103","","","","","","","","","","","","","","","","","","","","","","","","","","","","","","","","","","","","","","","","","",""
"500","<p style=""color:white; font-size: 35px;"">无能</p>","i","categorize-html","53","145804","0.0-6.0-0.0-4.0-1.9","3","4","4","3","3","3","3","1","3","4","4","3","2","4","4","4","4","5","4","4","4","5","4","4","4","5","4","4","5","1","1","0","0","1","1","1","1","0","0","1","0","1","0","0","4","5","4","4","5","3","4","4","5","2","3","802285339656986625","李","103","","","","","","","","","","","","","","","","","","","true","2","2","ability","500","negative","无能","","","","","","","","","","","","","","","","",""
"null","","null","html-keyboard-response","54","146055","0.0-6.0-0.0-4.0-0.10","3","4","4","3","3","3","3","1","3","4","4","3","2","4","4","4","4","5","4","4","4","5","4","4","4","5","4","4","5","1","1","0","0","1","1","1","1","0","0","1","0","1","0","0","4","5","4","4","5","3","4","4","5","2","3","802285339656986625","李","103","","","","","","","","","","","","","","","","","","","","","","","","","","","","","","","","","","","","","","","","","",""
"670","<p style=""color:white; font-size: 35px;"">低能</p>","i","categorize-html","55","146728","0.0-6.0-0.0-4.0-1.10","3","4","4","3","3","3","3","1","3","4","4","3","2","4","4","4","4","5","4","4","4","5","4","4","4","5","4","4","5","1","1","0","0","1","1","1","1","0","0","1","0","1","0","0","4","5","4","4","5","3","4","4","5","2","3","802285339656986625","李","103","","","","","","","","","","","","","","","","","","","true","2","2","ability","670","negative","低能","","","","","","","","","","","","","","","","",""
"null","","null","html-keyboard-response","56","146979","0.0-6.0-0.0-4.0-0.11","3","4","4","3","3","3","3","1","3","4","4","3","2","4","4","4","4","5","4","4","4","5","4","4","4","5","4","4","5","1","1","0","0","1","1","1","1","0","0","1","0","1","0","0","4","5","4","4","5","3","4","4","5","2","3","802285339656986625","李","103","","","","","","","","","","","","","","","","","","","","","","","","","","","","","","","","","","","","","","","","","",""
"470","<p style=""color:white; font-size: 35px;"">废物</p>","i","categorize-html","57","147453","0.0-6.0-0.0-4.0-1.11","3","4","4","3","3","3","3","1","3","4","4","3","2","4","4","4","4","5","4","4","4","5","4","4","4","5","4","4","5","1","1","0","0","1","1","1","1","0","0","1","0","1","0","0","4","5","4","4","5","3","4","4","5","2","3","802285339656986625","李","103","","","","","","","","","","","","","","","","","","","true","2","2","ability","470","negative","废物","","","","","","","","","","","","","","","","",""
"2017","
    <div class=""tag-bottom""><p>
    —— 任务3：对“自我/积极”词和“他人/消极”词分类 ——<p/>
    <span style=""color:#78DCE8""><b>注意上方，之前的四类词语将混合在一起交替呈现</b></span><p/>
    <span style=""color:#FFD866""><b>请根据上方标签的提示，尽可能正确并且快速地做出按键反应</b></span><p/>
    当按键错误时屏幕中会出现<span style=""color:red""> X </span>，需要按另一个键纠正才能继续<br/><p/>
    请把双手食指分别放在键盘的“E”键和“I”键上<p/>
    按<空格键>开始
    </p></div>"," ","html-keyboard-response","58","149471","0.0-6.0-0.0-5.0","3","4","4","3","3","3","3","1","3","4","4","3","2","4","4","4","4","5","4","4","4","5","4","4","4","5","4","4","5","1","1","0","0","1","1","1","1","0","0","1","0","1","0","0","4","5","4","4","5","3","4","4","5","2","3","802285339656986625","李","103","","","","","","","","","","","","","","","","","","","","","","","","","","","","","","","","","","","","","","","","","",""
"null","","null","html-keyboard-response","59","149722","0.0-6.0-0.0-6.0-0.0","3","4","4","3","3","3","3","1","3","4","4","3","2","4","4","4","4","5","4","4","4","5","4","4","4","5","4","4","5","1","1","0","0","1","1","1","1","0","0","1","0","1","0","0","4","5","4","4","5","3","4","4","5","2","3","802285339656986625","李","103","","","","","","","","","","","","","","","","","","","","","","","","","","","","","","","","","","","","","","","","","",""
"623","<p style=""color:rgb(150, 250, 100); font-size: 35px;"">本人的</p>","e","categorize-html","60","150348","0.0-6.0-0.0-6.0-1.0","3","4","4","3","3","3","3","1","3","4","4","3","2","4","4","4","4","5","4","4","4","5","4","4","4","5","4","4","5","1","1","0","0","1","1","1","1","0","0","1","0","1","0","0","4","5","4","4","5","3","4","4","5","2","3","802285339656986625","李","103","","","","","","","","","","","","","","","","","","","true","3","3","ability","623","self","本人的","","","","","","","","","","","","","","","","",""
"null","","null","html-keyboard-response","61","150599","0.0-6.0-0.0-6.0-0.1","3","4","4","3","3","3","3","1","3","4","4","3","2","4","4","4","4","5","4","4","4","5","4","4","4","5","4","4","5","1","1","0","0","1","1","1","1","0","0","1","0","1","0","0","4","5","4","4","5","3","4","4","5","2","3","802285339656986625","李","103","","","","","","","","","","","","","","","","","","","","","","","","","","","","","","","","","","","","","","","","","",""
"603","<p style=""color:white; font-size: 35px;"">蠢笨</p>","i","categorize-html","62","151206","0.0-6.0-0.0-6.0-1.1","3","4","4","3","3","3","3","1","3","4","4","3","2","4","4","4","4","5","4","4","4","5","4","4","4","5","4","4","5","1","1","0","0","1","1","1","1","0","0","1","0","1","0","0","4","5","4","4","5","3","4","4","5","2","3","802285339656986625","李","103","","","","","","","","","","","","","","","","","","","true","3","3","ability","603","negative","蠢笨","","","","","","","","","","","","","","","","",""
"null","","null","html-keyboard-response","63","151457","0.0-6.0-0.0-6.0-0.2","3","4","4","3","3","3","3","1","3","4","4","3","2","4","4","4","4","5","4","4","4","5","4","4","4","5","4","4","5","1","1","0","0","1","1","1","1","0","0","1","0","1","0","0","4","5","4","4","5","3","4","4","5","2","3","802285339656986625","李","103","","","","","","","","","","","","","","","","","","","","","","","","","","","","","","","","","","","","","","","","","",""
"731","<p style=""color:rgb(150, 250, 100); font-size: 35px;"">他人的</p>","i","categorize-html","64","152190","0.0-6.0-0.0-6.0-1.2","3","4","4","3","3","3","3","1","3","4","4","3","2","4","4","4","4","5","4","4","4","5","4","4","4","5","4","4","5","1","1","0","0","1","1","1","1","0","0","1","0","1","0","0","4","5","4","4","5","3","4","4","5","2","3","802285339656986625","李","103","","","","","","","","","","","","","","","","","","","true","3","3","ability","731","other","他人的","","","","","","","","","","","","","","","","",""
"null","","null","html-keyboard-response","65","152441","0.0-6.0-0.0-6.0-0.3","3","4","4","3","3","3","3","1","3","4","4","3","2","4","4","4","4","5","4","4","4","5","4","4","4","5","4","4","5","1","1","0","0","1","1","1","1","0","0","1","0","1","0","0","4","5","4","4","5","3","4","4","5","2","3","802285339656986625","李","103","","","","","","","","","","","","","","","","","","","","","","","","","","","","","","","","","","","","","","","","","",""
"807","<p style=""color:white; font-size: 35px;"">全才</p>","e","categorize-html","66","153252","0.0-6.0-0.0-6.0-1.3","3","4","4","3","3","3","3","1","3","4","4","3","2","4","4","4","4","5","4","4","4","5","4","4","4","5","4","4","5","1","1","0","0","1","1","1","1","0","0","1","0","1","0","0","4","5","4","4","5","3","4","4","5","2","3","802285339656986625","李","103","","","","","","","","","","","","","","","","","","","true","3","3","ability","807","positive","全才","","","","","","","","","","","","","","","","",""
"null","","null","html-keyboard-response","67","153503","0.0-6.0-0.0-6.0-0.4","3","4","4","3","3","3","3","1","3","4","4","3","2","4","4","4","4","5","4","4","4","5","4","4","4","5","4","4","5","1","1","0","0","1","1","1","1","0","0","1","0","1","0","0","4","5","4","4","5","3","4","4","5","2","3","802285339656986625","李","103","","","","","","","","","","","","","","","","","","","","","","","","","","","","","","","","","","","","","","","","","",""
"582","<p style=""color:rgb(150, 250, 100); font-size: 35px;"">别人的</p>","i","categorize-html","68","154087","0.0-6.0-0.0-6.0-1.4","3","4","4","3","3","3","3","1","3","4","4","3","2","4","4","4","4","5","4","4","4","5","4","4","4","5","4","4","5","1","1","0","0","1","1","1","1","0","0","1","0","1","0","0","4","5","4","4","5","3","4","4","5","2","3","802285339656986625","李","103","","","","","","","","","","","","","","","","","","","true","3","3","ability","582","other","别人的","","","","","","","","","","","","","","","","",""
"null","","null","html-keyboard-response","69","154339","0.0-6.0-0.0-6.0-0.5","3","4","4","3","3","3","3","1","3","4","4","3","2","4","4","4","4","5","4","4","4","5","4","4","4","5","4","4","5","1","1","0","0","1","1","1","1","0","0","1","0","1","0","0","4","5","4","4","5","3","4","4","5","2","3","802285339656986625","李","103","","","","","","","","","","","","","","","","","","","","","","","","","","","","","","","","","","","","","","","","","",""
"568","<p style=""color:white; font-size: 35px;"">精干</p>","e","categorize-html","70","154910","0.0-6.0-0.0-6.0-1.5","3","4","4","3","3","3","3","1","3","4","4","3","2","4","4","4","4","5","4","4","4","5","4","4","4","5","4","4","5","1","1","0","0","1","1","1","1","0","0","1","0","1","0","0","4","5","4","4","5","3","4","4","5","2","3","802285339656986625","李","103","","","","","","","","","","","","","","","","","","","true","3","3","ability","568","positive","精干","","","","","","","","","","","","","","","","",""
"null","","null","html-keyboard-response","71","155161","0.0-6.0-0.0-6.0-0.6","3","4","4","3","3","3","3","1","3","4","4","3","2","4","4","4","4","5","4","4","4","5","4","4","4","5","4","4","5","1","1","0","0","1","1","1","1","0","0","1","0","1","0","0","4","5","4","4","5","3","4","4","5","2","3","802285339656986625","李","103","","","","","","","","","","","","","","","","","","","","","","","","","","","","","","","","","","","","","","","","","",""
"558","<p style=""color:rgb(150, 250, 100); font-size: 35px;"">自己</p>","e","categorize-html","72","155721","0.0-6.0-0.0-6.0-1.6","3","4","4","3","3","3","3","1","3","4","4","3","2","4","4","4","4","5","4","4","4","5","4","4","4","5","4","4","5","1","1","0","0","1","1","1","1","0","0","1","0","1","0","0","4","5","4","4","5","3","4","4","5","2","3","802285339656986625","李","103","","","","","","","","","","","","","","","","","","","true","3","3","ability","558","self","自己","","","","","","","","","","","","","","","","",""
"null","","null","html-keyboard-response","73","155973","0.0-6.0-0.0-6.0-0.7","3","4","4","3","3","3","3","1","3","4","4","3","2","4","4","4","4","5","4","4","4","5","4","4","4","5","4","4","5","1","1","0","0","1","1","1","1","0","0","1","0","1","0","0","4","5","4","4","5","3","4","4","5","2","3","802285339656986625","李","103","","","","","","","","","","","","","","","","","","","","","","","","","","","","","","","","","","","","","","","","","",""
"508","<p style=""color:white; font-size: 35px;"">愚钝</p>","i","categorize-html","74","156483","0.0-6.0-0.0-6.0-1.7","3","4","4","3","3","3","3","1","3","4","4","3","2","4","4","4","4","5","4","4","4","5","4","4","4","5","4","4","5","1","1","0","0","1","1","1","1","0","0","1","0","1","0","0","4","5","4","4","5","3","4","4","5","2","3","802285339656986625","李","103","","","","","","","","","","","","","","","","","","","true","3","3","ability","508","negative","愚钝","","","","","","","","","","","","","","","","",""
"null","","null","html-keyboard-response","75","156734","0.0-6.0-0.0-6.0-0.8","3","4","4","3","3","3","3","1","3","4","4","3","2","4","4","4","4","5","4","4","4","5","4","4","4","5","4","4","5","1","1","0","0","1","1","1","1","0","0","1","0","1","0","0","4","5","4","4","5","3","4","4","5","2","3","802285339656986625","李","103","","","","","","","","","","","","","","","","","","","","","","","","","","","","","","","","","","","","","","","","","",""
"413","<p style=""color:rgb(150, 250, 100); font-size: 35px;"">他</p>","i","categorize-html","76","157150","0.0-6.0-0.0-6.0-1.8","3","4","4","3","3","3","3","1","3","4","4","3","2","4","4","4","4","5","4","4","4","5","4","4","4","5","4","4","5","1","1","0","0","1","1","1","1","0","0","1","0","1","0","0","4","5","4","4","5","3","4","4","5","2","3","802285339656986625","李","103","","","","","","","","","","","","","","","","","","","true","3","3","ability","413","other","他","","","","","","","","","","","","","","","","",""
"null","","null","html-keyboard-response","77","157402","0.0-6.0-0.0-6.0-0.9","3","4","4","3","3","3","3","1","3","4","4","3","2","4","4","4","4","5","4","4","4","5","4","4","4","5","4","4","5","1","1","0","0","1","1","1","1","0","0","1","0","1","0","0","4","5","4","4","5","3","4","4","5","2","3","802285339656986625","李","103","","","","","","","","","","","","","","","","","","","","","","","","","","","","","","","","","","","","","","","","","",""
"494","<p style=""color:white; font-size: 35px;"">高效</p>","e","categorize-html","78","157901","0.0-6.0-0.0-6.0-1.9","3","4","4","3","3","3","3","1","3","4","4","3","2","4","4","4","4","5","4","4","4","5","4","4","4","5","4","4","5","1","1","0","0","1","1","1","1","0","0","1","0","1","0","0","4","5","4","4","5","3","4","4","5","2","3","802285339656986625","李","103","","","","","","","","","","","","","","","","","","","true","3","3","ability","494","positive","高效","","","","","","","","","","","","","","","","",""
"null","","null","html-keyboard-response","79","158153","0.0-6.0-0.0-6.0-0.10","3","4","4","3","3","3","3","1","3","4","4","3","2","4","4","4","4","5","4","4","4","5","4","4","4","5","4","4","5","1","1","0","0","1","1","1","1","0","0","1","0","1","0","0","4","5","4","4","5","3","4","4","5","2","3","802285339656986625","李","103","","","","","","","","","","","","","","","","","","","","","","","","","","","","","","","","","","","","","","","","","",""
"439","<p style=""color:rgb(150, 250, 100); font-size: 35px;"">我的</p>","e","categorize-html","80","158594","0.0-6.0-0.0-6.0-1.10","3","4","4","3","3","3","3","1","3","4","4","3","2","4","4","4","4","5","4","4","4","5","4","4","4","5","4","4","5","1","1","0","0","1","1","1","1","0","0","1","0","1","0","0","4","5","4","4","5","3","4","4","5","2","3","802285339656986625","李","103","","","","","","","","","","","","","","","","","","","true","3","3","ability","439","self","我的","","","","","","","","","","","","","","","","",""
"null","","null","html-keyboard-response","81","158846","0.0-6.0-0.0-6.0-0.11","3","4","4","3","3","3","3","1","3","4","4","3","2","4","4","4","4","5","4","4","4","5","4","4","4","5","4","4","5","1","1","0","0","1","1","1","1","0","0","1","0","1","0","0","4","5","4","4","5","3","4","4","5","2","3","802285339656986625","李","103","","","","","","","","","","","","","","","","","","","","","","","","","","","","","","","","","","","","","","","","","",""
"427","<p style=""color:white; font-size: 35px;"">拙笨</p>","i","categorize-html","82","159275","0.0-6.0-0.0-6.0-1.11","3","4","4","3","3","3","3","1","3","4","4","3","2","4","4","4","4","5","4","4","4","5","4","4","4","5","4","4","5","1","1","0","0","1","1","1","1","0","0","1","0","1","0","0","4","5","4","4","5","3","4","4","5","2","3","802285339656986625","李","103","","","","","","","","","","","","","","","","","","","true","3","3","ability","427","negative","拙笨","","","","","","","","","","","","","","","","",""
"null","","null","html-keyboard-response","83","159527","0.0-6.0-0.0-6.0-0.12","3","4","4","3","3","3","3","1","3","4","4","3","2","4","4","4","4","5","4","4","4","5","4","4","4","5","4","4","5","1","1","0","0","1","1","1","1","0","0","1","0","1","0","0","4","5","4","4","5","3","4","4","5","2","3","802285339656986625","李","103","","","","","","","","","","","","","","","","","","","","","","","","","","","","","","","","","","","","","","","","","",""
"386","<p style=""color:rgb(150, 250, 100); font-size: 35px;"">他的</p>","i","categorize-html","84","159916","0.0-6.0-0.0-6.0-1.12","3","4","4","3","3","3","3","1","3","4","4","3","2","4","4","4","4","5","4","4","4","5","4","4","4","5","4","4","5","1","1","0","0","1","1","1","1","0","0","1","0","1","0","0","4","5","4","4","5","3","4","4","5","2","3","802285339656986625","李","103","","","","","","","","","","","","","","","","","","","true","3","3","ability","386","other","他的","","","","","","","","","","","","","","","","",""
"null","","null","html-keyboard-response","85","160167","0.0-6.0-0.0-6.0-0.13","3","4","4","3","3","3","3","1","3","4","4","3","2","4","4","4","4","5","4","4","4","5","4","4","4","5","4","4","5","1","1","0","0","1","1","1","1","0","0","1","0","1","0","0","4","5","4","4","5","3","4","4","5","2","3","802285339656986625","李","103","","","","","","","","","","","","","","","","","","","","","","","","","","","","","","","","","","","","","","","","","",""
"565","<p style=""color:white; font-size: 35px;"">废物</p>","i","categorize-html","86","160734","0.0-6.0-0.0-6.0-1.13","3","4","4","3","3","3","3","1","3","4","4","3","2","4","4","4","4","5","4","4","4","5","4","4","4","5","4","4","5","1","1","0","0","1","1","1","1","0","0","1","0","1","0","0","4","5","4","4","5","3","4","4","5","2","3","802285339656986625","李","103","","","","","","","","","","","","","","","","","","","true","3","3","ability","565","negative","废物","","","","","","","","","","","","","","","","",""
"null","","null","html-keyboard-response","87","160986","0.0-6.0-0.0-6.0-0.14","3","4","4","3","3","3","3","1","3","4","4","3","2","4","4","4","4","5","4","4","4","5","4","4","4","5","4","4","5","1","1","0","0","1","1","1","1","0","0","1","0","1","0","0","4","5","4","4","5","3","4","4","5","2","3","802285339656986625","李","103","","","","","","","","","","","","","","","","","","","","","","","","","","","","","","","","","","","","","","","","","",""
"443","<p style=""color:rgb(150, 250, 100); font-size: 35px;"">我</p>","e","categorize-html","88","161431","0.0-6.0-0.0-6.0-1.14","3","4","4","3","3","3","3","1","3","4","4","3","2","4","4","4","4","5","4","4","4","5","4","4","4","5","4","4","5","1","1","0","0","1","1","1","1","0","0","1","0","1","0","0","4","5","4","4","5","3","4","4","5","2","3","802285339656986625","李","103","","","","","","","","","","","","","","","","","","","true","3","3","ability","443","self","我","","","","","","","","","","","","","","","","",""
"null","","null","html-keyboard-response","89","161684","0.0-6.0-0.0-6.0-0.15","3","4","4","3","3","3","3","1","3","4","4","3","2","4","4","4","4","5","4","4","4","5","4","4","4","5","4","4","5","1","1","0","0","1","1","1","1","0","0","1","0","1","0","0","4","5","4","4","5","3","4","4","5","2","3","802285339656986625","李","103","","","","","","","","","","","","","","","","","","","","","","","","","","","","","","","","","","","","","","","","","",""
"583","<p style=""color:white; font-size: 35px;"">全能</p>","e","categorize-html","90","162269","0.0-6.0-0.0-6.0-1.15","3","4","4","3","3","3","3","1","3","4","4","3","2","4","4","4","4","5","4","4","4","5","4","4","4","5","4","4","5","1","1","0","0","1","1","1","1","0","0","1","0","1","0","0","4","5","4","4","5","3","4","4","5","2","3","802285339656986625","李","103","","","","","","","","","","","","","","","","","","","true","3","3","ability","583","positive","全能","","","","","","","","","","","","","","","","",""
"null","","null","html-keyboard-response","91","162520","0.0-6.0-0.0-6.0-0.16","3","4","4","3","3","3","3","1","3","4","4","3","2","4","4","4","4","5","4","4","4","5","4","4","4","5","4","4","5","1","1","0","0","1","1","1","1","0","0","1","0","1","0","0","4","5","4","4","5","3","4","4","5","2","3","802285339656986625","李","103","","","","","","","","","","","","","","","","","","","","","","","","","","","","","","","","","","","","","","","","","",""
"518","<p style=""color:rgb(150, 250, 100); font-size: 35px;"">本人</p>","e","categorize-html","92","163040","0.0-6.0-0.0-6.0-1.16","3","4","4","3","3","3","3","1","3","4","4","3","2","4","4","4","4","5","4","4","4","5","4","4","4","5","4","4","5","1","1","0","0","1","1","1","1","0","0","1","0","1","0","0","4","5","4","4","5","3","4","4","5","2","3","802285339656986625","李","103","","","","","","","","","","","","","","","","","","","true","3","3","ability","518","self","本人","","","","","","","","","","","","","","","","",""
"null","","null","html-keyboard-response","93","163291","0.0-6.0-0.0-6.0-0.17","3","4","4","3","3","3","3","1","3","4","4","3","2","4","4","4","4","5","4","4","4","5","4","4","4","5","4","4","5","1","1","0","0","1","1","1","1","0","0","1","0","1","0","0","4","5","4","4","5","3","4","4","5","2","3","802285339656986625","李","103","","","","","","","","","","","","","","","","","","","","","","","","","","","","","","","","","","","","","","","","","",""
"509","<p style=""color:white; font-size: 35px;"">能干</p>","e","categorize-html","94","163802","0.0-6.0-0.0-6.0-1.17","3","4","4","3","3","3","3","1","3","4","4","3","2","4","4","4","4","5","4","4","4","5","4","4","4","5","4","4","5","1","1","0","0","1","1","1","1","0","0","1","0","1","0","0","4","5","4","4","5","3","4","4","5","2","3","802285339656986625","李","103","","","","","","","","","","","","","","","","","","","true","3","3","ability","509","positive","能干","","","","","","","","","","","","","","","","",""
"null","","null","html-keyboard-response","95","164053","0.0-6.0-0.0-6.0-0.18","3","4","4","3","3","3","3","1","3","4","4","3","2","4","4","4","4","5","4","4","4","5","4","4","4","5","4","4","5","1","1","0","0","1","1","1","1","0","0","1","0","1","0","0","4","5","4","4","5","3","4","4","5","2","3","802285339656986625","李","103","","","","","","","","","","","","","","","","","","","","","","","","","","","","","","","","","","","","","","","","","",""
"482","<p style=""color:rgb(150, 250, 100); font-size: 35px;"">他人</p>","i","categorize-html","96","164538","0.0-6.0-0.0-6.0-1.18","3","4","4","3","3","3","3","1","3","4","4","3","2","4","4","4","4","5","4","4","4","5","4","4","4","5","4","4","5","1","1","0","0","1","1","1","1","0","0","1","0","1","0","0","4","5","4","4","5","3","4","4","5","2","3","802285339656986625","李","103","","","","","","","","","","","","","","","","","","","true","3","3","ability","482","other","他人","","","","","","","","","","","","","","","","",""
"null","","null","html-keyboard-response","97","164790","0.0-6.0-0.0-6.0-0.19","3","4","4","3","3","3","3","1","3","4","4","3","2","4","4","4","4","5","4","4","4","5","4","4","4","5","4","4","5","1","1","0","0","1","1","1","1","0","0","1","0","1","0","0","4","5","4","4","5","3","4","4","5","2","3","802285339656986625","李","103","","","","","","","","","","","","","","","","","","","","","","","","","","","","","","","","","","","","","","","","","",""
"464","<p style=""color:white; font-size: 35px;"">无能</p>","i","categorize-html","98","165257","0.0-6.0-0.0-6.0-1.19","3","4","4","3","3","3","3","1","3","4","4","3","2","4","4","4","4","5","4","4","4","5","4","4","4","5","4","4","5","1","1","0","0","1","1","1","1","0","0","1","0","1","0","0","4","5","4","4","5","3","4","4","5","2","3","802285339656986625","李","103","","","","","","","","","","","","","","","","","","","true","3","3","ability","464","negative","无能","","","","","","","","","","","","","","","","",""
"null","","null","html-keyboard-response","99","165510","0.0-6.0-0.0-6.0-0.20","3","4","4","3","3","3","3","1","3","4","4","3","2","4","4","4","4","5","4","4","4","5","4","4","4","5","4","4","5","1","1","0","0","1","1","1","1","0","0","1","0","1","0","0","4","5","4","4","5","3","4","4","5","2","3","802285339656986625","李","103","","","","","","","","","","","","","","","","","","","","","","","","","","","","","","","","","","","","","","","","","",""
"591","<p style=""color:rgb(150, 250, 100); font-size: 35px;"">自己的</p>","e","categorize-html","100","166103","0.0-6.0-0.0-6.0-1.20","3","4","4","3","3","3","3","1","3","4","4","3","2","4","4","4","4","5","4","4","4","5","4","4","4","5","4","4","5","1","1","0","0","1","1","1","1","0","0","1","0","1","0","0","4","5","4","4","5","3","4","4","5","2","3","802285339656986625","李","103","","","","","","","","","","","","","","","","","","","true","3","3","ability","591","self","自己的","","","","","","","","","","","","","","","","",""
"null","","null","html-keyboard-response","101","166354","0.0-6.0-0.0-6.0-0.21","3","4","4","3","3","3","3","1","3","4","4","3","2","4","4","4","4","5","4","4","4","5","4","4","4","5","4","4","5","1","1","0","0","1","1","1","1","0","0","1","0","1","0","0","4","5","4","4","5","3","4","4","5","2","3","802285339656986625","李","103","","","","","","","","","","","","","","","","","","","","","","","","","","","","","","","","","","","","","","","","","",""
"605","<p style=""color:white; font-size: 35px;"">低能</p>","i","categorize-html","102","166963","0.0-6.0-0.0-6.0-1.21","3","4","4","3","3","3","3","1","3","4","4","3","2","4","4","4","4","5","4","4","4","5","4","4","4","5","4","4","5","1","1","0","0","1","1","1","1","0","0","1","0","1","0","0","4","5","4","4","5","3","4","4","5","2","3","802285339656986625","李","103","","","","","","","","","","","","","","","","","","","true","3","3","ability","605","negative","低能","","","","","","","","","","","","","","","","",""
"null","","null","html-keyboard-response","103","167215","0.0-6.0-0.0-6.0-0.22","3","4","4","3","3","3","3","1","3","4","4","3","2","4","4","4","4","5","4","4","4","5","4","4","4","5","4","4","5","1","1","0","0","1","1","1","1","0","0","1","0","1","0","0","4","5","4","4","5","3","4","4","5","2","3","802285339656986625","李","103","","","","","","","","","","","","","","","","","","","","","","","","","","","","","","","","","","","","","","","","","",""
"579","<p style=""color:rgb(150, 250, 100); font-size: 35px;"">别人</p>","e","categorize-html","104","168449","0.0-6.0-0.0-6.0-1.22","3","4","4","3","3","3","3","1","3","4","4","3","2","4","4","4","4","5","4","4","4","5","4","4","4","5","4","4","5","1","1","0","0","1","1","1","1","0","0","1","0","1","0","0","4","5","4","4","5","3","4","4","5","2","3","802285339656986625","李","103","","","","","","","","","","","","","","","","","","","false","3","3","ability","1154","other","别人","","","","","","","","","","","","","","","","",""
"null","","null","html-keyboard-response","105","168701","0.0-6.0-0.0-6.0-0.23","3","4","4","3","3","3","3","1","3","4","4","3","2","4","4","4","4","5","4","4","4","5","4","4","4","5","4","4","5","1","1","0","0","1","1","1","1","0","0","1","0","1","0","0","4","5","4","4","5","3","4","4","5","2","3","802285339656986625","李","103","","","","","","","","","","","","","","","","","","","","","","","","","","","","","","","","","","","","","","","","","",""
"843","<p style=""color:white; font-size: 35px;"">天才</p>","e","categorize-html","106","169547","0.0-6.0-0.0-6.0-1.23","3","4","4","3","3","3","3","1","3","4","4","3","2","4","4","4","4","5","4","4","4","5","4","4","4","5","4","4","5","1","1","0","0","1","1","1","1","0","0","1","0","1","0","0","4","5","4","4","5","3","4","4","5","2","3","802285339656986625","李","103","","","","","","","","","","","","","","","","","","","true","3","3","ability","843","positive","天才","","","","","","","","","","","","","","","","",""
"1206","
    <div class=""tag-bottom""><p>
    —— 任务4：对“自我/积极”词和“他人/消极”词分类 ——<p/>
    <span style=""color:#78DCE8""><b>与刚才的任务完全相同，请再次对这四类词语分类</b></span><p/>
    <span style=""color:#FFD866""><b>请根据上方标签的提示，尽可能正确并且快速地做出按键反应</b></span><p/>
    当按键错误时屏幕中会出现<span style=""color:red""> X </span>，需要按另一个键纠正才能继续<br/><p/>
    请把双手食指分别放在键盘的“E”键和“I”键上<p/>
    按<空格键>开始
    </p></div>"," ","html-keyboard-response","107","170754","0.0-6.0-0.0-7.0","3","4","4","3","3","3","3","1","3","4","4","3","2","4","4","4","4","5","4","4","4","5","4","4","4","5","4","4","5","1","1","0","0","1","1","1","1","0","0","1","0","1","0","0","4","5","4","4","5","3","4","4","5","2","3","802285339656986625","李","103","","","","","","","","","","","","","","","","","","","","","","","","","","","","","","","","","","","","","","","","","",""
"null","","null","html-keyboard-response","108","171005","0.0-6.0-0.0-8.0-0.0","3","4","4","3","3","3","3","1","3","4","4","3","2","4","4","4","4","5","4","4","4","5","4","4","4","5","4","4","5","1","1","0","0","1","1","1","1","0","0","1","0","1","0","0","4","5","4","4","5","3","4","4","5","2","3","802285339656986625","李","103","","","","","","","","","","","","","","","","","","","","","","","","","","","","","","","","","","","","","","","","","",""
"891","<p style=""color:rgb(150, 250, 100); font-size: 35px;"">本人</p>","e","categorize-html","109","171898","0.0-6.0-0.0-8.0-1.0","3","4","4","3","3","3","3","1","3","4","4","3","2","4","4","4","4","5","4","4","4","5","4","4","4","5","4","4","5","1","1","0","0","1","1","1","1","0","0","1","0","1","0","0","4","5","4","4","5","3","4","4","5","2","3","802285339656986625","李","103","","","","","","","","","","","","","","","","","","","true","4","4","ability","891","self","本人","","","","","","","","","","","","","","","","",""
"null","","null","html-keyboard-response","110","172150","0.0-6.0-0.0-8.0-0.1","3","4","4","3","3","3","3","1","3","4","4","3","2","4","4","4","4","5","4","4","4","5","4","4","4","5","4","4","5","1","1","0","0","1","1","1","1","0","0","1","0","1","0","0","4","5","4","4","5","3","4","4","5","2","3","802285339656986625","李","103","","","","","","","","","","","","","","","","","","","","","","","","","","","","","","","","","","","","","","","","","",""
"548","<p style=""color:white; font-size: 35px;"">无能</p>","i","categorize-html","111","172701","0.0-6.0-0.0-8.0-1.1","3","4","4","3","3","3","3","1","3","4","4","3","2","4","4","4","4","5","4","4","4","5","4","4","4","5","4","4","5","1","1","0","0","1","1","1","1","0","0","1","0","1","0","0","4","5","4","4","5","3","4","4","5","2","3","802285339656986625","李","103","","","","","","","","","","","","","","","","","","","true","4","4","ability","548","negative","无能","","","","","","","","","","","","","","","","",""
"null","","null","html-keyboard-response","112","172953","0.0-6.0-0.0-8.0-0.2","3","4","4","3","3","3","3","1","3","4","4","3","2","4","4","4","4","5","4","4","4","5","4","4","4","5","4","4","5","1","1","0","0","1","1","1","1","0","0","1","0","1","0","0","4","5","4","4","5","3","4","4","5","2","3","802285339656986625","李","103","","","","","","","","","","","","","","","","","","","","","","","","","","","","","","","","","","","","","","","","","",""
"643","<p style=""color:rgb(150, 250, 100); font-size: 35px;"">他</p>","i","categorize-html","113","173599","0.0-6.0-0.0-8.0-1.2","3","4","4","3","3","3","3","1","3","4","4","3","2","4","4","4","4","5","4","4","4","5","4","4","4","5","4","4","5","1","1","0","0","1","1","1","1","0","0","1","0","1","0","0","4","5","4","4","5","3","4","4","5","2","3","802285339656986625","李","103","","","","","","","","","","","","","","","","","","","true","4","4","ability","643","other","他","","","","","","","","","","","","","","","","",""
"null","","null","html-keyboard-response","114","173851","0.0-6.0-0.0-8.0-0.3","3","4","4","3","3","3","3","1","3","4","4","3","2","4","4","4","4","5","4","4","4","5","4","4","4","5","4","4","5","1","1","0","0","1","1","1","1","0","0","1","0","1","0","0","4","5","4","4","5","3","4","4","5","2","3","802285339656986625","李","103","","","","","","","","","","","","","","","","","","","","","","","","","","","","","","","","","","","","","","","","","",""
"607","<p style=""color:white; font-size: 35px;"">天才</p>","e","categorize-html","115","174460","0.0-6.0-0.0-8.0-1.3","3","4","4","3","3","3","3","1","3","4","4","3","2","4","4","4","4","5","4","4","4","5","4","4","4","5","4","4","5","1","1","0","0","1","1","1","1","0","0","1","0","1","0","0","4","5","4","4","5","3","4","4","5","2","3","802285339656986625","李","103","","","","","","","","","","","","","","","","","","","true","4","4","ability","607","positive","天才","","","","","","","","","","","","","","","","",""
"null","","null","html-keyboard-response","116","174713","0.0-6.0-0.0-8.0-0.4","3","4","4","3","3","3","3","1","3","4","4","3","2","4","4","4","4","5","4","4","4","5","4","4","4","5","4","4","5","1","1","0","0","1","1","1","1","0","0","1","0","1","0","0","4","5","4","4","5","3","4","4","5","2","3","802285339656986625","李","103","","","","","","","","","","","","","","","","","","","","","","","","","","","","","","","","","","","","","","","","","",""
"498","<p style=""color:rgb(150, 250, 100); font-size: 35px;"">我</p>","e","categorize-html","117","175216","0.0-6.0-0.0-8.0-1.4","3","4","4","3","3","3","3","1","3","4","4","3","2","4","4","4","4","5","4","4","4","5","4","4","4","5","4","4","5","1","1","0","0","1","1","1","1","0","0","1","0","1","0","0","4","5","4","4","5","3","4","4","5","2","3","802285339656986625","李","103","","","","","","","","","","","","","","","","","","","true","4","4","ability","498","self","我","","","","","","","","","","","","","","","","",""
"null","","null","html-keyboard-response","118","175468","0.0-6.0-0.0-8.0-0.5","3","4","4","3","3","3","3","1","3","4","4","3","2","4","4","4","4","5","4","4","4","5","4","4","4","5","4","4","5","1","1","0","0","1","1","1","1","0","0","1","0","1","0","0","4","5","4","4","5","3","4","4","5","2","3","802285339656986625","李","103","","","","","","","","","","","","","","","","","","","","","","","","","","","","","","","","","","","","","","","","","",""
"1032","<p style=""color:white; font-size: 35px;"">废物</p>","i","categorize-html","119","176502","0.0-6.0-0.0-8.0-1.5","3","4","4","3","3","3","3","1","3","4","4","3","2","4","4","4","4","5","4","4","4","5","4","4","4","5","4","4","5","1","1","0","0","1","1","1","1","0","0","1","0","1","0","0","4","5","4","4","5","3","4","4","5","2","3","802285339656986625","李","103","","","","","","","","","","","","","","","","","","","true","4","4","ability","1032","negative","废物","","","","","","","","","","","","","","","","",""
"null","","null","html-keyboard-response","120","176753","0.0-6.0-0.0-8.0-0.6","3","4","4","3","3","3","3","1","3","4","4","3","2","4","4","4","4","5","4","4","4","5","4","4","4","5","4","4","5","1","1","0","0","1","1","1","1","0","0","1","0","1","0","0","4","5","4","4","5","3","4","4","5","2","3","802285339656986625","李","103","","","","","","","","","","","","","","","","","","","","","","","","","","","","","","","","","","","","","","","","","",""
"546","<p style=""color:rgb(150, 250, 100); font-size: 35px;"">他人</p>","i","categorize-html","121","177302","0.0-6.0-0.0-8.0-1.6","3","4","4","3","3","3","3","1","3","4","4","3","2","4","4","4","4","5","4","4","4","5","4","4","4","5","4","4","5","1","1","0","0","1","1","1","1","0","0","1","0","1","0","0","4","5","4","4","5","3","4","4","5","2","3","802285339656986625","李","103","","","","","","","","","","","","","","","","","","","true","4","4","ability","546","other","他人","","","","","","","","","","","","","","","","",""
"null","","null","html-keyboard-response","122","177554","0.0-6.0-0.0-8.0-0.7","3","4","4","3","3","3","3","1","3","4","4","3","2","4","4","4","4","5","4","4","4","5","4","4","4","5","4","4","5","1","1","0","0","1","1","1","1","0","0","1","0","1","0","0","4","5","4","4","5","3","4","4","5","2","3","802285339656986625","李","103","","","","","","","","","","","","","","","","","","","","","","","","","","","","","","","","","","","","","","","","","",""
"507","<p style=""color:white; font-size: 35px;"">精干</p>","e","categorize-html","123","178063","0.0-6.0-0.0-8.0-1.7","3","4","4","3","3","3","3","1","3","4","4","3","2","4","4","4","4","5","4","4","4","5","4","4","4","5","4","4","5","1","1","0","0","1","1","1","1","0","0","1","0","1","0","0","4","5","4","4","5","3","4","4","5","2","3","802285339656986625","李","103","","","","","","","","","","","","","","","","","","","true","4","4","ability","507","positive","精干","","","","","","","","","","","","","","","","",""
"null","","null","html-keyboard-response","124","178315","0.0-6.0-0.0-8.0-0.8","3","4","4","3","3","3","3","1","3","4","4","3","2","4","4","4","4","5","4","4","4","5","4","4","4","5","4","4","5","1","1","0","0","1","1","1","1","0","0","1","0","1","0","0","4","5","4","4","5","3","4","4","5","2","3","802285339656986625","李","103","","","","","","","","","","","","","","","","","","","","","","","","","","","","","","","","","","","","","","","","","",""
"510","<p style=""color:rgb(150, 250, 100); font-size: 35px;"">别人的</p>","i","categorize-html","125","178828","0.0-6.0-0.0-8.0-1.8","3","4","4","3","3","3","3","1","3","4","4","3","2","4","4","4","4","5","4","4","4","5","4","4","4","5","4","4","5","1","1","0","0","1","1","1","1","0","0","1","0","1","0","0","4","5","4","4","5","3","4","4","5","2","3","802285339656986625","李","103","","","","","","","","","","","","","","","","","","","true","4","4","ability","510","other","别人的","","","","","","","","","","","","","","","","",""
"null","","null","html-keyboard-response","126","179080","0.0-6.0-0.0-8.0-0.9","3","4","4","3","3","3","3","1","3","4","4","3","2","4","4","4","4","5","4","4","4","5","4","4","4","5","4","4","5","1","1","0","0","1","1","1","1","0","0","1","0","1","0","0","4","5","4","4","5","3","4","4","5","2","3","802285339656986625","李","103","","","","","","","","","","","","","","","","","","","","","","","","","","","","","","","","","","","","","","","","","",""
"528","<p style=""color:white; font-size: 35px;"">愚钝</p>","i","categorize-html","127","179610","0.0-6.0-0.0-8.0-1.9","3","4","4","3","3","3","3","1","3","4","4","3","2","4","4","4","4","5","4","4","4","5","4","4","4","5","4","4","5","1","1","0","0","1","1","1","1","0","0","1","0","1","0","0","4","5","4","4","5","3","4","4","5","2","3","802285339656986625","李","103","","","","","","","","","","","","","","","","","","","true","4","4","ability","528","negative","愚钝","","","","","","","","","","","","","","","","",""
"null","","null","html-keyboard-response","128","179862","0.0-6.0-0.0-8.0-0.10","3","4","4","3","3","3","3","1","3","4","4","3","2","4","4","4","4","5","4","4","4","5","4","4","4","5","4","4","5","1","1","0","0","1","1","1","1","0","0","1","0","1","0","0","4","5","4","4","5","3","4","4","5","2","3","802285339656986625","李","103","","","","","","","","","","","","","","","","","","","","","","","","","","","","","","","","","","","","","","","","","",""
"604","<p style=""color:rgb(150, 250, 100); font-size: 35px;"">本人的</p>","e","categorize-html","129","180469","0.0-6.0-0.0-8.0-1.10","3","4","4","3","3","3","3","1","3","4","4","3","2","4","4","4","4","5","4","4","4","5","4","4","4","5","4","4","5","1","1","0","0","1","1","1","1","0","0","1","0","1","0","0","4","5","4","4","5","3","4","4","5","2","3","802285339656986625","李","103","","","","","","","","","","","","","","","","","","","true","4","4","ability","604","self","本人的","","","","","","","","","","","","","","","","",""
"null","","null","html-keyboard-response","130","180720","0.0-6.0-0.0-8.0-0.11","3","4","4","3","3","3","3","1","3","4","4","3","2","4","4","4","4","5","4","4","4","5","4","4","4","5","4","4","5","1","1","0","0","1","1","1","1","0","0","1","0","1","0","0","4","5","4","4","5","3","4","4","5","2","3","802285339656986625","李","103","","","","","","","","","","","","","","","","","","","","","","","","","","","","","","","","","","","","","","","","","",""
"536","<p style=""color:white; font-size: 35px;"">全能</p>","e","categorize-html","131","181259","0.0-6.0-0.0-8.0-1.11","3","4","4","3","3","3","3","1","3","4","4","3","2","4","4","4","4","5","4","4","4","5","4","4","4","5","4","4","5","1","1","0","0","1","1","1","1","0","0","1","0","1","0","0","4","5","4","4","5","3","4","4","5","2","3","802285339656986625","李","103","","","","","","","","","","","","","","","","","","","true","4","4","ability","536","positive","全能","","","","","","","","","","","","","","","","",""
"null","","null","html-keyboard-response","132","181511","0.0-6.0-0.0-8.0-0.12","3","4","4","3","3","3","3","1","3","4","4","3","2","4","4","4","4","5","4","4","4","5","4","4","4","5","4","4","5","1","1","0","0","1","1","1","1","0","0","1","0","1","0","0","4","5","4","4","5","3","4","4","5","2","3","802285339656986625","李","103","","","","","","","","","","","","","","","","","","","","","","","","","","","","","","","","","","","","","","","","","",""
"527","<p style=""color:rgb(150, 250, 100); font-size: 35px;"">别人</p>","i","categorize-html","133","182041","0.0-6.0-0.0-8.0-1.12","3","4","4","3","3","3","3","1","3","4","4","3","2","4","4","4","4","5","4","4","4","5","4","4","4","5","4","4","5","1","1","0","0","1","1","1","1","0","0","1","0","1","0","0","4","5","4","4","5","3","4","4","5","2","3","802285339656986625","李","103","","","","","","","","","","","","","","","","","","","true","4","4","ability","527","other","别人","","","","","","","","","","","","","","","","",""
"null","","null","html-keyboard-response","134","182293","0.0-6.0-0.0-8.0-0.13","3","4","4","3","3","3","3","1","3","4","4","3","2","4","4","4","4","5","4","4","4","5","4","4","4","5","4","4","5","1","1","0","0","1","1","1","1","0","0","1","0","1","0","0","4","5","4","4","5","3","4","4","5","2","3","802285339656986625","李","103","","","","","","","","","","","","","","","","","","","","","","","","","","","","","","","","","","","","","","","","","",""
"588","<p style=""color:white; font-size: 35px;"">全能</p>","e","categorize-html","135","182884","0.0-6.0-0.0-8.0-1.13","3","4","4","3","3","3","3","1","3","4","4","3","2","4","4","4","4","5","4","4","4","5","4","4","4","5","4","4","5","1","1","0","0","1","1","1","1","0","0","1","0","1","0","0","4","5","4","4","5","3","4","4","5","2","3","802285339656986625","李","103","","","","","","","","","","","","","","","","","","","true","4","4","ability","588","positive","全能","","","","","","","","","","","","","","","","",""
"null","","null","html-keyboard-response","136","183135","0.0-6.0-0.0-8.0-0.14","3","4","4","3","3","3","3","1","3","4","4","3","2","4","4","4","4","5","4","4","4","5","4","4","4","5","4","4","5","1","1","0","0","1","1","1","1","0","0","1","0","1","0","0","4","5","4","4","5","3","4","4","5","2","3","802285339656986625","李","103","","","","","","","","","","","","","","","","","","","","","","","","","","","","","","","","","","","","","","","","","",""
"510","<p style=""color:rgb(150, 250, 100); font-size: 35px;"">自己的</p>","e","categorize-html","137","183647","0.0-6.0-0.0-8.0-1.14","3","4","4","3","3","3","3","1","3","4","4","3","2","4","4","4","4","5","4","4","4","5","4","4","4","5","4","4","5","1","1","0","0","1","1","1","1","0","0","1","0","1","0","0","4","5","4","4","5","3","4","4","5","2","3","802285339656986625","李","103","","","","","","","","","","","","","","","","","","","true","4","4","ability","510","self","自己的","","","","","","","","","","","","","","","","",""
"null","","null","html-keyboard-response","138","183899","0.0-6.0-0.0-8.0-0.15","3","4","4","3","3","3","3","1","3","4","4","3","2","4","4","4","4","5","4","4","4","5","4","4","4","5","4","4","5","1","1","0","0","1","1","1","1","0","0","1","0","1","0","0","4","5","4","4","5","3","4","4","5","2","3","802285339656986625","李","103","","","","","","","","","","","","","","","","","","","","","","","","","","","","","","","","","","","","","","","","","",""
"542","<p style=""color:white; font-size: 35px;"">拙笨</p>","i","categorize-html","139","184443","0.0-6.0-0.0-8.0-1.15","3","4","4","3","3","3","3","1","3","4","4","3","2","4","4","4","4","5","4","4","4","5","4","4","4","5","4","4","5","1","1","0","0","1","1","1","1","0","0","1","0","1","0","0","4","5","4","4","5","3","4","4","5","2","3","802285339656986625","李","103","","","","","","","","","","","","","","","","","","","true","4","4","ability","542","negative","拙笨","","","","","","","","","","","","","","","","",""
"null","","null","html-keyboard-response","140","184695","0.0-6.0-0.0-8.0-0.16","3","4","4","3","3","3","3","1","3","4","4","3","2","4","4","4","4","5","4","4","4","5","4","4","4","5","4","4","5","1","1","0","0","1","1","1","1","0","0","1","0","1","0","0","4","5","4","4","5","3","4","4","5","2","3","802285339656986625","李","103","","","","","","","","","","","","","","","","","","","","","","","","","","","","","","","","","","","","","","","","","",""
"514","<p style=""color:rgb(150, 250, 100); font-size: 35px;"">他人的</p>","i","categorize-html","141","185213","0.0-6.0-0.0-8.0-1.16","3","4","4","3","3","3","3","1","3","4","4","3","2","4","4","4","4","5","4","4","4","5","4","4","4","5","4","4","5","1","1","0","0","1","1","1","1","0","0","1","0","1","0","0","4","5","4","4","5","3","4","4","5","2","3","802285339656986625","李","103","","","","","","","","","","","","","","","","","","","true","4","4","ability","514","other","他人的","","","","","","","","","","","","","","","","",""
"null","","null","html-keyboard-response","142","185464","0.0-6.0-0.0-8.0-0.17","3","4","4","3","3","3","3","1","3","4","4","3","2","4","4","4","4","5","4","4","4","5","4","4","4","5","4","4","5","1","1","0","0","1","1","1","1","0","0","1","0","1","0","0","4","5","4","4","5","3","4","4","5","2","3","802285339656986625","李","103","","","","","","","","","","","","","","","","","","","","","","","","","","","","","","","","","","","","","","","","","",""
"572","<p style=""color:white; font-size: 35px;"">能干</p>","e","categorize-html","143","186039","0.0-6.0-0.0-8.0-1.17","3","4","4","3","3","3","3","1","3","4","4","3","2","4","4","4","4","5","4","4","4","5","4","4","4","5","4","4","5","1","1","0","0","1","1","1","1","0","0","1","0","1","0","0","4","5","4","4","5","3","4","4","5","2","3","802285339656986625","李","103","","","","","","","","","","","","","","","","","","","true","4","4","ability","572","positive","能干","","","","","","","","","","","","","","","","",""
"null","","null","html-keyboard-response","144","186290","0.0-6.0-0.0-8.0-0.18","3","4","4","3","3","3","3","1","3","4","4","3","2","4","4","4","4","5","4","4","4","5","4","4","4","5","4","4","5","1","1","0","0","1","1","1","1","0","0","1","0","1","0","0","4","5","4","4","5","3","4","4","5","2","3","802285339656986625","李","103","","","","","","","","","","","","","","","","","","","","","","","","","","","","","","","","","","","","","","","","","",""
"492","<p style=""color:rgb(150, 250, 100); font-size: 35px;"">本人</p>","e","categorize-html","145","186786","0.0-6.0-0.0-8.0-1.18","3","4","4","3","3","3","3","1","3","4","4","3","2","4","4","4","4","5","4","4","4","5","4","4","4","5","4","4","5","1","1","0","0","1","1","1","1","0","0","1","0","1","0","0","4","5","4","4","5","3","4","4","5","2","3","802285339656986625","李","103","","","","","","","","","","","","","","","","","","","true","4","4","ability","492","self","本人","","","","","","","","","","","","","","","","",""
"null","","null","html-keyboard-response","146","187037","0.0-6.0-0.0-8.0-0.19","3","4","4","3","3","3","3","1","3","4","4","3","2","4","4","4","4","5","4","4","4","5","4","4","4","5","4","4","5","1","1","0","0","1","1","1","1","0","0","1","0","1","0","0","4","5","4","4","5","3","4","4","5","2","3","802285339656986625","李","103","","","","","","","","","","","","","","","","","","","","","","","","","","","","","","","","","","","","","","","","","",""
"530","<p style=""color:white; font-size: 35px;"">无能</p>","i","categorize-html","147","187570","0.0-6.0-0.0-8.0-1.19","3","4","4","3","3","3","3","1","3","4","4","3","2","4","4","4","4","5","4","4","4","5","4","4","4","5","4","4","5","1","1","0","0","1","1","1","1","0","0","1","0","1","0","0","4","5","4","4","5","3","4","4","5","2","3","802285339656986625","李","103","","","","","","","","","","","","","","","","","","","true","4","4","ability","530","negative","无能","","","","","","","","","","","","","","","","",""
"null","","null","html-keyboard-response","148","187821","0.0-6.0-0.0-8.0-0.20","3","4","4","3","3","3","3","1","3","4","4","3","2","4","4","4","4","5","4","4","4","5","4","4","4","5","4","4","5","1","1","0","0","1","1","1","1","0","0","1","0","1","0","0","4","5","4","4","5","3","4","4","5","2","3","802285339656986625","李","103","","","","","","","","","","","","","","","","","","","","","","","","","","","","","","","","","","","","","","","","","",""
"568","<p style=""color:rgb(150, 250, 100); font-size: 35px;"">我的</p>","e","categorize-html","149","188392","0.0-6.0-0.0-8.0-1.20","3","4","4","3","3","3","3","1","3","4","4","3","2","4","4","4","4","5","4","4","4","5","4","4","4","5","4","4","5","1","1","0","0","1","1","1","1","0","0","1","0","1","0","0","4","5","4","4","5","3","4","4","5","2","3","802285339656986625","李","103","","","","","","","","","","","","","","","","","","","true","4","4","ability","568","self","我的","","","","","","","","","","","","","","","","",""
"null","","null","html-keyboard-response","150","188655","0.0-6.0-0.0-8.0-0.21","3","4","4","3","3","3","3","1","3","4","4","3","2","4","4","4","4","5","4","4","4","5","4","4","4","5","4","4","5","1","1","0","0","1","1","1","1","0","0","1","0","1","0","0","4","5","4","4","5","3","4","4","5","2","3","802285339656986625","李","103","","","","","","","","","","","","","","","","","","","","","","","","","","","","","","","","","","","","","","","","","",""
"578","<p style=""color:white; font-size: 35px;"">全才</p>","e","categorize-html","151","189235","0.0-6.0-0.0-8.0-1.21","3","4","4","3","3","3","3","1","3","4","4","3","2","4","4","4","4","5","4","4","4","5","4","4","4","5","4","4","5","1","1","0","0","1","1","1","1","0","0","1","0","1","0","0","4","5","4","4","5","3","4","4","5","2","3","802285339656986625","李","103","","","","","","","","","","","","","","","","","","","true","4","4","ability","578","positive","全才","","","","","","","","","","","","","","","","",""
"null","","null","html-keyboard-response","152","189486","0.0-6.0-0.0-8.0-0.22","3","4","4","3","3","3","3","1","3","4","4","3","2","4","4","4","4","5","4","4","4","5","4","4","4","5","4","4","5","1","1","0","0","1","1","1","1","0","0","1","0","1","0","0","4","5","4","4","5","3","4","4","5","2","3","802285339656986625","李","103","","","","","","","","","","","","","","","","","","","","","","","","","","","","","","","","","","","","","","","","","",""
"521","<p style=""color:rgb(150, 250, 100); font-size: 35px;"">他的</p>","i","categorize-html","153","190009","0.0-6.0-0.0-8.0-1.22","3","4","4","3","3","3","3","1","3","4","4","3","2","4","4","4","4","5","4","4","4","5","4","4","4","5","4","4","5","1","1","0","0","1","1","1","1","0","0","1","0","1","0","0","4","5","4","4","5","3","4","4","5","2","3","802285339656986625","李","103","","","","","","","","","","","","","","","","","","","true","4","4","ability","521","other","他的","","","","","","","","","","","","","","","","",""
"null","","null","html-keyboard-response","154","190261","0.0-6.0-0.0-8.0-0.23","3","4","4","3","3","3","3","1","3","4","4","3","2","4","4","4","4","5","4","4","4","5","4","4","4","5","4","4","5","1","1","0","0","1","1","1","1","0","0","1","0","1","0","0","4","5","4","4","5","3","4","4","5","2","3","802285339656986625","李","103","","","","","","","","","","","","","","","","","","","","","","","","","","","","","","","","","","","","","","","","","",""
"502","<p style=""color:white; font-size: 35px;"">蠢笨</p>","i","categorize-html","155","190766","0.0-6.0-0.0-8.0-1.23","3","4","4","3","3","3","3","1","3","4","4","3","2","4","4","4","4","5","4","4","4","5","4","4","4","5","4","4","5","1","1","0","0","1","1","1","1","0","0","1","0","1","0","0","4","5","4","4","5","3","4","4","5","2","3","802285339656986625","李","103","","","","","","","","","","","","","","","","","","","true","4","4","ability","502","negative","蠢笨","","","","","","","","","","","","","","","","",""
"null","","null","html-keyboard-response","156","191017","0.0-6.0-0.0-8.0-0.24","3","4","4","3","3","3","3","1","3","4","4","3","2","4","4","4","4","5","4","4","4","5","4","4","4","5","4","4","5","1","1","0","0","1","1","1","1","0","0","1","0","1","0","0","4","5","4","4","5","3","4","4","5","2","3","802285339656986625","李","103","","","","","","","","","","","","","","","","","","","","","","","","","","","","","","","","","","","","","","","","","",""
"660","<p style=""color:rgb(150, 250, 100); font-size: 35px;"">自己</p>","e","categorize-html","157","191680","0.0-6.0-0.0-8.0-1.24","3","4","4","3","3","3","3","1","3","4","4","3","2","4","4","4","4","5","4","4","4","5","4","4","4","5","4","4","5","1","1","0","0","1","1","1","1","0","0","1","0","1","0","0","4","5","4","4","5","3","4","4","5","2","3","802285339656986625","李","103","","","","","","","","","","","","","","","","","","","true","4","4","ability","660","self","自己","","","","","","","","","","","","","","","","",""
"null","","null","html-keyboard-response","158","191930","0.0-6.0-0.0-8.0-0.25","3","4","4","3","3","3","3","1","3","4","4","3","2","4","4","4","4","5","4","4","4","5","4","4","4","5","4","4","5","1","1","0","0","1","1","1","1","0","0","1","0","1","0","0","4","5","4","4","5","3","4","4","5","2","3","802285339656986625","李","103","","","","","","","","","","","","","","","","","","","","","","","","","","","","","","","","","","","","","","","","","",""
"608","<p style=""color:white; font-size: 35px;"">低能</p>","i","categorize-html","159","192541","0.0-6.0-0.0-8.0-1.25","3","4","4","3","3","3","3","1","3","4","4","3","2","4","4","4","4","5","4","4","4","5","4","4","4","5","4","4","5","1","1","0","0","1","1","1","1","0","0","1","0","1","0","0","4","5","4","4","5","3","4","4","5","2","3","802285339656986625","李","103","","","","","","","","","","","","","","","","","","","true","4","4","ability","608","negative","低能","","","","","","","","","","","","","","","","",""
"null","","null","html-keyboard-response","160","192793","0.0-6.0-0.0-8.0-0.26","3","4","4","3","3","3","3","1","3","4","4","3","2","4","4","4","4","5","4","4","4","5","4","4","4","5","4","4","5","1","1","0","0","1","1","1","1","0","0","1","0","1","0","0","4","5","4","4","5","3","4","4","5","2","3","802285339656986625","李","103","","","","","","","","","","","","","","","","","","","","","","","","","","","","","","","","","","","","","","","","","",""
"779","<p style=""color:rgb(150, 250, 100); font-size: 35px;"">别人</p>","i","categorize-html","161","193575","0.0-6.0-0.0-8.0-1.26","3","4","4","3","3","3","3","1","3","4","4","3","2","4","4","4","4","5","4","4","4","5","4","4","4","5","4","4","5","1","1","0","0","1","1","1","1","0","0","1","0","1","0","0","4","5","4","4","5","3","4","4","5","2","3","802285339656986625","李","103","","","","","","","","","","","","","","","","","","","true","4","4","ability","779","other","别人","","","","","","","","","","","","","","","","",""
"null","","null","html-keyboard-response","162","193827","0.0-6.0-0.0-8.0-0.27","3","4","4","3","3","3","3","1","3","4","4","3","2","4","4","4","4","5","4","4","4","5","4","4","4","5","4","4","5","1","1","0","0","1","1","1","1","0","0","1","0","1","0","0","4","5","4","4","5","3","4","4","5","2","3","802285339656986625","李","103","","","","","","","","","","","","","","","","","","","","","","","","","","","","","","","","","","","","","","","","","",""
"607","<p style=""color:white; font-size: 35px;"">全才</p>","e","categorize-html","163","194437","0.0-6.0-0.0-8.0-1.27","3","4","4","3","3","3","3","1","3","4","4","3","2","4","4","4","4","5","4","4","4","5","4","4","4","5","4","4","5","1","1","0","0","1","1","1","1","0","0","1","0","1","0","0","4","5","4","4","5","3","4","4","5","2","3","802285339656986625","李","103","","","","","","","","","","","","","","","","","","","true","4","4","ability","607","positive","全才","","","","","","","","","","","","","","","","",""
"null","","null","html-keyboard-response","164","194689","0.0-6.0-0.0-8.0-0.28","3","4","4","3","3","3","3","1","3","4","4","3","2","4","4","4","4","5","4","4","4","5","4","4","4","5","4","4","5","1","1","0","0","1","1","1","1","0","0","1","0","1","0","0","4","5","4","4","5","3","4","4","5","2","3","802285339656986625","李","103","","","","","","","","","","","","","","","","","","","","","","","","","","","","","","","","","","","","","","","","","",""
"481","<p style=""color:rgb(150, 250, 100); font-size: 35px;"">本人的</p>","e","categorize-html","165","195173","0.0-6.0-0.0-8.0-1.28","3","4","4","3","3","3","3","1","3","4","4","3","2","4","4","4","4","5","4","4","4","5","4","4","4","5","4","4","5","1","1","0","0","1","1","1","1","0","0","1","0","1","0","0","4","5","4","4","5","3","4","4","5","2","3","802285339656986625","李","103","","","","","","","","","","","","","","","","","","","true","4","4","ability","481","self","本人的","","","","","","","","","","","","","","","","",""
"null","","null","html-keyboard-response","166","195424","0.0-6.0-0.0-8.0-0.29","3","4","4","3","3","3","3","1","3","4","4","3","2","4","4","4","4","5","4","4","4","5","4","4","4","5","4","4","5","1","1","0","0","1","1","1","1","0","0","1","0","1","0","0","4","5","4","4","5","3","4","4","5","2","3","802285339656986625","李","103","","","","","","","","","","","","","","","","","","","","","","","","","","","","","","","","","","","","","","","","","",""
"478","<p style=""color:white; font-size: 35px;"">废物</p>","i","categorize-html","167","195905","0.0-6.0-0.0-8.0-1.29","3","4","4","3","3","3","3","1","3","4","4","3","2","4","4","4","4","5","4","4","4","5","4","4","4","5","4","4","5","1","1","0","0","1","1","1","1","0","0","1","0","1","0","0","4","5","4","4","5","3","4","4","5","2","3","802285339656986625","李","103","","","","","","","","","","","","","","","","","","","true","4","4","ability","478","negative","废物","","","","","","","","","","","","","","","","",""
"null","","null","html-keyboard-response","168","196157","0.0-6.0-0.0-8.0-0.30","3","4","4","3","3","3","3","1","3","4","4","3","2","4","4","4","4","5","4","4","4","5","4","4","4","5","4","4","5","1","1","0","0","1","1","1","1","0","0","1","0","1","0","0","4","5","4","4","5","3","4","4","5","2","3","802285339656986625","李","103","","","","","","","","","","","","","","","","","","","","","","","","","","","","","","","","","","","","","","","","","",""
"403","<p style=""color:rgb(150, 250, 100); font-size: 35px;"">他人</p>","i","categorize-html","169","196563","0.0-6.0-0.0-8.0-1.30","3","4","4","3","3","3","3","1","3","4","4","3","2","4","4","4","4","5","4","4","4","5","4","4","4","5","4","4","5","1","1","0","0","1","1","1","1","0","0","1","0","1","0","0","4","5","4","4","5","3","4","4","5","2","3","802285339656986625","李","103","","","","","","","","","","","","","","","","","","","true","4","4","ability","403","other","他人","","","","","","","","","","","","","","","","",""
"null","","null","html-keyboard-response","170","196815","0.0-6.0-0.0-8.0-0.31","3","4","4","3","3","3","3","1","3","4","4","3","2","4","4","4","4","5","4","4","4","5","4","4","4","5","4","4","5","1","1","0","0","1","1","1","1","0","0","1","0","1","0","0","4","5","4","4","5","3","4","4","5","2","3","802285339656986625","李","103","","","","","","","","","","","","","","","","","","","","","","","","","","","","","","","","","","","","","","","","","",""
"589","<p style=""color:white; font-size: 35px;"">高效</p>","e","categorize-html","171","197407","0.0-6.0-0.0-8.0-1.31","3","4","4","3","3","3","3","1","3","4","4","3","2","4","4","4","4","5","4","4","4","5","4","4","4","5","4","4","5","1","1","0","0","1","1","1","1","0","0","1","0","1","0","0","4","5","4","4","5","3","4","4","5","2","3","802285339656986625","李","103","","","","","","","","","","","","","","","","","","","true","4","4","ability","589","positive","高效","","","","","","","","","","","","","","","","",""
"null","","null","html-keyboard-response","172","197660","0.0-6.0-0.0-8.0-0.32","3","4","4","3","3","3","3","1","3","4","4","3","2","4","4","4","4","5","4","4","4","5","4","4","4","5","4","4","5","1","1","0","0","1","1","1","1","0","0","1","0","1","0","0","4","5","4","4","5","3","4","4","5","2","3","802285339656986625","李","103","","","","","","","","","","","","","","","","","","","","","","","","","","","","","","","","","","","","","","","","","",""
"640","<p style=""color:rgb(150, 250, 100); font-size: 35px;"">他人的</p>","i","categorize-html","173","198303","0.0-6.0-0.0-8.0-1.32","3","4","4","3","3","3","3","1","3","4","4","3","2","4","4","4","4","5","4","4","4","5","4","4","4","5","4","4","5","1","1","0","0","1","1","1","1","0","0","1","0","1","0","0","4","5","4","4","5","3","4","4","5","2","3","802285339656986625","李","103","","","","","","","","","","","","","","","","","","","true","4","4","ability","640","other","他人的","","","","","","","","","","","","","","","","",""
"null","","null","html-keyboard-response","174","198555","0.0-6.0-0.0-8.0-0.33","3","4","4","3","3","3","3","1","3","4","4","3","2","4","4","4","4","5","4","4","4","5","4","4","4","5","4","4","5","1","1","0","0","1","1","1","1","0","0","1","0","1","0","0","4","5","4","4","5","3","4","4","5","2","3","802285339656986625","李","103","","","","","","","","","","","","","","","","","","","","","","","","","","","","","","","","","","","","","","","","","",""
"547","<p style=""color:white; font-size: 35px;"">拙笨</p>","i","categorize-html","175","199105","0.0-6.0-0.0-8.0-1.33","3","4","4","3","3","3","3","1","3","4","4","3","2","4","4","4","4","5","4","4","4","5","4","4","4","5","4","4","5","1","1","0","0","1","1","1","1","0","0","1","0","1","0","0","4","5","4","4","5","3","4","4","5","2","3","802285339656986625","李","103","","","","","","","","","","","","","","","","","","","true","4","4","ability","547","negative","拙笨","","","","","","","","","","","","","","","","",""
"null","","null","html-keyboard-response","176","199356","0.0-6.0-0.0-8.0-0.34","3","4","4","3","3","3","3","1","3","4","4","3","2","4","4","4","4","5","4","4","4","5","4","4","4","5","4","4","5","1","1","0","0","1","1","1","1","0","0","1","0","1","0","0","4","5","4","4","5","3","4","4","5","2","3","802285339656986625","李","103","","","","","","","","","","","","","","","","","","","","","","","","","","","","","","","","","","","","","","","","","",""
"476","<p style=""color:rgb(150, 250, 100); font-size: 35px;"">自己的</p>","e","categorize-html","177","199834","0.0-6.0-0.0-8.0-1.34","3","4","4","3","3","3","3","1","3","4","4","3","2","4","4","4","4","5","4","4","4","5","4","4","4","5","4","4","5","1","1","0","0","1","1","1","1","0","0","1","0","1","0","0","4","5","4","4","5","3","4","4","5","2","3","802285339656986625","李","103","","","","","","","","","","","","","","","","","","","true","4","4","ability","476","self","自己的","","","","","","","","","","","","","","","","",""
"null","","null","html-keyboard-response","178","200086","0.0-6.0-0.0-8.0-0.35","3","4","4","3","3","3","3","1","3","4","4","3","2","4","4","4","4","5","4","4","4","5","4","4","4","5","4","4","5","1","1","0","0","1","1","1","1","0","0","1","0","1","0","0","4","5","4","4","5","3","4","4","5","2","3","802285339656986625","李","103","","","","","","","","","","","","","","","","","","","","","","","","","","","","","","","","","","","","","","","","","",""
"537","<p style=""color:white; font-size: 35px;"">天才</p>","e","categorize-html","179","200626","0.0-6.0-0.0-8.0-1.35","3","4","4","3","3","3","3","1","3","4","4","3","2","4","4","4","4","5","4","4","4","5","4","4","4","5","4","4","5","1","1","0","0","1","1","1","1","0","0","1","0","1","0","0","4","5","4","4","5","3","4","4","5","2","3","802285339656986625","李","103","","","","","","","","","","","","","","","","","","","true","4","4","ability","537","positive","天才","","","","","","","","","","","","","","","","",""
"null","","null","html-keyboard-response","180","200878","0.0-6.0-0.0-8.0-0.36","3","4","4","3","3","3","3","1","3","4","4","3","2","4","4","4","4","5","4","4","4","5","4","4","4","5","4","4","5","1","1","0","0","1","1","1","1","0","0","1","0","1","0","0","4","5","4","4","5","3","4","4","5","2","3","802285339656986625","李","103","","","","","","","","","","","","","","","","","","","","","","","","","","","","","","","","","","","","","","","","","",""
"486","<p style=""color:rgb(150, 250, 100); font-size: 35px;"">我</p>","e","categorize-html","181","201366","0.0-6.0-0.0-8.0-1.36","3","4","4","3","3","3","3","1","3","4","4","3","2","4","4","4","4","5","4","4","4","5","4","4","4","5","4","4","5","1","1","0","0","1","1","1","1","0","0","1","0","1","0","0","4","5","4","4","5","3","4","4","5","2","3","802285339656986625","李","103","","","","","","","","","","","","","","","","","","","true","4","4","ability","486","self","我","","","","","","","","","","","","","","","","",""
"null","","null","html-keyboard-response","182","201618","0.0-6.0-0.0-8.0-0.37","3","4","4","3","3","3","3","1","3","4","4","3","2","4","4","4","4","5","4","4","4","5","4","4","4","5","4","4","5","1","1","0","0","1","1","1","1","0","0","1","0","1","0","0","4","5","4","4","5","3","4","4","5","2","3","802285339656986625","李","103","","","","","","","","","","","","","","","","","","","","","","","","","","","","","","","","","","","","","","","","","",""
"489","<p style=""color:white; font-size: 35px;"">精干</p>","e","categorize-html","183","202109","0.0-6.0-0.0-8.0-1.37","3","4","4","3","3","3","3","1","3","4","4","3","2","4","4","4","4","5","4","4","4","5","4","4","4","5","4","4","5","1","1","0","0","1","1","1","1","0","0","1","0","1","0","0","4","5","4","4","5","3","4","4","5","2","3","802285339656986625","李","103","","","","","","","","","","","","","","","","","","","true","4","4","ability","489","positive","精干","","","","","","","","","","","","","","","","",""
"null","","null","html-keyboard-response","184","202361","0.0-6.0-0.0-8.0-0.38","3","4","4","3","3","3","3","1","3","4","4","3","2","4","4","4","4","5","4","4","4","5","4","4","4","5","4","4","5","1","1","0","0","1","1","1","1","0","0","1","0","1","0","0","4","5","4","4","5","3","4","4","5","2","3","802285339656986625","李","103","","","","","","","","","","","","","","","","","","","","","","","","","","","","","","","","","","","","","","","","","",""
"521","<p style=""color:rgb(150, 250, 100); font-size: 35px;"">他的</p>","i","categorize-html","185","202888","0.0-6.0-0.0-8.0-1.38","3","4","4","3","3","3","3","1","3","4","4","3","2","4","4","4","4","5","4","4","4","5","4","4","4","5","4","4","5","1","1","0","0","1","1","1","1","0","0","1","0","1","0","0","4","5","4","4","5","3","4","4","5","2","3","802285339656986625","李","103","","","","","","","","","","","","","","","","","","","true","4","4","ability","521","other","他的","","","","","","","","","","","","","","","","",""
"null","","null","html-keyboard-response","186","203140","0.0-6.0-0.0-8.0-0.39","3","4","4","3","3","3","3","1","3","4","4","3","2","4","4","4","4","5","4","4","4","5","4","4","4","5","4","4","5","1","1","0","0","1","1","1","1","0","0","1","0","1","0","0","4","5","4","4","5","3","4","4","5","2","3","802285339656986625","李","103","","","","","","","","","","","","","","","","","","","","","","","","","","","","","","","","","","","","","","","","","",""
"492","<p style=""color:white; font-size: 35px;"">低能</p>","i","categorize-html","187","203636","0.0-6.0-0.0-8.0-1.39","3","4","4","3","3","3","3","1","3","4","4","3","2","4","4","4","4","5","4","4","4","5","4","4","4","5","4","4","5","1","1","0","0","1","1","1","1","0","0","1","0","1","0","0","4","5","4","4","5","3","4","4","5","2","3","802285339656986625","李","103","","","","","","","","","","","","","","","","","","","true","4","4","ability","492","negative","低能","","","","","","","","","","","","","","","","",""
"null","","null","html-keyboard-response","188","203889","0.0-6.0-0.0-8.0-0.40","3","4","4","3","3","3","3","1","3","4","4","3","2","4","4","4","4","5","4","4","4","5","4","4","4","5","4","4","5","1","1","0","0","1","1","1","1","0","0","1","0","1","0","0","4","5","4","4","5","3","4","4","5","2","3","802285339656986625","李","103","","","","","","","","","","","","","","","","","","","","","","","","","","","","","","","","","","","","","","","","","",""
"643","<p style=""color:rgb(150, 250, 100); font-size: 35px;"">别人的</p>","i","categorize-html","189","204534","0.0-6.0-0.0-8.0-1.40","3","4","4","3","3","3","3","1","3","4","4","3","2","4","4","4","4","5","4","4","4","5","4","4","4","5","4","4","5","1","1","0","0","1","1","1","1","0","0","1","0","1","0","0","4","5","4","4","5","3","4","4","5","2","3","802285339656986625","李","103","","","","","","","","","","","","","","","","","","","true","4","4","ability","643","other","别人的","","","","","","","","","","","","","","","","",""
"null","","null","html-keyboard-response","190","204784","0.0-6.0-0.0-8.0-0.41","3","4","4","3","3","3","3","1","3","4","4","3","2","4","4","4","4","5","4","4","4","5","4","4","4","5","4","4","5","1","1","0","0","1","1","1","1","0","0","1","0","1","0","0","4","5","4","4","5","3","4","4","5","2","3","802285339656986625","李","103","","","","","","","","","","","","","","","","","","","","","","","","","","","","","","","","","","","","","","","","","",""
"485","<p style=""color:white; font-size: 35px;"">蠢笨</p>","i","categorize-html","191","205271","0.0-6.0-0.0-8.0-1.41","3","4","4","3","3","3","3","1","3","4","4","3","2","4","4","4","4","5","4","4","4","5","4","4","4","5","4","4","5","1","1","0","0","1","1","1","1","0","0","1","0","1","0","0","4","5","4","4","5","3","4","4","5","2","3","802285339656986625","李","103","","","","","","","","","","","","","","","","","","","true","4","4","ability","485","negative","蠢笨","","","","","","","","","","","","","","","","",""
"null","","null","html-keyboard-response","192","205524","0.0-6.0-0.0-8.0-0.42","3","4","4","3","3","3","3","1","3","4","4","3","2","4","4","4","4","5","4","4","4","5","4","4","4","5","4","4","5","1","1","0","0","1","1","1","1","0","0","1","0","1","0","0","4","5","4","4","5","3","4","4","5","2","3","802285339656986625","李","103","","","","","","","","","","","","","","","","","","","","","","","","","","","","","","","","","","","","","","","","","",""
