"rt","stimulus","response","trial_type","trial_index","time_elapsed","internal_node_id","ses_1","ses_2","ses_3","ses_4","ses_5","ses_6","ses_7","ses_8","ses_9","ses_10","coreself_1","coreself_2","coreself_3","coreself_4","coreself_5","coreself_6","coreself_7","coreself_8","coreself_9","coreself_10","SGPS_1","SGPS_2","SGPS_3","SGPS_4","SGPS_5","SGPS_6","SGPS_7","SGPS_8","SGPS_9","NPI1","NPI2","NPI3","NPI4","NPI5","NPI6","NPI7","NPI8","NPI9","NPI10","NPI11","NPI12","NPI13","NPI14","NPI15","hsns_1","hsns_2","hsns_3","hsns_4","hsns_5","trap1","hsns_6","hsns_7","hsns_8","hsns_9","hsns_10","subj_idx","friend_name","ParticipantID","value","success","user_agent","responses","item_order","radio_event_ids","radio_event_times","key_event_times","mouse_event_times","straightlining","zigzagging","honeypot","timeout","failed_images","failed_audio","failed_video","version_attrib","version_target","correct","IAT","screen_id","task_id","RT","condition","word","varname","summary","version_attrib2","version_target2","time_stamp","view_history","response_type","key_press","avg_frame_time","center_x","center_y","correct_response","identity","Image","question_order","correct_answer","trap1_item"
"7092","
   <p><div style = ""color: white;font-size:25px;"">您好，欢迎参加本次实验。</div> </p>
   <p><div style = ""color: white;font-size:25px;"">为充分保障您的权利，请确保您已经知晓并同意《参与实验同意书》以及《数据公开知情同意书》。</div></p>
   <p><div style = ""color: white;font-size:25px;"">如果您未见过上述内容，请咨询实验员。</div></p>
   <p><div style = ""color: white;font-size:25px;"">如果您选择继续实验，则表示您已经清楚两份知情同意书的内容并同意。</div></p>
   <p><div style = ""color: pink;font-size:30px;"">请确保您记得day0的实验编号，您将在本次实验输入该编号，若您忘记，请咨询实验员后作答。</div></p>
   <p><div style = ""color: lightblue;font-size:25px;"">请您尽可能认真地作答，我们将依据您在各问卷和按键任务中的作答质量发放报酬。</div></p>
   <p> <div style = ""color: green;font-size:25px;""><按空格键至下页></div> </p>
   "," ","html-keyboard-response","0","7146","0.0-0.0","4","4","4","4","3","4","3","2","4","4","5","4","2","4","4","4","4","3","4","4","1","1","2","1","1","1","1","1","1","1","0","0","0","0","0","1","1","0","1","1","0","1","0","1","5","2","4","3","3","","4","4","5","4","2","696465680169435136","张","112","","","","","","","","","","","","","","","","","","","","","","","","","","","","","","","","","","","","","","","","","",""
"","","","call-function","1","7148","0.0-1.0-0.0","4","4","4","4","3","4","3","2","4","4","5","4","2","4","4","4","4","3","4","4","1","1","2","1","1","1","1","1","1","1","0","0","0","0","0","1","1","0","1","1","0","1","0","1","5","2","4","3","3","","4","4","5","4","2","696465680169435136","张","112","","","","","","","","","","","","","","","","","","","","","","","","","","","","","","","","","","","","","","","","","",""
"59169","","{""friend_name"":""张"",""ParticipantID"":""112""}","survey-html-form","2","66400","0.0-1.0-1.0","4","4","4","4","3","4","3","2","4","4","5","4","2","4","4","4","4","3","4","4","1","1","2","1","1","1","1","1","1","1","0","0","0","0","0","1","1","0","1","1","0","1","0","1","5","2","4","3","3","","4","4","5","4","2","696465680169435136","张","112","","","","","","","","","","","","","","","","","","","","","","","","","","","","","","","","","","","","","","","","","",""
"","","","fullscreen","3","69466","0.0-2.0","4","4","4","4","3","4","3","2","4","4","5","4","2","4","4","4","4","3","4","4","1","1","2","1","1","1","1","1","1","1","0","0","0","0","0","1","1","0","1","1","0","1","0","1","5","2","4","3","3","","4","4","5","4","2","696465680169435136","张","112","","true","{}","","","","","","","","","","","","","","","","","","","","","","","","","","","","","","","","","","","","","","",""
"36525.80000000005","","{""Q01"":""4"",""Q02"":""4"",""Q03"":""4"",""Q04"":""4"",""Q05"":""3"",""Q06"":""4"",""Q07"":""3"",""Q08"":""2"",""Q09"":""4"",""Q10"":""4""}","survey-template","4","106092","0.0-3.0","4","4","4","4","3","4","3","2","4","4","5","4","2","4","4","4","4","3","4","4","1","1","2","1","1","1","1","1","1","1","0","0","0","0","0","1","1","0","1","1","0","1","0","1","5","2","4","3","3","","4","4","5","4","2","696465680169435136","张","112","","","","{""Q01"":""4"",""Q02"":""4"",""Q03"":""4"",""Q04"":""4"",""Q05"":""3"",""Q06"":""4"",""Q07"":""3"",""Q08"":""2"",""Q09"":""4"",""Q10"":""4""}","[0,1,2,3,4,5,6,7,8,9]","[""Q01"",""Q02"",""Q03"",""Q04"",""Q05"",""Q06"",""Q07"",""Q08"",""Q09"",""Q10""]","[15696.800000000047,17516.300000000047,20316.300000000047,21828.199999999953,24964.300000000047,27012.400000000023,28972.199999999953,32124.099999999977,33748.30000000005,34788.19999999995]","[]","[15696.800000000047,17516.300000000047,20316.300000000047,21828.199999999953,24964.300000000047,27012.400000000023,28972.199999999953,32124.099999999977,33748.30000000005,34788.19999999995,36524.19999999995]","0.4","0.3333333333333333","0","","","","","","","","","","","","","","","","","","","","","","","","","","","","","",""
"33336.59999999998","","{""Q01"":""5"",""Q02"":""4"",""Q03"":""2"",""Q04"":""4"",""Q05"":""4"",""Q06"":""4"",""Q07"":""4"",""Q08"":""3"",""Q09"":""4"",""Q10"":""4""}","survey-template","5","139437","0.0-4.0","4","4","4","4","3","4","3","2","4","4","5","4","2","4","4","4","4","3","4","4","1","1","2","1","1","1","1","1","1","1","0","0","0","0","0","1","1","0","1","1","0","1","0","1","5","2","4","3","3","","4","4","5","4","2","696465680169435136","张","112","","","","{""Q01"":""5"",""Q02"":""4"",""Q03"":""2"",""Q04"":""4"",""Q05"":""4"",""Q06"":""4"",""Q07"":""4"",""Q08"":""3"",""Q09"":""4"",""Q10"":""4""}","[0,1,2,3,4,5,6,7,8,9]","[""Q01"",""Q02"",""Q03"",""Q04"",""Q05"",""Q06"",""Q07"",""Q08"",""Q09"",""Q10""]","[8430.5,11582.399999999907,14214.899999999907,18238.399999999907,19966.399999999907,21534.29999999993,23206.599999999977,26398.5,29630.599999999977,32438.399999999907]","[]","[8430.5,11582.399999999907,14214.899999999907,17070.5,18238.399999999907,19966.399999999907,21534.29999999993,23206.599999999977,26398.5,29630.599999999977,32438.399999999907,33334.39999999991]","0.4","0.2222222222222222","0","","","","","","","","","","","","","","","","","","","","","","","","","","","","","",""
"","","","preload","6","139891","0.0-5.0","4","4","4","4","3","4","3","2","4","4","5","4","2","4","4","4","4","3","4","4","1","1","2","1","1","1","1","1","1","1","0","0","0","0","0","1","1","0","1","1","0","1","0","1","5","2","4","3","3","","4","4","5","4","2","696465680169435136","张","112","","true","","","","","","","","","","","false","[]","[]","[]","","","","","","","","","","","","","","","","","","","","","","","","","",""
"44654","
    <h3>词语分类任务</h3>
    <p>在接下来的任务中，你需要对一系列词语进行分类。</p>
    <p>请先熟悉这些词语，这有利于你完成接下来的任务。</p>
    <table align=""center"" border=1 cellpadding=3 cellspacing=0>
    <tr> <th>类别</th> <th>词语</th> </tr>
    <tr> <td>&emsp;积极&emsp;</td> <td>&emsp;能干、全能、全才、高效、精干、天才&emsp;</td> </tr>
    <tr> <td>&emsp;消极&emsp;</td> <td>&emsp;无能、低能、废物、拙笨、愚钝、蠢笨&emsp;</td> </tr>
    <tr> <td>&emsp;自我&emsp;</td> <td>&emsp;我、我的、自己、自己的、本人、本人的&emsp;</td> </tr>
    <tr> <td>&emsp;他人&emsp;</td> <td>&emsp;他、他的、别人、别人的、他人、他人的&emsp;</td> </tr>
    </table><br/>","0","html-button-response","7","184610","0.0-6.0-0.0-0.0","4","4","4","4","3","4","3","2","4","4","5","4","2","4","4","4","4","3","4","4","1","1","2","1","1","1","1","1","1","1","0","0","0","0","0","1","1","0","1","1","0","1","0","1","5","2","4","3","3","","4","4","5","4","2","696465680169435136","张","112","","","","","","","","","","","","","","","","","2","1","","","","","","","","","","","","","","","","","","","","","","","",""
"11996","
    <div class=""tag-bottom"">
    <p> —— 任务1：对“自我”词和“他人”词分类 ——<p/>
    不同词语会出现在屏幕中央，类别标签将始终显示在屏幕上方<p/>   
    <span style=""color:#FFD866""><b>请根据上方标签的提示，尽可能正确并且快速地做出按键反应</b></span><p/>
    当按键错误时屏幕中会出现<span style=""color:red""> X </span>，需要按另一个键纠正才能继续<br/><p/>
    请把双手食指分别放在键盘的“E”键和“I”键上<p/>
    按<空格键>开始
    </p></div>"," ","html-keyboard-response","8","196612","0.0-6.0-0.0-1.0","4","4","4","4","3","4","3","2","4","4","5","4","2","4","4","4","4","3","4","4","1","1","2","1","1","1","1","1","1","1","0","0","0","0","0","1","1","0","1","1","0","1","0","1","5","2","4","3","3","","4","4","5","4","2","696465680169435136","张","112","","","","","","","","","","","","","","","","","","","","","","","","","","","","","","","","","","","","","","","","","",""
"null","","null","html-keyboard-response","9","196866","0.0-6.0-0.0-2.0-0.0","4","4","4","4","3","4","3","2","4","4","5","4","2","4","4","4","4","3","4","4","1","1","2","1","1","1","1","1","1","1","0","0","0","0","0","1","1","0","1","1","0","1","0","1","5","2","4","3","3","","4","4","5","4","2","696465680169435136","张","112","","","","","","","","","","","","","","","","","","","","","","","","","","","","","","","","","","","","","","","","","",""
"657","<p style=""color:rgb(150, 250, 100); font-size: 35px;"">他人的</p>","i","categorize-html","10","197527","0.0-6.0-0.0-2.0-1.0","4","4","4","4","3","4","3","2","4","4","5","4","2","4","4","4","4","3","4","4","1","1","2","1","1","1","1","1","1","1","0","0","0","0","0","1","1","0","1","1","0","1","0","1","5","2","4","3","3","","4","4","5","4","2","696465680169435136","张","112","","","","","","","","","","","","","","","","","","","true","1","1","ability","657","other","他人的","","","","","","","","","","","","","","","","",""
"null","","null","html-keyboard-response","11","197786","0.0-6.0-0.0-2.0-0.1","4","4","4","4","3","4","3","2","4","4","5","4","2","4","4","4","4","3","4","4","1","1","2","1","1","1","1","1","1","1","0","0","0","0","0","1","1","0","1","1","0","1","0","1","5","2","4","3","3","","4","4","5","4","2","696465680169435136","张","112","","","","","","","","","","","","","","","","","","","","","","","","","","","","","","","","","","","","","","","","","",""
"588","<p style=""color:rgb(150, 250, 100); font-size: 35px;"">别人的</p>","i","categorize-html","12","198378","0.0-6.0-0.0-2.0-1.1","4","4","4","4","3","4","3","2","4","4","5","4","2","4","4","4","4","3","4","4","1","1","2","1","1","1","1","1","1","1","0","0","0","0","0","1","1","0","1","1","0","1","0","1","5","2","4","3","3","","4","4","5","4","2","696465680169435136","张","112","","","","","","","","","","","","","","","","","","","true","1","1","ability","588","other","别人的","","","","","","","","","","","","","","","","",""
"null","","null","html-keyboard-response","13","198633","0.0-6.0-0.0-2.0-0.2","4","4","4","4","3","4","3","2","4","4","5","4","2","4","4","4","4","3","4","4","1","1","2","1","1","1","1","1","1","1","0","0","0","0","0","1","1","0","1","1","0","1","0","1","5","2","4","3","3","","4","4","5","4","2","696465680169435136","张","112","","","","","","","","","","","","","","","","","","","","","","","","","","","","","","","","","","","","","","","","","",""
"519","<p style=""color:rgb(150, 250, 100); font-size: 35px;"">他</p>","i","categorize-html","14","199158","0.0-6.0-0.0-2.0-1.2","4","4","4","4","3","4","3","2","4","4","5","4","2","4","4","4","4","3","4","4","1","1","2","1","1","1","1","1","1","1","0","0","0","0","0","1","1","0","1","1","0","1","0","1","5","2","4","3","3","","4","4","5","4","2","696465680169435136","张","112","","","","","","","","","","","","","","","","","","","true","1","1","ability","519","other","他","","","","","","","","","","","","","","","","",""
"null","","null","html-keyboard-response","15","199410","0.0-6.0-0.0-2.0-0.3","4","4","4","4","3","4","3","2","4","4","5","4","2","4","4","4","4","3","4","4","1","1","2","1","1","1","1","1","1","1","0","0","0","0","0","1","1","0","1","1","0","1","0","1","5","2","4","3","3","","4","4","5","4","2","696465680169435136","张","112","","","","","","","","","","","","","","","","","","","","","","","","","","","","","","","","","","","","","","","","","",""
"505","<p style=""color:rgb(150, 250, 100); font-size: 35px;"">自己的</p>","e","categorize-html","16","199918","0.0-6.0-0.0-2.0-1.3","4","4","4","4","3","4","3","2","4","4","5","4","2","4","4","4","4","3","4","4","1","1","2","1","1","1","1","1","1","1","0","0","0","0","0","1","1","0","1","1","0","1","0","1","5","2","4","3","3","","4","4","5","4","2","696465680169435136","张","112","","","","","","","","","","","","","","","","","","","true","1","1","ability","505","self","自己的","","","","","","","","","","","","","","","","",""
"null","","null","html-keyboard-response","17","200170","0.0-6.0-0.0-2.0-0.4","4","4","4","4","3","4","3","2","4","4","5","4","2","4","4","4","4","3","4","4","1","1","2","1","1","1","1","1","1","1","0","0","0","0","0","1","1","0","1","1","0","1","0","1","5","2","4","3","3","","4","4","5","4","2","696465680169435136","张","112","","","","","","","","","","","","","","","","","","","","","","","","","","","","","","","","","","","","","","","","","",""
"457","<p style=""color:rgb(150, 250, 100); font-size: 35px;"">自己</p>","e","categorize-html","18","200630","0.0-6.0-0.0-2.0-1.4","4","4","4","4","3","4","3","2","4","4","5","4","2","4","4","4","4","3","4","4","1","1","2","1","1","1","1","1","1","1","0","0","0","0","0","1","1","0","1","1","0","1","0","1","5","2","4","3","3","","4","4","5","4","2","696465680169435136","张","112","","","","","","","","","","","","","","","","","","","true","1","1","ability","457","self","自己","","","","","","","","","","","","","","","","",""
"null","","null","html-keyboard-response","19","200890","0.0-6.0-0.0-2.0-0.5","4","4","4","4","3","4","3","2","4","4","5","4","2","4","4","4","4","3","4","4","1","1","2","1","1","1","1","1","1","1","0","0","0","0","0","1","1","0","1","1","0","1","0","1","5","2","4","3","3","","4","4","5","4","2","696465680169435136","张","112","","","","","","","","","","","","","","","","","","","","","","","","","","","","","","","","","","","","","","","","","",""
"555","<p style=""color:rgb(150, 250, 100); font-size: 35px;"">别人</p>","i","categorize-html","20","201447","0.0-6.0-0.0-2.0-1.5","4","4","4","4","3","4","3","2","4","4","5","4","2","4","4","4","4","3","4","4","1","1","2","1","1","1","1","1","1","1","0","0","0","0","0","1","1","0","1","1","0","1","0","1","5","2","4","3","3","","4","4","5","4","2","696465680169435136","张","112","","","","","","","","","","","","","","","","","","","true","1","1","ability","555","other","别人","","","","","","","","","","","","","","","","",""
"null","","null","html-keyboard-response","21","201706","0.0-6.0-0.0-2.0-0.6","4","4","4","4","3","4","3","2","4","4","5","4","2","4","4","4","4","3","4","4","1","1","2","1","1","1","1","1","1","1","0","0","0","0","0","1","1","0","1","1","0","1","0","1","5","2","4","3","3","","4","4","5","4","2","696465680169435136","张","112","","","","","","","","","","","","","","","","","","","","","","","","","","","","","","","","","","","","","","","","","",""
"494","<p style=""color:rgb(150, 250, 100); font-size: 35px;"">他的</p>","i","categorize-html","22","202203","0.0-6.0-0.0-2.0-1.6","4","4","4","4","3","4","3","2","4","4","5","4","2","4","4","4","4","3","4","4","1","1","2","1","1","1","1","1","1","1","0","0","0","0","0","1","1","0","1","1","0","1","0","1","5","2","4","3","3","","4","4","5","4","2","696465680169435136","张","112","","","","","","","","","","","","","","","","","","","true","1","1","ability","494","other","他的","","","","","","","","","","","","","","","","",""
"null","","null","html-keyboard-response","23","202458","0.0-6.0-0.0-2.0-0.7","4","4","4","4","3","4","3","2","4","4","5","4","2","4","4","4","4","3","4","4","1","1","2","1","1","1","1","1","1","1","0","0","0","0","0","1","1","0","1","1","0","1","0","1","5","2","4","3","3","","4","4","5","4","2","696465680169435136","张","112","","","","","","","","","","","","","","","","","","","","","","","","","","","","","","","","","","","","","","","","","",""
"626","<p style=""color:rgb(150, 250, 100); font-size: 35px;"">我的</p>","e","categorize-html","24","203087","0.0-6.0-0.0-2.0-1.7","4","4","4","4","3","4","3","2","4","4","5","4","2","4","4","4","4","3","4","4","1","1","2","1","1","1","1","1","1","1","0","0","0","0","0","1","1","0","1","1","0","1","0","1","5","2","4","3","3","","4","4","5","4","2","696465680169435136","张","112","","","","","","","","","","","","","","","","","","","true","1","1","ability","626","self","我的","","","","","","","","","","","","","","","","",""
"null","","null","html-keyboard-response","25","203346","0.0-6.0-0.0-2.0-0.8","4","4","4","4","3","4","3","2","4","4","5","4","2","4","4","4","4","3","4","4","1","1","2","1","1","1","1","1","1","1","0","0","0","0","0","1","1","0","1","1","0","1","0","1","5","2","4","3","3","","4","4","5","4","2","696465680169435136","张","112","","","","","","","","","","","","","","","","","","","","","","","","","","","","","","","","","","","","","","","","","",""
"568","<p style=""color:rgb(150, 250, 100); font-size: 35px;"">本人</p>","e","categorize-html","26","203916","0.0-6.0-0.0-2.0-1.8","4","4","4","4","3","4","3","2","4","4","5","4","2","4","4","4","4","3","4","4","1","1","2","1","1","1","1","1","1","1","0","0","0","0","0","1","1","0","1","1","0","1","0","1","5","2","4","3","3","","4","4","5","4","2","696465680169435136","张","112","","","","","","","","","","","","","","","","","","","true","1","1","ability","568","self","本人","","","","","","","","","","","","","","","","",""
"null","","null","html-keyboard-response","27","204170","0.0-6.0-0.0-2.0-0.9","4","4","4","4","3","4","3","2","4","4","5","4","2","4","4","4","4","3","4","4","1","1","2","1","1","1","1","1","1","1","0","0","0","0","0","1","1","0","1","1","0","1","0","1","5","2","4","3","3","","4","4","5","4","2","696465680169435136","张","112","","","","","","","","","","","","","","","","","","","","","","","","","","","","","","","","","","","","","","","","","",""
"507","<p style=""color:rgb(150, 250, 100); font-size: 35px;"">本人的</p>","e","categorize-html","28","204680","0.0-6.0-0.0-2.0-1.9","4","4","4","4","3","4","3","2","4","4","5","4","2","4","4","4","4","3","4","4","1","1","2","1","1","1","1","1","1","1","0","0","0","0","0","1","1","0","1","1","0","1","0","1","5","2","4","3","3","","4","4","5","4","2","696465680169435136","张","112","","","","","","","","","","","","","","","","","","","true","1","1","ability","507","self","本人的","","","","","","","","","","","","","","","","",""
"null","","null","html-keyboard-response","29","204938","0.0-6.0-0.0-2.0-0.10","4","4","4","4","3","4","3","2","4","4","5","4","2","4","4","4","4","3","4","4","1","1","2","1","1","1","1","1","1","1","0","0","0","0","0","1","1","0","1","1","0","1","0","1","5","2","4","3","3","","4","4","5","4","2","696465680169435136","张","112","","","","","","","","","","","","","","","","","","","","","","","","","","","","","","","","","","","","","","","","","",""
"522","<p style=""color:rgb(150, 250, 100); font-size: 35px;"">我</p>","e","categorize-html","30","205462","0.0-6.0-0.0-2.0-1.10","4","4","4","4","3","4","3","2","4","4","5","4","2","4","4","4","4","3","4","4","1","1","2","1","1","1","1","1","1","1","0","0","0","0","0","1","1","0","1","1","0","1","0","1","5","2","4","3","3","","4","4","5","4","2","696465680169435136","张","112","","","","","","","","","","","","","","","","","","","true","1","1","ability","522","self","我","","","","","","","","","","","","","","","","",""
"null","","null","html-keyboard-response","31","205714","0.0-6.0-0.0-2.0-0.11","4","4","4","4","3","4","3","2","4","4","5","4","2","4","4","4","4","3","4","4","1","1","2","1","1","1","1","1","1","1","0","0","0","0","0","1","1","0","1","1","0","1","0","1","5","2","4","3","3","","4","4","5","4","2","696465680169435136","张","112","","","","","","","","","","","","","","","","","","","","","","","","","","","","","","","","","","","","","","","","","",""
"502","<p style=""color:rgb(150, 250, 100); font-size: 35px;"">他人</p>","i","categorize-html","32","206219","0.0-6.0-0.0-2.0-1.11","4","4","4","4","3","4","3","2","4","4","5","4","2","4","4","4","4","3","4","4","1","1","2","1","1","1","1","1","1","1","0","0","0","0","0","1","1","0","1","1","0","1","0","1","5","2","4","3","3","","4","4","5","4","2","696465680169435136","张","112","","","","","","","","","","","","","","","","","","","true","1","1","ability","502","other","他人","","","","","","","","","","","","","","","","",""
"5119","
    <div class=""tag-bottom""><p>
    —— 任务2：对“消极”词和“积极”词分类 ——<p/>   
    <span style=""color:#78DCE8""><b>注意上方，类别标签和需要分类的词语都已经改变</b></span><p/>
    <span style=""color:#FFD866""><b>请根据上方标签的提示，尽可能正确并且快速地做出按键反应</b></span><p/>
    当按键错误时屏幕中会出现<span style=""color:red""> X </span>，需要按另一个键纠正才能继续<br/><p/>
    请把双手食指分别放在键盘的“E”键和“I”键上<p/>
    按<空格键>开始
    </p></div>"," ","html-keyboard-response","33","211339","0.0-6.0-0.0-3.0","4","4","4","4","3","4","3","2","4","4","5","4","2","4","4","4","4","3","4","4","1","1","2","1","1","1","1","1","1","1","0","0","0","0","0","1","1","0","1","1","0","1","0","1","5","2","4","3","3","","4","4","5","4","2","696465680169435136","张","112","","","","","","","","","","","","","","","","","","","","","","","","","","","","","","","","","","","","","","","","","",""
"null","","null","html-keyboard-response","34","211594","0.0-6.0-0.0-4.0-0.0","4","4","4","4","3","4","3","2","4","4","5","4","2","4","4","4","4","3","4","4","1","1","2","1","1","1","1","1","1","1","0","0","0","0","0","1","1","0","1","1","0","1","0","1","5","2","4","3","3","","4","4","5","4","2","696465680169435136","张","112","","","","","","","","","","","","","","","","","","","","","","","","","","","","","","","","","","","","","","","","","",""
"529","<p style=""color:white; font-size: 35px;"">高效</p>","i","categorize-html","35","212126","0.0-6.0-0.0-4.0-1.0","4","4","4","4","3","4","3","2","4","4","5","4","2","4","4","4","4","3","4","4","1","1","2","1","1","1","1","1","1","1","0","0","0","0","0","1","1","0","1","1","0","1","0","1","5","2","4","3","3","","4","4","5","4","2","696465680169435136","张","112","","","","","","","","","","","","","","","","","","","true","2","2","ability","529","positive","高效","","","","","","","","","","","","","","","","",""
"null","","null","html-keyboard-response","36","212379","0.0-6.0-0.0-4.0-0.1","4","4","4","4","3","4","3","2","4","4","5","4","2","4","4","4","4","3","4","4","1","1","2","1","1","1","1","1","1","1","0","0","0","0","0","1","1","0","1","1","0","1","0","1","5","2","4","3","3","","4","4","5","4","2","696465680169435136","张","112","","","","","","","","","","","","","","","","","","","","","","","","","","","","","","","","","","","","","","","","","",""
"622","<p style=""color:white; font-size: 35px;"">无能</p>","e","categorize-html","37","213003","0.0-6.0-0.0-4.0-1.1","4","4","4","4","3","4","3","2","4","4","5","4","2","4","4","4","4","3","4","4","1","1","2","1","1","1","1","1","1","1","0","0","0","0","0","1","1","0","1","1","0","1","0","1","5","2","4","3","3","","4","4","5","4","2","696465680169435136","张","112","","","","","","","","","","","","","","","","","","","true","2","2","ability","622","negative","无能","","","","","","","","","","","","","","","","",""
"null","","null","html-keyboard-response","38","213259","0.0-6.0-0.0-4.0-0.2","4","4","4","4","3","4","3","2","4","4","5","4","2","4","4","4","4","3","4","4","1","1","2","1","1","1","1","1","1","1","0","0","0","0","0","1","1","0","1","1","0","1","0","1","5","2","4","3","3","","4","4","5","4","2","696465680169435136","张","112","","","","","","","","","","","","","","","","","","","","","","","","","","","","","","","","","","","","","","","","","",""
"562","<p style=""color:white; font-size: 35px;"">全才</p>","i","categorize-html","39","213822","0.0-6.0-0.0-4.0-1.2","4","4","4","4","3","4","3","2","4","4","5","4","2","4","4","4","4","3","4","4","1","1","2","1","1","1","1","1","1","1","0","0","0","0","0","1","1","0","1","1","0","1","0","1","5","2","4","3","3","","4","4","5","4","2","696465680169435136","张","112","","","","","","","","","","","","","","","","","","","true","2","2","ability","562","positive","全才","","","","","","","","","","","","","","","","",""
"null","","null","html-keyboard-response","40","214074","0.0-6.0-0.0-4.0-0.3","4","4","4","4","3","4","3","2","4","4","5","4","2","4","4","4","4","3","4","4","1","1","2","1","1","1","1","1","1","1","0","0","0","0","0","1","1","0","1","1","0","1","0","1","5","2","4","3","3","","4","4","5","4","2","696465680169435136","张","112","","","","","","","","","","","","","","","","","","","","","","","","","","","","","","","","","","","","","","","","","",""
"688","<p style=""color:white; font-size: 35px;"">能干</p>","i","categorize-html","41","214765","0.0-6.0-0.0-4.0-1.3","4","4","4","4","3","4","3","2","4","4","5","4","2","4","4","4","4","3","4","4","1","1","2","1","1","1","1","1","1","1","0","0","0","0","0","1","1","0","1","1","0","1","0","1","5","2","4","3","3","","4","4","5","4","2","696465680169435136","张","112","","","","","","","","","","","","","","","","","","","true","2","2","ability","688","positive","能干","","","","","","","","","","","","","","","","",""
"null","","null","html-keyboard-response","42","215018","0.0-6.0-0.0-4.0-0.4","4","4","4","4","3","4","3","2","4","4","5","4","2","4","4","4","4","3","4","4","1","1","2","1","1","1","1","1","1","1","0","0","0","0","0","1","1","0","1","1","0","1","0","1","5","2","4","3","3","","4","4","5","4","2","696465680169435136","张","112","","","","","","","","","","","","","","","","","","","","","","","","","","","","","","","","","","","","","","","","","",""
"712","<p style=""color:white; font-size: 35px;"">蠢笨</p>","e","categorize-html","43","215733","0.0-6.0-0.0-4.0-1.4","4","4","4","4","3","4","3","2","4","4","5","4","2","4","4","4","4","3","4","4","1","1","2","1","1","1","1","1","1","1","0","0","0","0","0","1","1","0","1","1","0","1","0","1","5","2","4","3","3","","4","4","5","4","2","696465680169435136","张","112","","","","","","","","","","","","","","","","","","","true","2","2","ability","712","negative","蠢笨","","","","","","","","","","","","","","","","",""
"null","","null","html-keyboard-response","44","215986","0.0-6.0-0.0-4.0-0.5","4","4","4","4","3","4","3","2","4","4","5","4","2","4","4","4","4","3","4","4","1","1","2","1","1","1","1","1","1","1","0","0","0","0","0","1","1","0","1","1","0","1","0","1","5","2","4","3","3","","4","4","5","4","2","696465680169435136","张","112","","","","","","","","","","","","","","","","","","","","","","","","","","","","","","","","","","","","","","","","","",""
"521","<p style=""color:white; font-size: 35px;"">愚钝</p>","e","categorize-html","45","216510","0.0-6.0-0.0-4.0-1.5","4","4","4","4","3","4","3","2","4","4","5","4","2","4","4","4","4","3","4","4","1","1","2","1","1","1","1","1","1","1","0","0","0","0","0","1","1","0","1","1","0","1","0","1","5","2","4","3","3","","4","4","5","4","2","696465680169435136","张","112","","","","","","","","","","","","","","","","","","","true","2","2","ability","521","negative","愚钝","","","","","","","","","","","","","","","","",""
"null","","null","html-keyboard-response","46","216762","0.0-6.0-0.0-4.0-0.6","4","4","4","4","3","4","3","2","4","4","5","4","2","4","4","4","4","3","4","4","1","1","2","1","1","1","1","1","1","1","0","0","0","0","0","1","1","0","1","1","0","1","0","1","5","2","4","3","3","","4","4","5","4","2","696465680169435136","张","112","","","","","","","","","","","","","","","","","","","","","","","","","","","","","","","","","","","","","","","","","",""
"510","<p style=""color:white; font-size: 35px;"">废物</p>","e","categorize-html","47","217275","0.0-6.0-0.0-4.0-1.6","4","4","4","4","3","4","3","2","4","4","5","4","2","4","4","4","4","3","4","4","1","1","2","1","1","1","1","1","1","1","0","0","0","0","0","1","1","0","1","1","0","1","0","1","5","2","4","3","3","","4","4","5","4","2","696465680169435136","张","112","","","","","","","","","","","","","","","","","","","true","2","2","ability","510","negative","废物","","","","","","","","","","","","","","","","",""
"null","","null","html-keyboard-response","48","217530","0.0-6.0-0.0-4.0-0.7","4","4","4","4","3","4","3","2","4","4","5","4","2","4","4","4","4","3","4","4","1","1","2","1","1","1","1","1","1","1","0","0","0","0","0","1","1","0","1","1","0","1","0","1","5","2","4","3","3","","4","4","5","4","2","696465680169435136","张","112","","","","","","","","","","","","","","","","","","","","","","","","","","","","","","","","","","","","","","","","","",""
"461","<p style=""color:white; font-size: 35px;"">低能</p>","e","categorize-html","49","217994","0.0-6.0-0.0-4.0-1.7","4","4","4","4","3","4","3","2","4","4","5","4","2","4","4","4","4","3","4","4","1","1","2","1","1","1","1","1","1","1","0","0","0","0","0","1","1","0","1","1","0","1","0","1","5","2","4","3","3","","4","4","5","4","2","696465680169435136","张","112","","","","","","","","","","","","","","","","","","","true","2","2","ability","461","negative","低能","","","","","","","","","","","","","","","","",""
"null","","null","html-keyboard-response","50","218250","0.0-6.0-0.0-4.0-0.8","4","4","4","4","3","4","3","2","4","4","5","4","2","4","4","4","4","3","4","4","1","1","2","1","1","1","1","1","1","1","0","0","0","0","0","1","1","0","1","1","0","1","0","1","5","2","4","3","3","","4","4","5","4","2","696465680169435136","张","112","","","","","","","","","","","","","","","","","","","","","","","","","","","","","","","","","","","","","","","","","",""
"482","<p style=""color:white; font-size: 35px;"">拙笨</p>","e","categorize-html","51","218734","0.0-6.0-0.0-4.0-1.8","4","4","4","4","3","4","3","2","4","4","5","4","2","4","4","4","4","3","4","4","1","1","2","1","1","1","1","1","1","1","0","0","0","0","0","1","1","0","1","1","0","1","0","1","5","2","4","3","3","","4","4","5","4","2","696465680169435136","张","112","","","","","","","","","","","","","","","","","","","true","2","2","ability","482","negative","拙笨","","","","","","","","","","","","","","","","",""
"null","","null","html-keyboard-response","52","218986","0.0-6.0-0.0-4.0-0.9","4","4","4","4","3","4","3","2","4","4","5","4","2","4","4","4","4","3","4","4","1","1","2","1","1","1","1","1","1","1","0","0","0","0","0","1","1","0","1","1","0","1","0","1","5","2","4","3","3","","4","4","5","4","2","696465680169435136","张","112","","","","","","","","","","","","","","","","","","","","","","","","","","","","","","","","","","","","","","","","","",""
"414","<p style=""color:white; font-size: 35px;"">天才</p>","i","categorize-html","53","219403","0.0-6.0-0.0-4.0-1.9","4","4","4","4","3","4","3","2","4","4","5","4","2","4","4","4","4","3","4","4","1","1","2","1","1","1","1","1","1","1","0","0","0","0","0","1","1","0","1","1","0","1","0","1","5","2","4","3","3","","4","4","5","4","2","696465680169435136","张","112","","","","","","","","","","","","","","","","","","","true","2","2","ability","414","positive","天才","","","","","","","","","","","","","","","","",""
"null","","null","html-keyboard-response","54","219658","0.0-6.0-0.0-4.0-0.10","4","4","4","4","3","4","3","2","4","4","5","4","2","4","4","4","4","3","4","4","1","1","2","1","1","1","1","1","1","1","0","0","0","0","0","1","1","0","1","1","0","1","0","1","5","2","4","3","3","","4","4","5","4","2","696465680169435136","张","112","","","","","","","","","","","","","","","","","","","","","","","","","","","","","","","","","","","","","","","","","",""
"460","<p style=""color:white; font-size: 35px;"">全能</p>","i","categorize-html","55","220120","0.0-6.0-0.0-4.0-1.10","4","4","4","4","3","4","3","2","4","4","5","4","2","4","4","4","4","3","4","4","1","1","2","1","1","1","1","1","1","1","0","0","0","0","0","1","1","0","1","1","0","1","0","1","5","2","4","3","3","","4","4","5","4","2","696465680169435136","张","112","","","","","","","","","","","","","","","","","","","true","2","2","ability","460","positive","全能","","","","","","","","","","","","","","","","",""
"null","","null","html-keyboard-response","56","220379","0.0-6.0-0.0-4.0-0.11","4","4","4","4","3","4","3","2","4","4","5","4","2","4","4","4","4","3","4","4","1","1","2","1","1","1","1","1","1","1","0","0","0","0","0","1","1","0","1","1","0","1","0","1","5","2","4","3","3","","4","4","5","4","2","696465680169435136","张","112","","","","","","","","","","","","","","","","","","","","","","","","","","","","","","","","","","","","","","","","","",""
"418","<p style=""color:white; font-size: 35px;"">精干</p>","i","categorize-html","57","220800","0.0-6.0-0.0-4.0-1.11","4","4","4","4","3","4","3","2","4","4","5","4","2","4","4","4","4","3","4","4","1","1","2","1","1","1","1","1","1","1","0","0","0","0","0","1","1","0","1","1","0","1","0","1","5","2","4","3","3","","4","4","5","4","2","696465680169435136","张","112","","","","","","","","","","","","","","","","","","","true","2","2","ability","418","positive","精干","","","","","","","","","","","","","","","","",""
"7488","
    <div class=""tag-bottom""><p>
    —— 任务3：对“自我/消极”词和“他人/积极”词分类 ——<p/>
    <span style=""color:#78DCE8""><b>注意上方，之前的四类词语将混合在一起交替呈现</b></span><p/>
    <span style=""color:#FFD866""><b>请根据上方标签的提示，尽可能正确并且快速地做出按键反应</b></span><p/>
    当按键错误时屏幕中会出现<span style=""color:red""> X </span>，需要按另一个键纠正才能继续<br/><p/>
    请把双手食指分别放在键盘的“E”键和“I”键上<p/>
    按<空格键>开始
    </p></div>"," ","html-keyboard-response","58","228290","0.0-6.0-0.0-5.0","4","4","4","4","3","4","3","2","4","4","5","4","2","4","4","4","4","3","4","4","1","1","2","1","1","1","1","1","1","1","0","0","0","0","0","1","1","0","1","1","0","1","0","1","5","2","4","3","3","","4","4","5","4","2","696465680169435136","张","112","","","","","","","","","","","","","","","","","","","","","","","","","","","","","","","","","","","","","","","","","",""
"null","","null","html-keyboard-response","59","228546","0.0-6.0-0.0-6.0-0.0","4","4","4","4","3","4","3","2","4","4","5","4","2","4","4","4","4","3","4","4","1","1","2","1","1","1","1","1","1","1","0","0","0","0","0","1","1","0","1","1","0","1","0","1","5","2","4","3","3","","4","4","5","4","2","696465680169435136","张","112","","","","","","","","","","","","","","","","","","","","","","","","","","","","","","","","","","","","","","","","","",""
"831","<p style=""color:rgb(150, 250, 100); font-size: 35px;"">自己的</p>","e","categorize-html","60","229381","0.0-6.0-0.0-6.0-1.0","4","4","4","4","3","4","3","2","4","4","5","4","2","4","4","4","4","3","4","4","1","1","2","1","1","1","1","1","1","1","0","0","0","0","0","1","1","0","1","1","0","1","0","1","5","2","4","3","3","","4","4","5","4","2","696465680169435136","张","112","","","","","","","","","","","","","","","","","","","true","3","3","ability","831","self","自己的","","","","","","","","","","","","","","","","",""
"null","","null","html-keyboard-response","61","229634","0.0-6.0-0.0-6.0-0.1","4","4","4","4","3","4","3","2","4","4","5","4","2","4","4","4","4","3","4","4","1","1","2","1","1","1","1","1","1","1","0","0","0","0","0","1","1","0","1","1","0","1","0","1","5","2","4","3","3","","4","4","5","4","2","696465680169435136","张","112","","","","","","","","","","","","","","","","","","","","","","","","","","","","","","","","","","","","","","","","","",""
"660","<p style=""color:white; font-size: 35px;"">精干</p>","i","categorize-html","62","230297","0.0-6.0-0.0-6.0-1.1","4","4","4","4","3","4","3","2","4","4","5","4","2","4","4","4","4","3","4","4","1","1","2","1","1","1","1","1","1","1","0","0","0","0","0","1","1","0","1","1","0","1","0","1","5","2","4","3","3","","4","4","5","4","2","696465680169435136","张","112","","","","","","","","","","","","","","","","","","","true","3","3","ability","660","positive","精干","","","","","","","","","","","","","","","","",""
"null","","null","html-keyboard-response","63","230554","0.0-6.0-0.0-6.0-0.2","4","4","4","4","3","4","3","2","4","4","5","4","2","4","4","4","4","3","4","4","1","1","2","1","1","1","1","1","1","1","0","0","0","0","0","1","1","0","1","1","0","1","0","1","5","2","4","3","3","","4","4","5","4","2","696465680169435136","张","112","","","","","","","","","","","","","","","","","","","","","","","","","","","","","","","","","","","","","","","","","",""
"812","<p style=""color:rgb(150, 250, 100); font-size: 35px;"">他人的</p>","i","categorize-html","64","231369","0.0-6.0-0.0-6.0-1.2","4","4","4","4","3","4","3","2","4","4","5","4","2","4","4","4","4","3","4","4","1","1","2","1","1","1","1","1","1","1","0","0","0","0","0","1","1","0","1","1","0","1","0","1","5","2","4","3","3","","4","4","5","4","2","696465680169435136","张","112","","","","","","","","","","","","","","","","","","","true","3","3","ability","812","other","他人的","","","","","","","","","","","","","","","","",""
"null","","null","html-keyboard-response","65","231626","0.0-6.0-0.0-6.0-0.3","4","4","4","4","3","4","3","2","4","4","5","4","2","4","4","4","4","3","4","4","1","1","2","1","1","1","1","1","1","1","0","0","0","0","0","1","1","0","1","1","0","1","0","1","5","2","4","3","3","","4","4","5","4","2","696465680169435136","张","112","","","","","","","","","","","","","","","","","","","","","","","","","","","","","","","","","","","","","","","","","",""
"672","<p style=""color:white; font-size: 35px;"">废物</p>","e","categorize-html","66","232301","0.0-6.0-0.0-6.0-1.3","4","4","4","4","3","4","3","2","4","4","5","4","2","4","4","4","4","3","4","4","1","1","2","1","1","1","1","1","1","1","0","0","0","0","0","1","1","0","1","1","0","1","0","1","5","2","4","3","3","","4","4","5","4","2","696465680169435136","张","112","","","","","","","","","","","","","","","","","","","true","3","3","ability","672","negative","废物","","","","","","","","","","","","","","","","",""
"null","","null","html-keyboard-response","67","232554","0.0-6.0-0.0-6.0-0.4","4","4","4","4","3","4","3","2","4","4","5","4","2","4","4","4","4","3","4","4","1","1","2","1","1","1","1","1","1","1","0","0","0","0","0","1","1","0","1","1","0","1","0","1","5","2","4","3","3","","4","4","5","4","2","696465680169435136","张","112","","","","","","","","","","","","","","","","","","","","","","","","","","","","","","","","","","","","","","","","","",""
"826","<p style=""color:rgb(150, 250, 100); font-size: 35px;"">别人的</p>","i","categorize-html","68","233382","0.0-6.0-0.0-6.0-1.4","4","4","4","4","3","4","3","2","4","4","5","4","2","4","4","4","4","3","4","4","1","1","2","1","1","1","1","1","1","1","0","0","0","0","0","1","1","0","1","1","0","1","0","1","5","2","4","3","3","","4","4","5","4","2","696465680169435136","张","112","","","","","","","","","","","","","","","","","","","true","3","3","ability","826","other","别人的","","","","","","","","","","","","","","","","",""
"null","","null","html-keyboard-response","69","233635","0.0-6.0-0.0-6.0-0.5","4","4","4","4","3","4","3","2","4","4","5","4","2","4","4","4","4","3","4","4","1","1","2","1","1","1","1","1","1","1","0","0","0","0","0","1","1","0","1","1","0","1","0","1","5","2","4","3","3","","4","4","5","4","2","696465680169435136","张","112","","","","","","","","","","","","","","","","","","","","","","","","","","","","","","","","","","","","","","","","","",""
"704","<p style=""color:white; font-size: 35px;"">蠢笨</p>","e","categorize-html","70","234342","0.0-6.0-0.0-6.0-1.5","4","4","4","4","3","4","3","2","4","4","5","4","2","4","4","4","4","3","4","4","1","1","2","1","1","1","1","1","1","1","0","0","0","0","0","1","1","0","1","1","0","1","0","1","5","2","4","3","3","","4","4","5","4","2","696465680169435136","张","112","","","","","","","","","","","","","","","","","","","true","3","3","ability","704","negative","蠢笨","","","","","","","","","","","","","","","","",""
"null","","null","html-keyboard-response","71","234594","0.0-6.0-0.0-6.0-0.6","4","4","4","4","3","4","3","2","4","4","5","4","2","4","4","4","4","3","4","4","1","1","2","1","1","1","1","1","1","1","0","0","0","0","0","1","1","0","1","1","0","1","0","1","5","2","4","3","3","","4","4","5","4","2","696465680169435136","张","112","","","","","","","","","","","","","","","","","","","","","","","","","","","","","","","","","","","","","","","","","",""
"1187","<p style=""color:rgb(150, 250, 100); font-size: 35px;"">本人</p>","e","categorize-html","72","235784","0.0-6.0-0.0-6.0-1.6","4","4","4","4","3","4","3","2","4","4","5","4","2","4","4","4","4","3","4","4","1","1","2","1","1","1","1","1","1","1","0","0","0","0","0","1","1","0","1","1","0","1","0","1","5","2","4","3","3","","4","4","5","4","2","696465680169435136","张","112","","","","","","","","","","","","","","","","","","","true","3","3","ability","1187","self","本人","","","","","","","","","","","","","","","","",""
"null","","null","html-keyboard-response","73","236042","0.0-6.0-0.0-6.0-0.7","4","4","4","4","3","4","3","2","4","4","5","4","2","4","4","4","4","3","4","4","1","1","2","1","1","1","1","1","1","1","0","0","0","0","0","1","1","0","1","1","0","1","0","1","5","2","4","3","3","","4","4","5","4","2","696465680169435136","张","112","","","","","","","","","","","","","","","","","","","","","","","","","","","","","","","","","","","","","","","","","",""
"630","<p style=""color:white; font-size: 35px;"">天才</p>","i","categorize-html","74","236674","0.0-6.0-0.0-6.0-1.7","4","4","4","4","3","4","3","2","4","4","5","4","2","4","4","4","4","3","4","4","1","1","2","1","1","1","1","1","1","1","0","0","0","0","0","1","1","0","1","1","0","1","0","1","5","2","4","3","3","","4","4","5","4","2","696465680169435136","张","112","","","","","","","","","","","","","","","","","","","true","3","3","ability","630","positive","天才","","","","","","","","","","","","","","","","",""
"null","","null","html-keyboard-response","75","236930","0.0-6.0-0.0-6.0-0.8","4","4","4","4","3","4","3","2","4","4","5","4","2","4","4","4","4","3","4","4","1","1","2","1","1","1","1","1","1","1","0","0","0","0","0","1","1","0","1","1","0","1","0","1","5","2","4","3","3","","4","4","5","4","2","696465680169435136","张","112","","","","","","","","","","","","","","","","","","","","","","","","","","","","","","","","","","","","","","","","","",""
"579","<p style=""color:rgb(150, 250, 100); font-size: 35px;"">自己</p>","e","categorize-html","76","237512","0.0-6.0-0.0-6.0-1.8","4","4","4","4","3","4","3","2","4","4","5","4","2","4","4","4","4","3","4","4","1","1","2","1","1","1","1","1","1","1","0","0","0","0","0","1","1","0","1","1","0","1","0","1","5","2","4","3","3","","4","4","5","4","2","696465680169435136","张","112","","","","","","","","","","","","","","","","","","","true","3","3","ability","579","self","自己","","","","","","","","","","","","","","","","",""
"null","","null","html-keyboard-response","77","237771","0.0-6.0-0.0-6.0-0.9","4","4","4","4","3","4","3","2","4","4","5","4","2","4","4","4","4","3","4","4","1","1","2","1","1","1","1","1","1","1","0","0","0","0","0","1","1","0","1","1","0","1","0","1","5","2","4","3","3","","4","4","5","4","2","696465680169435136","张","112","","","","","","","","","","","","","","","","","","","","","","","","","","","","","","","","","","","","","","","","","",""
"665","<p style=""color:white; font-size: 35px;"">全才</p>","i","categorize-html","78","238439","0.0-6.0-0.0-6.0-1.9","4","4","4","4","3","4","3","2","4","4","5","4","2","4","4","4","4","3","4","4","1","1","2","1","1","1","1","1","1","1","0","0","0","0","0","1","1","0","1","1","0","1","0","1","5","2","4","3","3","","4","4","5","4","2","696465680169435136","张","112","","","","","","","","","","","","","","","","","","","true","3","3","ability","665","positive","全才","","","","","","","","","","","","","","","","",""
"null","","null","html-keyboard-response","79","238699","0.0-6.0-0.0-6.0-0.10","4","4","4","4","3","4","3","2","4","4","5","4","2","4","4","4","4","3","4","4","1","1","2","1","1","1","1","1","1","1","0","0","0","0","0","1","1","0","1","1","0","1","0","1","5","2","4","3","3","","4","4","5","4","2","696465680169435136","张","112","","","","","","","","","","","","","","","","","","","","","","","","","","","","","","","","","","","","","","","","","",""
"713","<p style=""color:rgb(150, 250, 100); font-size: 35px;"">别人</p>","i","categorize-html","80","239415","0.0-6.0-0.0-6.0-1.10","4","4","4","4","3","4","3","2","4","4","5","4","2","4","4","4","4","3","4","4","1","1","2","1","1","1","1","1","1","1","0","0","0","0","0","1","1","0","1","1","0","1","0","1","5","2","4","3","3","","4","4","5","4","2","696465680169435136","张","112","","","","","","","","","","","","","","","","","","","true","3","3","ability","713","other","别人","","","","","","","","","","","","","","","","",""
"null","","null","html-keyboard-response","81","239674","0.0-6.0-0.0-6.0-0.11","4","4","4","4","3","4","3","2","4","4","5","4","2","4","4","4","4","3","4","4","1","1","2","1","1","1","1","1","1","1","0","0","0","0","0","1","1","0","1","1","0","1","0","1","5","2","4","3","3","","4","4","5","4","2","696465680169435136","张","112","","","","","","","","","","","","","","","","","","","","","","","","","","","","","","","","","","","","","","","","","",""
"668","<p style=""color:white; font-size: 35px;"">无能</p>","e","categorize-html","82","240345","0.0-6.0-0.0-6.0-1.11","4","4","4","4","3","4","3","2","4","4","5","4","2","4","4","4","4","3","4","4","1","1","2","1","1","1","1","1","1","1","0","0","0","0","0","1","1","0","1","1","0","1","0","1","5","2","4","3","3","","4","4","5","4","2","696465680169435136","张","112","","","","","","","","","","","","","","","","","","","true","3","3","ability","668","negative","无能","","","","","","","","","","","","","","","","",""
"null","","null","html-keyboard-response","83","240603","0.0-6.0-0.0-6.0-0.12","4","4","4","4","3","4","3","2","4","4","5","4","2","4","4","4","4","3","4","4","1","1","2","1","1","1","1","1","1","1","0","0","0","0","0","1","1","0","1","1","0","1","0","1","5","2","4","3","3","","4","4","5","4","2","696465680169435136","张","112","","","","","","","","","","","","","","","","","","","","","","","","","","","","","","","","","","","","","","","","","",""
"553","<p style=""color:rgb(150, 250, 100); font-size: 35px;"">他的</p>","i","categorize-html","84","241159","0.0-6.0-0.0-6.0-1.12","4","4","4","4","3","4","3","2","4","4","5","4","2","4","4","4","4","3","4","4","1","1","2","1","1","1","1","1","1","1","0","0","0","0","0","1","1","0","1","1","0","1","0","1","5","2","4","3","3","","4","4","5","4","2","696465680169435136","张","112","","","","","","","","","","","","","","","","","","","true","3","3","ability","553","other","他的","","","","","","","","","","","","","","","","",""
"null","","null","html-keyboard-response","85","241419","0.0-6.0-0.0-6.0-0.13","4","4","4","4","3","4","3","2","4","4","5","4","2","4","4","4","4","3","4","4","1","1","2","1","1","1","1","1","1","1","0","0","0","0","0","1","1","0","1","1","0","1","0","1","5","2","4","3","3","","4","4","5","4","2","696465680169435136","张","112","","","","","","","","","","","","","","","","","","","","","","","","","","","","","","","","","","","","","","","","","",""
"569","<p style=""color:white; font-size: 35px;"">高效</p>","i","categorize-html","86","241990","0.0-6.0-0.0-6.0-1.13","4","4","4","4","3","4","3","2","4","4","5","4","2","4","4","4","4","3","4","4","1","1","2","1","1","1","1","1","1","1","0","0","0","0","0","1","1","0","1","1","0","1","0","1","5","2","4","3","3","","4","4","5","4","2","696465680169435136","张","112","","","","","","","","","","","","","","","","","","","true","3","3","ability","569","positive","高效","","","","","","","","","","","","","","","","",""
"null","","null","html-keyboard-response","87","242243","0.0-6.0-0.0-6.0-0.14","4","4","4","4","3","4","3","2","4","4","5","4","2","4","4","4","4","3","4","4","1","1","2","1","1","1","1","1","1","1","0","0","0","0","0","1","1","0","1","1","0","1","0","1","5","2","4","3","3","","4","4","5","4","2","696465680169435136","张","112","","","","","","","","","","","","","","","","","","","","","","","","","","","","","","","","","","","","","","","","","",""
"687","<p style=""color:rgb(150, 250, 100); font-size: 35px;"">本人的</p>","e","categorize-html","88","242932","0.0-6.0-0.0-6.0-1.14","4","4","4","4","3","4","3","2","4","4","5","4","2","4","4","4","4","3","4","4","1","1","2","1","1","1","1","1","1","1","0","0","0","0","0","1","1","0","1","1","0","1","0","1","5","2","4","3","3","","4","4","5","4","2","696465680169435136","张","112","","","","","","","","","","","","","","","","","","","true","3","3","ability","687","self","本人的","","","","","","","","","","","","","","","","",""
"null","","null","html-keyboard-response","89","243186","0.0-6.0-0.0-6.0-0.15","4","4","4","4","3","4","3","2","4","4","5","4","2","4","4","4","4","3","4","4","1","1","2","1","1","1","1","1","1","1","0","0","0","0","0","1","1","0","1","1","0","1","0","1","5","2","4","3","3","","4","4","5","4","2","696465680169435136","张","112","","","","","","","","","","","","","","","","","","","","","","","","","","","","","","","","","","","","","","","","","",""
"740","<p style=""color:white; font-size: 35px;"">愚钝</p>","e","categorize-html","90","243929","0.0-6.0-0.0-6.0-1.15","4","4","4","4","3","4","3","2","4","4","5","4","2","4","4","4","4","3","4","4","1","1","2","1","1","1","1","1","1","1","0","0","0","0","0","1","1","0","1","1","0","1","0","1","5","2","4","3","3","","4","4","5","4","2","696465680169435136","张","112","","","","","","","","","","","","","","","","","","","true","3","3","ability","740","negative","愚钝","","","","","","","","","","","","","","","","",""
"null","","null","html-keyboard-response","91","244186","0.0-6.0-0.0-6.0-0.16","4","4","4","4","3","4","3","2","4","4","5","4","2","4","4","4","4","3","4","4","1","1","2","1","1","1","1","1","1","1","0","0","0","0","0","1","1","0","1","1","0","1","0","1","5","2","4","3","3","","4","4","5","4","2","696465680169435136","张","112","","","","","","","","","","","","","","","","","","","","","","","","","","","","","","","","","","","","","","","","","",""
"720","<p style=""color:rgb(150, 250, 100); font-size: 35px;"">我的</p>","e","categorize-html","92","244909","0.0-6.0-0.0-6.0-1.16","4","4","4","4","3","4","3","2","4","4","5","4","2","4","4","4","4","3","4","4","1","1","2","1","1","1","1","1","1","1","0","0","0","0","0","1","1","0","1","1","0","1","0","1","5","2","4","3","3","","4","4","5","4","2","696465680169435136","张","112","","","","","","","","","","","","","","","","","","","true","3","3","ability","720","self","我的","","","","","","","","","","","","","","","","",""
"null","","null","html-keyboard-response","93","245163","0.0-6.0-0.0-6.0-0.17","4","4","4","4","3","4","3","2","4","4","5","4","2","4","4","4","4","3","4","4","1","1","2","1","1","1","1","1","1","1","0","0","0","0","0","1","1","0","1","1","0","1","0","1","5","2","4","3","3","","4","4","5","4","2","696465680169435136","张","112","","","","","","","","","","","","","","","","","","","","","","","","","","","","","","","","","","","","","","","","","",""
"544","<p style=""color:white; font-size: 35px;"">能干</p>","i","categorize-html","94","245710","0.0-6.0-0.0-6.0-1.17","4","4","4","4","3","4","3","2","4","4","5","4","2","4","4","4","4","3","4","4","1","1","2","1","1","1","1","1","1","1","0","0","0","0","0","1","1","0","1","1","0","1","0","1","5","2","4","3","3","","4","4","5","4","2","696465680169435136","张","112","","","","","","","","","","","","","","","","","","","true","3","3","ability","544","positive","能干","","","","","","","","","","","","","","","","",""
"null","","null","html-keyboard-response","95","245962","0.0-6.0-0.0-6.0-0.18","4","4","4","4","3","4","3","2","4","4","5","4","2","4","4","4","4","3","4","4","1","1","2","1","1","1","1","1","1","1","0","0","0","0","0","1","1","0","1","1","0","1","0","1","5","2","4","3","3","","4","4","5","4","2","696465680169435136","张","112","","","","","","","","","","","","","","","","","","","","","","","","","","","","","","","","","","","","","","","","","",""
"713","<p style=""color:rgb(150, 250, 100); font-size: 35px;"">他人</p>","i","categorize-html","96","246677","0.0-6.0-0.0-6.0-1.18","4","4","4","4","3","4","3","2","4","4","5","4","2","4","4","4","4","3","4","4","1","1","2","1","1","1","1","1","1","1","0","0","0","0","0","1","1","0","1","1","0","1","0","1","5","2","4","3","3","","4","4","5","4","2","696465680169435136","张","112","","","","","","","","","","","","","","","","","","","true","3","3","ability","713","other","他人","","","","","","","","","","","","","","","","",""
"null","","null","html-keyboard-response","97","246930","0.0-6.0-0.0-6.0-0.19","4","4","4","4","3","4","3","2","4","4","5","4","2","4","4","4","4","3","4","4","1","1","2","1","1","1","1","1","1","1","0","0","0","0","0","1","1","0","1","1","0","1","0","1","5","2","4","3","3","","4","4","5","4","2","696465680169435136","张","112","","","","","","","","","","","","","","","","","","","","","","","","","","","","","","","","","","","","","","","","","",""
"587","<p style=""color:white; font-size: 35px;"">低能</p>","e","categorize-html","98","247519","0.0-6.0-0.0-6.0-1.19","4","4","4","4","3","4","3","2","4","4","5","4","2","4","4","4","4","3","4","4","1","1","2","1","1","1","1","1","1","1","0","0","0","0","0","1","1","0","1","1","0","1","0","1","5","2","4","3","3","","4","4","5","4","2","696465680169435136","张","112","","","","","","","","","","","","","","","","","","","true","3","3","ability","587","negative","低能","","","","","","","","","","","","","","","","",""
"null","","null","html-keyboard-response","99","247779","0.0-6.0-0.0-6.0-0.20","4","4","4","4","3","4","3","2","4","4","5","4","2","4","4","4","4","3","4","4","1","1","2","1","1","1","1","1","1","1","0","0","0","0","0","1","1","0","1","1","0","1","0","1","5","2","4","3","3","","4","4","5","4","2","696465680169435136","张","112","","","","","","","","","","","","","","","","","","","","","","","","","","","","","","","","","","","","","","","","","",""
"557","<p style=""color:rgb(150, 250, 100); font-size: 35px;"">我</p>","e","categorize-html","100","248339","0.0-6.0-0.0-6.0-1.20","4","4","4","4","3","4","3","2","4","4","5","4","2","4","4","4","4","3","4","4","1","1","2","1","1","1","1","1","1","1","0","0","0","0","0","1","1","0","1","1","0","1","0","1","5","2","4","3","3","","4","4","5","4","2","696465680169435136","张","112","","","","","","","","","","","","","","","","","","","true","3","3","ability","557","self","我","","","","","","","","","","","","","","","","",""
"null","","null","html-keyboard-response","101","248595","0.0-6.0-0.0-6.0-0.21","4","4","4","4","3","4","3","2","4","4","5","4","2","4","4","4","4","3","4","4","1","1","2","1","1","1","1","1","1","1","0","0","0","0","0","1","1","0","1","1","0","1","0","1","5","2","4","3","3","","4","4","5","4","2","696465680169435136","张","112","","","","","","","","","","","","","","","","","","","","","","","","","","","","","","","","","","","","","","","","","",""
"559","<p style=""color:white; font-size: 35px;"">全能</p>","i","categorize-html","102","249155","0.0-6.0-0.0-6.0-1.21","4","4","4","4","3","4","3","2","4","4","5","4","2","4","4","4","4","3","4","4","1","1","2","1","1","1","1","1","1","1","0","0","0","0","0","1","1","0","1","1","0","1","0","1","5","2","4","3","3","","4","4","5","4","2","696465680169435136","张","112","","","","","","","","","","","","","","","","","","","true","3","3","ability","559","positive","全能","","","","","","","","","","","","","","","","",""
"null","","null","html-keyboard-response","103","249411","0.0-6.0-0.0-6.0-0.22","4","4","4","4","3","4","3","2","4","4","5","4","2","4","4","4","4","3","4","4","1","1","2","1","1","1","1","1","1","1","0","0","0","0","0","1","1","0","1","1","0","1","0","1","5","2","4","3","3","","4","4","5","4","2","696465680169435136","张","112","","","","","","","","","","","","","","","","","","","","","","","","","","","","","","","","","","","","","","","","","",""
"747","<p style=""color:rgb(150, 250, 100); font-size: 35px;"">他</p>","i","categorize-html","104","250160","0.0-6.0-0.0-6.0-1.22","4","4","4","4","3","4","3","2","4","4","5","4","2","4","4","4","4","3","4","4","1","1","2","1","1","1","1","1","1","1","0","0","0","0","0","1","1","0","1","1","0","1","0","1","5","2","4","3","3","","4","4","5","4","2","696465680169435136","张","112","","","","","","","","","","","","","","","","","","","true","3","3","ability","747","other","他","","","","","","","","","","","","","","","","",""
"null","","null","html-keyboard-response","105","250419","0.0-6.0-0.0-6.0-0.23","4","4","4","4","3","4","3","2","4","4","5","4","2","4","4","4","4","3","4","4","1","1","2","1","1","1","1","1","1","1","0","0","0","0","0","1","1","0","1","1","0","1","0","1","5","2","4","3","3","","4","4","5","4","2","696465680169435136","张","112","","","","","","","","","","","","","","","","","","","","","","","","","","","","","","","","","","","","","","","","","",""
"547","<p style=""color:white; font-size: 35px;"">拙笨</p>","e","categorize-html","106","250968","0.0-6.0-0.0-6.0-1.23","4","4","4","4","3","4","3","2","4","4","5","4","2","4","4","4","4","3","4","4","1","1","2","1","1","1","1","1","1","1","0","0","0","0","0","1","1","0","1","1","0","1","0","1","5","2","4","3","3","","4","4","5","4","2","696465680169435136","张","112","","","","","","","","","","","","","","","","","","","true","3","3","ability","547","negative","拙笨","","","","","","","","","","","","","","","","",""
"4562","
    <div class=""tag-bottom""><p>
    —— 任务4：对“自我/消极”词和“他人/积极”词分类 ——<p/>
    <span style=""color:#78DCE8""><b>与刚才的任务完全相同，请再次对这四类词语分类</b></span><p/>
    <span style=""color:#FFD866""><b>请根据上方标签的提示，尽可能正确并且快速地做出按键反应</b></span><p/>
    当按键错误时屏幕中会出现<span style=""color:red""> X </span>，需要按另一个键纠正才能继续<br/><p/>
    请把双手食指分别放在键盘的“E”键和“I”键上<p/>
    按<空格键>开始
    </p></div>"," ","html-keyboard-response","107","255531","0.0-6.0-0.0-7.0","4","4","4","4","3","4","3","2","4","4","5","4","2","4","4","4","4","3","4","4","1","1","2","1","1","1","1","1","1","1","0","0","0","0","0","1","1","0","1","1","0","1","0","1","5","2","4","3","3","","4","4","5","4","2","696465680169435136","张","112","","","","","","","","","","","","","","","","","","","","","","","","","","","","","","","","","","","","","","","","","",""
"null","","null","html-keyboard-response","108","255786","0.0-6.0-0.0-8.0-0.0","4","4","4","4","3","4","3","2","4","4","5","4","2","4","4","4","4","3","4","4","1","1","2","1","1","1","1","1","1","1","0","0","0","0","0","1","1","0","1","1","0","1","0","1","5","2","4","3","3","","4","4","5","4","2","696465680169435136","张","112","","","","","","","","","","","","","","","","","","","","","","","","","","","","","","","","","","","","","","","","","",""
"927","<p style=""color:rgb(150, 250, 100); font-size: 35px;"">他的</p>","i","categorize-html","109","256715","0.0-6.0-0.0-8.0-1.0","4","4","4","4","3","4","3","2","4","4","5","4","2","4","4","4","4","3","4","4","1","1","2","1","1","1","1","1","1","1","0","0","0","0","0","1","1","0","1","1","0","1","0","1","5","2","4","3","3","","4","4","5","4","2","696465680169435136","张","112","","","","","","","","","","","","","","","","","","","true","4","4","ability","927","other","他的","","","","","","","","","","","","","","","","",""
"null","","null","html-keyboard-response","110","256971","0.0-6.0-0.0-8.0-0.1","4","4","4","4","3","4","3","2","4","4","5","4","2","4","4","4","4","3","4","4","1","1","2","1","1","1","1","1","1","1","0","0","0","0","0","1","1","0","1","1","0","1","0","1","5","2","4","3","3","","4","4","5","4","2","696465680169435136","张","112","","","","","","","","","","","","","","","","","","","","","","","","","","","","","","","","","","","","","","","","","",""
"612","<p style=""color:white; font-size: 35px;"">拙笨</p>","e","categorize-html","111","257585","0.0-6.0-0.0-8.0-1.1","4","4","4","4","3","4","3","2","4","4","5","4","2","4","4","4","4","3","4","4","1","1","2","1","1","1","1","1","1","1","0","0","0","0","0","1","1","0","1","1","0","1","0","1","5","2","4","3","3","","4","4","5","4","2","696465680169435136","张","112","","","","","","","","","","","","","","","","","","","true","4","4","ability","612","negative","拙笨","","","","","","","","","","","","","","","","",""
"null","","null","html-keyboard-response","112","257842","0.0-6.0-0.0-8.0-0.2","4","4","4","4","3","4","3","2","4","4","5","4","2","4","4","4","4","3","4","4","1","1","2","1","1","1","1","1","1","1","0","0","0","0","0","1","1","0","1","1","0","1","0","1","5","2","4","3","3","","4","4","5","4","2","696465680169435136","张","112","","","","","","","","","","","","","","","","","","","","","","","","","","","","","","","","","","","","","","","","","",""
"644","<p style=""color:rgb(150, 250, 100); font-size: 35px;"">自己的</p>","e","categorize-html","113","258488","0.0-6.0-0.0-8.0-1.2","4","4","4","4","3","4","3","2","4","4","5","4","2","4","4","4","4","3","4","4","1","1","2","1","1","1","1","1","1","1","0","0","0","0","0","1","1","0","1","1","0","1","0","1","5","2","4","3","3","","4","4","5","4","2","696465680169435136","张","112","","","","","","","","","","","","","","","","","","","true","4","4","ability","644","self","自己的","","","","","","","","","","","","","","","","",""
"null","","null","html-keyboard-response","114","258746","0.0-6.0-0.0-8.0-0.3","4","4","4","4","3","4","3","2","4","4","5","4","2","4","4","4","4","3","4","4","1","1","2","1","1","1","1","1","1","1","0","0","0","0","0","1","1","0","1","1","0","1","0","1","5","2","4","3","3","","4","4","5","4","2","696465680169435136","张","112","","","","","","","","","","","","","","","","","","","","","","","","","","","","","","","","","","","","","","","","","",""
"573","<p style=""color:white; font-size: 35px;"">高效</p>","i","categorize-html","115","259322","0.0-6.0-0.0-8.0-1.3","4","4","4","4","3","4","3","2","4","4","5","4","2","4","4","4","4","3","4","4","1","1","2","1","1","1","1","1","1","1","0","0","0","0","0","1","1","0","1","1","0","1","0","1","5","2","4","3","3","","4","4","5","4","2","696465680169435136","张","112","","","","","","","","","","","","","","","","","","","true","4","4","ability","573","positive","高效","","","","","","","","","","","","","","","","",""
"null","","null","html-keyboard-response","116","259585","0.0-6.0-0.0-8.0-0.4","4","4","4","4","3","4","3","2","4","4","5","4","2","4","4","4","4","3","4","4","1","1","2","1","1","1","1","1","1","1","0","0","0","0","0","1","1","0","1","1","0","1","0","1","5","2","4","3","3","","4","4","5","4","2","696465680169435136","张","112","","","","","","","","","","","","","","","","","","","","","","","","","","","","","","","","","","","","","","","","","",""
"603","<p style=""color:rgb(150, 250, 100); font-size: 35px;"">我</p>","e","categorize-html","117","260190","0.0-6.0-0.0-8.0-1.4","4","4","4","4","3","4","3","2","4","4","5","4","2","4","4","4","4","3","4","4","1","1","2","1","1","1","1","1","1","1","0","0","0","0","0","1","1","0","1","1","0","1","0","1","5","2","4","3","3","","4","4","5","4","2","696465680169435136","张","112","","","","","","","","","","","","","","","","","","","true","4","4","ability","603","self","我","","","","","","","","","","","","","","","","",""
"null","","null","html-keyboard-response","118","260442","0.0-6.0-0.0-8.0-0.5","4","4","4","4","3","4","3","2","4","4","5","4","2","4","4","4","4","3","4","4","1","1","2","1","1","1","1","1","1","1","0","0","0","0","0","1","1","0","1","1","0","1","0","1","5","2","4","3","3","","4","4","5","4","2","696465680169435136","张","112","","","","","","","","","","","","","","","","","","","","","","","","","","","","","","","","","","","","","","","","","",""
"589","<p style=""color:white; font-size: 35px;"">拙笨</p>","e","categorize-html","119","261033","0.0-6.0-0.0-8.0-1.5","4","4","4","4","3","4","3","2","4","4","5","4","2","4","4","4","4","3","4","4","1","1","2","1","1","1","1","1","1","1","0","0","0","0","0","1","1","0","1","1","0","1","0","1","5","2","4","3","3","","4","4","5","4","2","696465680169435136","张","112","","","","","","","","","","","","","","","","","","","true","4","4","ability","589","negative","拙笨","","","","","","","","","","","","","","","","",""
"null","","null","html-keyboard-response","120","261290","0.0-6.0-0.0-8.0-0.6","4","4","4","4","3","4","3","2","4","4","5","4","2","4","4","4","4","3","4","4","1","1","2","1","1","1","1","1","1","1","0","0","0","0","0","1","1","0","1","1","0","1","0","1","5","2","4","3","3","","4","4","5","4","2","696465680169435136","张","112","","","","","","","","","","","","","","","","","","","","","","","","","","","","","","","","","","","","","","","","","",""
"698","<p style=""color:rgb(150, 250, 100); font-size: 35px;"">别人</p>","i","categorize-html","121","261990","0.0-6.0-0.0-8.0-1.6","4","4","4","4","3","4","3","2","4","4","5","4","2","4","4","4","4","3","4","4","1","1","2","1","1","1","1","1","1","1","0","0","0","0","0","1","1","0","1","1","0","1","0","1","5","2","4","3","3","","4","4","5","4","2","696465680169435136","张","112","","","","","","","","","","","","","","","","","","","true","4","4","ability","698","other","别人","","","","","","","","","","","","","","","","",""
"null","","null","html-keyboard-response","122","262242","0.0-6.0-0.0-8.0-0.7","4","4","4","4","3","4","3","2","4","4","5","4","2","4","4","4","4","3","4","4","1","1","2","1","1","1","1","1","1","1","0","0","0","0","0","1","1","0","1","1","0","1","0","1","5","2","4","3","3","","4","4","5","4","2","696465680169435136","张","112","","","","","","","","","","","","","","","","","","","","","","","","","","","","","","","","","","","","","","","","","",""
"576","<p style=""color:white; font-size: 35px;"">天才</p>","i","categorize-html","123","262821","0.0-6.0-0.0-8.0-1.7","4","4","4","4","3","4","3","2","4","4","5","4","2","4","4","4","4","3","4","4","1","1","2","1","1","1","1","1","1","1","0","0","0","0","0","1","1","0","1","1","0","1","0","1","5","2","4","3","3","","4","4","5","4","2","696465680169435136","张","112","","","","","","","","","","","","","","","","","","","true","4","4","ability","576","positive","天才","","","","","","","","","","","","","","","","",""
"null","","null","html-keyboard-response","124","263074","0.0-6.0-0.0-8.0-0.8","4","4","4","4","3","4","3","2","4","4","5","4","2","4","4","4","4","3","4","4","1","1","2","1","1","1","1","1","1","1","0","0","0","0","0","1","1","0","1","1","0","1","0","1","5","2","4","3","3","","4","4","5","4","2","696465680169435136","张","112","","","","","","","","","","","","","","","","","","","","","","","","","","","","","","","","","","","","","","","","","",""
"691","<p style=""color:rgb(150, 250, 100); font-size: 35px;"">本人的</p>","e","categorize-html","125","263767","0.0-6.0-0.0-8.0-1.8","4","4","4","4","3","4","3","2","4","4","5","4","2","4","4","4","4","3","4","4","1","1","2","1","1","1","1","1","1","1","0","0","0","0","0","1","1","0","1","1","0","1","0","1","5","2","4","3","3","","4","4","5","4","2","696465680169435136","张","112","","","","","","","","","","","","","","","","","","","true","4","4","ability","691","self","本人的","","","","","","","","","","","","","","","","",""
"null","","null","html-keyboard-response","126","264027","0.0-6.0-0.0-8.0-0.9","4","4","4","4","3","4","3","2","4","4","5","4","2","4","4","4","4","3","4","4","1","1","2","1","1","1","1","1","1","1","0","0","0","0","0","1","1","0","1","1","0","1","0","1","5","2","4","3","3","","4","4","5","4","2","696465680169435136","张","112","","","","","","","","","","","","","","","","","","","","","","","","","","","","","","","","","","","","","","","","","",""
"495","<p style=""color:white; font-size: 35px;"">天才</p>","i","categorize-html","127","264523","0.0-6.0-0.0-8.0-1.9","4","4","4","4","3","4","3","2","4","4","5","4","2","4","4","4","4","3","4","4","1","1","2","1","1","1","1","1","1","1","0","0","0","0","0","1","1","0","1","1","0","1","0","1","5","2","4","3","3","","4","4","5","4","2","696465680169435136","张","112","","","","","","","","","","","","","","","","","","","true","4","4","ability","495","positive","天才","","","","","","","","","","","","","","","","",""
"null","","null","html-keyboard-response","128","264778","0.0-6.0-0.0-8.0-0.10","4","4","4","4","3","4","3","2","4","4","5","4","2","4","4","4","4","3","4","4","1","1","2","1","1","1","1","1","1","1","0","0","0","0","0","1","1","0","1","1","0","1","0","1","5","2","4","3","3","","4","4","5","4","2","696465680169435136","张","112","","","","","","","","","","","","","","","","","","","","","","","","","","","","","","","","","","","","","","","","","",""
"811","<p style=""color:rgb(150, 250, 100); font-size: 35px;"">他人</p>","i","categorize-html","129","265592","0.0-6.0-0.0-8.0-1.10","4","4","4","4","3","4","3","2","4","4","5","4","2","4","4","4","4","3","4","4","1","1","2","1","1","1","1","1","1","1","0","0","0","0","0","1","1","0","1","1","0","1","0","1","5","2","4","3","3","","4","4","5","4","2","696465680169435136","张","112","","","","","","","","","","","","","","","","","","","true","4","4","ability","811","other","他人","","","","","","","","","","","","","","","","",""
"null","","null","html-keyboard-response","130","265850","0.0-6.0-0.0-8.0-0.11","4","4","4","4","3","4","3","2","4","4","5","4","2","4","4","4","4","3","4","4","1","1","2","1","1","1","1","1","1","1","0","0","0","0","0","1","1","0","1","1","0","1","0","1","5","2","4","3","3","","4","4","5","4","2","696465680169435136","张","112","","","","","","","","","","","","","","","","","","","","","","","","","","","","","","","","","","","","","","","","","",""
"516","<p style=""color:white; font-size: 35px;"">无能</p>","e","categorize-html","131","266369","0.0-6.0-0.0-8.0-1.11","4","4","4","4","3","4","3","2","4","4","5","4","2","4","4","4","4","3","4","4","1","1","2","1","1","1","1","1","1","1","0","0","0","0","0","1","1","0","1","1","0","1","0","1","5","2","4","3","3","","4","4","5","4","2","696465680169435136","张","112","","","","","","","","","","","","","","","","","","","true","4","4","ability","516","negative","无能","","","","","","","","","","","","","","","","",""
"null","","null","html-keyboard-response","132","266626","0.0-6.0-0.0-8.0-0.12","4","4","4","4","3","4","3","2","4","4","5","4","2","4","4","4","4","3","4","4","1","1","2","1","1","1","1","1","1","1","0","0","0","0","0","1","1","0","1","1","0","1","0","1","5","2","4","3","3","","4","4","5","4","2","696465680169435136","张","112","","","","","","","","","","","","","","","","","","","","","","","","","","","","","","","","","","","","","","","","","",""
"498","<p style=""color:rgb(150, 250, 100); font-size: 35px;"">我的</p>","e","categorize-html","133","267126","0.0-6.0-0.0-8.0-1.12","4","4","4","4","3","4","3","2","4","4","5","4","2","4","4","4","4","3","4","4","1","1","2","1","1","1","1","1","1","1","0","0","0","0","0","1","1","0","1","1","0","1","0","1","5","2","4","3","3","","4","4","5","4","2","696465680169435136","张","112","","","","","","","","","","","","","","","","","","","true","4","4","ability","498","self","我的","","","","","","","","","","","","","","","","",""
"null","","null","html-keyboard-response","134","267378","0.0-6.0-0.0-8.0-0.13","4","4","4","4","3","4","3","2","4","4","5","4","2","4","4","4","4","3","4","4","1","1","2","1","1","1","1","1","1","1","0","0","0","0","0","1","1","0","1","1","0","1","0","1","5","2","4","3","3","","4","4","5","4","2","696465680169435136","张","112","","","","","","","","","","","","","","","","","","","","","","","","","","","","","","","","","","","","","","","","","",""
"581","<p style=""color:white; font-size: 35px;"">全能</p>","i","categorize-html","135","267960","0.0-6.0-0.0-8.0-1.13","4","4","4","4","3","4","3","2","4","4","5","4","2","4","4","4","4","3","4","4","1","1","2","1","1","1","1","1","1","1","0","0","0","0","0","1","1","0","1","1","0","1","0","1","5","2","4","3","3","","4","4","5","4","2","696465680169435136","张","112","","","","","","","","","","","","","","","","","","","true","4","4","ability","581","positive","全能","","","","","","","","","","","","","","","","",""
"null","","null","html-keyboard-response","136","268218","0.0-6.0-0.0-8.0-0.14","4","4","4","4","3","4","3","2","4","4","5","4","2","4","4","4","4","3","4","4","1","1","2","1","1","1","1","1","1","1","0","0","0","0","0","1","1","0","1","1","0","1","0","1","5","2","4","3","3","","4","4","5","4","2","696465680169435136","张","112","","","","","","","","","","","","","","","","","","","","","","","","","","","","","","","","","","","","","","","","","",""
"675","<p style=""color:rgb(150, 250, 100); font-size: 35px;"">别人的</p>","i","categorize-html","137","268894","0.0-6.0-0.0-8.0-1.14","4","4","4","4","3","4","3","2","4","4","5","4","2","4","4","4","4","3","4","4","1","1","2","1","1","1","1","1","1","1","0","0","0","0","0","1","1","0","1","1","0","1","0","1","5","2","4","3","3","","4","4","5","4","2","696465680169435136","张","112","","","","","","","","","","","","","","","","","","","true","4","4","ability","675","other","别人的","","","","","","","","","","","","","","","","",""
"null","","null","html-keyboard-response","138","269146","0.0-6.0-0.0-8.0-0.15","4","4","4","4","3","4","3","2","4","4","5","4","2","4","4","4","4","3","4","4","1","1","2","1","1","1","1","1","1","1","0","0","0","0","0","1","1","0","1","1","0","1","0","1","5","2","4","3","3","","4","4","5","4","2","696465680169435136","张","112","","","","","","","","","","","","","","","","","","","","","","","","","","","","","","","","","","","","","","","","","",""
"524","<p style=""color:white; font-size: 35px;"">蠢笨</p>","e","categorize-html","139","269671","0.0-6.0-0.0-8.0-1.15","4","4","4","4","3","4","3","2","4","4","5","4","2","4","4","4","4","3","4","4","1","1","2","1","1","1","1","1","1","1","0","0","0","0","0","1","1","0","1","1","0","1","0","1","5","2","4","3","3","","4","4","5","4","2","696465680169435136","张","112","","","","","","","","","","","","","","","","","","","true","4","4","ability","524","negative","蠢笨","","","","","","","","","","","","","","","","",""
"null","","null","html-keyboard-response","140","269930","0.0-6.0-0.0-8.0-0.16","4","4","4","4","3","4","3","2","4","4","5","4","2","4","4","4","4","3","4","4","1","1","2","1","1","1","1","1","1","1","0","0","0","0","0","1","1","0","1","1","0","1","0","1","5","2","4","3","3","","4","4","5","4","2","696465680169435136","张","112","","","","","","","","","","","","","","","","","","","","","","","","","","","","","","","","","","","","","","","","","",""
"531","<p style=""color:rgb(150, 250, 100); font-size: 35px;"">他</p>","i","categorize-html","141","270463","0.0-6.0-0.0-8.0-1.16","4","4","4","4","3","4","3","2","4","4","5","4","2","4","4","4","4","3","4","4","1","1","2","1","1","1","1","1","1","1","0","0","0","0","0","1","1","0","1","1","0","1","0","1","5","2","4","3","3","","4","4","5","4","2","696465680169435136","张","112","","","","","","","","","","","","","","","","","","","true","4","4","ability","531","other","他","","","","","","","","","","","","","","","","",""
"null","","null","html-keyboard-response","142","270722","0.0-6.0-0.0-8.0-0.17","4","4","4","4","3","4","3","2","4","4","5","4","2","4","4","4","4","3","4","4","1","1","2","1","1","1","1","1","1","1","0","0","0","0","0","1","1","0","1","1","0","1","0","1","5","2","4","3","3","","4","4","5","4","2","696465680169435136","张","112","","","","","","","","","","","","","","","","","","","","","","","","","","","","","","","","","","","","","","","","","",""
"656","<p style=""color:white; font-size: 35px;"">全才</p>","i","categorize-html","143","271381","0.0-6.0-0.0-8.0-1.17","4","4","4","4","3","4","3","2","4","4","5","4","2","4","4","4","4","3","4","4","1","1","2","1","1","1","1","1","1","1","0","0","0","0","0","1","1","0","1","1","0","1","0","1","5","2","4","3","3","","4","4","5","4","2","696465680169435136","张","112","","","","","","","","","","","","","","","","","","","true","4","4","ability","656","positive","全才","","","","","","","","","","","","","","","","",""
"null","","null","html-keyboard-response","144","271634","0.0-6.0-0.0-8.0-0.18","4","4","4","4","3","4","3","2","4","4","5","4","2","4","4","4","4","3","4","4","1","1","2","1","1","1","1","1","1","1","0","0","0","0","0","1","1","0","1","1","0","1","0","1","5","2","4","3","3","","4","4","5","4","2","696465680169435136","张","112","","","","","","","","","","","","","","","","","","","","","","","","","","","","","","","","","","","","","","","","","",""
"510","<p style=""color:rgb(150, 250, 100); font-size: 35px;"">自己</p>","e","categorize-html","145","272147","0.0-6.0-0.0-8.0-1.18","4","4","4","4","3","4","3","2","4","4","5","4","2","4","4","4","4","3","4","4","1","1","2","1","1","1","1","1","1","1","0","0","0","0","0","1","1","0","1","1","0","1","0","1","5","2","4","3","3","","4","4","5","4","2","696465680169435136","张","112","","","","","","","","","","","","","","","","","","","true","4","4","ability","510","self","自己","","","","","","","","","","","","","","","","",""
"null","","null","html-keyboard-response","146","272401","0.0-6.0-0.0-8.0-0.19","4","4","4","4","3","4","3","2","4","4","5","4","2","4","4","4","4","3","4","4","1","1","2","1","1","1","1","1","1","1","0","0","0","0","0","1","1","0","1","1","0","1","0","1","5","2","4","3","3","","4","4","5","4","2","696465680169435136","张","112","","","","","","","","","","","","","","","","","","","","","","","","","","","","","","","","","","","","","","","","","",""
"641","<p style=""color:white; font-size: 35px;"">低能</p>","e","categorize-html","147","273044","0.0-6.0-0.0-8.0-1.19","4","4","4","4","3","4","3","2","4","4","5","4","2","4","4","4","4","3","4","4","1","1","2","1","1","1","1","1","1","1","0","0","0","0","0","1","1","0","1","1","0","1","0","1","5","2","4","3","3","","4","4","5","4","2","696465680169435136","张","112","","","","","","","","","","","","","","","","","","","true","4","4","ability","641","negative","低能","","","","","","","","","","","","","","","","",""
"null","","null","html-keyboard-response","148","273298","0.0-6.0-0.0-8.0-0.20","4","4","4","4","3","4","3","2","4","4","5","4","2","4","4","4","4","3","4","4","1","1","2","1","1","1","1","1","1","1","0","0","0","0","0","1","1","0","1","1","0","1","0","1","5","2","4","3","3","","4","4","5","4","2","696465680169435136","张","112","","","","","","","","","","","","","","","","","","","","","","","","","","","","","","","","","","","","","","","","","",""
"663","<p style=""color:rgb(150, 250, 100); font-size: 35px;"">别人</p>","i","categorize-html","149","273963","0.0-6.0-0.0-8.0-1.20","4","4","4","4","3","4","3","2","4","4","5","4","2","4","4","4","4","3","4","4","1","1","2","1","1","1","1","1","1","1","0","0","0","0","0","1","1","0","1","1","0","1","0","1","5","2","4","3","3","","4","4","5","4","2","696465680169435136","张","112","","","","","","","","","","","","","","","","","","","true","4","4","ability","663","other","别人","","","","","","","","","","","","","","","","",""
"null","","null","html-keyboard-response","150","274218","0.0-6.0-0.0-8.0-0.21","4","4","4","4","3","4","3","2","4","4","5","4","2","4","4","4","4","3","4","4","1","1","2","1","1","1","1","1","1","1","0","0","0","0","0","1","1","0","1","1","0","1","0","1","5","2","4","3","3","","4","4","5","4","2","696465680169435136","张","112","","","","","","","","","","","","","","","","","","","","","","","","","","","","","","","","","","","","","","","","","",""
"734","<p style=""color:white; font-size: 35px;"">精干</p>","i","categorize-html","151","274953","0.0-6.0-0.0-8.0-1.21","4","4","4","4","3","4","3","2","4","4","5","4","2","4","4","4","4","3","4","4","1","1","2","1","1","1","1","1","1","1","0","0","0","0","0","1","1","0","1","1","0","1","0","1","5","2","4","3","3","","4","4","5","4","2","696465680169435136","张","112","","","","","","","","","","","","","","","","","","","true","4","4","ability","734","positive","精干","","","","","","","","","","","","","","","","",""
"null","","null","html-keyboard-response","152","275210","0.0-6.0-0.0-8.0-0.22","4","4","4","4","3","4","3","2","4","4","5","4","2","4","4","4","4","3","4","4","1","1","2","1","1","1","1","1","1","1","0","0","0","0","0","1","1","0","1","1","0","1","0","1","5","2","4","3","3","","4","4","5","4","2","696465680169435136","张","112","","","","","","","","","","","","","","","","","","","","","","","","","","","","","","","","","","","","","","","","","",""
"561","<p style=""color:rgb(150, 250, 100); font-size: 35px;"">本人</p>","e","categorize-html","153","275774","0.0-6.0-0.0-8.0-1.22","4","4","4","4","3","4","3","2","4","4","5","4","2","4","4","4","4","3","4","4","1","1","2","1","1","1","1","1","1","1","0","0","0","0","0","1","1","0","1","1","0","1","0","1","5","2","4","3","3","","4","4","5","4","2","696465680169435136","张","112","","","","","","","","","","","","","","","","","","","true","4","4","ability","561","self","本人","","","","","","","","","","","","","","","","",""
"null","","null","html-keyboard-response","154","276026","0.0-6.0-0.0-8.0-0.23","4","4","4","4","3","4","3","2","4","4","5","4","2","4","4","4","4","3","4","4","1","1","2","1","1","1","1","1","1","1","0","0","0","0","0","1","1","0","1","1","0","1","0","1","5","2","4","3","3","","4","4","5","4","2","696465680169435136","张","112","","","","","","","","","","","","","","","","","","","","","","","","","","","","","","","","","","","","","","","","","",""
"530","<p style=""color:white; font-size: 35px;"">愚钝</p>","e","categorize-html","155","276558","0.0-6.0-0.0-8.0-1.23","4","4","4","4","3","4","3","2","4","4","5","4","2","4","4","4","4","3","4","4","1","1","2","1","1","1","1","1","1","1","0","0","0","0","0","1","1","0","1","1","0","1","0","1","5","2","4","3","3","","4","4","5","4","2","696465680169435136","张","112","","","","","","","","","","","","","","","","","","","true","4","4","ability","530","negative","愚钝","","","","","","","","","","","","","","","","",""
"null","","null","html-keyboard-response","156","276810","0.0-6.0-0.0-8.0-0.24","4","4","4","4","3","4","3","2","4","4","5","4","2","4","4","4","4","3","4","4","1","1","2","1","1","1","1","1","1","1","0","0","0","0","0","1","1","0","1","1","0","1","0","1","5","2","4","3","3","","4","4","5","4","2","696465680169435136","张","112","","","","","","","","","","","","","","","","","","","","","","","","","","","","","","","","","","","","","","","","","",""
"762","<p style=""color:rgb(150, 250, 100); font-size: 35px;"">别人的</p>","i","categorize-html","157","277575","0.0-6.0-0.0-8.0-1.24","4","4","4","4","3","4","3","2","4","4","5","4","2","4","4","4","4","3","4","4","1","1","2","1","1","1","1","1","1","1","0","0","0","0","0","1","1","0","1","1","0","1","0","1","5","2","4","3","3","","4","4","5","4","2","696465680169435136","张","112","","","","","","","","","","","","","","","","","","","true","4","4","ability","762","other","别人的","","","","","","","","","","","","","","","","",""
"null","","null","html-keyboard-response","158","277834","0.0-6.0-0.0-8.0-0.25","4","4","4","4","3","4","3","2","4","4","5","4","2","4","4","4","4","3","4","4","1","1","2","1","1","1","1","1","1","1","0","0","0","0","0","1","1","0","1","1","0","1","0","1","5","2","4","3","3","","4","4","5","4","2","696465680169435136","张","112","","","","","","","","","","","","","","","","","","","","","","","","","","","","","","","","","","","","","","","","","",""
"542","<p style=""color:white; font-size: 35px;"">全才</p>","i","categorize-html","159","278378","0.0-6.0-0.0-8.0-1.25","4","4","4","4","3","4","3","2","4","4","5","4","2","4","4","4","4","3","4","4","1","1","2","1","1","1","1","1","1","1","0","0","0","0","0","1","1","0","1","1","0","1","0","1","5","2","4","3","3","","4","4","5","4","2","696465680169435136","张","112","","","","","","","","","","","","","","","","","","","true","4","4","ability","542","positive","全才","","","","","","","","","","","","","","","","",""
"null","","null","html-keyboard-response","160","278634","0.0-6.0-0.0-8.0-0.26","4","4","4","4","3","4","3","2","4","4","5","4","2","4","4","4","4","3","4","4","1","1","2","1","1","1","1","1","1","1","0","0","0","0","0","1","1","0","1","1","0","1","0","1","5","2","4","3","3","","4","4","5","4","2","696465680169435136","张","112","","","","","","","","","","","","","","","","","","","","","","","","","","","","","","","","","","","","","","","","","",""
"522","<p style=""color:rgb(150, 250, 100); font-size: 35px;"">自己</p>","e","categorize-html","161","279158","0.0-6.0-0.0-8.0-1.26","4","4","4","4","3","4","3","2","4","4","5","4","2","4","4","4","4","3","4","4","1","1","2","1","1","1","1","1","1","1","0","0","0","0","0","1","1","0","1","1","0","1","0","1","5","2","4","3","3","","4","4","5","4","2","696465680169435136","张","112","","","","","","","","","","","","","","","","","","","true","4","4","ability","522","self","自己","","","","","","","","","","","","","","","","",""
"null","","null","html-keyboard-response","162","279410","0.0-6.0-0.0-8.0-0.27","4","4","4","4","3","4","3","2","4","4","5","4","2","4","4","4","4","3","4","4","1","1","2","1","1","1","1","1","1","1","0","0","0","0","0","1","1","0","1","1","0","1","0","1","5","2","4","3","3","","4","4","5","4","2","696465680169435136","张","112","","","","","","","","","","","","","","","","","","","","","","","","","","","","","","","","","","","","","","","","","",""
"681","<p style=""color:white; font-size: 35px;"">愚钝</p>","e","categorize-html","163","280093","0.0-6.0-0.0-8.0-1.27","4","4","4","4","3","4","3","2","4","4","5","4","2","4","4","4","4","3","4","4","1","1","2","1","1","1","1","1","1","1","0","0","0","0","0","1","1","0","1","1","0","1","0","1","5","2","4","3","3","","4","4","5","4","2","696465680169435136","张","112","","","","","","","","","","","","","","","","","","","true","4","4","ability","681","negative","愚钝","","","","","","","","","","","","","","","","",""
"null","","null","html-keyboard-response","164","280346","0.0-6.0-0.0-8.0-0.28","4","4","4","4","3","4","3","2","4","4","5","4","2","4","4","4","4","3","4","4","1","1","2","1","1","1","1","1","1","1","0","0","0","0","0","1","1","0","1","1","0","1","0","1","5","2","4","3","3","","4","4","5","4","2","696465680169435136","张","112","","","","","","","","","","","","","","","","","","","","","","","","","","","","","","","","","","","","","","","","","",""
"624","<p style=""color:rgb(150, 250, 100); font-size: 35px;"">他人</p>","i","categorize-html","165","280972","0.0-6.0-0.0-8.0-1.28","4","4","4","4","3","4","3","2","4","4","5","4","2","4","4","4","4","3","4","4","1","1","2","1","1","1","1","1","1","1","0","0","0","0","0","1","1","0","1","1","0","1","0","1","5","2","4","3","3","","4","4","5","4","2","696465680169435136","张","112","","","","","","","","","","","","","","","","","","","true","4","4","ability","624","other","他人","","","","","","","","","","","","","","","","",""
"null","","null","html-keyboard-response","166","281227","0.0-6.0-0.0-8.0-0.29","4","4","4","4","3","4","3","2","4","4","5","4","2","4","4","4","4","3","4","4","1","1","2","1","1","1","1","1","1","1","0","0","0","0","0","1","1","0","1","1","0","1","0","1","5","2","4","3","3","","4","4","5","4","2","696465680169435136","张","112","","","","","","","","","","","","","","","","","","","","","","","","","","","","","","","","","","","","","","","","","",""
"502","<p style=""color:white; font-size: 35px;"">蠢笨</p>","e","categorize-html","167","281732","0.0-6.0-0.0-8.0-1.29","4","4","4","4","3","4","3","2","4","4","5","4","2","4","4","4","4","3","4","4","1","1","2","1","1","1","1","1","1","1","0","0","0","0","0","1","1","0","1","1","0","1","0","1","5","2","4","3","3","","4","4","5","4","2","696465680169435136","张","112","","","","","","","","","","","","","","","","","","","true","4","4","ability","502","negative","蠢笨","","","","","","","","","","","","","","","","",""
"null","","null","html-keyboard-response","168","281986","0.0-6.0-0.0-8.0-0.30","4","4","4","4","3","4","3","2","4","4","5","4","2","4","4","4","4","3","4","4","1","1","2","1","1","1","1","1","1","1","0","0","0","0","0","1","1","0","1","1","0","1","0","1","5","2","4","3","3","","4","4","5","4","2","696465680169435136","张","112","","","","","","","","","","","","","","","","","","","","","","","","","","","","","","","","","","","","","","","","","",""
"689","<p style=""color:rgb(150, 250, 100); font-size: 35px;"">我的</p>","e","categorize-html","169","282677","0.0-6.0-0.0-8.0-1.30","4","4","4","4","3","4","3","2","4","4","5","4","2","4","4","4","4","3","4","4","1","1","2","1","1","1","1","1","1","1","0","0","0","0","0","1","1","0","1","1","0","1","0","1","5","2","4","3","3","","4","4","5","4","2","696465680169435136","张","112","","","","","","","","","","","","","","","","","","","true","4","4","ability","689","self","我的","","","","","","","","","","","","","","","","",""
"null","","null","html-keyboard-response","170","282929","0.0-6.0-0.0-8.0-0.31","4","4","4","4","3","4","3","2","4","4","5","4","2","4","4","4","4","3","4","4","1","1","2","1","1","1","1","1","1","1","0","0","0","0","0","1","1","0","1","1","0","1","0","1","5","2","4","3","3","","4","4","5","4","2","696465680169435136","张","112","","","","","","","","","","","","","","","","","","","","","","","","","","","","","","","","","","","","","","","","","",""
"574","<p style=""color:white; font-size: 35px;"">高效</p>","i","categorize-html","171","283506","0.0-6.0-0.0-8.0-1.31","4","4","4","4","3","4","3","2","4","4","5","4","2","4","4","4","4","3","4","4","1","1","2","1","1","1","1","1","1","1","0","0","0","0","0","1","1","0","1","1","0","1","0","1","5","2","4","3","3","","4","4","5","4","2","696465680169435136","张","112","","","","","","","","","","","","","","","","","","","true","4","4","ability","574","positive","高效","","","","","","","","","","","","","","","","",""
"null","","null","html-keyboard-response","172","283762","0.0-6.0-0.0-8.0-0.32","4","4","4","4","3","4","3","2","4","4","5","4","2","4","4","4","4","3","4","4","1","1","2","1","1","1","1","1","1","1","0","0","0","0","0","1","1","0","1","1","0","1","0","1","5","2","4","3","3","","4","4","5","4","2","696465680169435136","张","112","","","","","","","","","","","","","","","","","","","","","","","","","","","","","","","","","","","","","","","","","",""
"595","<p style=""color:rgb(150, 250, 100); font-size: 35px;"">我</p>","e","categorize-html","173","284359","0.0-6.0-0.0-8.0-1.32","4","4","4","4","3","4","3","2","4","4","5","4","2","4","4","4","4","3","4","4","1","1","2","1","1","1","1","1","1","1","0","0","0","0","0","1","1","0","1","1","0","1","0","1","5","2","4","3","3","","4","4","5","4","2","696465680169435136","张","112","","","","","","","","","","","","","","","","","","","true","4","4","ability","595","self","我","","","","","","","","","","","","","","","","",""
"null","","null","html-keyboard-response","174","284618","0.0-6.0-0.0-8.0-0.33","4","4","4","4","3","4","3","2","4","4","5","4","2","4","4","4","4","3","4","4","1","1","2","1","1","1","1","1","1","1","0","0","0","0","0","1","1","0","1","1","0","1","0","1","5","2","4","3","3","","4","4","5","4","2","696465680169435136","张","112","","","","","","","","","","","","","","","","","","","","","","","","","","","","","","","","","","","","","","","","","",""
"580","<p style=""color:white; font-size: 35px;"">能干</p>","i","categorize-html","175","285201","0.0-6.0-0.0-8.0-1.33","4","4","4","4","3","4","3","2","4","4","5","4","2","4","4","4","4","3","4","4","1","1","2","1","1","1","1","1","1","1","0","0","0","0","0","1","1","0","1","1","0","1","0","1","5","2","4","3","3","","4","4","5","4","2","696465680169435136","张","112","","","","","","","","","","","","","","","","","","","true","4","4","ability","580","positive","能干","","","","","","","","","","","","","","","","",""
"null","","null","html-keyboard-response","176","285458","0.0-6.0-0.0-8.0-0.34","4","4","4","4","3","4","3","2","4","4","5","4","2","4","4","4","4","3","4","4","1","1","2","1","1","1","1","1","1","1","0","0","0","0","0","1","1","0","1","1","0","1","0","1","5","2","4","3","3","","4","4","5","4","2","696465680169435136","张","112","","","","","","","","","","","","","","","","","","","","","","","","","","","","","","","","","","","","","","","","","",""
"556","<p style=""color:rgb(150, 250, 100); font-size: 35px;"">他</p>","i","categorize-html","177","286016","0.0-6.0-0.0-8.0-1.34","4","4","4","4","3","4","3","2","4","4","5","4","2","4","4","4","4","3","4","4","1","1","2","1","1","1","1","1","1","1","0","0","0","0","0","1","1","0","1","1","0","1","0","1","5","2","4","3","3","","4","4","5","4","2","696465680169435136","张","112","","","","","","","","","","","","","","","","","","","true","4","4","ability","556","other","他","","","","","","","","","","","","","","","","",""
"null","","null","html-keyboard-response","178","286274","0.0-6.0-0.0-8.0-0.35","4","4","4","4","3","4","3","2","4","4","5","4","2","4","4","4","4","3","4","4","1","1","2","1","1","1","1","1","1","1","0","0","0","0","0","1","1","0","1","1","0","1","0","1","5","2","4","3","3","","4","4","5","4","2","696465680169435136","张","112","","","","","","","","","","","","","","","","","","","","","","","","","","","","","","","","","","","","","","","","","",""
"516","<p style=""color:white; font-size: 35px;"">废物</p>","e","categorize-html","179","286792","0.0-6.0-0.0-8.0-1.35","4","4","4","4","3","4","3","2","4","4","5","4","2","4","4","4","4","3","4","4","1","1","2","1","1","1","1","1","1","1","0","0","0","0","0","1","1","0","1","1","0","1","0","1","5","2","4","3","3","","4","4","5","4","2","696465680169435136","张","112","","","","","","","","","","","","","","","","","","","true","4","4","ability","516","negative","废物","","","","","","","","","","","","","","","","",""
"null","","null","html-keyboard-response","180","287050","0.0-6.0-0.0-8.0-0.36","4","4","4","4","3","4","3","2","4","4","5","4","2","4","4","4","4","3","4","4","1","1","2","1","1","1","1","1","1","1","0","0","0","0","0","1","1","0","1","1","0","1","0","1","5","2","4","3","3","","4","4","5","4","2","696465680169435136","张","112","","","","","","","","","","","","","","","","","","","","","","","","","","","","","","","","","","","","","","","","","",""
"468","<p style=""color:rgb(150, 250, 100); font-size: 35px;"">他人的</p>","i","categorize-html","181","287520","0.0-6.0-0.0-8.0-1.36","4","4","4","4","3","4","3","2","4","4","5","4","2","4","4","4","4","3","4","4","1","1","2","1","1","1","1","1","1","1","0","0","0","0","0","1","1","0","1","1","0","1","0","1","5","2","4","3","3","","4","4","5","4","2","696465680169435136","张","112","","","","","","","","","","","","","","","","","","","true","4","4","ability","468","other","他人的","","","","","","","","","","","","","","","","",""
"null","","null","html-keyboard-response","182","287778","0.0-6.0-0.0-8.0-0.37","4","4","4","4","3","4","3","2","4","4","5","4","2","4","4","4","4","3","4","4","1","1","2","1","1","1","1","1","1","1","0","0","0","0","0","1","1","0","1","1","0","1","0","1","5","2","4","3","3","","4","4","5","4","2","696465680169435136","张","112","","","","","","","","","","","","","","","","","","","","","","","","","","","","","","","","","","","","","","","","","",""
"665","<p style=""color:white; font-size: 35px;"">全能</p>","i","categorize-html","183","288445","0.0-6.0-0.0-8.0-1.37","4","4","4","4","3","4","3","2","4","4","5","4","2","4","4","4","4","3","4","4","1","1","2","1","1","1","1","1","1","1","0","0","0","0","0","1","1","0","1","1","0","1","0","1","5","2","4","3","3","","4","4","5","4","2","696465680169435136","张","112","","","","","","","","","","","","","","","","","","","true","4","4","ability","665","positive","全能","","","","","","","","","","","","","","","","",""
"null","","null","html-keyboard-response","184","288698","0.0-6.0-0.0-8.0-0.38","4","4","4","4","3","4","3","2","4","4","5","4","2","4","4","4","4","3","4","4","1","1","2","1","1","1","1","1","1","1","0","0","0","0","0","1","1","0","1","1","0","1","0","1","5","2","4","3","3","","4","4","5","4","2","696465680169435136","张","112","","","","","","","","","","","","","","","","","","","","","","","","","","","","","","","","","","","","","","","","","",""
"485","<p style=""color:rgb(150, 250, 100); font-size: 35px;"">自己的</p>","e","categorize-html","185","289185","0.0-6.0-0.0-8.0-1.38","4","4","4","4","3","4","3","2","4","4","5","4","2","4","4","4","4","3","4","4","1","1","2","1","1","1","1","1","1","1","0","0","0","0","0","1","1","0","1","1","0","1","0","1","5","2","4","3","3","","4","4","5","4","2","696465680169435136","张","112","","","","","","","","","","","","","","","","","","","true","4","4","ability","485","self","自己的","","","","","","","","","","","","","","","","",""
"null","","null","html-keyboard-response","186","289442","0.0-6.0-0.0-8.0-0.39","4","4","4","4","3","4","3","2","4","4","5","4","2","4","4","4","4","3","4","4","1","1","2","1","1","1","1","1","1","1","0","0","0","0","0","1","1","0","1","1","0","1","0","1","5","2","4","3","3","","4","4","5","4","2","696465680169435136","张","112","","","","","","","","","","","","","","","","","","","","","","","","","","","","","","","","","","","","","","","","","",""
"684","<p style=""color:white; font-size: 35px;"">无能</p>","e","categorize-html","187","290128","0.0-6.0-0.0-8.0-1.39","4","4","4","4","3","4","3","2","4","4","5","4","2","4","4","4","4","3","4","4","1","1","2","1","1","1","1","1","1","1","0","0","0","0","0","1","1","0","1","1","0","1","0","1","5","2","4","3","3","","4","4","5","4","2","696465680169435136","张","112","","","","","","","","","","","","","","","","","","","true","4","4","ability","684","negative","无能","","","","","","","","","","","","","","","","",""
"null","","null","html-keyboard-response","188","290386","0.0-6.0-0.0-8.0-0.40","4","4","4","4","3","4","3","2","4","4","5","4","2","4","4","4","4","3","4","4","1","1","2","1","1","1","1","1","1","1","0","0","0","0","0","1","1","0","1","1","0","1","0","1","5","2","4","3","3","","4","4","5","4","2","696465680169435136","张","112","","","","","","","","","","","","","","","","","","","","","","","","","","","","","","","","","","","","","","","","","",""
"628","<p style=""color:rgb(150, 250, 100); font-size: 35px;"">本人的</p>","i","categorize-html","189","293899","0.0-6.0-0.0-8.0-1.40","4","4","4","4","3","4","3","2","4","4","5","4","2","4","4","4","4","3","4","4","1","1","2","1","1","1","1","1","1","1","0","0","0","0","0","1","1","0","1","1","0","1","0","1","5","2","4","3","3","","4","4","5","4","2","696465680169435136","张","112","","","","","","","","","","","","","","","","","","","false","4","4","ability","1257.7872340425533","self","本人的","","","","","","","","","","","","","","","","",""
"null","","null","html-keyboard-response","190","294154","0.0-6.0-0.0-8.0-0.41","4","4","4","4","3","4","3","2","4","4","5","4","2","4","4","4","4","3","4","4","1","1","2","1","1","1","1","1","1","1","0","0","0","0","0","1","1","0","1","1","0","1","0","1","5","2","4","3","3","","4","4","5","4","2","696465680169435136","张","112","","","","","","","","","","","","","","","","","","","","","","","","","","","","","","","","","","","","","","","","","",""
"657","<p style=""color:white; font-size: 35px;"">精干</p>","i","categorize-html","191","294813","0.0-6.0-0.0-8.0-1.41","4","4","4","4","3","4","3","2","4","4","5","4","2","4","4","4","4","3","4","4","1","1","2","1","1","1","1","1","1","1","0","0","0","0","0","1","1","0","1","1","0","1","0","1","5","2","4","3","3","","4","4","5","4","2","696465680169435136","张","112","","","","","","","","","","","","","","","","","","","true","4","4","ability","657","positive","精干","","","","","","","","","","","","","","","","",""
"null","","null","html-keyboard-response","192","295066","0.0-6.0-0.0-8.0-0.42","4","4","4","4","3","4","3","2","4","4","5","4","2","4","4","4","4","3","4","4","1","1","2","1","1","1","1","1","1","1","0","0","0","0","0","1","1","0","1","1","0","1","0","1","5","2","4","3","3","","4","4","5","4","2","696465680169435136","张","112","","","","","","","","","","","","","","","","","","","","","","","","","","","","","","","","","","","","","","","","","",""
"805","<p style=""color:rgb(150, 250, 100); font-size: 35px;"">他的</p>","i","categorize-html","193","295873","0.0-6.0-0.0-8.0-1.42","4","4","4","4","3","4","3","2","4","4","5","4","2","4","4","4","4","3","4","4","1","1","2","1","1","1","1","1","1","1","0","0","0","0","0","1","1","0","1","1","0","1","0","1","5","2","4","3","3","","4","4","5","4","2","696465680169435136","张","112","","","","","","","","","","","","","","","","","","","true","4","4","ability","805","other","他的","","","","","","","","","","","","","","","","",""
