"rt","stimulus","response","trial_type","trial_index","time_elapsed","internal_node_id","ses_1","ses_2","ses_3","ses_4","ses_5","ses_6","ses_7","ses_8","ses_9","ses_10","coreself_1","coreself_2","coreself_3","coreself_4","coreself_5","coreself_6","coreself_7","coreself_8","coreself_9","coreself_10","SGPS_1","SGPS_2","SGPS_3","SGPS_4","SGPS_5","SGPS_6","SGPS_7","SGPS_8","SGPS_9","NPI1","NPI2","NPI3","NPI4","NPI5","NPI6","NPI7","NPI8","NPI9","NPI10","NPI11","NPI12","NPI13","NPI14","NPI15","hsns_1","hsns_2","hsns_3","hsns_4","hsns_5","trap1","hsns_6","hsns_7","hsns_8","hsns_9","hsns_10","subj_idx","friend_name","ParticipantID","value","success","user_agent","responses","item_order","radio_event_ids","radio_event_times","key_event_times","mouse_event_times","straightlining","zigzagging","honeypot","timeout","failed_images","failed_audio","failed_video","view_history","response_type","key_press","avg_frame_time","center_x","center_y","correct_response","correct","identity","Image","word","condition","task_id","screen_id","time_stamp","version_attrib","version_target","IAT","RT","varname","summary","version_attrib2","version_target2","question_order","correct_answer","trap1_item"
"64980","
   <p><div style = ""color: white;font-size:25px;"">您好，欢迎参加本次实验。</div> </p>
   <p><div style = ""color: white;font-size:25px;"">为充分保障您的权利，请确保您已经知晓并同意《参与实验同意书》以及《数据公开知情同意书》。</div></p>
   <p><div style = ""color: white;font-size:25px;"">如果您未见过上述内容，请咨询实验员。</div></p>
   <p><div style = ""color: white;font-size:25px;"">如果您选择继续实验，则表示您已经清楚两份知情同意书的内容并同意。</div></p>
   <p><div style = ""color: pink;font-size:30px;"">请确保您记得day0的实验编号，您将在本次实验输入该编号，若您忘记，请咨询实验员后作答。</div></p>
   <p><div style = ""color: lightblue;font-size:25px;"">请您尽可能认真地作答，我们将依据您在各问卷和按键任务中的作答质量发放报酬。</div></p>
   <p> <div style = ""color: green;font-size:25px;""><按空格键至下页></div> </p>
   "," ","html-keyboard-response","0","64989","0.0-0.0","2","2","3","2","2","2","2","2","2","2","2","3","2","2","2","2","2","2","2","2","5","4","5","4","4","4","4","2","4","1","0","1","1","0","0","1","1","0","1","1","0","1","0","1","4","5","4","3","4","1","2","3","2","2","2","673239924056522752","刘","624","","","","","","","","","","","","","","","","","","","","","","","","","","","","","","","","","","","","","","","","","",""
"","","","call-function","1","64990","0.0-1.0-0.0","2","2","3","2","2","2","2","2","2","2","2","3","2","2","2","2","2","2","2","2","5","4","5","4","4","4","4","2","4","1","0","1","1","0","0","1","1","0","1","1","0","1","0","1","4","5","4","3","4","1","2","3","2","2","2","673239924056522752","刘","624","","","","","","","","","","","","","","","","","","","","","","","","","","","","","","","","","","","","","","","","","",""
"23028","","{""friend_name"":""刘"",""ParticipantID"":""624""}","survey-html-form","2","88019","0.0-1.0-1.0","2","2","3","2","2","2","2","2","2","2","2","3","2","2","2","2","2","2","2","2","5","4","5","4","4","4","4","2","4","1","0","1","1","0","0","1","1","0","1","1","0","1","0","1","4","5","4","3","4","1","2","3","2","2","2","673239924056522752","刘","624","","","","","","","","","","","","","","","","","","","","","","","","","","","","","","","","","","","","","","","","","",""
"","","","fullscreen","3","122690","0.0-2.0","2","2","3","2","2","2","2","2","2","2","2","3","2","2","2","2","2","2","2","2","5","4","5","4","4","4","4","2","4","1","0","1","1","0","0","1","1","0","1","1","0","1","0","1","4","5","4","3","4","1","2","3","2","2","2","673239924056522752","刘","624","","true","{}","","","","","","","","","","","","","","","","","","","","","","","","","","","","","","","","","","","","","","",""
"24966.900000095367","","{""Q01"":""2"",""Q02"":""2"",""Q03"":""3"",""Q04"":""2"",""Q05"":""2"",""Q06"":""2"",""Q07"":""2"",""Q08"":""2"",""Q09"":""2"",""Q10"":""2""}","survey-template","4","147660","0.0-3.0","2","2","3","2","2","2","2","2","2","2","2","3","2","2","2","2","2","2","2","2","5","4","5","4","4","4","4","2","4","1","0","1","1","0","0","1","1","0","1","1","0","1","0","1","4","5","4","3","4","1","2","3","2","2","2","673239924056522752","刘","624","","","","{""Q01"":""2"",""Q02"":""2"",""Q03"":""3"",""Q04"":""2"",""Q05"":""2"",""Q06"":""2"",""Q07"":""2"",""Q08"":""2"",""Q09"":""2"",""Q10"":""2""}","[0,1,2,3,4,5,6,7,8,9]","[""Q01"",""Q02"",""Q03"",""Q04"",""Q05"",""Q01"",""Q02"",""Q04"",""Q05"",""Q06"",""Q07"",""Q08"",""Q09"",""Q10""]","[3334.7999997138977,6062.5,7566.5,8581.400000095367,9949.699999809265,11597.599999904633,12173.599999904633,14389.599999904633,15262.599999904633,16197.599999904633,17102.099999904633,18478.400000095367,23589.699999809265,24390.199999809265]","[]","[3334.7999997138977,4758.099999904633,5653.299999713898,6062.5,7566.5,8581.400000095367,9949.699999809265,11597.599999904633,12173.599999904633,13325.799999713898,14389.599999904633,15262.599999904633,16197.599999904633,17102.099999904633,18478.400000095367,19638.099999904633,23589.699999809265,24390.199999809265,24965.299999713898]","0.6","0.3333333333333333","0","","","","","","","","","","","","","","","","","","","","","","","","","","","","","",""
"15971.199999809265","","{""Q01"":""2"",""Q02"":""3"",""Q03"":""2"",""Q04"":""2"",""Q05"":""2"",""Q06"":""2"",""Q07"":""2"",""Q08"":""2"",""Q09"":""2"",""Q10"":""2""}","survey-template","5","163637","0.0-4.0","2","2","3","2","2","2","2","2","2","2","2","3","2","2","2","2","2","2","2","2","5","4","5","4","4","4","4","2","4","1","0","1","1","0","0","1","1","0","1","1","0","1","0","1","4","5","4","3","4","1","2","3","2","2","2","673239924056522752","刘","624","","","","{""Q01"":""2"",""Q02"":""3"",""Q03"":""2"",""Q04"":""2"",""Q05"":""2"",""Q06"":""2"",""Q07"":""2"",""Q08"":""2"",""Q09"":""2"",""Q10"":""2""}","[0,1,2,3,4,5,6,7,8,9]","[""Q01"",""Q02"",""Q03"",""Q04"",""Q05"",""Q06"",""Q07"",""Q08"",""Q09"",""Q10""]","[3017.699999809265,4257.800000190735,5521,6721.900000095367,8009.199999809265,9713.800000190735,10592.900000095367,11672.800000190735,13960.900000095367,14904.599999904633]","[]","[3017.699999809265,4257.800000190735,5521,6721.900000095367,8009.199999809265,8762.199999809265,9713.800000190735,10592.900000095367,11672.800000190735,13144.800000190735,13960.900000095367,14904.599999904633,15969.900000095367]","0.5","0.2222222222222222","0","","","","","","","","","","","","","","","","","","","","","","","","","","","","","",""
"","","","preload","6","164246","0.0-5.0","2","2","3","2","2","2","2","2","2","2","2","3","2","2","2","2","2","2","2","2","5","4","5","4","4","4","4","2","4","1","0","1","1","0","0","1","1","0","1","1","0","1","0","1","4","5","4","3","4","1","2","3","2","2","2","673239924056522752","刘","624","","true","","","","","","","","","","","false","[]","[]","[]","","","","","","","","","","","","","","","","","","","","","","","","","",""
"15964","","","instructions","7","180211","0.0-6.0","2","2","3","2","2","2","2","2","2","2","2","3","2","2","2","2","2","2","2","2","5","4","5","4","4","4","4","2","4","1","0","1","1","0","0","1","1","0","1","1","0","1","0","1","4","5","4","3","4","1","2","3","2","2","2","673239924056522752","刘","624","","","","","","","","","","","","","","","","","[{""page_index"":0,""viewing_time"":15964}]","","","","","","","","","","","","","","","","","","","","","","","","",""
"29295","","","instructions","8","209508","0.0-7.0-1.0-0.0","2","2","3","2","2","2","2","2","2","2","2","3","2","2","2","2","2","2","2","2","5","4","5","4","4","4","4","2","4","1","0","1","1","0","0","1","1","0","1","1","0","1","0","1","4","5","4","3","4","1","2","3","2","2","2","673239924056522752","刘","624","","","","","","","","","","","","","","","","","[{""page_index"":0,""viewing_time"":13414},{""page_index"":1,""viewing_time"":13480},{""page_index"":2,""viewing_time"":2400}]","","","","","","","","","","","","","","","","","","","","","","","","",""
"null","","null","psychophysics","9","211713","0.0-7.0-1.0-1.0-0.0-0.0","2","2","3","2","2","2","2","2","2","2","2","3","2","2","2","2","2","2","2","2","5","4","5","4","4","4","4","2","4","1","0","1","1","0","0","1","1","0","1","1","0","1","0","1","4","5","4","3","4","1","2","3","2","2","2","673239924056522752","刘","624","","","","null","","","","","","","","","","","","","","key","null","6.94513880126182","768","428","j","false","nonmatch","img/diamond.png","方形","菱形","ALT1_2","prac_ALT1_2","","","","","","","","","","","",""
"null","<span class='add_' style='color:yellow; font-size: 70px;'> 太慢! </span>","null","html-keyboard-response","10","212215","0.0-7.0-1.0-1.0-0.0-1.0","2","2","3","2","2","2","2","2","2","2","2","3","2","2","2","2","2","2","2","2","5","4","5","4","4","4","4","2","4","1","0","1","1","0","0","1","1","0","1","1","0","1","0","1","4","5","4","3","4","1","2","3","2","2","2","673239924056522752","刘","624","","","","","","","","","","","","","","","","","","","","","","","","","","","","","","feedback_test","","","","","","","","","","","",""
"null","","null","psychophysics","11","214418","0.0-7.0-1.0-1.0-0.0-0.1","2","2","3","2","2","2","2","2","2","2","2","3","2","2","2","2","2","2","2","2","5","4","5","4","4","4","4","2","4","1","0","1","1","0","0","1","1","0","1","1","0","1","0","1","4","5","4","3","4","1","2","3","2","2","2","673239924056522752","刘","624","","","","null","","","","","","","","","","","","","","key","null","6.945025316455687","768","428","f","false","match","img/circle.png","圆形","圆形","ALT1_2","prac_ALT1_2","","","","","","","","","","","",""
"null","<span class='add_' style='color:yellow; font-size: 70px;'> 太慢! </span>","null","html-keyboard-response","12","214920","0.0-7.0-1.0-1.0-0.0-1.1","2","2","3","2","2","2","2","2","2","2","2","3","2","2","2","2","2","2","2","2","5","4","5","4","4","4","4","2","4","1","0","1","1","0","0","1","1","0","1","1","0","1","0","1","4","5","4","3","4","1","2","3","2","2","2","673239924056522752","刘","624","","","","","","","","","","","","","","","","","","","","","","","","","","","","","","feedback_test","","","","","","","","","","","",""
"409","","j","psychophysics","13","216332","0.0-7.0-1.0-1.0-0.0-0.2","2","2","3","2","2","2","2","2","2","2","2","3","2","2","2","2","2","2","2","2","5","4","5","4","4","4","4","2","4","1","0","1","1","0","0","1","1","0","1","1","0","1","0","1","4","5","4","3","4","1","2","3","2","2","2","673239924056522752","刘","624","","","","nonmatch","","","","","","","","","","","","","","key","j","6.944772277227782","768","428","f","false","match","img/pentagon.png","五边","五边","ALT1_2","prac_ALT1_2","","","","","","","","","","","",""
"null","<span style='color:red; font-size: 70px;'>错误! </span>","null","html-keyboard-response","14","216833","0.0-7.0-1.0-1.0-0.0-1.2","2","2","3","2","2","2","2","2","2","2","2","3","2","2","2","2","2","2","2","2","5","4","5","4","4","4","4","2","4","1","0","1","1","0","0","1","1","0","1","1","0","1","0","1","4","5","4","3","4","1","2","3","2","2","2","673239924056522752","刘","624","","","","","","","","","","","","","","","","","","","","","","","","","","","","","","feedback_test","","","","","","","","","","","",""
"433","","j","psychophysics","15","218268","0.0-7.0-1.0-1.0-0.0-0.3","2","2","3","2","2","2","2","2","2","2","2","3","2","2","2","2","2","2","2","2","5","4","5","4","4","4","4","2","4","1","0","1","1","0","0","1","1","0","1","1","0","1","0","1","4","5","4","3","4","1","2","3","2","2","2","673239924056522752","刘","624","","","","nonmatch","","","","","","","","","","","","","","key","j","6.943980582524232","768","428","f","false","match","img/circle.png","圆形","圆形","ALT1_2","prac_ALT1_2","","","","","","","","","","","",""
"null","<span style='color:red; font-size: 70px;'>错误! </span>","null","html-keyboard-response","16","218770","0.0-7.0-1.0-1.0-0.0-1.3","2","2","3","2","2","2","2","2","2","2","2","3","2","2","2","2","2","2","2","2","5","4","5","4","4","4","4","2","4","1","0","1","1","0","0","1","1","0","1","1","0","1","0","1","4","5","4","3","4","1","2","3","2","2","2","673239924056522752","刘","624","","","","","","","","","","","","","","","","","","","","","","","","","","","","","","feedback_test","","","","","","","","","","","",""
"null","","null","psychophysics","17","220973","0.0-7.0-1.0-1.0-0.0-0.4","2","2","3","2","2","2","2","2","2","2","2","3","2","2","2","2","2","2","2","2","5","4","5","4","4","4","4","2","4","1","0","1","1","0","0","1","1","0","1","1","0","1","0","1","4","5","4","3","4","1","2","3","2","2","2","673239924056522752","刘","624","","","","null","","","","","","","","","","","","","","key","null","6.944322784810181","768","428","f","false","match","img/diamond.png","菱形","菱形","ALT1_2","prac_ALT1_2","","","","","","","","","","","",""
"null","<span class='add_' style='color:yellow; font-size: 70px;'> 太慢! </span>","null","html-keyboard-response","18","221475","0.0-7.0-1.0-1.0-0.0-1.4","2","2","3","2","2","2","2","2","2","2","2","3","2","2","2","2","2","2","2","2","5","4","5","4","4","4","4","2","4","1","0","1","1","0","0","1","1","0","1","1","0","1","0","1","4","5","4","3","4","1","2","3","2","2","2","673239924056522752","刘","624","","","","","","","","","","","","","","","","","","","","","","","","","","","","","","feedback_test","","","","","","","","","","","",""
"276","","f","psychophysics","19","222754","0.0-7.0-1.0-1.0-0.0-0.5","2","2","3","2","2","2","2","2","2","2","2","3","2","2","2","2","2","2","2","2","5","4","5","4","4","4","4","2","4","1","0","1","1","0","0","1","1","0","1","1","0","1","0","1","4","5","4","3","4","1","2","3","2","2","2","673239924056522752","刘","624","","","","match","","","","","","","","","","","","","","key","f","6.946513661202183","768","428","j","false","nonmatch","img/diamond.png","五边","菱形","ALT1_2","prac_ALT1_2","","","","","","","","","","","",""
"null","<span style='color:red; font-size: 70px;'>错误! </span>","null","html-keyboard-response","20","223257","0.0-7.0-1.0-1.0-0.0-1.5","2","2","3","2","2","2","2","2","2","2","2","3","2","2","2","2","2","2","2","2","5","4","5","4","4","4","4","2","4","1","0","1","1","0","0","1","1","0","1","1","0","1","0","1","4","5","4","3","4","1","2","3","2","2","2","673239924056522752","刘","624","","","","","","","","","","","","","","","","","","","","","","","","","","","","","","feedback_test","","","","","","","","","","","",""
"397","","f","psychophysics","21","224655","0.0-7.0-1.0-1.0-0.0-0.6","2","2","3","2","2","2","2","2","2","2","2","3","2","2","2","2","2","2","2","2","5","4","5","4","4","4","4","2","4","1","0","1","1","0","0","1","1","0","1","1","0","1","0","1","4","5","4","3","4","1","2","3","2","2","2","673239924056522752","刘","624","","","","match","","","","","","","","","","","","","","key","f","6.943944999999949","768","428","f","true","match","img/pentagon.png","五边","五边","ALT1_2","prac_ALT1_2","","","","","","","","","","","",""
"null","<span style='color:GreenYellow; font-size: 70px;'>正确! </span>","null","html-keyboard-response","22","225157","0.0-7.0-1.0-1.0-0.0-1.6","2","2","3","2","2","2","2","2","2","2","2","3","2","2","2","2","2","2","2","2","5","4","5","4","4","4","4","2","4","1","0","1","1","0","0","1","1","0","1","1","0","1","0","1","4","5","4","3","4","1","2","3","2","2","2","673239924056522752","刘","624","","","","","","","","","","","","","","","","","","","","","","","","","","","","","","feedback_test","","","","","","","","","","","",""
"357","","j","psychophysics","23","226516","0.0-7.0-1.0-1.0-0.0-0.7","2","2","3","2","2","2","2","2","2","2","2","3","2","2","2","2","2","2","2","2","5","4","5","4","4","4","4","2","4","1","0","1","1","0","0","1","1","0","1","1","0","1","0","1","4","5","4","3","4","1","2","3","2","2","2","673239924056522752","刘","624","","","","nonmatch","","","","","","","","","","","","","","key","j","6.9462731958762385","768","428","f","false","match","img/diamond.png","菱形","菱形","ALT1_2","prac_ALT1_2","","","","","","","","","","","",""
"null","<span style='color:red; font-size: 70px;'>错误! </span>","null","html-keyboard-response","24","227018","0.0-7.0-1.0-1.0-0.0-1.7","2","2","3","2","2","2","2","2","2","2","2","3","2","2","2","2","2","2","2","2","5","4","5","4","4","4","4","2","4","1","0","1","1","0","0","1","1","0","1","1","0","1","0","1","4","5","4","3","4","1","2","3","2","2","2","673239924056522752","刘","624","","","","","","","","","","","","","","","","","","","","","","","","","","","","","","feedback_test","","","","","","","","","","","",""
"302","","f","psychophysics","25","228322","0.0-7.0-1.0-1.0-0.0-0.8","2","2","3","2","2","2","2","2","2","2","2","3","2","2","2","2","2","2","2","2","5","4","5","4","4","4","4","2","4","1","0","1","1","0","0","1","1","0","1","1","0","1","0","1","4","5","4","3","4","1","2","3","2","2","2","673239924056522752","刘","624","","","","match","","","","","","","","","","","","","","key","f","6.945225806451642","768","428","f","true","match","img/square.png","方形","方形","ALT1_2","prac_ALT1_2","","","","","","","","","","","",""
"null","<span style='color:GreenYellow; font-size: 70px;'>正确! </span>","null","html-keyboard-response","26","228823","0.0-7.0-1.0-1.0-0.0-1.8","2","2","3","2","2","2","2","2","2","2","2","3","2","2","2","2","2","2","2","2","5","4","5","4","4","4","4","2","4","1","0","1","1","0","0","1","1","0","1","1","0","1","0","1","4","5","4","3","4","1","2","3","2","2","2","673239924056522752","刘","624","","","","","","","","","","","","","","","","","","","","","","","","","","","","","","feedback_test","","","","","","","","","","","",""
"325","","f","psychophysics","27","230150","0.0-7.0-1.0-1.0-0.0-0.9","2","2","3","2","2","2","2","2","2","2","2","3","2","2","2","2","2","2","2","2","5","4","5","4","4","4","4","2","4","1","0","1","1","0","0","1","1","0","1","1","0","1","0","1","4","5","4","3","4","1","2","3","2","2","2","673239924056522752","刘","624","","","","match","","","","","","","","","","","","","","key","f","6.945105263157932","768","428","j","false","nonmatch","img/circle.png","方形","圆形","ALT1_2","prac_ALT1_2","","","","","","","","","","","",""
"null","<span style='color:red; font-size: 70px;'>错误! </span>","null","html-keyboard-response","28","230651","0.0-7.0-1.0-1.0-0.0-1.9","2","2","3","2","2","2","2","2","2","2","2","3","2","2","2","2","2","2","2","2","5","4","5","4","4","4","4","2","4","1","0","1","1","0","0","1","1","0","1","1","0","1","0","1","4","5","4","3","4","1","2","3","2","2","2","673239924056522752","刘","624","","","","","","","","","","","","","","","","","","","","","","","","","","","","","","feedback_test","","","","","","","","","","","",""
"394","","j","psychophysics","29","232047","0.0-7.0-1.0-1.0-0.0-0.10","2","2","3","2","2","2","2","2","2","2","2","3","2","2","2","2","2","2","2","2","5","4","5","4","4","4","4","2","4","1","0","1","1","0","0","1","1","0","1","1","0","1","0","1","4","5","4","3","4","1","2","3","2","2","2","673239924056522752","刘","624","","","","nonmatch","","","","","","","","","","","","","","key","j","6.947344999999914","768","428","f","false","match","img/pentagon.png","五边","五边","ALT1_2","prac_ALT1_2","","","","","","","","","","","",""
"null","<span style='color:red; font-size: 70px;'>错误! </span>","null","html-keyboard-response","30","232549","0.0-7.0-1.0-1.0-0.0-1.10","2","2","3","2","2","2","2","2","2","2","2","3","2","2","2","2","2","2","2","2","5","4","5","4","4","4","4","2","4","1","0","1","1","0","0","1","1","0","1","1","0","1","0","1","4","5","4","3","4","1","2","3","2","2","2","673239924056522752","刘","624","","","","","","","","","","","","","","","","","","","","","","","","","","","","","","feedback_test","","","","","","","","","","","",""
"null","","null","psychophysics","31","234752","0.0-7.0-1.0-1.0-0.0-0.11","2","2","3","2","2","2","2","2","2","2","2","3","2","2","2","2","2","2","2","2","5","4","5","4","4","4","4","2","4","1","0","1","1","0","0","1","1","0","1","1","0","1","0","1","4","5","4","3","4","1","2","3","2","2","2","673239924056522752","刘","624","","","","null","","","","","","","","","","","","","","key","null","6.944984177215161","768","428","j","false","nonmatch","img/circle.png","菱形","圆形","ALT1_2","prac_ALT1_2","","","","","","","","","","","",""
"null","<span class='add_' style='color:yellow; font-size: 70px;'> 太慢! </span>","null","html-keyboard-response","32","235254","0.0-7.0-1.0-1.0-0.0-1.11","2","2","3","2","2","2","2","2","2","2","2","3","2","2","2","2","2","2","2","2","5","4","5","4","4","4","4","2","4","1","0","1","1","0","0","1","1","0","1","1","0","1","0","1","4","5","4","3","4","1","2","3","2","2","2","673239924056522752","刘","624","","","","","","","","","","","","","","","","","","","","","","","","","","","","","","feedback_test","","","","","","","","","","","",""
"454","","f","psychophysics","33","236709","0.0-7.0-1.0-1.0-0.0-0.12","2","2","3","2","2","2","2","2","2","2","2","3","2","2","2","2","2","2","2","2","5","4","5","4","4","4","4","2","4","1","0","1","1","0","0","1","1","0","1","1","0","1","0","1","4","5","4","3","4","1","2","3","2","2","2","673239924056522752","刘","624","","","","match","","","","","","","","","","","","","","key","f","6.946033653846266","768","428","f","true","match","img/square.png","方形","方形","ALT1_2","prac_ALT1_2","","","","","","","","","","","",""
"null","<span style='color:GreenYellow; font-size: 70px;'>正确! </span>","null","html-keyboard-response","34","237211","0.0-7.0-1.0-1.0-0.0-1.12","2","2","3","2","2","2","2","2","2","2","2","3","2","2","2","2","2","2","2","2","5","4","5","4","4","4","4","2","4","1","0","1","1","0","0","1","1","0","1","1","0","1","0","1","4","5","4","3","4","1","2","3","2","2","2","673239924056522752","刘","624","","","","","","","","","","","","","","","","","","","","","","","","","","","","","","feedback_test","","","","","","","","","","","",""
"null","","null","psychophysics","35","239413","0.0-7.0-1.0-1.0-0.0-0.13","2","2","3","2","2","2","2","2","2","2","2","3","2","2","2","2","2","2","2","2","5","4","5","4","4","4","4","2","4","1","0","1","1","0","0","1","1","0","1","1","0","1","0","1","4","5","4","3","4","1","2","3","2","2","2","673239924056522752","刘","624","","","","null","","","","","","","","","","","","","","key","null","6.945167721519018","768","428","j","false","nonmatch","img/circle.png","五边","圆形","ALT1_2","prac_ALT1_2","","","","","","","","","","","",""
"null","<span class='add_' style='color:yellow; font-size: 70px;'> 太慢! </span>","null","html-keyboard-response","36","239914","0.0-7.0-1.0-1.0-0.0-1.13","2","2","3","2","2","2","2","2","2","2","2","3","2","2","2","2","2","2","2","2","5","4","5","4","4","4","4","2","4","1","0","1","1","0","0","1","1","0","1","1","0","1","0","1","4","5","4","3","4","1","2","3","2","2","2","673239924056522752","刘","624","","","","","","","","","","","","","","","","","","","","","","","","","","","","","","feedback_test","","","","","","","","","","","",""
"353","","f","psychophysics","37","241269","0.0-7.0-1.0-1.0-0.0-0.14","2","2","3","2","2","2","2","2","2","2","2","3","2","2","2","2","2","2","2","2","5","4","5","4","4","4","4","2","4","1","0","1","1","0","0","1","1","0","1","1","0","1","0","1","4","5","4","3","4","1","2","3","2","2","2","673239924056522752","刘","624","","","","match","","","","","","","","","","","","","","key","f","6.946180412371177","768","428","j","false","nonmatch","img/pentagon.png","菱形","五边","ALT1_2","prac_ALT1_2","","","","","","","","","","","",""
"null","<span style='color:red; font-size: 70px;'>错误! </span>","null","html-keyboard-response","38","241770","0.0-7.0-1.0-1.0-0.0-1.14","2","2","3","2","2","2","2","2","2","2","2","3","2","2","2","2","2","2","2","2","5","4","5","4","4","4","4","2","4","1","0","1","1","0","0","1","1","0","1","1","0","1","0","1","4","5","4","3","4","1","2","3","2","2","2","673239924056522752","刘","624","","","","","","","","","","","","","","","","","","","","","","","","","","","","","","feedback_test","","","","","","","","","","","",""
"412","","f","psychophysics","39","243184","0.0-7.0-1.0-1.0-0.0-0.15","2","2","3","2","2","2","2","2","2","2","2","3","2","2","2","2","2","2","2","2","5","4","5","4","4","4","4","2","4","1","0","1","1","0","0","1","1","0","1","1","0","1","0","1","4","5","4","3","4","1","2","3","2","2","2","673239924056522752","刘","624","","","","match","","","","","","","","","","","","","","key","f","6.945443349753781","768","428","f","true","match","img/circle.png","圆形","圆形","ALT1_2","prac_ALT1_2","","","","","","","","","","","",""
"null","<span style='color:GreenYellow; font-size: 70px;'>正确! </span>","null","html-keyboard-response","40","243686","0.0-7.0-1.0-1.0-0.0-1.15","2","2","3","2","2","2","2","2","2","2","2","3","2","2","2","2","2","2","2","2","5","4","5","4","4","4","4","2","4","1","0","1","1","0","0","1","1","0","1","1","0","1","0","1","4","5","4","3","4","1","2","3","2","2","2","673239924056522752","刘","624","","","","","","","","","","","","","","","","","","","","","","","","","","","","","","feedback_test","","","","","","","","","","","",""
"348","","f","psychophysics","41","245035","0.0-7.0-1.0-1.0-0.0-0.16","2","2","3","2","2","2","2","2","2","2","2","3","2","2","2","2","2","2","2","2","5","4","5","4","4","4","4","2","4","1","0","1","1","0","0","1","1","0","1","1","0","1","0","1","4","5","4","3","4","1","2","3","2","2","2","673239924056522752","刘","624","","","","match","","","","","","","","","","","","","","key","f","6.944538860103638","768","428","j","false","nonmatch","img/pentagon.png","圆形","五边","ALT1_2","prac_ALT1_2","","","","","","","","","","","",""
"null","<span style='color:red; font-size: 70px;'>错误! </span>","null","html-keyboard-response","42","245536","0.0-7.0-1.0-1.0-0.0-1.16","2","2","3","2","2","2","2","2","2","2","2","3","2","2","2","2","2","2","2","2","5","4","5","4","4","4","4","2","4","1","0","1","1","0","0","1","1","0","1","1","0","1","0","1","4","5","4","3","4","1","2","3","2","2","2","673239924056522752","刘","624","","","","","","","","","","","","","","","","","","","","","","","","","","","","","","feedback_test","","","","","","","","","","","",""
"535","","f","psychophysics","43","247073","0.0-7.0-1.0-1.0-0.0-0.17","2","2","3","2","2","2","2","2","2","2","2","3","2","2","2","2","2","2","2","2","5","4","5","4","4","4","4","2","4","1","0","1","1","0","0","1","1","0","1","1","0","1","0","1","4","5","4","3","4","1","2","3","2","2","2","673239924056522752","刘","624","","","","match","","","","","","","","","","","","","","key","f","6.942999999999963","768","428","j","false","nonmatch","img/square.png","圆形","方形","ALT1_2","prac_ALT1_2","","","","","","","","","","","",""
"null","<span style='color:red; font-size: 70px;'>错误! </span>","null","html-keyboard-response","44","247574","0.0-7.0-1.0-1.0-0.0-1.17","2","2","3","2","2","2","2","2","2","2","2","3","2","2","2","2","2","2","2","2","5","4","5","4","4","4","4","2","4","1","0","1","1","0","0","1","1","0","1","1","0","1","0","1","4","5","4","3","4","1","2","3","2","2","2","673239924056522752","刘","624","","","","","","","","","","","","","","","","","","","","","","","","","","","","","","feedback_test","","","","","","","","","","","",""
"370","","f","psychophysics","45","248946","0.0-7.0-1.0-1.0-0.0-0.18","2","2","3","2","2","2","2","2","2","2","2","3","2","2","2","2","2","2","2","2","5","4","5","4","4","4","4","2","4","1","0","1","1","0","0","1","1","0","1","1","0","1","0","1","4","5","4","3","4","1","2","3","2","2","2","673239924056522752","刘","624","","","","match","","","","","","","","","","","","","","key","f","6.946392857142943","768","428","j","false","nonmatch","img/pentagon.png","方形","五边","ALT1_2","prac_ALT1_2","","","","","","","","","","","",""
"null","<span style='color:red; font-size: 70px;'>错误! </span>","null","html-keyboard-response","46","249448","0.0-7.0-1.0-1.0-0.0-1.18","2","2","3","2","2","2","2","2","2","2","2","3","2","2","2","2","2","2","2","2","5","4","5","4","4","4","4","2","4","1","0","1","1","0","0","1","1","0","1","1","0","1","0","1","4","5","4","3","4","1","2","3","2","2","2","673239924056522752","刘","624","","","","","","","","","","","","","","","","","","","","","","","","","","","","","","feedback_test","","","","","","","","","","","",""
"393","","f","psychophysics","47","250843","0.0-7.0-1.0-1.0-0.0-0.19","2","2","3","2","2","2","2","2","2","2","2","3","2","2","2","2","2","2","2","2","5","4","5","4","4","4","4","2","4","1","0","1","1","0","0","1","1","0","1","1","0","1","0","1","4","5","4","3","4","1","2","3","2","2","2","673239924056522752","刘","624","","","","match","","","","","","","","","","","","","","key","f","6.946030000000028","768","428","j","false","nonmatch","img/square.png","菱形","方形","ALT1_2","prac_ALT1_2","","","","","","","","","","","",""
"null","<span style='color:red; font-size: 70px;'>错误! </span>","null","html-keyboard-response","48","251344","0.0-7.0-1.0-1.0-0.0-1.19","2","2","3","2","2","2","2","2","2","2","2","3","2","2","2","2","2","2","2","2","5","4","5","4","4","4","4","2","4","1","0","1","1","0","0","1","1","0","1","1","0","1","0","1","4","5","4","3","4","1","2","3","2","2","2","673239924056522752","刘","624","","","","","","","","","","","","","","","","","","","","","","","","","","","","","","feedback_test","","","","","","","","","","","",""
"361","","f","psychophysics","49","252707","0.0-7.0-1.0-1.0-0.0-0.20","2","2","3","2","2","2","2","2","2","2","2","3","2","2","2","2","2","2","2","2","5","4","5","4","4","4","4","2","4","1","0","1","1","0","0","1","1","0","1","1","0","1","0","1","4","5","4","3","4","1","2","3","2","2","2","673239924056522752","刘","624","","","","match","","","","","","","","","","","","","","key","f","6.9444615384614545","768","428","f","true","match","img/diamond.png","菱形","菱形","ALT1_2","prac_ALT1_2","","","","","","","","","","","",""
"null","<span style='color:GreenYellow; font-size: 70px;'>正确! </span>","null","html-keyboard-response","50","253209","0.0-7.0-1.0-1.0-0.0-1.20","2","2","3","2","2","2","2","2","2","2","2","3","2","2","2","2","2","2","2","2","5","4","5","4","4","4","4","2","4","1","0","1","1","0","0","1","1","0","1","1","0","1","0","1","4","5","4","3","4","1","2","3","2","2","2","673239924056522752","刘","624","","","","","","","","","","","","","","","","","","","","","","","","","","","","","","feedback_test","","","","","","","","","","","",""
"402","","j","psychophysics","51","254613","0.0-7.0-1.0-1.0-0.0-0.21","2","2","3","2","2","2","2","2","2","2","2","3","2","2","2","2","2","2","2","2","5","4","5","4","4","4","4","2","4","1","0","1","1","0","0","1","1","0","1","1","0","1","0","1","4","5","4","3","4","1","2","3","2","2","2","673239924056522752","刘","624","","","","nonmatch","","","","","","","","","","","","","","key","j","6.943735000000015","768","428","j","true","nonmatch","img/diamond.png","圆形","菱形","ALT1_2","prac_ALT1_2","","","","","","","","","","","",""
"null","<span style='color:GreenYellow; font-size: 70px;'>正确! </span>","null","html-keyboard-response","52","255115","0.0-7.0-1.0-1.0-0.0-1.21","2","2","3","2","2","2","2","2","2","2","2","3","2","2","2","2","2","2","2","2","5","4","5","4","4","4","4","2","4","1","0","1","1","0","0","1","1","0","1","1","0","1","0","1","4","5","4","3","4","1","2","3","2","2","2","673239924056522752","刘","624","","","","","","","","","","","","","","","","","","","","","","","","","","","","","","feedback_test","","","","","","","","","","","",""
"371","","f","psychophysics","53","256487","0.0-7.0-1.0-1.0-0.0-0.22","2","2","3","2","2","2","2","2","2","2","2","3","2","2","2","2","2","2","2","2","5","4","5","4","4","4","4","2","4","1","0","1","1","0","0","1","1","0","1","1","0","1","0","1","4","5","4","3","4","1","2","3","2","2","2","673239924056522752","刘","624","","","","match","","","","","","","","","","","","","","key","f","6.944739795918339","768","428","f","true","match","img/square.png","方形","方形","ALT1_2","prac_ALT1_2","","","","","","","","","","","",""
"null","<span style='color:GreenYellow; font-size: 70px;'>正确! </span>","null","html-keyboard-response","54","256988","0.0-7.0-1.0-1.0-0.0-1.22","2","2","3","2","2","2","2","2","2","2","2","3","2","2","2","2","2","2","2","2","5","4","5","4","4","4","4","2","4","1","0","1","1","0","0","1","1","0","1","1","0","1","0","1","4","5","4","3","4","1","2","3","2","2","2","673239924056522752","刘","624","","","","","","","","","","","","","","","","","","","","","","","","","","","","","","feedback_test","","","","","","","","","","","",""
"582","","j","psychophysics","55","258573","0.0-7.0-1.0-1.0-0.0-0.23","2","2","3","2","2","2","2","2","2","2","2","3","2","2","2","2","2","2","2","2","5","4","5","4","4","4","4","2","4","1","0","1","1","0","0","1","1","0","1","1","0","1","0","1","4","5","4","3","4","1","2","3","2","2","2","673239924056522752","刘","624","","","","nonmatch","","","","","","","","","","","","","","key","j","6.945273127753261","768","428","j","true","nonmatch","img/square.png","五边","方形","ALT1_2","prac_ALT1_2","","","","","","","","","","","",""
"null","<span style='color:GreenYellow; font-size: 70px;'>正确! </span>","null","html-keyboard-response","56","259074","0.0-7.0-1.0-1.0-0.0-1.23","2","2","3","2","2","2","2","2","2","2","2","3","2","2","2","2","2","2","2","2","5","4","5","4","4","4","4","2","4","1","0","1","1","0","0","1","1","0","1","1","0","1","0","1","4","5","4","3","4","1","2","3","2","2","2","673239924056522752","刘","624","","","","","","","","","","","","","","","","","","","","","","","","","","","","","","feedback_test","","","","","","","","","","","",""
"278","","f","psychophysics","57","260355","0.0-7.0-1.0-1.0-0.0-0.24","2","2","3","2","2","2","2","2","2","2","2","3","2","2","2","2","2","2","2","2","5","4","5","4","4","4","4","2","4","1","0","1","1","0","0","1","1","0","1","1","0","1","0","1","4","5","4","3","4","1","2","3","2","2","2","673239924056522752","刘","624","","","","match","","","","","","","","","","","","","","key","f","6.9448797814206085","768","428","f","true","match","img/diamond.png","菱形","菱形","ALT1_2","prac_ALT1_2","","","","","","","","","","","",""
"null","<span style='color:GreenYellow; font-size: 70px;'>正确! </span>","null","html-keyboard-response","58","260856","0.0-7.0-1.0-1.0-0.0-1.24","2","2","3","2","2","2","2","2","2","2","2","3","2","2","2","2","2","2","2","2","5","4","5","4","4","4","4","2","4","1","0","1","1","0","0","1","1","0","1","1","0","1","0","1","4","5","4","3","4","1","2","3","2","2","2","673239924056522752","刘","624","","","","","","","","","","","","","","","","","","","","","","","","","","","","","","feedback_test","","","","","","","","","","","",""
"285","","f","psychophysics","59","262142","0.0-7.0-1.0-1.0-0.0-0.25","2","2","3","2","2","2","2","2","2","2","2","3","2","2","2","2","2","2","2","2","5","4","5","4","4","4","4","2","4","1","0","1","1","0","0","1","1","0","1","1","0","1","0","1","4","5","4","3","4","1","2","3","2","2","2","673239924056522752","刘","624","","","","match","","","","","","","","","","","","","","key","f","6.945923913043731","768","428","j","false","nonmatch","img/circle.png","菱形","圆形","ALT1_2","prac_ALT1_2","","","","","","","","","","","",""
"null","<span style='color:red; font-size: 70px;'>错误! </span>","null","html-keyboard-response","60","262645","0.0-7.0-1.0-1.0-0.0-1.25","2","2","3","2","2","2","2","2","2","2","2","3","2","2","2","2","2","2","2","2","5","4","5","4","4","4","4","2","4","1","0","1","1","0","0","1","1","0","1","1","0","1","0","1","4","5","4","3","4","1","2","3","2","2","2","673239924056522752","刘","624","","","","","","","","","","","","","","","","","","","","","","","","","","","","","","feedback_test","","","","","","","","","","","",""
"378","","f","psychophysics","61","264025","0.0-7.0-1.0-1.0-0.0-0.26","2","2","3","2","2","2","2","2","2","2","2","3","2","2","2","2","2","2","2","2","5","4","5","4","4","4","4","2","4","1","0","1","1","0","0","1","1","0","1","1","0","1","0","1","4","5","4","3","4","1","2","3","2","2","2","673239924056522752","刘","624","","","","match","","","","","","","","","","","","","","key","f","6.945671717171508","768","428","f","true","match","img/diamond.png","菱形","菱形","ALT1_2","prac_ALT1_2","","","","","","","","","","","",""
"null","<span style='color:GreenYellow; font-size: 70px;'>正确! </span>","null","html-keyboard-response","62","264526","0.0-7.0-1.0-1.0-0.0-1.26","2","2","3","2","2","2","2","2","2","2","2","3","2","2","2","2","2","2","2","2","5","4","5","4","4","4","4","2","4","1","0","1","1","0","0","1","1","0","1","1","0","1","0","1","4","5","4","3","4","1","2","3","2","2","2","673239924056522752","刘","624","","","","","","","","","","","","","","","","","","","","","","","","","","","","","","feedback_test","","","","","","","","","","","",""
"398","","j","psychophysics","63","265925","0.0-7.0-1.0-1.0-0.0-0.27","2","2","3","2","2","2","2","2","2","2","2","3","2","2","2","2","2","2","2","2","5","4","5","4","4","4","4","2","4","1","0","1","1","0","0","1","1","0","1","1","0","1","0","1","4","5","4","3","4","1","2","3","2","2","2","673239924056522752","刘","624","","","","nonmatch","","","","","","","","","","","","","","key","j","6.943555000000051","768","428","f","false","match","img/circle.png","圆形","圆形","ALT1_2","prac_ALT1_2","","","","","","","","","","","",""
"null","<span style='color:red; font-size: 70px;'>错误! </span>","null","html-keyboard-response","64","266426","0.0-7.0-1.0-1.0-0.0-1.27","2","2","3","2","2","2","2","2","2","2","2","3","2","2","2","2","2","2","2","2","5","4","5","4","4","4","4","2","4","1","0","1","1","0","0","1","1","0","1","1","0","1","0","1","4","5","4","3","4","1","2","3","2","2","2","673239924056522752","刘","624","","","","","","","","","","","","","","","","","","","","","","","","","","","","","","feedback_test","","","","","","","","","","","",""
"366","","f","psychophysics","65","267795","0.0-7.0-1.0-1.0-0.0-0.28","2","2","3","2","2","2","2","2","2","2","2","3","2","2","2","2","2","2","2","2","5","4","5","4","4","4","4","2","4","1","0","1","1","0","0","1","1","0","1","1","0","1","0","1","4","5","4","3","4","1","2","3","2","2","2","673239924056522752","刘","624","","","","match","","","","","","","","","","","","","","key","f","6.946173469387815","768","428","f","true","match","img/circle.png","圆形","圆形","ALT1_2","prac_ALT1_2","","","","","","","","","","","",""
"null","<span style='color:GreenYellow; font-size: 70px;'>正确! </span>","null","html-keyboard-response","66","268296","0.0-7.0-1.0-1.0-0.0-1.28","2","2","3","2","2","2","2","2","2","2","2","3","2","2","2","2","2","2","2","2","5","4","5","4","4","4","4","2","4","1","0","1","1","0","0","1","1","0","1","1","0","1","0","1","4","5","4","3","4","1","2","3","2","2","2","673239924056522752","刘","624","","","","","","","","","","","","","","","","","","","","","","","","","","","","","","feedback_test","","","","","","","","","","","",""
"363","","f","psychophysics","67","269661","0.0-7.0-1.0-1.0-0.0-0.29","2","2","3","2","2","2","2","2","2","2","2","3","2","2","2","2","2","2","2","2","5","4","5","4","4","4","4","2","4","1","0","1","1","0","0","1","1","0","1","1","0","1","0","1","4","5","4","3","4","1","2","3","2","2","2","673239924056522752","刘","624","","","","match","","","","","","","","","","","","","","key","f","6.9453076923078","768","428","j","false","nonmatch","img/square.png","五边","方形","ALT1_2","prac_ALT1_2","","","","","","","","","","","",""
"null","<span style='color:red; font-size: 70px;'>错误! </span>","null","html-keyboard-response","68","270163","0.0-7.0-1.0-1.0-0.0-1.29","2","2","3","2","2","2","2","2","2","2","2","3","2","2","2","2","2","2","2","2","5","4","5","4","4","4","4","2","4","1","0","1","1","0","0","1","1","0","1","1","0","1","0","1","4","5","4","3","4","1","2","3","2","2","2","673239924056522752","刘","624","","","","","","","","","","","","","","","","","","","","","","","","","","","","","","feedback_test","","","","","","","","","","","",""
"338","","f","psychophysics","69","271501","0.0-7.0-1.0-1.0-0.0-0.30","2","2","3","2","2","2","2","2","2","2","2","3","2","2","2","2","2","2","2","2","5","4","5","4","4","4","4","2","4","1","0","1","1","0","0","1","1","0","1","1","0","1","0","1","4","5","4","3","4","1","2","3","2","2","2","673239924056522752","刘","624","","","","match","","","","","","","","","","","","","","key","f","6.945999999999931","768","428","f","true","match","img/pentagon.png","五边","五边","ALT1_2","prac_ALT1_2","","","","","","","","","","","",""
"null","<span style='color:GreenYellow; font-size: 70px;'>正确! </span>","null","html-keyboard-response","70","272002","0.0-7.0-1.0-1.0-0.0-1.30","2","2","3","2","2","2","2","2","2","2","2","3","2","2","2","2","2","2","2","2","5","4","5","4","4","4","4","2","4","1","0","1","1","0","0","1","1","0","1","1","0","1","0","1","4","5","4","3","4","1","2","3","2","2","2","673239924056522752","刘","624","","","","","","","","","","","","","","","","","","","","","","","","","","","","","","feedback_test","","","","","","","","","","","",""
"360","","f","psychophysics","71","273365","0.0-7.0-1.0-1.0-0.0-0.31","2","2","3","2","2","2","2","2","2","2","2","3","2","2","2","2","2","2","2","2","5","4","5","4","4","4","4","2","4","1","0","1","1","0","0","1","1","0","1","1","0","1","0","1","4","5","4","3","4","1","2","3","2","2","2","673239924056522752","刘","624","","","","match","","","","","","","","","","","","","","key","f","6.9459025641025685","768","428","j","false","nonmatch","img/diamond.png","五边","菱形","ALT1_2","prac_ALT1_2","","","","","","","","","","","",""
"null","<span style='color:red; font-size: 70px;'>错误! </span>","null","html-keyboard-response","72","273866","0.0-7.0-1.0-1.0-0.0-1.31","2","2","3","2","2","2","2","2","2","2","2","3","2","2","2","2","2","2","2","2","5","4","5","4","4","4","4","2","4","1","0","1","1","0","0","1","1","0","1","1","0","1","0","1","4","5","4","3","4","1","2","3","2","2","2","673239924056522752","刘","624","","","","","","","","","","","","","","","","","","","","","","","","","","","","","","feedback_test","","","","","","","","","","","",""
"363","","f","psychophysics","73","275231","0.0-7.0-1.0-1.0-0.0-0.32","2","2","3","2","2","2","2","2","2","2","2","3","2","2","2","2","2","2","2","2","5","4","5","4","4","4","4","2","4","1","0","1","1","0","0","1","1","0","1","1","0","1","0","1","4","5","4","3","4","1","2","3","2","2","2","673239924056522752","刘","624","","","","match","","","","","","","","","","","","","","key","f","6.9444410256411615","768","428","j","false","nonmatch","img/pentagon.png","圆形","五边","ALT1_2","prac_ALT1_2","","","","","","","","","","","",""
"null","<span style='color:red; font-size: 70px;'>错误! </span>","null","html-keyboard-response","74","275732","0.0-7.0-1.0-1.0-0.0-1.32","2","2","3","2","2","2","2","2","2","2","2","3","2","2","2","2","2","2","2","2","5","4","5","4","4","4","4","2","4","1","0","1","1","0","0","1","1","0","1","1","0","1","0","1","4","5","4","3","4","1","2","3","2","2","2","673239924056522752","刘","624","","","","","","","","","","","","","","","","","","","","","","","","","","","","","","feedback_test","","","","","","","","","","","",""
"null","","null","psychophysics","75","277935","0.0-7.0-1.0-1.0-0.0-0.33","2","2","3","2","2","2","2","2","2","2","2","3","2","2","2","2","2","2","2","2","5","4","5","4","4","4","4","2","4","1","0","1","1","0","0","1","1","0","1","1","0","1","0","1","4","5","4","3","4","1","2","3","2","2","2","673239924056522752","刘","624","","","","null","","","","","","","","","","","","","","key","null","6.944895569620252","768","428","j","false","nonmatch","img/diamond.png","方形","菱形","ALT1_2","prac_ALT1_2","","","","","","","","","","","",""
"null","<span class='add_' style='color:yellow; font-size: 70px;'> 太慢! </span>","null","html-keyboard-response","76","278437","0.0-7.0-1.0-1.0-0.0-1.33","2","2","3","2","2","2","2","2","2","2","2","3","2","2","2","2","2","2","2","2","5","4","5","4","4","4","4","2","4","1","0","1","1","0","0","1","1","0","1","1","0","1","0","1","4","5","4","3","4","1","2","3","2","2","2","673239924056522752","刘","624","","","","","","","","","","","","","","","","","","","","","","","","","","","","","","feedback_test","","","","","","","","","","","",""
"526","","j","psychophysics","77","279964","0.0-7.0-1.0-1.0-0.0-0.34","2","2","3","2","2","2","2","2","2","2","2","3","2","2","2","2","2","2","2","2","5","4","5","4","4","4","4","2","4","1","0","1","1","0","0","1","1","0","1","1","0","1","0","1","4","5","4","3","4","1","2","3","2","2","2","673239924056522752","刘","624","","","","nonmatch","","","","","","","","","","","","","","key","j","6.944808219178085","768","428","j","true","nonmatch","img/pentagon.png","菱形","五边","ALT1_2","prac_ALT1_2","","","","","","","","","","","",""
"null","<span style='color:GreenYellow; font-size: 70px;'>正确! </span>","null","html-keyboard-response","78","280466","0.0-7.0-1.0-1.0-0.0-1.34","2","2","3","2","2","2","2","2","2","2","2","3","2","2","2","2","2","2","2","2","5","4","5","4","4","4","4","2","4","1","0","1","1","0","0","1","1","0","1","1","0","1","0","1","4","5","4","3","4","1","2","3","2","2","2","673239924056522752","刘","624","","","","","","","","","","","","","","","","","","","","","","","","","","","","","","feedback_test","","","","","","","","","","","",""
"509","","j","psychophysics","79","281976","0.0-7.0-1.0-1.0-0.0-0.35","2","2","3","2","2","2","2","2","2","2","2","3","2","2","2","2","2","2","2","2","5","4","5","4","4","4","4","2","4","1","0","1","1","0","0","1","1","0","1","1","0","1","0","1","4","5","4","3","4","1","2","3","2","2","2","673239924056522752","刘","624","","","","nonmatch","","","","","","","","","","","","","","key","j","6.9459120370369485","768","428","j","true","nonmatch","img/diamond.png","圆形","菱形","ALT1_2","prac_ALT1_2","","","","","","","","","","","",""
"null","<span style='color:GreenYellow; font-size: 70px;'>正确! </span>","null","html-keyboard-response","80","282477","0.0-7.0-1.0-1.0-0.0-1.35","2","2","3","2","2","2","2","2","2","2","2","3","2","2","2","2","2","2","2","2","5","4","5","4","4","4","4","2","4","1","0","1","1","0","0","1","1","0","1","1","0","1","0","1","4","5","4","3","4","1","2","3","2","2","2","673239924056522752","刘","624","","","","","","","","","","","","","","","","","","","","","","","","","","","","","","feedback_test","","","","","","","","","","","",""
"387","","j","psychophysics","81","283866","0.0-7.0-1.0-1.0-0.0-0.36","2","2","3","2","2","2","2","2","2","2","2","3","2","2","2","2","2","2","2","2","5","4","5","4","4","4","4","2","4","1","0","1","1","0","0","1","1","0","1","1","0","1","0","1","4","5","4","3","4","1","2","3","2","2","2","673239924056522752","刘","624","","","","nonmatch","","","","","","","","","","","","","","key","j","6.94579396984919","768","428","f","false","match","img/square.png","方形","方形","ALT1_2","prac_ALT1_2","","","","","","","","","","","",""
"null","<span style='color:red; font-size: 70px;'>错误! </span>","null","html-keyboard-response","82","284368","0.0-7.0-1.0-1.0-0.0-1.36","2","2","3","2","2","2","2","2","2","2","2","3","2","2","2","2","2","2","2","2","5","4","5","4","4","4","4","2","4","1","0","1","1","0","0","1","1","0","1","1","0","1","0","1","4","5","4","3","4","1","2","3","2","2","2","673239924056522752","刘","624","","","","","","","","","","","","","","","","","","","","","","","","","","","","","","feedback_test","","","","","","","","","","","",""
"632","","f","psychophysics","83","286001","0.0-7.0-1.0-1.0-0.0-0.37","2","2","3","2","2","2","2","2","2","2","2","3","2","2","2","2","2","2","2","2","5","4","5","4","4","4","4","2","4","1","0","1","1","0","0","1","1","0","1","1","0","1","0","1","4","5","4","3","4","1","2","3","2","2","2","673239924056522752","刘","624","","","","match","","","","","","","","","","","","","","key","f","6.945551282051367","768","428","f","true","match","img/diamond.png","菱形","菱形","ALT1_2","prac_ALT1_2","","","","","","","","","","","",""
"null","<span style='color:GreenYellow; font-size: 70px;'>正确! </span>","null","html-keyboard-response","84","286502","0.0-7.0-1.0-1.0-0.0-1.37","2","2","3","2","2","2","2","2","2","2","2","3","2","2","2","2","2","2","2","2","5","4","5","4","4","4","4","2","4","1","0","1","1","0","0","1","1","0","1","1","0","1","0","1","4","5","4","3","4","1","2","3","2","2","2","673239924056522752","刘","624","","","","","","","","","","","","","","","","","","","","","","","","","","","","","","feedback_test","","","","","","","","","","","",""
"373","","f","psychophysics","85","287877","0.0-7.0-1.0-1.0-0.0-0.38","2","2","3","2","2","2","2","2","2","2","2","3","2","2","2","2","2","2","2","2","5","4","5","4","4","4","4","2","4","1","0","1","1","0","0","1","1","0","1","1","0","1","0","1","4","5","4","3","4","1","2","3","2","2","2","673239924056522752","刘","624","","","","match","","","","","","","","","","","","","","key","f","6.946306122449103","768","428","f","true","match","img/square.png","方形","方形","ALT1_2","prac_ALT1_2","","","","","","","","","","","",""
"null","<span style='color:GreenYellow; font-size: 70px;'>正确! </span>","null","html-keyboard-response","86","288378","0.0-7.0-1.0-1.0-0.0-1.38","2","2","3","2","2","2","2","2","2","2","2","3","2","2","2","2","2","2","2","2","5","4","5","4","4","4","4","2","4","1","0","1","1","0","0","1","1","0","1","1","0","1","0","1","4","5","4","3","4","1","2","3","2","2","2","673239924056522752","刘","624","","","","","","","","","","","","","","","","","","","","","","","","","","","","","","feedback_test","","","","","","","","","","","",""
"422","","f","psychophysics","87","289803","0.0-7.0-1.0-1.0-0.0-0.39","2","2","3","2","2","2","2","2","2","2","2","3","2","2","2","2","2","2","2","2","5","4","5","4","4","4","4","2","4","1","0","1","1","0","0","1","1","0","1","1","0","1","0","1","4","5","4","3","4","1","2","3","2","2","2","673239924056522752","刘","624","","","","match","","","","","","","","","","","","","","key","f","6.946107843137225","768","428","f","true","match","img/square.png","方形","方形","ALT1_2","prac_ALT1_2","","","","","","","","","","","",""
"null","<span style='color:GreenYellow; font-size: 70px;'>正确! </span>","null","html-keyboard-response","88","290304","0.0-7.0-1.0-1.0-0.0-1.39","2","2","3","2","2","2","2","2","2","2","2","3","2","2","2","2","2","2","2","2","5","4","5","4","4","4","4","2","4","1","0","1","1","0","0","1","1","0","1","1","0","1","0","1","4","5","4","3","4","1","2","3","2","2","2","673239924056522752","刘","624","","","","","","","","","","","","","","","","","","","","","","","","","","","","","","feedback_test","","","","","","","","","","","",""
"413","","f","psychophysics","89","291718","0.0-7.0-1.0-1.0-0.0-0.40","2","2","3","2","2","2","2","2","2","2","2","3","2","2","2","2","2","2","2","2","5","4","5","4","4","4","4","2","4","1","0","1","1","0","0","1","1","0","1","1","0","1","0","1","4","5","4","3","4","1","2","3","2","2","2","673239924056522752","刘","624","","","","match","","","","","","","","","","","","","","key","f","6.944103448275818","768","428","f","true","match","img/pentagon.png","五边","五边","ALT1_2","prac_ALT1_2","","","","","","","","","","","",""
"null","<span style='color:GreenYellow; font-size: 70px;'>正确! </span>","null","html-keyboard-response","90","292220","0.0-7.0-1.0-1.0-0.0-1.40","2","2","3","2","2","2","2","2","2","2","2","3","2","2","2","2","2","2","2","2","5","4","5","4","4","4","4","2","4","1","0","1","1","0","0","1","1","0","1","1","0","1","0","1","4","5","4","3","4","1","2","3","2","2","2","673239924056522752","刘","624","","","","","","","","","","","","","","","","","","","","","","","","","","","","","","feedback_test","","","","","","","","","","","",""
"487","","f","psychophysics","91","293709","0.0-7.0-1.0-1.0-0.0-0.41","2","2","3","2","2","2","2","2","2","2","2","3","2","2","2","2","2","2","2","2","5","4","5","4","4","4","4","2","4","1","0","1","1","0","0","1","1","0","1","1","0","1","0","1","4","5","4","3","4","1","2","3","2","2","2","673239924056522752","刘","624","","","","match","","","","","","","","","","","","","","key","f","6.94547887323938","768","428","f","true","match","img/pentagon.png","五边","五边","ALT1_2","prac_ALT1_2","","","","","","","","","","","",""
"null","<span style='color:GreenYellow; font-size: 70px;'>正确! </span>","null","html-keyboard-response","92","294211","0.0-7.0-1.0-1.0-0.0-1.41","2","2","3","2","2","2","2","2","2","2","2","3","2","2","2","2","2","2","2","2","5","4","5","4","4","4","4","2","4","1","0","1","1","0","0","1","1","0","1","1","0","1","0","1","4","5","4","3","4","1","2","3","2","2","2","673239924056522752","刘","624","","","","","","","","","","","","","","","","","","","","","","","","","","","","","","feedback_test","","","","","","","","","","","",""
"425","","f","psychophysics","93","295639","0.0-7.0-1.0-1.0-0.0-0.42","2","2","3","2","2","2","2","2","2","2","2","3","2","2","2","2","2","2","2","2","5","4","5","4","4","4","4","2","4","1","0","1","1","0","0","1","1","0","1","1","0","1","0","1","4","5","4","3","4","1","2","3","2","2","2","673239924056522752","刘","624","","","","match","","","","","","","","","","","","","","key","f","6.945764705882289","768","428","j","false","nonmatch","img/square.png","菱形","方形","ALT1_2","prac_ALT1_2","","","","","","","","","","","",""
"null","<span style='color:red; font-size: 70px;'>错误! </span>","null","html-keyboard-response","94","296140","0.0-7.0-1.0-1.0-0.0-1.42","2","2","3","2","2","2","2","2","2","2","2","3","2","2","2","2","2","2","2","2","5","4","5","4","4","4","4","2","4","1","0","1","1","0","0","1","1","0","1","1","0","1","0","1","4","5","4","3","4","1","2","3","2","2","2","673239924056522752","刘","624","","","","","","","","","","","","","","","","","","","","","","","","","","","","","","feedback_test","","","","","","","","","","","",""
"483","","f","psychophysics","95","297625","0.0-7.0-1.0-1.0-0.0-0.43","2","2","3","2","2","2","2","2","2","2","2","3","2","2","2","2","2","2","2","2","5","4","5","4","4","4","4","2","4","1","0","1","1","0","0","1","1","0","1","1","0","1","0","1","4","5","4","3","4","1","2","3","2","2","2","673239924056522752","刘","624","","","","match","","","","","","","","","","","","","","key","f","6.945207547169631","768","428","j","false","nonmatch","img/pentagon.png","方形","五边","ALT1_2","prac_ALT1_2","","","","","","","","","","","",""
"null","<span style='color:red; font-size: 70px;'>错误! </span>","null","html-keyboard-response","96","298126","0.0-7.0-1.0-1.0-0.0-1.43","2","2","3","2","2","2","2","2","2","2","2","3","2","2","2","2","2","2","2","2","5","4","5","4","4","4","4","2","4","1","0","1","1","0","0","1","1","0","1","1","0","1","0","1","4","5","4","3","4","1","2","3","2","2","2","673239924056522752","刘","624","","","","","","","","","","","","","","","","","","","","","","","","","","","","","","feedback_test","","","","","","","","","","","",""
"711","","f","psychophysics","97","299838","0.0-7.0-1.0-1.0-0.0-0.44","2","2","3","2","2","2","2","2","2","2","2","3","2","2","2","2","2","2","2","2","5","4","5","4","4","4","4","2","4","1","0","1","1","0","0","1","1","0","1","1","0","1","0","1","4","5","4","3","4","1","2","3","2","2","2","673239924056522752","刘","624","","","","match","","","","","","","","","","","","","","key","f","6.9449346938773955","768","428","j","false","nonmatch","img/circle.png","五边","圆形","ALT1_2","prac_ALT1_2","","","","","","","","","","","",""
"null","<span style='color:red; font-size: 70px;'>错误! </span>","null","html-keyboard-response","98","300340","0.0-7.0-1.0-1.0-0.0-1.44","2","2","3","2","2","2","2","2","2","2","2","3","2","2","2","2","2","2","2","2","5","4","5","4","4","4","4","2","4","1","0","1","1","0","0","1","1","0","1","1","0","1","0","1","4","5","4","3","4","1","2","3","2","2","2","673239924056522752","刘","624","","","","","","","","","","","","","","","","","","","","","","","","","","","","","","feedback_test","","","","","","","","","","","",""
"1086","","j","psychophysics","99","302428","0.0-7.0-1.0-1.0-0.0-0.45","2","2","3","2","2","2","2","2","2","2","2","3","2","2","2","2","2","2","2","2","5","4","5","4","4","4","4","2","4","1","0","1","1","0","0","1","1","0","1","1","0","1","0","1","4","5","4","3","4","1","2","3","2","2","2","673239924056522752","刘","624","","","","nonmatch","","","","","","","","","","","","","","key","j","6.944483333333435","768","428","j","true","nonmatch","img/square.png","圆形","方形","ALT1_2","prac_ALT1_2","","","","","","","","","","","",""
"null","<span style='color:GreenYellow; font-size: 70px;'>正确! </span>","null","html-keyboard-response","100","302929","0.0-7.0-1.0-1.0-0.0-1.45","2","2","3","2","2","2","2","2","2","2","2","3","2","2","2","2","2","2","2","2","5","4","5","4","4","4","4","2","4","1","0","1","1","0","0","1","1","0","1","1","0","1","0","1","4","5","4","3","4","1","2","3","2","2","2","673239924056522752","刘","624","","","","","","","","","","","","","","","","","","","","","","","","","","","","","","feedback_test","","","","","","","","","","","",""
"504","","f","psychophysics","101","304437","0.0-7.0-1.0-1.0-0.0-0.46","2","2","3","2","2","2","2","2","2","2","2","3","2","2","2","2","2","2","2","2","5","4","5","4","4","4","4","2","4","1","0","1","1","0","0","1","1","0","1","1","0","1","0","1","4","5","4","3","4","1","2","3","2","2","2","673239924056522752","刘","624","","","","match","","","","","","","","","","","","","","key","f","6.944337962962756","768","428","j","false","nonmatch","img/circle.png","方形","圆形","ALT1_2","prac_ALT1_2","","","","","","","","","","","",""
"null","<span style='color:red; font-size: 70px;'>错误! </span>","null","html-keyboard-response","102","304939","0.0-7.0-1.0-1.0-0.0-1.46","2","2","3","2","2","2","2","2","2","2","2","3","2","2","2","2","2","2","2","2","5","4","5","4","4","4","4","2","4","1","0","1","1","0","0","1","1","0","1","1","0","1","0","1","4","5","4","3","4","1","2","3","2","2","2","673239924056522752","刘","624","","","","","","","","","","","","","","","","","","","","","","","","","","","","","","feedback_test","","","","","","","","","","","",""
"630","","f","psychophysics","103","306572","0.0-7.0-1.0-1.0-0.0-0.47","2","2","3","2","2","2","2","2","2","2","2","3","2","2","2","2","2","2","2","2","5","4","5","4","4","4","4","2","4","1","0","1","1","0","0","1","1","0","1","1","0","1","0","1","4","5","4","3","4","1","2","3","2","2","2","673239924056522752","刘","624","","","","match","","","","","","","","","","","","","","key","f","6.9447222222219835","768","428","f","true","match","img/circle.png","圆形","圆形","ALT1_2","prac_ALT1_2","","","","","","","","","","","",""
"null","<span style='color:GreenYellow; font-size: 70px;'>正确! </span>","null","html-keyboard-response","104","307073","0.0-7.0-1.0-1.0-0.0-1.47","2","2","3","2","2","2","2","2","2","2","2","3","2","2","2","2","2","2","2","2","5","4","5","4","4","4","4","2","4","1","0","1","1","0","0","1","1","0","1","1","0","1","0","1","4","5","4","3","4","1","2","3","2","2","2","673239924056522752","刘","624","","","","","","","","","","","","","","","","","","","","","","","","","","","","","","feedback_test","","","","","","","","","","","",""
"26108","<style>.context{color:white; font-size: 35px; line-height:40px}</style>                          <div><p class='context'>您正确回答了44% 的试次。</p><p class='context'>您的平均反应时为463毫秒。</p><p class='context'>恭喜您完成练习。按空格键继续。</p></div>"," ","html-keyboard-response","105","333183","0.0-7.0-1.0-1.0-1.0-0.0","2","2","3","2","2","2","2","2","2","2","2","3","2","2","2","2","2","2","2","2","5","4","5","4","4","4","4","2","4","1","0","1","1","0","0","1","1","0","1","1","0","1","0","1","4","5","4","3","4","1","2","3","2","2","2","673239924056522752","刘","624","","","","","","","","","","","","","","","","","","","","","","","","","","","","","","","","","","","","","","","","","",""
"9330","","","instructions","106","342516","0.0-7.0-1.0-1.0-1.0-1.0","2","2","3","2","2","2","2","2","2","2","2","3","2","2","2","2","2","2","2","2","5","4","5","4","4","4","4","2","4","1","0","1","1","0","0","1","1","0","1","1","0","1","0","1","4","5","4","3","4","1","2","3","2","2","2","673239924056522752","刘","624","","","","","","","","","","","","","","","","","[{""page_index"":0,""viewing_time"":3160},{""page_index"":1,""viewing_time"":4272},{""page_index"":2,""viewing_time"":1896}]","","","","","","","","","","","","","","","","","","","","","","","","",""
"1011","","f","psychophysics","107","344529","0.0-7.0-1.0-1.1-0.1-0.48","2","2","3","2","2","2","2","2","2","2","2","3","2","2","2","2","2","2","2","2","5","4","5","4","4","4","4","2","4","1","0","1","1","0","0","1","1","0","1","1","0","1","0","1","4","5","4","3","4","1","2","3","2","2","2","673239924056522752","刘","624","","","","match","","","","","","","","","","","","","","key","f","6.9722666666667354","768","428","f","true","match","img/circle.png","圆形","圆形","ALT1_2","prac_ALT1_2","","","","","","","","","","","",""
"null","<span style='color:GreenYellow; font-size: 70px;'>正确! </span>","null","html-keyboard-response","108","345030","0.0-7.0-1.0-1.1-0.1-1.48","2","2","3","2","2","2","2","2","2","2","2","3","2","2","2","2","2","2","2","2","5","4","5","4","4","4","4","2","4","1","0","1","1","0","0","1","1","0","1","1","0","1","0","1","4","5","4","3","4","1","2","3","2","2","2","673239924056522752","刘","624","","","","","","","","","","","","","","","","","","","","","","","","","","","","","","feedback_test","","","","","","","","","","","",""
"708","","j","psychophysics","109","346740","0.0-7.0-1.0-1.1-0.1-0.49","2","2","3","2","2","2","2","2","2","2","2","3","2","2","2","2","2","2","2","2","5","4","5","4","4","4","4","2","4","1","0","1","1","0","0","1","1","0","1","1","0","1","0","1","4","5","4","3","4","1","2","3","2","2","2","673239924056522752","刘","624","","","","nonmatch","","","","","","","","","","","","","","key","j","6.945959183673508","768","428","j","true","nonmatch","img/square.png","圆形","方形","ALT1_2","prac_ALT1_2","","","","","","","","","","","",""
"null","<span style='color:GreenYellow; font-size: 70px;'>正确! </span>","null","html-keyboard-response","110","347242","0.0-7.0-1.0-1.1-0.1-1.49","2","2","3","2","2","2","2","2","2","2","2","3","2","2","2","2","2","2","2","2","5","4","5","4","4","4","4","2","4","1","0","1","1","0","0","1","1","0","1","1","0","1","0","1","4","5","4","3","4","1","2","3","2","2","2","673239924056522752","刘","624","","","","","","","","","","","","","","","","","","","","","","","","","","","","","","feedback_test","","","","","","","","","","","",""
"507","","j","psychophysics","111","348751","0.0-7.0-1.0-1.1-0.1-0.50","2","2","3","2","2","2","2","2","2","2","2","3","2","2","2","2","2","2","2","2","5","4","5","4","4","4","4","2","4","1","0","1","1","0","0","1","1","0","1","1","0","1","0","1","4","5","4","3","4","1","2","3","2","2","2","673239924056522752","刘","624","","","","nonmatch","","","","","","","","","","","","","","key","j","6.9449861111109685","768","428","j","true","nonmatch","img/pentagon.png","圆形","五边","ALT1_2","prac_ALT1_2","","","","","","","","","","","",""
"null","<span style='color:GreenYellow; font-size: 70px;'>正确! </span>","null","html-keyboard-response","112","349253","0.0-7.0-1.0-1.1-0.1-1.50","2","2","3","2","2","2","2","2","2","2","2","3","2","2","2","2","2","2","2","2","5","4","5","4","4","4","4","2","4","1","0","1","1","0","0","1","1","0","1","1","0","1","0","1","4","5","4","3","4","1","2","3","2","2","2","673239924056522752","刘","624","","","","","","","","","","","","","","","","","","","","","","","","","","","","","","feedback_test","","","","","","","","","","","",""
"617","","j","psychophysics","113","350872","0.0-7.0-1.0-1.1-0.1-0.51","2","2","3","2","2","2","2","2","2","2","2","3","2","2","2","2","2","2","2","2","5","4","5","4","4","4","4","2","4","1","0","1","1","0","0","1","1","0","1","1","0","1","0","1","4","5","4","3","4","1","2","3","2","2","2","673239924056522752","刘","624","","","","nonmatch","","","","","","","","","","","","","","key","j","6.945491379310311","768","428","j","true","nonmatch","img/pentagon.png","菱形","五边","ALT1_2","prac_ALT1_2","","","","","","","","","","","",""
"null","<span style='color:GreenYellow; font-size: 70px;'>正确! </span>","null","html-keyboard-response","114","351373","0.0-7.0-1.0-1.1-0.1-1.51","2","2","3","2","2","2","2","2","2","2","2","3","2","2","2","2","2","2","2","2","5","4","5","4","4","4","4","2","4","1","0","1","1","0","0","1","1","0","1","1","0","1","0","1","4","5","4","3","4","1","2","3","2","2","2","673239924056522752","刘","624","","","","","","","","","","","","","","","","","","","","","","","","","","","","","","feedback_test","","","","","","","","","","","",""
"681","","j","psychophysics","115","353055","0.0-7.0-1.0-1.1-0.1-0.52","2","2","3","2","2","2","2","2","2","2","2","3","2","2","2","2","2","2","2","2","5","4","5","4","4","4","4","2","4","1","0","1","1","0","0","1","1","0","1","1","0","1","0","1","4","5","4","3","4","1","2","3","2","2","2","673239924056522752","刘","624","","","","nonmatch","","","","","","","","","","","","","","key","j","6.944012448132952","768","428","j","true","nonmatch","img/circle.png","五边","圆形","ALT1_2","prac_ALT1_2","","","","","","","","","","","",""
"null","<span style='color:GreenYellow; font-size: 70px;'>正确! </span>","null","html-keyboard-response","116","353556","0.0-7.0-1.0-1.1-0.1-1.52","2","2","3","2","2","2","2","2","2","2","2","3","2","2","2","2","2","2","2","2","5","4","5","4","4","4","4","2","4","1","0","1","1","0","0","1","1","0","1","1","0","1","0","1","4","5","4","3","4","1","2","3","2","2","2","673239924056522752","刘","624","","","","","","","","","","","","","","","","","","","","","","","","","","","","","","feedback_test","","","","","","","","","","","",""
"577","","f","psychophysics","117","355135","0.0-7.0-1.0-1.1-0.1-0.53","2","2","3","2","2","2","2","2","2","2","2","3","2","2","2","2","2","2","2","2","5","4","5","4","4","4","4","2","4","1","0","1","1","0","0","1","1","0","1","1","0","1","0","1","4","5","4","3","4","1","2","3","2","2","2","673239924056522752","刘","624","","","","match","","","","","","","","","","","","","","key","f","6.944057522123974","768","428","f","true","match","img/square.png","方形","方形","ALT1_2","prac_ALT1_2","","","","","","","","","","","",""
"null","<span style='color:GreenYellow; font-size: 70px;'>正确! </span>","null","html-keyboard-response","118","355637","0.0-7.0-1.0-1.1-0.1-1.53","2","2","3","2","2","2","2","2","2","2","2","3","2","2","2","2","2","2","2","2","5","4","5","4","4","4","4","2","4","1","0","1","1","0","0","1","1","0","1","1","0","1","0","1","4","5","4","3","4","1","2","3","2","2","2","673239924056522752","刘","624","","","","","","","","","","","","","","","","","","","","","","","","","","","","","","feedback_test","","","","","","","","","","","",""
"602","","f","psychophysics","119","357240","0.0-7.0-1.0-1.1-0.1-0.54","2","2","3","2","2","2","2","2","2","2","2","3","2","2","2","2","2","2","2","2","5","4","5","4","4","4","4","2","4","1","0","1","1","0","0","1","1","0","1","1","0","1","0","1","4","5","4","3","4","1","2","3","2","2","2","673239924056522752","刘","624","","","","match","","","","","","","","","","","","","","key","f","6.944713043478196","768","428","f","true","match","img/diamond.png","菱形","菱形","ALT1_2","prac_ALT1_2","","","","","","","","","","","",""
"null","<span style='color:GreenYellow; font-size: 70px;'>正确! </span>","null","html-keyboard-response","120","357741","0.0-7.0-1.0-1.1-0.1-1.54","2","2","3","2","2","2","2","2","2","2","2","3","2","2","2","2","2","2","2","2","5","4","5","4","4","4","4","2","4","1","0","1","1","0","0","1","1","0","1","1","0","1","0","1","4","5","4","3","4","1","2","3","2","2","2","673239924056522752","刘","624","","","","","","","","","","","","","","","","","","","","","","","","","","","","","","feedback_test","","","","","","","","","","","",""
"784","","j","psychophysics","121","359526","0.0-7.0-1.0-1.1-0.1-0.55","2","2","3","2","2","2","2","2","2","2","2","3","2","2","2","2","2","2","2","2","5","4","5","4","4","4","4","2","4","1","0","1","1","0","0","1","1","0","1","1","0","1","0","1","4","5","4","3","4","1","2","3","2","2","2","673239924056522752","刘","624","","","","nonmatch","","","","","","","","","","","","","","key","j","6.944570312499991","768","428","f","false","match","img/pentagon.png","五边","五边","ALT1_2","prac_ALT1_2","","","","","","","","","","","",""
"null","<span style='color:red; font-size: 70px;'>错误! </span>","null","html-keyboard-response","122","360027","0.0-7.0-1.0-1.1-0.1-1.55","2","2","3","2","2","2","2","2","2","2","2","3","2","2","2","2","2","2","2","2","5","4","5","4","4","4","4","2","4","1","0","1","1","0","0","1","1","0","1","1","0","1","0","1","4","5","4","3","4","1","2","3","2","2","2","673239924056522752","刘","624","","","","","","","","","","","","","","","","","","","","","","","","","","","","","","feedback_test","","","","","","","","","","","",""
"846","","j","psychophysics","123","361875","0.0-7.0-1.0-1.1-0.1-0.56","2","2","3","2","2","2","2","2","2","2","2","3","2","2","2","2","2","2","2","2","5","4","5","4","4","4","4","2","4","1","0","1","1","0","0","1","1","0","1","1","0","1","0","1","4","5","4","3","4","1","2","3","2","2","2","673239924056522752","刘","624","","","","nonmatch","","","","","","","","","","","","","","key","j","6.944274809160394","768","428","j","true","nonmatch","img/diamond.png","圆形","菱形","ALT1_2","prac_ALT1_2","","","","","","","","","","","",""
"null","<span style='color:GreenYellow; font-size: 70px;'>正确! </span>","null","html-keyboard-response","124","362376","0.0-7.0-1.0-1.1-0.1-1.56","2","2","3","2","2","2","2","2","2","2","2","3","2","2","2","2","2","2","2","2","5","4","5","4","4","4","4","2","4","1","0","1","1","0","0","1","1","0","1","1","0","1","0","1","4","5","4","3","4","1","2","3","2","2","2","673239924056522752","刘","624","","","","","","","","","","","","","","","","","","","","","","","","","","","","","","feedback_test","","","","","","","","","","","",""
"702","","j","psychophysics","125","364079","0.0-7.0-1.0-1.1-0.1-0.57","2","2","3","2","2","2","2","2","2","2","2","3","2","2","2","2","2","2","2","2","5","4","5","4","4","4","4","2","4","1","0","1","1","0","0","1","1","0","1","1","0","1","0","1","4","5","4","3","4","1","2","3","2","2","2","673239924056522752","刘","624","","","","nonmatch","","","","","","","","","","","","","","key","j","6.945028688524588","768","428","j","true","nonmatch","img/pentagon.png","方形","五边","ALT1_2","prac_ALT1_2","","","","","","","","","","","",""
"null","<span style='color:GreenYellow; font-size: 70px;'>正确! </span>","null","html-keyboard-response","126","364591","0.0-7.0-1.0-1.1-0.1-1.57","2","2","3","2","2","2","2","2","2","2","2","3","2","2","2","2","2","2","2","2","5","4","5","4","4","4","4","2","4","1","0","1","1","0","0","1","1","0","1","1","0","1","0","1","4","5","4","3","4","1","2","3","2","2","2","673239924056522752","刘","624","","","","","","","","","","","","","","","","","","","","","","","","","","","","","","feedback_test","","","","","","","","","","","",""
"544","","f","psychophysics","127","366136","0.0-7.0-1.0-1.1-0.1-0.58","2","2","3","2","2","2","2","2","2","2","2","3","2","2","2","2","2","2","2","2","5","4","5","4","4","4","4","2","4","1","0","1","1","0","0","1","1","0","1","1","0","1","0","1","4","5","4","3","4","1","2","3","2","2","2","673239924056522752","刘","624","","","","match","","","","","","","","","","","","","","key","f","6.944199095022648","768","428","f","true","match","img/circle.png","圆形","圆形","ALT1_2","prac_ALT1_2","","","","","","","","","","","",""
"null","<span style='color:GreenYellow; font-size: 70px;'>正确! </span>","null","html-keyboard-response","128","366638","0.0-7.0-1.0-1.1-0.1-1.58","2","2","3","2","2","2","2","2","2","2","2","3","2","2","2","2","2","2","2","2","5","4","5","4","4","4","4","2","4","1","0","1","1","0","0","1","1","0","1","1","0","1","0","1","4","5","4","3","4","1","2","3","2","2","2","673239924056522752","刘","624","","","","","","","","","","","","","","","","","","","","","","","","","","","","","","feedback_test","","","","","","","","","","","",""
"549","","j","psychophysics","129","368189","0.0-7.0-1.0-1.1-0.1-0.59","2","2","3","2","2","2","2","2","2","2","2","3","2","2","2","2","2","2","2","2","5","4","5","4","4","4","4","2","4","1","0","1","1","0","0","1","1","0","1","1","0","1","0","1","4","5","4","3","4","1","2","3","2","2","2","673239924056522752","刘","624","","","","nonmatch","","","","","","","","","","","","","","key","j","6.9448558558559945","768","428","j","true","nonmatch","img/diamond.png","五边","菱形","ALT1_2","prac_ALT1_2","","","","","","","","","","","",""
"null","<span style='color:GreenYellow; font-size: 70px;'>正确! </span>","null","html-keyboard-response","130","368690","0.0-7.0-1.0-1.1-0.1-1.59","2","2","3","2","2","2","2","2","2","2","2","3","2","2","2","2","2","2","2","2","5","4","5","4","4","4","4","2","4","1","0","1","1","0","0","1","1","0","1","1","0","1","0","1","4","5","4","3","4","1","2","3","2","2","2","673239924056522752","刘","624","","","","","","","","","","","","","","","","","","","","","","","","","","","","","","feedback_test","","","","","","","","","","","",""
"556","","j","psychophysics","131","370248","0.0-7.0-1.0-1.1-0.1-0.60","2","2","3","2","2","2","2","2","2","2","2","3","2","2","2","2","2","2","2","2","5","4","5","4","4","4","4","2","4","1","0","1","1","0","0","1","1","0","1","1","0","1","0","1","4","5","4","3","4","1","2","3","2","2","2","673239924056522752","刘","624","","","","nonmatch","","","","","","","","","","","","","","key","j","6.945627802690583","768","428","j","true","nonmatch","img/diamond.png","方形","菱形","ALT1_2","prac_ALT1_2","","","","","","","","","","","",""
"null","<span style='color:GreenYellow; font-size: 70px;'>正确! </span>","null","html-keyboard-response","132","370750","0.0-7.0-1.0-1.1-0.1-1.60","2","2","3","2","2","2","2","2","2","2","2","3","2","2","2","2","2","2","2","2","5","4","5","4","4","4","4","2","4","1","0","1","1","0","0","1","1","0","1","1","0","1","0","1","4","5","4","3","4","1","2","3","2","2","2","673239924056522752","刘","624","","","","","","","","","","","","","","","","","","","","","","","","","","","","","","feedback_test","","","","","","","","","","","",""
"718","","j","psychophysics","133","372469","0.0-7.0-1.0-1.1-0.1-0.61","2","2","3","2","2","2","2","2","2","2","2","3","2","2","2","2","2","2","2","2","5","4","5","4","4","4","4","2","4","1","0","1","1","0","0","1","1","0","1","1","0","1","0","1","4","5","4","3","4","1","2","3","2","2","2","673239924056522752","刘","624","","","","nonmatch","","","","","","","","","","","","","","key","j","6.932621951219465","768","428","j","true","nonmatch","img/square.png","五边","方形","ALT1_2","prac_ALT1_2","","","","","","","","","","","",""
"null","<span style='color:GreenYellow; font-size: 70px;'>正确! </span>","null","html-keyboard-response","134","372970","0.0-7.0-1.0-1.1-0.1-1.61","2","2","3","2","2","2","2","2","2","2","2","3","2","2","2","2","2","2","2","2","5","4","5","4","4","4","4","2","4","1","0","1","1","0","0","1","1","0","1","1","0","1","0","1","4","5","4","3","4","1","2","3","2","2","2","673239924056522752","刘","624","","","","","","","","","","","","","","","","","","","","","","","","","","","","","","feedback_test","","","","","","","","","","","",""
"582","","f","psychophysics","135","374554","0.0-7.0-1.0-1.1-0.1-0.62","2","2","3","2","2","2","2","2","2","2","2","3","2","2","2","2","2","2","2","2","5","4","5","4","4","4","4","2","4","1","0","1","1","0","0","1","1","0","1","1","0","1","0","1","4","5","4","3","4","1","2","3","2","2","2","673239924056522752","刘","624","","","","match","","","","","","","","","","","","","","key","f","6.94450220264318","768","428","f","true","match","img/square.png","方形","方形","ALT1_2","prac_ALT1_2","","","","","","","","","","","",""
"null","<span style='color:GreenYellow; font-size: 70px;'>正确! </span>","null","html-keyboard-response","136","375056","0.0-7.0-1.0-1.1-0.1-1.62","2","2","3","2","2","2","2","2","2","2","2","3","2","2","2","2","2","2","2","2","5","4","5","4","4","4","4","2","4","1","0","1","1","0","0","1","1","0","1","1","0","1","0","1","4","5","4","3","4","1","2","3","2","2","2","673239924056522752","刘","624","","","","","","","","","","","","","","","","","","","","","","","","","","","","","","feedback_test","","","","","","","","","","","",""
"742","","j","psychophysics","137","376799","0.0-7.0-1.0-1.1-0.1-0.63","2","2","3","2","2","2","2","2","2","2","2","3","2","2","2","2","2","2","2","2","5","4","5","4","4","4","4","2","4","1","0","1","1","0","0","1","1","0","1","1","0","1","0","1","4","5","4","3","4","1","2","3","2","2","2","673239924056522752","刘","624","","","","nonmatch","","","","","","","","","","","","","","key","j","6.942287449392694","768","428","j","true","nonmatch","img/circle.png","方形","圆形","ALT1_2","prac_ALT1_2","","","","","","","","","","","",""
"null","<span style='color:GreenYellow; font-size: 70px;'>正确! </span>","null","html-keyboard-response","138","377300","0.0-7.0-1.0-1.1-0.1-1.63","2","2","3","2","2","2","2","2","2","2","2","3","2","2","2","2","2","2","2","2","5","4","5","4","4","4","4","2","4","1","0","1","1","0","0","1","1","0","1","1","0","1","0","1","4","5","4","3","4","1","2","3","2","2","2","673239924056522752","刘","624","","","","","","","","","","","","","","","","","","","","","","","","","","","","","","feedback_test","","","","","","","","","","","",""
"768","","f","psychophysics","139","379069","0.0-7.0-1.0-1.1-0.1-0.64","2","2","3","2","2","2","2","2","2","2","2","3","2","2","2","2","2","2","2","2","5","4","5","4","4","4","4","2","4","1","0","1","1","0","0","1","1","0","1","1","0","1","0","1","4","5","4","3","4","1","2","3","2","2","2","673239924056522752","刘","624","","","","match","","","","","","","","","","","","","","key","f","6.945679841897167","768","428","f","true","match","img/pentagon.png","五边","五边","ALT1_2","prac_ALT1_2","","","","","","","","","","","",""
"null","<span style='color:GreenYellow; font-size: 70px;'>正确! </span>","null","html-keyboard-response","140","379570","0.0-7.0-1.0-1.1-0.1-1.64","2","2","3","2","2","2","2","2","2","2","2","3","2","2","2","2","2","2","2","2","5","4","5","4","4","4","4","2","4","1","0","1","1","0","0","1","1","0","1","1","0","1","0","1","4","5","4","3","4","1","2","3","2","2","2","673239924056522752","刘","624","","","","","","","","","","","","","","","","","","","","","","","","","","","","","","feedback_test","","","","","","","","","","","",""
"595","","j","psychophysics","141","381167","0.0-7.0-1.0-1.1-0.1-0.65","2","2","3","2","2","2","2","2","2","2","2","3","2","2","2","2","2","2","2","2","5","4","5","4","4","4","4","2","4","1","0","1","1","0","0","1","1","0","1","1","0","1","0","1","4","5","4","3","4","1","2","3","2","2","2","673239924056522752","刘","624","","","","nonmatch","","","","","","","","","","","","","","key","j","6.944311403508835","768","428","j","true","nonmatch","img/circle.png","菱形","圆形","ALT1_2","prac_ALT1_2","","","","","","","","","","","",""
"null","<span style='color:GreenYellow; font-size: 70px;'>正确! </span>","null","html-keyboard-response","142","381672","0.0-7.0-1.0-1.1-0.1-1.65","2","2","3","2","2","2","2","2","2","2","2","3","2","2","2","2","2","2","2","2","5","4","5","4","4","4","4","2","4","1","0","1","1","0","0","1","1","0","1","1","0","1","0","1","4","5","4","3","4","1","2","3","2","2","2","673239924056522752","刘","624","","","","","","","","","","","","","","","","","","","","","","","","","","","","","","feedback_test","","","","","","","","","","","",""
"686","","f","psychophysics","143","383360","0.0-7.0-1.0-1.1-0.1-0.66","2","2","3","2","2","2","2","2","2","2","2","3","2","2","2","2","2","2","2","2","5","4","5","4","4","4","4","2","4","1","0","1","1","0","0","1","1","0","1","1","0","1","0","1","4","5","4","3","4","1","2","3","2","2","2","673239924056522752","刘","624","","","","match","","","","","","","","","","","","","","key","f","6.945280991735665","768","428","f","true","match","img/circle.png","圆形","圆形","ALT1_2","prac_ALT1_2","","","","","","","","","","","",""
"null","<span style='color:GreenYellow; font-size: 70px;'>正确! </span>","null","html-keyboard-response","144","383863","0.0-7.0-1.0-1.1-0.1-1.66","2","2","3","2","2","2","2","2","2","2","2","3","2","2","2","2","2","2","2","2","5","4","5","4","4","4","4","2","4","1","0","1","1","0","0","1","1","0","1","1","0","1","0","1","4","5","4","3","4","1","2","3","2","2","2","673239924056522752","刘","624","","","","","","","","","","","","","","","","","","","","","","","","","","","","","","feedback_test","","","","","","","","","","","",""
"732","","f","psychophysics","145","385597","0.0-7.0-1.0-1.1-0.1-0.67","2","2","3","2","2","2","2","2","2","2","2","3","2","2","2","2","2","2","2","2","5","4","5","4","4","4","4","2","4","1","0","1","1","0","0","1","1","0","1","1","0","1","0","1","4","5","4","3","4","1","2","3","2","2","2","673239924056522752","刘","624","","","","match","","","","","","","","","","","","","","key","f","6.945499999999987","768","428","f","true","match","img/diamond.png","菱形","菱形","ALT1_2","prac_ALT1_2","","","","","","","","","","","",""
"null","<span style='color:GreenYellow; font-size: 70px;'>正确! </span>","null","html-keyboard-response","146","386098","0.0-7.0-1.0-1.1-0.1-1.67","2","2","3","2","2","2","2","2","2","2","2","3","2","2","2","2","2","2","2","2","5","4","5","4","4","4","4","2","4","1","0","1","1","0","0","1","1","0","1","1","0","1","0","1","4","5","4","3","4","1","2","3","2","2","2","673239924056522752","刘","624","","","","","","","","","","","","","","","","","","","","","","","","","","","","","","feedback_test","","","","","","","","","","","",""
"689","","j","psychophysics","147","387789","0.0-7.0-1.0-1.1-0.1-0.68","2","2","3","2","2","2","2","2","2","2","2","3","2","2","2","2","2","2","2","2","5","4","5","4","4","4","4","2","4","1","0","1","1","0","0","1","1","0","1","1","0","1","0","1","4","5","4","3","4","1","2","3","2","2","2","673239924056522752","刘","624","","","","nonmatch","","","","","","","","","","","","","","key","j","6.945450413223137","768","428","j","true","nonmatch","img/square.png","菱形","方形","ALT1_2","prac_ALT1_2","","","","","","","","","","","",""
"null","<span style='color:GreenYellow; font-size: 70px;'>正确! </span>","null","html-keyboard-response","148","388290","0.0-7.0-1.0-1.1-0.1-1.68","2","2","3","2","2","2","2","2","2","2","2","3","2","2","2","2","2","2","2","2","5","4","5","4","4","4","4","2","4","1","0","1","1","0","0","1","1","0","1","1","0","1","0","1","4","5","4","3","4","1","2","3","2","2","2","673239924056522752","刘","624","","","","","","","","","","","","","","","","","","","","","","","","","","","","","","feedback_test","","","","","","","","","","","",""
"586","","j","psychophysics","149","389877","0.0-7.0-1.0-1.1-0.1-0.69","2","2","3","2","2","2","2","2","2","2","2","3","2","2","2","2","2","2","2","2","5","4","5","4","4","4","4","2","4","1","0","1","1","0","0","1","1","0","1","1","0","1","0","1","4","5","4","3","4","1","2","3","2","2","2","673239924056522752","刘","624","","","","nonmatch","","","","","","","","","","","","","","key","j","6.944500000000086","768","428","f","false","match","img/diamond.png","菱形","菱形","ALT1_2","prac_ALT1_2","","","","","","","","","","","",""
"null","<span style='color:red; font-size: 70px;'>错误! </span>","null","html-keyboard-response","150","390379","0.0-7.0-1.0-1.1-0.1-1.69","2","2","3","2","2","2","2","2","2","2","2","3","2","2","2","2","2","2","2","2","5","4","5","4","4","4","4","2","4","1","0","1","1","0","0","1","1","0","1","1","0","1","0","1","4","5","4","3","4","1","2","3","2","2","2","673239924056522752","刘","624","","","","","","","","","","","","","","","","","","","","","","","","","","","","","","feedback_test","","","","","","","","","","","",""
"606","","f","psychophysics","151","391986","0.0-7.0-1.0-1.1-0.1-0.70","2","2","3","2","2","2","2","2","2","2","2","3","2","2","2","2","2","2","2","2","5","4","5","4","4","4","4","2","4","1","0","1","1","0","0","1","1","0","1","1","0","1","0","1","4","5","4","3","4","1","2","3","2","2","2","673239924056522752","刘","624","","","","match","","","","","","","","","","","","","","key","f","6.944365217391422","768","428","f","true","match","img/pentagon.png","五边","五边","ALT1_2","prac_ALT1_2","","","","","","","","","","","",""
"null","<span style='color:GreenYellow; font-size: 70px;'>正确! </span>","null","html-keyboard-response","152","392488","0.0-7.0-1.0-1.1-0.1-1.70","2","2","3","2","2","2","2","2","2","2","2","3","2","2","2","2","2","2","2","2","5","4","5","4","4","4","4","2","4","1","0","1","1","0","0","1","1","0","1","1","0","1","0","1","4","5","4","3","4","1","2","3","2","2","2","673239924056522752","刘","624","","","","","","","","","","","","","","","","","","","","","","","","","","","","","","feedback_test","","","","","","","","","","","",""
"664","","f","psychophysics","153","394156","0.0-7.0-1.0-1.1-0.1-0.71","2","2","3","2","2","2","2","2","2","2","2","3","2","2","2","2","2","2","2","2","5","4","5","4","4","4","4","2","4","1","0","1","1","0","0","1","1","0","1","1","0","1","0","1","4","5","4","3","4","1","2","3","2","2","2","673239924056522752","刘","624","","","","match","","","","","","","","","","","","","","key","f","6.945970711297069","768","428","f","true","match","img/square.png","方形","方形","ALT1_2","prac_ALT1_2","","","","","","","","","","","",""
"null","<span style='color:GreenYellow; font-size: 70px;'>正确! </span>","null","html-keyboard-response","154","394657","0.0-7.0-1.0-1.1-0.1-1.71","2","2","3","2","2","2","2","2","2","2","2","3","2","2","2","2","2","2","2","2","5","4","5","4","4","4","4","2","4","1","0","1","1","0","0","1","1","0","1","1","0","1","0","1","4","5","4","3","4","1","2","3","2","2","2","673239924056522752","刘","624","","","","","","","","","","","","","","","","","","","","","","","","","","","","","","feedback_test","","","","","","","","","","","",""
"584","","f","psychophysics","155","396244","0.0-7.0-1.0-1.1-0.1-0.72","2","2","3","2","2","2","2","2","2","2","2","3","2","2","2","2","2","2","2","2","5","4","5","4","4","4","4","2","4","1","0","1","1","0","0","1","1","0","1","1","0","1","0","1","4","5","4","3","4","1","2","3","2","2","2","673239924056522752","刘","624","","","","match","","","","","","","","","","","","","","key","f","6.944537444934064","768","428","f","true","match","img/circle.png","圆形","圆形","ALT1_2","prac_ALT1_2","","","","","","","","","","","",""
"null","<span style='color:GreenYellow; font-size: 70px;'>正确! </span>","null","html-keyboard-response","156","396745","0.0-7.0-1.0-1.1-0.1-1.72","2","2","3","2","2","2","2","2","2","2","2","3","2","2","2","2","2","2","2","2","5","4","5","4","4","4","4","2","4","1","0","1","1","0","0","1","1","0","1","1","0","1","0","1","4","5","4","3","4","1","2","3","2","2","2","673239924056522752","刘","624","","","","","","","","","","","","","","","","","","","","","","","","","","","","","","feedback_test","","","","","","","","","","","",""
"576","","f","psychophysics","157","398322","0.0-7.0-1.0-1.1-0.1-0.73","2","2","3","2","2","2","2","2","2","2","2","3","2","2","2","2","2","2","2","2","5","4","5","4","4","4","4","2","4","1","0","1","1","0","0","1","1","0","1","1","0","1","0","1","4","5","4","3","4","1","2","3","2","2","2","673239924056522752","刘","624","","","","match","","","","","","","","","","","","","","key","f","6.945261061946971","768","428","f","true","match","img/pentagon.png","五边","五边","ALT1_2","prac_ALT1_2","","","","","","","","","","","",""
"null","<span style='color:GreenYellow; font-size: 70px;'>正确! </span>","null","html-keyboard-response","158","398823","0.0-7.0-1.0-1.1-0.1-1.73","2","2","3","2","2","2","2","2","2","2","2","3","2","2","2","2","2","2","2","2","5","4","5","4","4","4","4","2","4","1","0","1","1","0","0","1","1","0","1","1","0","1","0","1","4","5","4","3","4","1","2","3","2","2","2","673239924056522752","刘","624","","","","","","","","","","","","","","","","","","","","","","","","","","","","","","feedback_test","","","","","","","","","","","",""
"834","","f","psychophysics","159","400659","0.0-7.0-1.0-1.1-0.1-0.74","2","2","3","2","2","2","2","2","2","2","2","3","2","2","2","2","2","2","2","2","5","4","5","4","4","4","4","2","4","1","0","1","1","0","0","1","1","0","1","1","0","1","0","1","4","5","4","3","4","1","2","3","2","2","2","673239924056522752","刘","624","","","","match","","","","","","","","","","","","","","key","f","6.9448479087452295","768","428","j","false","nonmatch","img/circle.png","菱形","圆形","ALT1_2","prac_ALT1_2","","","","","","","","","","","",""
"null","<span style='color:red; font-size: 70px;'>错误! </span>","null","html-keyboard-response","160","401161","0.0-7.0-1.0-1.1-0.1-1.74","2","2","3","2","2","2","2","2","2","2","2","3","2","2","2","2","2","2","2","2","5","4","5","4","4","4","4","2","4","1","0","1","1","0","0","1","1","0","1","1","0","1","0","1","4","5","4","3","4","1","2","3","2","2","2","673239924056522752","刘","624","","","","","","","","","","","","","","","","","","","","","","","","","","","","","","feedback_test","","","","","","","","","","","",""
"618","","f","psychophysics","161","402780","0.0-7.0-1.0-1.1-0.1-0.75","2","2","3","2","2","2","2","2","2","2","2","3","2","2","2","2","2","2","2","2","5","4","5","4","4","4","4","2","4","1","0","1","1","0","0","1","1","0","1","1","0","1","0","1","4","5","4","3","4","1","2","3","2","2","2","673239924056522752","刘","624","","","","match","","","","","","","","","","","","","","key","f","6.944939393939468","768","428","j","false","nonmatch","img/pentagon.png","菱形","五边","ALT1_2","prac_ALT1_2","","","","","","","","","","","",""
"null","<span style='color:red; font-size: 70px;'>错误! </span>","null","html-keyboard-response","162","403281","0.0-7.0-1.0-1.1-0.1-1.75","2","2","3","2","2","2","2","2","2","2","2","3","2","2","2","2","2","2","2","2","5","4","5","4","4","4","4","2","4","1","0","1","1","0","0","1","1","0","1","1","0","1","0","1","4","5","4","3","4","1","2","3","2","2","2","673239924056522752","刘","624","","","","","","","","","","","","","","","","","","","","","","","","","","","","","","feedback_test","","","","","","","","","","","",""
"723","","j","psychophysics","163","405005","0.0-7.0-1.0-1.1-0.1-0.76","2","2","3","2","2","2","2","2","2","2","2","3","2","2","2","2","2","2","2","2","5","4","5","4","4","4","4","2","4","1","0","1","1","0","0","1","1","0","1","1","0","1","0","1","4","5","4","3","4","1","2","3","2","2","2","673239924056522752","刘","624","","","","nonmatch","","","","","","","","","","","","","","key","j","6.945129554655812","768","428","j","true","nonmatch","img/circle.png","五边","圆形","ALT1_2","prac_ALT1_2","","","","","","","","","","","",""
"null","<span style='color:GreenYellow; font-size: 70px;'>正确! </span>","null","html-keyboard-response","164","405506","0.0-7.0-1.0-1.1-0.1-1.76","2","2","3","2","2","2","2","2","2","2","2","3","2","2","2","2","2","2","2","2","5","4","5","4","4","4","4","2","4","1","0","1","1","0","0","1","1","0","1","1","0","1","0","1","4","5","4","3","4","1","2","3","2","2","2","673239924056522752","刘","624","","","","","","","","","","","","","","","","","","","","","","","","","","","","","","feedback_test","","","","","","","","","","","",""
"557","","f","psychophysics","165","407066","0.0-7.0-1.0-1.1-0.1-0.77","2","2","3","2","2","2","2","2","2","2","2","3","2","2","2","2","2","2","2","2","5","4","5","4","4","4","4","2","4","1","0","1","1","0","0","1","1","0","1","1","0","1","0","1","4","5","4","3","4","1","2","3","2","2","2","673239924056522752","刘","624","","","","match","","","","","","","","","","","","","","key","f","6.944495535714201","768","428","f","true","match","img/square.png","方形","方形","ALT1_2","prac_ALT1_2","","","","","","","","","","","",""
"null","<span style='color:GreenYellow; font-size: 70px;'>正确! </span>","null","html-keyboard-response","166","407567","0.0-7.0-1.0-1.1-0.1-1.77","2","2","3","2","2","2","2","2","2","2","2","3","2","2","2","2","2","2","2","2","5","4","5","4","4","4","4","2","4","1","0","1","1","0","0","1","1","0","1","1","0","1","0","1","4","5","4","3","4","1","2","3","2","2","2","673239924056522752","刘","624","","","","","","","","","","","","","","","","","","","","","","","","","","","","","","feedback_test","","","","","","","","","","","",""
"605","","j","psychophysics","167","409174","0.0-7.0-1.0-1.1-0.1-0.78","2","2","3","2","2","2","2","2","2","2","2","3","2","2","2","2","2","2","2","2","5","4","5","4","4","4","4","2","4","1","0","1","1","0","0","1","1","0","1","1","0","1","0","1","4","5","4","3","4","1","2","3","2","2","2","673239924056522752","刘","624","","","","nonmatch","","","","","","","","","","","","","","key","j","6.944804347826056","768","428","j","true","nonmatch","img/square.png","菱形","方形","ALT1_2","prac_ALT1_2","","","","","","","","","","","",""
"null","<span style='color:GreenYellow; font-size: 70px;'>正确! </span>","null","html-keyboard-response","168","409676","0.0-7.0-1.0-1.1-0.1-1.78","2","2","3","2","2","2","2","2","2","2","2","3","2","2","2","2","2","2","2","2","5","4","5","4","4","4","4","2","4","1","0","1","1","0","0","1","1","0","1","1","0","1","0","1","4","5","4","3","4","1","2","3","2","2","2","673239924056522752","刘","624","","","","","","","","","","","","","","","","","","","","","","","","","","","","","","feedback_test","","","","","","","","","","","",""
"679","","j","psychophysics","169","411358","0.0-7.0-1.0-1.1-0.1-0.79","2","2","3","2","2","2","2","2","2","2","2","3","2","2","2","2","2","2","2","2","5","4","5","4","4","4","4","2","4","1","0","1","1","0","0","1","1","0","1","1","0","1","0","1","4","5","4","3","4","1","2","3","2","2","2","673239924056522752","刘","624","","","","nonmatch","","","","","","","","","","","","","","key","j","6.945228215767586","768","428","j","true","nonmatch","img/square.png","圆形","方形","ALT1_2","prac_ALT1_2","","","","","","","","","","","",""
"null","<span style='color:GreenYellow; font-size: 70px;'>正确! </span>","null","html-keyboard-response","170","411859","0.0-7.0-1.0-1.1-0.1-1.79","2","2","3","2","2","2","2","2","2","2","2","3","2","2","2","2","2","2","2","2","5","4","5","4","4","4","4","2","4","1","0","1","1","0","0","1","1","0","1","1","0","1","0","1","4","5","4","3","4","1","2","3","2","2","2","673239924056522752","刘","624","","","","","","","","","","","","","","","","","","","","","","","","","","","","","","feedback_test","","","","","","","","","","","",""
"704","","j","psychophysics","171","413564","0.0-7.0-1.0-1.1-0.1-0.80","2","2","3","2","2","2","2","2","2","2","2","3","2","2","2","2","2","2","2","2","5","4","5","4","4","4","4","2","4","1","0","1","1","0","0","1","1","0","1","1","0","1","0","1","4","5","4","3","4","1","2","3","2","2","2","673239924056522752","刘","624","","","","nonmatch","","","","","","","","","","","","","","key","j","6.9457950819671135","768","428","j","true","nonmatch","img/diamond.png","方形","菱形","ALT1_2","prac_ALT1_2","","","","","","","","","","","",""
"null","<span style='color:GreenYellow; font-size: 70px;'>正确! </span>","null","html-keyboard-response","172","414066","0.0-7.0-1.0-1.1-0.1-1.80","2","2","3","2","2","2","2","2","2","2","2","3","2","2","2","2","2","2","2","2","5","4","5","4","4","4","4","2","4","1","0","1","1","0","0","1","1","0","1","1","0","1","0","1","4","5","4","3","4","1","2","3","2","2","2","673239924056522752","刘","624","","","","","","","","","","","","","","","","","","","","","","","","","","","","","","feedback_test","","","","","","","","","","","",""
"700","","f","psychophysics","173","415768","0.0-7.0-1.0-1.1-0.1-0.81","2","2","3","2","2","2","2","2","2","2","2","3","2","2","2","2","2","2","2","2","5","4","5","4","4","4","4","2","4","1","0","1","1","0","0","1","1","0","1","1","0","1","0","1","4","5","4","3","4","1","2","3","2","2","2","673239924056522752","刘","624","","","","match","","","","","","","","","","","","","","key","f","6.945221311475254","768","428","f","true","match","img/pentagon.png","五边","五边","ALT1_2","prac_ALT1_2","","","","","","","","","","","",""
"null","<span style='color:GreenYellow; font-size: 70px;'>正确! </span>","null","html-keyboard-response","174","416269","0.0-7.0-1.0-1.1-0.1-1.81","2","2","3","2","2","2","2","2","2","2","2","3","2","2","2","2","2","2","2","2","5","4","5","4","4","4","4","2","4","1","0","1","1","0","0","1","1","0","1","1","0","1","0","1","4","5","4","3","4","1","2","3","2","2","2","673239924056522752","刘","624","","","","","","","","","","","","","","","","","","","","","","","","","","","","","","feedback_test","","","","","","","","","","","",""
"709","","f","psychophysics","175","417980","0.0-7.0-1.0-1.1-0.1-0.82","2","2","3","2","2","2","2","2","2","2","2","3","2","2","2","2","2","2","2","2","5","4","5","4","4","4","4","2","4","1","0","1","1","0","0","1","1","0","1","1","0","1","0","1","4","5","4","3","4","1","2","3","2","2","2","673239924056522752","刘","624","","","","match","","","","","","","","","","","","","","key","f","6.943840816326449","768","428","f","true","match","img/pentagon.png","五边","五边","ALT1_2","prac_ALT1_2","","","","","","","","","","","",""
"null","<span style='color:GreenYellow; font-size: 70px;'>正确! </span>","null","html-keyboard-response","176","418482","0.0-7.0-1.0-1.1-0.1-1.82","2","2","3","2","2","2","2","2","2","2","2","3","2","2","2","2","2","2","2","2","5","4","5","4","4","4","4","2","4","1","0","1","1","0","0","1","1","0","1","1","0","1","0","1","4","5","4","3","4","1","2","3","2","2","2","673239924056522752","刘","624","","","","","","","","","","","","","","","","","","","","","","","","","","","","","","feedback_test","","","","","","","","","","","",""
"828","","f","psychophysics","177","420311","0.0-7.0-1.0-1.1-0.1-0.83","2","2","3","2","2","2","2","2","2","2","2","3","2","2","2","2","2","2","2","2","5","4","5","4","4","4","4","2","4","1","0","1","1","0","0","1","1","0","1","1","0","1","0","1","4","5","4","3","4","1","2","3","2","2","2","673239924056522752","刘","624","","","","match","","","","","","","","","","","","","","key","f","6.944935114503721","768","428","f","true","match","img/diamond.png","菱形","菱形","ALT1_2","prac_ALT1_2","","","","","","","","","","","",""
"null","<span style='color:GreenYellow; font-size: 70px;'>正确! </span>","null","html-keyboard-response","178","420813","0.0-7.0-1.0-1.1-0.1-1.83","2","2","3","2","2","2","2","2","2","2","2","3","2","2","2","2","2","2","2","2","5","4","5","4","4","4","4","2","4","1","0","1","1","0","0","1","1","0","1","1","0","1","0","1","4","5","4","3","4","1","2","3","2","2","2","673239924056522752","刘","624","","","","","","","","","","","","","","","","","","","","","","","","","","","","","","feedback_test","","","","","","","","","","","",""
"749","","f","psychophysics","179","422564","0.0-7.0-1.0-1.1-0.1-0.84","2","2","3","2","2","2","2","2","2","2","2","3","2","2","2","2","2","2","2","2","5","4","5","4","4","4","4","2","4","1","0","1","1","0","0","1","1","0","1","1","0","1","0","1","4","5","4","3","4","1","2","3","2","2","2","673239924056522752","刘","624","","","","match","","","","","","","","","","","","","","key","f","7.000100401606519","768","428","j","false","nonmatch","img/diamond.png","圆形","菱形","ALT1_2","prac_ALT1_2","","","","","","","","","","","",""
"null","<span style='color:red; font-size: 70px;'>错误! </span>","null","html-keyboard-response","180","423066","0.0-7.0-1.0-1.1-0.1-1.84","2","2","3","2","2","2","2","2","2","2","2","3","2","2","2","2","2","2","2","2","5","4","5","4","4","4","4","2","4","1","0","1","1","0","0","1","1","0","1","1","0","1","0","1","4","5","4","3","4","1","2","3","2","2","2","673239924056522752","刘","624","","","","","","","","","","","","","","","","","","","","","","","","","","","","","","feedback_test","","","","","","","","","","","",""
"813","","j","psychophysics","181","424881","0.0-7.0-1.0-1.1-0.1-0.85","2","2","3","2","2","2","2","2","2","2","2","3","2","2","2","2","2","2","2","2","5","4","5","4","4","4","4","2","4","1","0","1","1","0","0","1","1","0","1","1","0","1","0","1","4","5","4","3","4","1","2","3","2","2","2","673239924056522752","刘","624","","","","nonmatch","","","","","","","","","","","","","","key","j","6.944934615384465","768","428","j","true","nonmatch","img/pentagon.png","圆形","五边","ALT1_2","prac_ALT1_2","","","","","","","","","","","",""
