"rt","stimulus","response","trial_type","trial_index","time_elapsed","internal_node_id","ses_1","ses_2","ses_3","ses_4","ses_5","ses_6","ses_7","ses_8","ses_9","ses_10","coreself_1","coreself_2","coreself_3","coreself_4","coreself_5","coreself_6","coreself_7","coreself_8","coreself_9","coreself_10","SGPS_1","SGPS_2","SGPS_3","SGPS_4","SGPS_5","SGPS_6","SGPS_7","SGPS_8","SGPS_9","NPI1","NPI2","NPI3","NPI4","NPI5","NPI6","NPI7","NPI8","NPI9","NPI10","NPI11","NPI12","NPI13","NPI14","NPI15","hsns_1","hsns_2","hsns_3","hsns_4","hsns_5","trap1","hsns_6","hsns_7","hsns_8","hsns_9","hsns_10","subj_idx","friend_name","ParticipantID","value","success","user_agent","responses","item_order","radio_event_ids","radio_event_times","key_event_times","mouse_event_times","straightlining","zigzagging","honeypot","timeout","failed_images","failed_audio","failed_video","version_attrib","version_target","correct","IAT","screen_id","task_id","RT","condition","word","varname","summary","version_attrib2","version_target2","time_stamp","view_history","response_type","key_press","avg_frame_time","center_x","center_y","correct_response","identity","Image","question_order","correct_answer","trap1_item"
"2293","
   <p><div style = ""color: white;font-size:25px;"">您好，欢迎参加本次实验。</div> </p>
   <p><div style = ""color: white;font-size:25px;"">为充分保障您的权利，请确保您已经知晓并同意《参与实验同意书》以及《数据公开知情同意书》。</div></p>
   <p><div style = ""color: white;font-size:25px;"">如果您未见过上述内容，请咨询实验员。</div></p>
   <p><div style = ""color: white;font-size:25px;"">如果您选择继续实验，则表示您已经清楚两份知情同意书的内容并同意。</div></p>
   <p><div style = ""color: pink;font-size:30px;"">请确保您记得day0的实验编号，您将在本次实验输入该编号，若您忘记，请咨询实验员后作答。</div></p>
   <p><div style = ""color: lightblue;font-size:25px;"">请您尽可能认真地作答，我们将依据您在各问卷和按键任务中的作答质量发放报酬。</div></p>
   <p> <div style = ""color: green;font-size:25px;""><按空格键至下页></div> </p>
   "," ","html-keyboard-response","0","2298","0.0-0.0","4","3","4","4","3","3","3","4","3","4","4","4","2","3","3","5","4","3","4","4","1","1","2","2","1","1","1","2","1","1","1","0","0","0","1","0","1","1","0","0","0","1","0","0","4","2","2","1","3","1","3","3","2","4","3","572507877353193472","郑","681","","","","","","","","","","","","","","","","","","","","","","","","","","","","","","","","","","","","","","","","","",""
"","","","call-function","1","2301","0.0-1.0-0.0","4","3","4","4","3","3","3","4","3","4","4","4","2","3","3","5","4","3","4","4","1","1","2","2","1","1","1","2","1","1","1","0","0","0","1","0","1","1","0","0","0","1","0","0","4","2","2","1","3","1","3","3","2","4","3","572507877353193472","郑","681","","","","","","","","","","","","","","","","","","","","","","","","","","","","","","","","","","","","","","","","","",""
"36132","","{""friend_name"":""郑"",""ParticipantID"":""681""}","survey-html-form","2","38435","0.0-1.0-1.0","4","3","4","4","3","3","3","4","3","4","4","4","2","3","3","5","4","3","4","4","1","1","2","2","1","1","1","2","1","1","1","0","0","0","1","0","1","1","0","0","0","1","0","0","4","2","2","1","3","1","3","3","2","4","3","572507877353193472","郑","681","","","","","","","","","","","","","","","","","","","","","","","","","","","","","","","","","","","","","","","","","",""
"","","","fullscreen","3","40678","0.0-2.0","4","3","4","4","3","3","3","4","3","4","4","4","2","3","3","5","4","3","4","4","1","1","2","2","1","1","1","2","1","1","1","0","0","0","1","0","1","1","0","0","0","1","0","0","4","2","2","1","3","1","3","3","2","4","3","572507877353193472","郑","681","","true","{}","","","","","","","","","","","","","","","","","","","","","","","","","","","","","","","","","","","","","","",""
"16221.200000047684","","{""Q01"":""4"",""Q02"":""3"",""Q03"":""4"",""Q04"":""4"",""Q05"":""3"",""Q06"":""3"",""Q07"":""3"",""Q08"":""4"",""Q09"":""3"",""Q10"":""4""}","survey-template","4","56903","0.0-3.0","4","3","4","4","3","3","3","4","3","4","4","4","2","3","3","5","4","3","4","4","1","1","2","2","1","1","1","2","1","1","1","0","0","0","1","0","1","1","0","0","0","1","0","0","4","2","2","1","3","1","3","3","2","4","3","572507877353193472","郑","681","","","","{""Q01"":""4"",""Q02"":""3"",""Q03"":""4"",""Q04"":""4"",""Q05"":""3"",""Q06"":""3"",""Q07"":""3"",""Q08"":""4"",""Q09"":""3"",""Q10"":""4""}","[0,1,2,3,4,5,6,7,8,9]","[""Q01"",""Q02"",""Q03"",""Q04"",""Q05"",""Q06"",""Q07"",""Q08"",""Q09"",""Q10""]","[3722.4000000953674,5635.599999904633,6961.5,8089.299999952316,9546.5,10491,11465.200000047684,12689.200000047684,13485.200000047684,14544.799999952316]","[]","[3722.4000000953674,5635.599999904633,6961.5,8089.299999952316,9546.5,10491,11465.200000047684,12689.200000047684,13485.200000047684,14544.799999952316,16219.200000047684]","0.3","0.5555555555555556","0","","","","","","","","","","","","","","","","","","","","","","","","","","","","","",""
"19613.799999952316","","{""Q01"":""4"",""Q02"":""4"",""Q03"":""2"",""Q04"":""3"",""Q05"":""3"",""Q06"":""5"",""Q07"":""4"",""Q08"":""3"",""Q09"":""4"",""Q10"":""4""}","survey-template","5","76526","0.0-4.0","4","3","4","4","3","3","3","4","3","4","4","4","2","3","3","5","4","3","4","4","1","1","2","2","1","1","1","2","1","1","1","0","0","0","1","0","1","1","0","0","0","1","0","0","4","2","2","1","3","1","3","3","2","4","3","572507877353193472","郑","681","","","","{""Q01"":""4"",""Q02"":""4"",""Q03"":""2"",""Q04"":""3"",""Q05"":""3"",""Q06"":""5"",""Q07"":""4"",""Q08"":""3"",""Q09"":""4"",""Q10"":""4""}","[0,1,2,3,4,5,6,7,8,9]","[""Q01"",""Q02"",""Q03"",""Q04"",""Q05"",""Q06"",""Q07"",""Q08"",""Q08"",""Q09"",""Q10""]","[2821.0999999046326,4214.799999952316,5848.5,6771.399999856949,7695.299999952316,9235.399999856949,10443.299999952316,11723.299999952316,14916.599999904633,16595.199999809265,17705.199999809265]","[]","[2821.0999999046326,4214.799999952316,5848.5,6771.399999856949,7695.299999952316,9235.399999856949,10443.299999952316,11723.299999952316,14916.599999904633,16595.199999809265,17705.199999809265,19611.699999809265]","0.3","0.3333333333333333","0","","","","","","","","","","","","","","","","","","","","","","","","","","","","","",""
"","","","preload","6","76969","0.0-5.0","4","3","4","4","3","3","3","4","3","4","4","4","2","3","3","5","4","3","4","4","1","1","2","2","1","1","1","2","1","1","1","0","0","0","1","0","1","1","0","0","0","1","0","0","4","2","2","1","3","1","3","3","2","4","3","572507877353193472","郑","681","","true","","","","","","","","","","","false","[]","[]","[]","","","","","","","","","","","","","","","","","","","","","","","","","",""
"34320","
    <h3>词语分类任务</h3>
    <p>在接下来的任务中，你需要对一系列词语进行分类。</p>
    <p>请先熟悉这些词语，这有利于你完成接下来的任务。</p>
    <table align=""center"" border=1 cellpadding=3 cellspacing=0>
    <tr> <th>类别</th> <th>词语</th> </tr>
    <tr> <td>&emsp;积极&emsp;</td> <td>&emsp;能干、全能、全才、高效、精干、天才&emsp;</td> </tr>
    <tr> <td>&emsp;消极&emsp;</td> <td>&emsp;无能、低能、废物、拙笨、愚钝、蠢笨&emsp;</td> </tr>
    <tr> <td>&emsp;自我&emsp;</td> <td>&emsp;我、我的、自己、自己的、本人、本人的&emsp;</td> </tr>
    <tr> <td>&emsp;他人&emsp;</td> <td>&emsp;他、他的、别人、别人的、他人、他人的&emsp;</td> </tr>
    </table><br/>","0","html-button-response","7","111292","0.0-6.0-0.0-0.0","4","3","4","4","3","3","3","4","3","4","4","4","2","3","3","5","4","3","4","4","1","1","2","2","1","1","1","2","1","1","1","0","0","0","1","0","1","1","0","0","0","1","0","0","4","2","2","1","3","1","3","3","2","4","3","572507877353193472","郑","681","","","","","","","","","","","","","","","","","2","1","","","","","","","","","","","","","","","","","","","","","","","",""
"3980","
    <div class=""tag-bottom"">
    <p> —— 任务1：对“自我”词和“他人”词分类 ——<p/>
    不同词语会出现在屏幕中央，类别标签将始终显示在屏幕上方<p/>   
    <span style=""color:#FFD866""><b>请根据上方标签的提示，尽可能正确并且快速地做出按键反应</b></span><p/>
    当按键错误时屏幕中会出现<span style=""color:red""> X </span>，需要按另一个键纠正才能继续<br/><p/>
    请把双手食指分别放在键盘的“E”键和“I”键上<p/>
    按<空格键>开始
    </p></div>"," ","html-keyboard-response","8","115276","0.0-6.0-0.0-1.0","4","3","4","4","3","3","3","4","3","4","4","4","2","3","3","5","4","3","4","4","1","1","2","2","1","1","1","2","1","1","1","0","0","0","1","0","1","1","0","0","0","1","0","0","4","2","2","1","3","1","3","3","2","4","3","572507877353193472","郑","681","","","","","","","","","","","","","","","","","","","","","","","","","","","","","","","","","","","","","","","","","",""
"null","","null","html-keyboard-response","9","115527","0.0-6.0-0.0-2.0-0.0","4","3","4","4","3","3","3","4","3","4","4","4","2","3","3","5","4","3","4","4","1","1","2","2","1","1","1","2","1","1","1","0","0","0","1","0","1","1","0","0","0","1","0","0","4","2","2","1","3","1","3","3","2","4","3","572507877353193472","郑","681","","","","","","","","","","","","","","","","","","","","","","","","","","","","","","","","","","","","","","","","","",""
"667","<p style=""color:rgb(150, 250, 100); font-size: 35px;"">自己的</p>","e","categorize-html","10","116197","0.0-6.0-0.0-2.0-1.0","4","3","4","4","3","3","3","4","3","4","4","4","2","3","3","5","4","3","4","4","1","1","2","2","1","1","1","2","1","1","1","0","0","0","1","0","1","1","0","0","0","1","0","0","4","2","2","1","3","1","3","3","2","4","3","572507877353193472","郑","681","","","","","","","","","","","","","","","","","","","true","1","1","ability","667","self","自己的","","","","","","","","","","","","","","","","",""
"null","","null","html-keyboard-response","11","116450","0.0-6.0-0.0-2.0-0.1","4","3","4","4","3","3","3","4","3","4","4","4","2","3","3","5","4","3","4","4","1","1","2","2","1","1","1","2","1","1","1","0","0","0","1","0","1","1","0","0","0","1","0","0","4","2","2","1","3","1","3","3","2","4","3","572507877353193472","郑","681","","","","","","","","","","","","","","","","","","","","","","","","","","","","","","","","","","","","","","","","","",""
"683","<p style=""color:rgb(150, 250, 100); font-size: 35px;"">本人</p>","e","categorize-html","12","117135","0.0-6.0-0.0-2.0-1.1","4","3","4","4","3","3","3","4","3","4","4","4","2","3","3","5","4","3","4","4","1","1","2","2","1","1","1","2","1","1","1","0","0","0","1","0","1","1","0","0","0","1","0","0","4","2","2","1","3","1","3","3","2","4","3","572507877353193472","郑","681","","","","","","","","","","","","","","","","","","","true","1","1","ability","683","self","本人","","","","","","","","","","","","","","","","",""
"null","","null","html-keyboard-response","13","117386","0.0-6.0-0.0-2.0-0.2","4","3","4","4","3","3","3","4","3","4","4","4","2","3","3","5","4","3","4","4","1","1","2","2","1","1","1","2","1","1","1","0","0","0","1","0","1","1","0","0","0","1","0","0","4","2","2","1","3","1","3","3","2","4","3","572507877353193472","郑","681","","","","","","","","","","","","","","","","","","","","","","","","","","","","","","","","","","","","","","","","","",""
"624","<p style=""color:rgb(150, 250, 100); font-size: 35px;"">别人</p>","i","categorize-html","14","118012","0.0-6.0-0.0-2.0-1.2","4","3","4","4","3","3","3","4","3","4","4","4","2","3","3","5","4","3","4","4","1","1","2","2","1","1","1","2","1","1","1","0","0","0","1","0","1","1","0","0","0","1","0","0","4","2","2","1","3","1","3","3","2","4","3","572507877353193472","郑","681","","","","","","","","","","","","","","","","","","","true","1","1","ability","624","other","别人","","","","","","","","","","","","","","","","",""
"null","","null","html-keyboard-response","15","118264","0.0-6.0-0.0-2.0-0.3","4","3","4","4","3","3","3","4","3","4","4","4","2","3","3","5","4","3","4","4","1","1","2","2","1","1","1","2","1","1","1","0","0","0","1","0","1","1","0","0","0","1","0","0","4","2","2","1","3","1","3","3","2","4","3","572507877353193472","郑","681","","","","","","","","","","","","","","","","","","","","","","","","","","","","","","","","","","","","","","","","","",""
"505","<p style=""color:rgb(150, 250, 100); font-size: 35px;"">我</p>","e","categorize-html","16","118771","0.0-6.0-0.0-2.0-1.3","4","3","4","4","3","3","3","4","3","4","4","4","2","3","3","5","4","3","4","4","1","1","2","2","1","1","1","2","1","1","1","0","0","0","1","0","1","1","0","0","0","1","0","0","4","2","2","1","3","1","3","3","2","4","3","572507877353193472","郑","681","","","","","","","","","","","","","","","","","","","true","1","1","ability","505","self","我","","","","","","","","","","","","","","","","",""
"null","","null","html-keyboard-response","17","119023","0.0-6.0-0.0-2.0-0.4","4","3","4","4","3","3","3","4","3","4","4","4","2","3","3","5","4","3","4","4","1","1","2","2","1","1","1","2","1","1","1","0","0","0","1","0","1","1","0","0","0","1","0","0","4","2","2","1","3","1","3","3","2","4","3","572507877353193472","郑","681","","","","","","","","","","","","","","","","","","","","","","","","","","","","","","","","","","","","","","","","","",""
"786","<p style=""color:rgb(150, 250, 100); font-size: 35px;"">别人的</p>","i","categorize-html","18","119811","0.0-6.0-0.0-2.0-1.4","4","3","4","4","3","3","3","4","3","4","4","4","2","3","3","5","4","3","4","4","1","1","2","2","1","1","1","2","1","1","1","0","0","0","1","0","1","1","0","0","0","1","0","0","4","2","2","1","3","1","3","3","2","4","3","572507877353193472","郑","681","","","","","","","","","","","","","","","","","","","true","1","1","ability","786","other","别人的","","","","","","","","","","","","","","","","",""
"null","","null","html-keyboard-response","19","120062","0.0-6.0-0.0-2.0-0.5","4","3","4","4","3","3","3","4","3","4","4","4","2","3","3","5","4","3","4","4","1","1","2","2","1","1","1","2","1","1","1","0","0","0","1","0","1","1","0","0","0","1","0","0","4","2","2","1","3","1","3","3","2","4","3","572507877353193472","郑","681","","","","","","","","","","","","","","","","","","","","","","","","","","","","","","","","","","","","","","","","","",""
"555","<p style=""color:rgb(150, 250, 100); font-size: 35px;"">本人的</p>","e","categorize-html","20","120618","0.0-6.0-0.0-2.0-1.5","4","3","4","4","3","3","3","4","3","4","4","4","2","3","3","5","4","3","4","4","1","1","2","2","1","1","1","2","1","1","1","0","0","0","1","0","1","1","0","0","0","1","0","0","4","2","2","1","3","1","3","3","2","4","3","572507877353193472","郑","681","","","","","","","","","","","","","","","","","","","true","1","1","ability","555","self","本人的","","","","","","","","","","","","","","","","",""
"null","","null","html-keyboard-response","21","120870","0.0-6.0-0.0-2.0-0.6","4","3","4","4","3","3","3","4","3","4","4","4","2","3","3","5","4","3","4","4","1","1","2","2","1","1","1","2","1","1","1","0","0","0","1","0","1","1","0","0","0","1","0","0","4","2","2","1","3","1","3","3","2","4","3","572507877353193472","郑","681","","","","","","","","","","","","","","","","","","","","","","","","","","","","","","","","","","","","","","","","","",""
"445","<p style=""color:rgb(150, 250, 100); font-size: 35px;"">自己</p>","e","categorize-html","22","121317","0.0-6.0-0.0-2.0-1.6","4","3","4","4","3","3","3","4","3","4","4","4","2","3","3","5","4","3","4","4","1","1","2","2","1","1","1","2","1","1","1","0","0","0","1","0","1","1","0","0","0","1","0","0","4","2","2","1","3","1","3","3","2","4","3","572507877353193472","郑","681","","","","","","","","","","","","","","","","","","","true","1","1","ability","445","self","自己","","","","","","","","","","","","","","","","",""
"null","","null","html-keyboard-response","23","121568","0.0-6.0-0.0-2.0-0.7","4","3","4","4","3","3","3","4","3","4","4","4","2","3","3","5","4","3","4","4","1","1","2","2","1","1","1","2","1","1","1","0","0","0","1","0","1","1","0","0","0","1","0","0","4","2","2","1","3","1","3","3","2","4","3","572507877353193472","郑","681","","","","","","","","","","","","","","","","","","","","","","","","","","","","","","","","","","","","","","","","","",""
"488","<p style=""color:rgb(150, 250, 100); font-size: 35px;"">他人</p>","i","categorize-html","24","122057","0.0-6.0-0.0-2.0-1.7","4","3","4","4","3","3","3","4","3","4","4","4","2","3","3","5","4","3","4","4","1","1","2","2","1","1","1","2","1","1","1","0","0","0","1","0","1","1","0","0","0","1","0","0","4","2","2","1","3","1","3","3","2","4","3","572507877353193472","郑","681","","","","","","","","","","","","","","","","","","","true","1","1","ability","488","other","他人","","","","","","","","","","","","","","","","",""
"null","","null","html-keyboard-response","25","122309","0.0-6.0-0.0-2.0-0.8","4","3","4","4","3","3","3","4","3","4","4","4","2","3","3","5","4","3","4","4","1","1","2","2","1","1","1","2","1","1","1","0","0","0","1","0","1","1","0","0","0","1","0","0","4","2","2","1","3","1","3","3","2","4","3","572507877353193472","郑","681","","","","","","","","","","","","","","","","","","","","","","","","","","","","","","","","","","","","","","","","","",""
"544","<p style=""color:rgb(150, 250, 100); font-size: 35px;"">他</p>","i","categorize-html","26","122858","0.0-6.0-0.0-2.0-1.8","4","3","4","4","3","3","3","4","3","4","4","4","2","3","3","5","4","3","4","4","1","1","2","2","1","1","1","2","1","1","1","0","0","0","1","0","1","1","0","0","0","1","0","0","4","2","2","1","3","1","3","3","2","4","3","572507877353193472","郑","681","","","","","","","","","","","","","","","","","","","true","1","1","ability","544","other","他","","","","","","","","","","","","","","","","",""
"null","","null","html-keyboard-response","27","123111","0.0-6.0-0.0-2.0-0.9","4","3","4","4","3","3","3","4","3","4","4","4","2","3","3","5","4","3","4","4","1","1","2","2","1","1","1","2","1","1","1","0","0","0","1","0","1","1","0","0","0","1","0","0","4","2","2","1","3","1","3","3","2","4","3","572507877353193472","郑","681","","","","","","","","","","","","","","","","","","","","","","","","","","","","","","","","","","","","","","","","","",""
"459","<p style=""color:rgb(150, 250, 100); font-size: 35px;"">他人的</p>","i","categorize-html","28","123572","0.0-6.0-0.0-2.0-1.9","4","3","4","4","3","3","3","4","3","4","4","4","2","3","3","5","4","3","4","4","1","1","2","2","1","1","1","2","1","1","1","0","0","0","1","0","1","1","0","0","0","1","0","0","4","2","2","1","3","1","3","3","2","4","3","572507877353193472","郑","681","","","","","","","","","","","","","","","","","","","true","1","1","ability","459","other","他人的","","","","","","","","","","","","","","","","",""
"null","","null","html-keyboard-response","29","123823","0.0-6.0-0.0-2.0-0.10","4","3","4","4","3","3","3","4","3","4","4","4","2","3","3","5","4","3","4","4","1","1","2","2","1","1","1","2","1","1","1","0","0","0","1","0","1","1","0","0","0","1","0","0","4","2","2","1","3","1","3","3","2","4","3","572507877353193472","郑","681","","","","","","","","","","","","","","","","","","","","","","","","","","","","","","","","","","","","","","","","","",""
"576","<p style=""color:rgb(150, 250, 100); font-size: 35px;"">我的</p>","e","categorize-html","30","124402","0.0-6.0-0.0-2.0-1.10","4","3","4","4","3","3","3","4","3","4","4","4","2","3","3","5","4","3","4","4","1","1","2","2","1","1","1","2","1","1","1","0","0","0","1","0","1","1","0","0","0","1","0","0","4","2","2","1","3","1","3","3","2","4","3","572507877353193472","郑","681","","","","","","","","","","","","","","","","","","","true","1","1","ability","576","self","我的","","","","","","","","","","","","","","","","",""
"null","","null","html-keyboard-response","31","124652","0.0-6.0-0.0-2.0-0.11","4","3","4","4","3","3","3","4","3","4","4","4","2","3","3","5","4","3","4","4","1","1","2","2","1","1","1","2","1","1","1","0","0","0","1","0","1","1","0","0","0","1","0","0","4","2","2","1","3","1","3","3","2","4","3","572507877353193472","郑","681","","","","","","","","","","","","","","","","","","","","","","","","","","","","","","","","","","","","","","","","","",""
"519","<p style=""color:rgb(150, 250, 100); font-size: 35px;"">他的</p>","i","categorize-html","32","125173","0.0-6.0-0.0-2.0-1.11","4","3","4","4","3","3","3","4","3","4","4","4","2","3","3","5","4","3","4","4","1","1","2","2","1","1","1","2","1","1","1","0","0","0","1","0","1","1","0","0","0","1","0","0","4","2","2","1","3","1","3","3","2","4","3","572507877353193472","郑","681","","","","","","","","","","","","","","","","","","","true","1","1","ability","519","other","他的","","","","","","","","","","","","","","","","",""
"1558","
    <div class=""tag-bottom""><p>
    —— 任务2：对“消极”词和“积极”词分类 ——<p/>   
    <span style=""color:#78DCE8""><b>注意上方，类别标签和需要分类的词语都已经改变</b></span><p/>
    <span style=""color:#FFD866""><b>请根据上方标签的提示，尽可能正确并且快速地做出按键反应</b></span><p/>
    当按键错误时屏幕中会出现<span style=""color:red""> X </span>，需要按另一个键纠正才能继续<br/><p/>
    请把双手食指分别放在键盘的“E”键和“I”键上<p/>
    按<空格键>开始
    </p></div>"," ","html-keyboard-response","33","126732","0.0-6.0-0.0-3.0","4","3","4","4","3","3","3","4","3","4","4","4","2","3","3","5","4","3","4","4","1","1","2","2","1","1","1","2","1","1","1","0","0","0","1","0","1","1","0","0","0","1","0","0","4","2","2","1","3","1","3","3","2","4","3","572507877353193472","郑","681","","","","","","","","","","","","","","","","","","","","","","","","","","","","","","","","","","","","","","","","","",""
"null","","null","html-keyboard-response","34","126984","0.0-6.0-0.0-4.0-0.0","4","3","4","4","3","3","3","4","3","4","4","4","2","3","3","5","4","3","4","4","1","1","2","2","1","1","1","2","1","1","1","0","0","0","1","0","1","1","0","0","0","1","0","0","4","2","2","1","3","1","3","3","2","4","3","572507877353193472","郑","681","","","","","","","","","","","","","","","","","","","","","","","","","","","","","","","","","","","","","","","","","",""
"1193","<p style=""color:white; font-size: 35px;"">全才</p>","i","categorize-html","35","128180","0.0-6.0-0.0-4.0-1.0","4","3","4","4","3","3","3","4","3","4","4","4","2","3","3","5","4","3","4","4","1","1","2","2","1","1","1","2","1","1","1","0","0","0","1","0","1","1","0","0","0","1","0","0","4","2","2","1","3","1","3","3","2","4","3","572507877353193472","郑","681","","","","","","","","","","","","","","","","","","","true","2","2","ability","1193","positive","全才","","","","","","","","","","","","","","","","",""
"null","","null","html-keyboard-response","36","128431","0.0-6.0-0.0-4.0-0.1","4","3","4","4","3","3","3","4","3","4","4","4","2","3","3","5","4","3","4","4","1","1","2","2","1","1","1","2","1","1","1","0","0","0","1","0","1","1","0","0","0","1","0","0","4","2","2","1","3","1","3","3","2","4","3","572507877353193472","郑","681","","","","","","","","","","","","","","","","","","","","","","","","","","","","","","","","","","","","","","","","","",""
"674","<p style=""color:white; font-size: 35px;"">愚钝</p>","e","categorize-html","37","129107","0.0-6.0-0.0-4.0-1.1","4","3","4","4","3","3","3","4","3","4","4","4","2","3","3","5","4","3","4","4","1","1","2","2","1","1","1","2","1","1","1","0","0","0","1","0","1","1","0","0","0","1","0","0","4","2","2","1","3","1","3","3","2","4","3","572507877353193472","郑","681","","","","","","","","","","","","","","","","","","","true","2","2","ability","674","negative","愚钝","","","","","","","","","","","","","","","","",""
"null","","null","html-keyboard-response","38","129358","0.0-6.0-0.0-4.0-0.2","4","3","4","4","3","3","3","4","3","4","4","4","2","3","3","5","4","3","4","4","1","1","2","2","1","1","1","2","1","1","1","0","0","0","1","0","1","1","0","0","0","1","0","0","4","2","2","1","3","1","3","3","2","4","3","572507877353193472","郑","681","","","","","","","","","","","","","","","","","","","","","","","","","","","","","","","","","","","","","","","","","",""
"485","<p style=""color:white; font-size: 35px;"">无能</p>","e","categorize-html","39","129843","0.0-6.0-0.0-4.0-1.2","4","3","4","4","3","3","3","4","3","4","4","4","2","3","3","5","4","3","4","4","1","1","2","2","1","1","1","2","1","1","1","0","0","0","1","0","1","1","0","0","0","1","0","0","4","2","2","1","3","1","3","3","2","4","3","572507877353193472","郑","681","","","","","","","","","","","","","","","","","","","true","2","2","ability","485","negative","无能","","","","","","","","","","","","","","","","",""
"null","","null","html-keyboard-response","40","130094","0.0-6.0-0.0-4.0-0.3","4","3","4","4","3","3","3","4","3","4","4","4","2","3","3","5","4","3","4","4","1","1","2","2","1","1","1","2","1","1","1","0","0","0","1","0","1","1","0","0","0","1","0","0","4","2","2","1","3","1","3","3","2","4","3","572507877353193472","郑","681","","","","","","","","","","","","","","","","","","","","","","","","","","","","","","","","","","","","","","","","","",""
"449","<p style=""color:white; font-size: 35px;"">能干</p>","i","categorize-html","41","130544","0.0-6.0-0.0-4.0-1.3","4","3","4","4","3","3","3","4","3","4","4","4","2","3","3","5","4","3","4","4","1","1","2","2","1","1","1","2","1","1","1","0","0","0","1","0","1","1","0","0","0","1","0","0","4","2","2","1","3","1","3","3","2","4","3","572507877353193472","郑","681","","","","","","","","","","","","","","","","","","","true","2","2","ability","449","positive","能干","","","","","","","","","","","","","","","","",""
"null","","null","html-keyboard-response","42","130796","0.0-6.0-0.0-4.0-0.4","4","3","4","4","3","3","3","4","3","4","4","4","2","3","3","5","4","3","4","4","1","1","2","2","1","1","1","2","1","1","1","0","0","0","1","0","1","1","0","0","0","1","0","0","4","2","2","1","3","1","3","3","2","4","3","572507877353193472","郑","681","","","","","","","","","","","","","","","","","","","","","","","","","","","","","","","","","","","","","","","","","",""
"461","<p style=""color:white; font-size: 35px;"">低能</p>","e","categorize-html","43","131260","0.0-6.0-0.0-4.0-1.4","4","3","4","4","3","3","3","4","3","4","4","4","2","3","3","5","4","3","4","4","1","1","2","2","1","1","1","2","1","1","1","0","0","0","1","0","1","1","0","0","0","1","0","0","4","2","2","1","3","1","3","3","2","4","3","572507877353193472","郑","681","","","","","","","","","","","","","","","","","","","true","2","2","ability","461","negative","低能","","","","","","","","","","","","","","","","",""
"null","","null","html-keyboard-response","44","131511","0.0-6.0-0.0-4.0-0.5","4","3","4","4","3","3","3","4","3","4","4","4","2","3","3","5","4","3","4","4","1","1","2","2","1","1","1","2","1","1","1","0","0","0","1","0","1","1","0","0","0","1","0","0","4","2","2","1","3","1","3","3","2","4","3","572507877353193472","郑","681","","","","","","","","","","","","","","","","","","","","","","","","","","","","","","","","","","","","","","","","","",""
"501","<p style=""color:white; font-size: 35px;"">拙笨</p>","e","categorize-html","45","132015","0.0-6.0-0.0-4.0-1.5","4","3","4","4","3","3","3","4","3","4","4","4","2","3","3","5","4","3","4","4","1","1","2","2","1","1","1","2","1","1","1","0","0","0","1","0","1","1","0","0","0","1","0","0","4","2","2","1","3","1","3","3","2","4","3","572507877353193472","郑","681","","","","","","","","","","","","","","","","","","","true","2","2","ability","501","negative","拙笨","","","","","","","","","","","","","","","","",""
"null","","null","html-keyboard-response","46","132266","0.0-6.0-0.0-4.0-0.6","4","3","4","4","3","3","3","4","3","4","4","4","2","3","3","5","4","3","4","4","1","1","2","2","1","1","1","2","1","1","1","0","0","0","1","0","1","1","0","0","0","1","0","0","4","2","2","1","3","1","3","3","2","4","3","572507877353193472","郑","681","","","","","","","","","","","","","","","","","","","","","","","","","","","","","","","","","","","","","","","","","",""
"565","<p style=""color:white; font-size: 35px;"">高效</p>","i","categorize-html","47","132831","0.0-6.0-0.0-4.0-1.6","4","3","4","4","3","3","3","4","3","4","4","4","2","3","3","5","4","3","4","4","1","1","2","2","1","1","1","2","1","1","1","0","0","0","1","0","1","1","0","0","0","1","0","0","4","2","2","1","3","1","3","3","2","4","3","572507877353193472","郑","681","","","","","","","","","","","","","","","","","","","true","2","2","ability","565","positive","高效","","","","","","","","","","","","","","","","",""
"null","","null","html-keyboard-response","48","133083","0.0-6.0-0.0-4.0-0.7","4","3","4","4","3","3","3","4","3","4","4","4","2","3","3","5","4","3","4","4","1","1","2","2","1","1","1","2","1","1","1","0","0","0","1","0","1","1","0","0","0","1","0","0","4","2","2","1","3","1","3","3","2","4","3","572507877353193472","郑","681","","","","","","","","","","","","","","","","","","","","","","","","","","","","","","","","","","","","","","","","","",""
"473","<p style=""color:white; font-size: 35px;"">蠢笨</p>","e","categorize-html","49","133558","0.0-6.0-0.0-4.0-1.7","4","3","4","4","3","3","3","4","3","4","4","4","2","3","3","5","4","3","4","4","1","1","2","2","1","1","1","2","1","1","1","0","0","0","1","0","1","1","0","0","0","1","0","0","4","2","2","1","3","1","3","3","2","4","3","572507877353193472","郑","681","","","","","","","","","","","","","","","","","","","true","2","2","ability","473","negative","蠢笨","","","","","","","","","","","","","","","","",""
"null","","null","html-keyboard-response","50","133808","0.0-6.0-0.0-4.0-0.8","4","3","4","4","3","3","3","4","3","4","4","4","2","3","3","5","4","3","4","4","1","1","2","2","1","1","1","2","1","1","1","0","0","0","1","0","1","1","0","0","0","1","0","0","4","2","2","1","3","1","3","3","2","4","3","572507877353193472","郑","681","","","","","","","","","","","","","","","","","","","","","","","","","","","","","","","","","","","","","","","","","",""
"446","<p style=""color:white; font-size: 35px;"">精干</p>","i","categorize-html","51","134256","0.0-6.0-0.0-4.0-1.8","4","3","4","4","3","3","3","4","3","4","4","4","2","3","3","5","4","3","4","4","1","1","2","2","1","1","1","2","1","1","1","0","0","0","1","0","1","1","0","0","0","1","0","0","4","2","2","1","3","1","3","3","2","4","3","572507877353193472","郑","681","","","","","","","","","","","","","","","","","","","true","2","2","ability","446","positive","精干","","","","","","","","","","","","","","","","",""
"null","","null","html-keyboard-response","52","134508","0.0-6.0-0.0-4.0-0.9","4","3","4","4","3","3","3","4","3","4","4","4","2","3","3","5","4","3","4","4","1","1","2","2","1","1","1","2","1","1","1","0","0","0","1","0","1","1","0","0","0","1","0","0","4","2","2","1","3","1","3","3","2","4","3","572507877353193472","郑","681","","","","","","","","","","","","","","","","","","","","","","","","","","","","","","","","","","","","","","","","","",""
"645","<p style=""color:white; font-size: 35px;"">天才</p>","i","categorize-html","53","135153","0.0-6.0-0.0-4.0-1.9","4","3","4","4","3","3","3","4","3","4","4","4","2","3","3","5","4","3","4","4","1","1","2","2","1","1","1","2","1","1","1","0","0","0","1","0","1","1","0","0","0","1","0","0","4","2","2","1","3","1","3","3","2","4","3","572507877353193472","郑","681","","","","","","","","","","","","","","","","","","","true","2","2","ability","645","positive","天才","","","","","","","","","","","","","","","","",""
"null","","null","html-keyboard-response","54","135407","0.0-6.0-0.0-4.0-0.10","4","3","4","4","3","3","3","4","3","4","4","4","2","3","3","5","4","3","4","4","1","1","2","2","1","1","1","2","1","1","1","0","0","0","1","0","1","1","0","0","0","1","0","0","4","2","2","1","3","1","3","3","2","4","3","572507877353193472","郑","681","","","","","","","","","","","","","","","","","","","","","","","","","","","","","","","","","","","","","","","","","",""
"543","<p style=""color:white; font-size: 35px;"">全能</p>","i","categorize-html","55","135954","0.0-6.0-0.0-4.0-1.10","4","3","4","4","3","3","3","4","3","4","4","4","2","3","3","5","4","3","4","4","1","1","2","2","1","1","1","2","1","1","1","0","0","0","1","0","1","1","0","0","0","1","0","0","4","2","2","1","3","1","3","3","2","4","3","572507877353193472","郑","681","","","","","","","","","","","","","","","","","","","true","2","2","ability","543","positive","全能","","","","","","","","","","","","","","","","",""
"null","","null","html-keyboard-response","56","136205","0.0-6.0-0.0-4.0-0.11","4","3","4","4","3","3","3","4","3","4","4","4","2","3","3","5","4","3","4","4","1","1","2","2","1","1","1","2","1","1","1","0","0","0","1","0","1","1","0","0","0","1","0","0","4","2","2","1","3","1","3","3","2","4","3","572507877353193472","郑","681","","","","","","","","","","","","","","","","","","","","","","","","","","","","","","","","","","","","","","","","","",""
"519","<p style=""color:white; font-size: 35px;"">废物</p>","e","categorize-html","57","136726","0.0-6.0-0.0-4.0-1.11","4","3","4","4","3","3","3","4","3","4","4","4","2","3","3","5","4","3","4","4","1","1","2","2","1","1","1","2","1","1","1","0","0","0","1","0","1","1","0","0","0","1","0","0","4","2","2","1","3","1","3","3","2","4","3","572507877353193472","郑","681","","","","","","","","","","","","","","","","","","","true","2","2","ability","519","negative","废物","","","","","","","","","","","","","","","","",""
"1440","
    <div class=""tag-bottom""><p>
    —— 任务3：对“自我/消极”词和“他人/积极”词分类 ——<p/>
    <span style=""color:#78DCE8""><b>注意上方，之前的四类词语将混合在一起交替呈现</b></span><p/>
    <span style=""color:#FFD866""><b>请根据上方标签的提示，尽可能正确并且快速地做出按键反应</b></span><p/>
    当按键错误时屏幕中会出现<span style=""color:red""> X </span>，需要按另一个键纠正才能继续<br/><p/>
    请把双手食指分别放在键盘的“E”键和“I”键上<p/>
    按<空格键>开始
    </p></div>"," ","html-keyboard-response","58","138166","0.0-6.0-0.0-5.0","4","3","4","4","3","3","3","4","3","4","4","4","2","3","3","5","4","3","4","4","1","1","2","2","1","1","1","2","1","1","1","0","0","0","1","0","1","1","0","0","0","1","0","0","4","2","2","1","3","1","3","3","2","4","3","572507877353193472","郑","681","","","","","","","","","","","","","","","","","","","","","","","","","","","","","","","","","","","","","","","","","",""
"null","","null","html-keyboard-response","59","138417","0.0-6.0-0.0-6.0-0.0","4","3","4","4","3","3","3","4","3","4","4","4","2","3","3","5","4","3","4","4","1","1","2","2","1","1","1","2","1","1","1","0","0","0","1","0","1","1","0","0","0","1","0","0","4","2","2","1","3","1","3","3","2","4","3","572507877353193472","郑","681","","","","","","","","","","","","","","","","","","","","","","","","","","","","","","","","","","","","","","","","","",""
"556","<p style=""color:rgb(150, 250, 100); font-size: 35px;"">本人的</p>","e","categorize-html","60","138976","0.0-6.0-0.0-6.0-1.0","4","3","4","4","3","3","3","4","3","4","4","4","2","3","3","5","4","3","4","4","1","1","2","2","1","1","1","2","1","1","1","0","0","0","1","0","1","1","0","0","0","1","0","0","4","2","2","1","3","1","3","3","2","4","3","572507877353193472","郑","681","","","","","","","","","","","","","","","","","","","true","3","3","ability","556","self","本人的","","","","","","","","","","","","","","","","",""
"null","","null","html-keyboard-response","61","139228","0.0-6.0-0.0-6.0-0.1","4","3","4","4","3","3","3","4","3","4","4","4","2","3","3","5","4","3","4","4","1","1","2","2","1","1","1","2","1","1","1","0","0","0","1","0","1","1","0","0","0","1","0","0","4","2","2","1","3","1","3","3","2","4","3","572507877353193472","郑","681","","","","","","","","","","","","","","","","","","","","","","","","","","","","","","","","","","","","","","","","","",""
"767","<p style=""color:white; font-size: 35px;"">全能</p>","i","categorize-html","62","139998","0.0-6.0-0.0-6.0-1.1","4","3","4","4","3","3","3","4","3","4","4","4","2","3","3","5","4","3","4","4","1","1","2","2","1","1","1","2","1","1","1","0","0","0","1","0","1","1","0","0","0","1","0","0","4","2","2","1","3","1","3","3","2","4","3","572507877353193472","郑","681","","","","","","","","","","","","","","","","","","","true","3","3","ability","767","positive","全能","","","","","","","","","","","","","","","","",""
"null","","null","html-keyboard-response","63","140249","0.0-6.0-0.0-6.0-0.2","4","3","4","4","3","3","3","4","3","4","4","4","2","3","3","5","4","3","4","4","1","1","2","2","1","1","1","2","1","1","1","0","0","0","1","0","1","1","0","0","0","1","0","0","4","2","2","1","3","1","3","3","2","4","3","572507877353193472","郑","681","","","","","","","","","","","","","","","","","","","","","","","","","","","","","","","","","","","","","","","","","",""
"974","<p style=""color:rgb(150, 250, 100); font-size: 35px;"">别人的</p>","i","categorize-html","64","141227","0.0-6.0-0.0-6.0-1.2","4","3","4","4","3","3","3","4","3","4","4","4","2","3","3","5","4","3","4","4","1","1","2","2","1","1","1","2","1","1","1","0","0","0","1","0","1","1","0","0","0","1","0","0","4","2","2","1","3","1","3","3","2","4","3","572507877353193472","郑","681","","","","","","","","","","","","","","","","","","","true","3","3","ability","974","other","别人的","","","","","","","","","","","","","","","","",""
"null","","null","html-keyboard-response","65","141479","0.0-6.0-0.0-6.0-0.3","4","3","4","4","3","3","3","4","3","4","4","4","2","3","3","5","4","3","4","4","1","1","2","2","1","1","1","2","1","1","1","0","0","0","1","0","1","1","0","0","0","1","0","0","4","2","2","1","3","1","3","3","2","4","3","572507877353193472","郑","681","","","","","","","","","","","","","","","","","","","","","","","","","","","","","","","","","","","","","","","","","",""
"774","<p style=""color:white; font-size: 35px;"">低能</p>","e","categorize-html","66","142255","0.0-6.0-0.0-6.0-1.3","4","3","4","4","3","3","3","4","3","4","4","4","2","3","3","5","4","3","4","4","1","1","2","2","1","1","1","2","1","1","1","0","0","0","1","0","1","1","0","0","0","1","0","0","4","2","2","1","3","1","3","3","2","4","3","572507877353193472","郑","681","","","","","","","","","","","","","","","","","","","true","3","3","ability","774","negative","低能","","","","","","","","","","","","","","","","",""
"null","","null","html-keyboard-response","67","142508","0.0-6.0-0.0-6.0-0.4","4","3","4","4","3","3","3","4","3","4","4","4","2","3","3","5","4","3","4","4","1","1","2","2","1","1","1","2","1","1","1","0","0","0","1","0","1","1","0","0","0","1","0","0","4","2","2","1","3","1","3","3","2","4","3","572507877353193472","郑","681","","","","","","","","","","","","","","","","","","","","","","","","","","","","","","","","","","","","","","","","","",""
"488","<p style=""color:rgb(150, 250, 100); font-size: 35px;"">我</p>","e","categorize-html","68","142998","0.0-6.0-0.0-6.0-1.4","4","3","4","4","3","3","3","4","3","4","4","4","2","3","3","5","4","3","4","4","1","1","2","2","1","1","1","2","1","1","1","0","0","0","1","0","1","1","0","0","0","1","0","0","4","2","2","1","3","1","3","3","2","4","3","572507877353193472","郑","681","","","","","","","","","","","","","","","","","","","true","3","3","ability","488","self","我","","","","","","","","","","","","","","","","",""
"null","","null","html-keyboard-response","69","143250","0.0-6.0-0.0-6.0-0.5","4","3","4","4","3","3","3","4","3","4","4","4","2","3","3","5","4","3","4","4","1","1","2","2","1","1","1","2","1","1","1","0","0","0","1","0","1","1","0","0","0","1","0","0","4","2","2","1","3","1","3","3","2","4","3","572507877353193472","郑","681","","","","","","","","","","","","","","","","","","","","","","","","","","","","","","","","","","","","","","","","","",""
"873","<p style=""color:white; font-size: 35px;"">废物</p>","e","categorize-html","70","144124","0.0-6.0-0.0-6.0-1.5","4","3","4","4","3","3","3","4","3","4","4","4","2","3","3","5","4","3","4","4","1","1","2","2","1","1","1","2","1","1","1","0","0","0","1","0","1","1","0","0","0","1","0","0","4","2","2","1","3","1","3","3","2","4","3","572507877353193472","郑","681","","","","","","","","","","","","","","","","","","","true","3","3","ability","873","negative","废物","","","","","","","","","","","","","","","","",""
"null","","null","html-keyboard-response","71","144376","0.0-6.0-0.0-6.0-0.6","4","3","4","4","3","3","3","4","3","4","4","4","2","3","3","5","4","3","4","4","1","1","2","2","1","1","1","2","1","1","1","0","0","0","1","0","1","1","0","0","0","1","0","0","4","2","2","1","3","1","3","3","2","4","3","572507877353193472","郑","681","","","","","","","","","","","","","","","","","","","","","","","","","","","","","","","","","","","","","","","","","",""
"603","<p style=""color:rgb(150, 250, 100); font-size: 35px;"">别人</p>","e","categorize-html","72","145510","0.0-6.0-0.0-6.0-1.6","4","3","4","4","3","3","3","4","3","4","4","4","2","3","3","5","4","3","4","4","1","1","2","2","1","1","1","2","1","1","1","0","0","0","1","0","1","1","0","0","0","1","0","0","4","2","2","1","3","1","3","3","2","4","3","572507877353193472","郑","681","","","","","","","","","","","","","","","","","","","false","3","3","ability","1334.7727272727273","other","别人","","","","","","","","","","","","","","","","",""
"null","","null","html-keyboard-response","73","145762","0.0-6.0-0.0-6.0-0.7","4","3","4","4","3","3","3","4","3","4","4","4","2","3","3","5","4","3","4","4","1","1","2","2","1","1","1","2","1","1","1","0","0","0","1","0","1","1","0","0","0","1","0","0","4","2","2","1","3","1","3","3","2","4","3","572507877353193472","郑","681","","","","","","","","","","","","","","","","","","","","","","","","","","","","","","","","","","","","","","","","","",""
"946","<p style=""color:white; font-size: 35px;"">天才</p>","i","categorize-html","74","146711","0.0-6.0-0.0-6.0-1.7","4","3","4","4","3","3","3","4","3","4","4","4","2","3","3","5","4","3","4","4","1","1","2","2","1","1","1","2","1","1","1","0","0","0","1","0","1","1","0","0","0","1","0","0","4","2","2","1","3","1","3","3","2","4","3","572507877353193472","郑","681","","","","","","","","","","","","","","","","","","","true","3","3","ability","946","positive","天才","","","","","","","","","","","","","","","","",""
"null","","null","html-keyboard-response","75","146962","0.0-6.0-0.0-6.0-0.8","4","3","4","4","3","3","3","4","3","4","4","4","2","3","3","5","4","3","4","4","1","1","2","2","1","1","1","2","1","1","1","0","0","0","1","0","1","1","0","0","0","1","0","0","4","2","2","1","3","1","3","3","2","4","3","572507877353193472","郑","681","","","","","","","","","","","","","","","","","","","","","","","","","","","","","","","","","","","","","","","","","",""
"702","<p style=""color:rgb(150, 250, 100); font-size: 35px;"">本人</p>","e","categorize-html","76","147666","0.0-6.0-0.0-6.0-1.8","4","3","4","4","3","3","3","4","3","4","4","4","2","3","3","5","4","3","4","4","1","1","2","2","1","1","1","2","1","1","1","0","0","0","1","0","1","1","0","0","0","1","0","0","4","2","2","1","3","1","3","3","2","4","3","572507877353193472","郑","681","","","","","","","","","","","","","","","","","","","true","3","3","ability","702","self","本人","","","","","","","","","","","","","","","","",""
"null","","null","html-keyboard-response","77","147918","0.0-6.0-0.0-6.0-0.9","4","3","4","4","3","3","3","4","3","4","4","4","2","3","3","5","4","3","4","4","1","1","2","2","1","1","1","2","1","1","1","0","0","0","1","0","1","1","0","0","0","1","0","0","4","2","2","1","3","1","3","3","2","4","3","572507877353193472","郑","681","","","","","","","","","","","","","","","","","","","","","","","","","","","","","","","","","","","","","","","","","",""
"517","<p style=""color:white; font-size: 35px;"">愚钝</p>","e","categorize-html","78","148437","0.0-6.0-0.0-6.0-1.9","4","3","4","4","3","3","3","4","3","4","4","4","2","3","3","5","4","3","4","4","1","1","2","2","1","1","1","2","1","1","1","0","0","0","1","0","1","1","0","0","0","1","0","0","4","2","2","1","3","1","3","3","2","4","3","572507877353193472","郑","681","","","","","","","","","","","","","","","","","","","true","3","3","ability","517","negative","愚钝","","","","","","","","","","","","","","","","",""
"null","","null","html-keyboard-response","79","148688","0.0-6.0-0.0-6.0-0.10","4","3","4","4","3","3","3","4","3","4","4","4","2","3","3","5","4","3","4","4","1","1","2","2","1","1","1","2","1","1","1","0","0","0","1","0","1","1","0","0","0","1","0","0","4","2","2","1","3","1","3","3","2","4","3","572507877353193472","郑","681","","","","","","","","","","","","","","","","","","","","","","","","","","","","","","","","","","","","","","","","","",""
"638","<p style=""color:rgb(150, 250, 100); font-size: 35px;"">他</p>","i","categorize-html","80","149332","0.0-6.0-0.0-6.0-1.10","4","3","4","4","3","3","3","4","3","4","4","4","2","3","3","5","4","3","4","4","1","1","2","2","1","1","1","2","1","1","1","0","0","0","1","0","1","1","0","0","0","1","0","0","4","2","2","1","3","1","3","3","2","4","3","572507877353193472","郑","681","","","","","","","","","","","","","","","","","","","true","3","3","ability","638","other","他","","","","","","","","","","","","","","","","",""
"null","","null","html-keyboard-response","81","149585","0.0-6.0-0.0-6.0-0.11","4","3","4","4","3","3","3","4","3","4","4","4","2","3","3","5","4","3","4","4","1","1","2","2","1","1","1","2","1","1","1","0","0","0","1","0","1","1","0","0","0","1","0","0","4","2","2","1","3","1","3","3","2","4","3","572507877353193472","郑","681","","","","","","","","","","","","","","","","","","","","","","","","","","","","","","","","","","","","","","","","","",""
"574","<p style=""color:white; font-size: 35px;"">能干</p>","e","categorize-html","82","150670","0.0-6.0-0.0-6.0-1.11","4","3","4","4","3","3","3","4","3","4","4","4","2","3","3","5","4","3","4","4","1","1","2","2","1","1","1","2","1","1","1","0","0","0","1","0","1","1","0","0","0","1","0","0","4","2","2","1","3","1","3","3","2","4","3","572507877353193472","郑","681","","","","","","","","","","","","","","","","","","","false","3","3","ability","1334.7727272727273","positive","能干","","","","","","","","","","","","","","","","",""
"null","","null","html-keyboard-response","83","150935","0.0-6.0-0.0-6.0-0.12","4","3","4","4","3","3","3","4","3","4","4","4","2","3","3","5","4","3","4","4","1","1","2","2","1","1","1","2","1","1","1","0","0","0","1","0","1","1","0","0","0","1","0","0","4","2","2","1","3","1","3","3","2","4","3","572507877353193472","郑","681","","","","","","","","","","","","","","","","","","","","","","","","","","","","","","","","","","","","","","","","","",""
"796","<p style=""color:rgb(150, 250, 100); font-size: 35px;"">他的</p>","i","categorize-html","84","151733","0.0-6.0-0.0-6.0-1.12","4","3","4","4","3","3","3","4","3","4","4","4","2","3","3","5","4","3","4","4","1","1","2","2","1","1","1","2","1","1","1","0","0","0","1","0","1","1","0","0","0","1","0","0","4","2","2","1","3","1","3","3","2","4","3","572507877353193472","郑","681","","","","","","","","","","","","","","","","","","","true","3","3","ability","796","other","他的","","","","","","","","","","","","","","","","",""
"null","","null","html-keyboard-response","85","151984","0.0-6.0-0.0-6.0-0.13","4","3","4","4","3","3","3","4","3","4","4","4","2","3","3","5","4","3","4","4","1","1","2","2","1","1","1","2","1","1","1","0","0","0","1","0","1","1","0","0","0","1","0","0","4","2","2","1","3","1","3","3","2","4","3","572507877353193472","郑","681","","","","","","","","","","","","","","","","","","","","","","","","","","","","","","","","","","","","","","","","","",""
"1102","<p style=""color:white; font-size: 35px;"">无能</p>","e","categorize-html","86","153089","0.0-6.0-0.0-6.0-1.13","4","3","4","4","3","3","3","4","3","4","4","4","2","3","3","5","4","3","4","4","1","1","2","2","1","1","1","2","1","1","1","0","0","0","1","0","1","1","0","0","0","1","0","0","4","2","2","1","3","1","3","3","2","4","3","572507877353193472","郑","681","","","","","","","","","","","","","","","","","","","true","3","3","ability","1102","negative","无能","","","","","","","","","","","","","","","","",""
"null","","null","html-keyboard-response","87","153341","0.0-6.0-0.0-6.0-0.14","4","3","4","4","3","3","3","4","3","4","4","4","2","3","3","5","4","3","4","4","1","1","2","2","1","1","1","2","1","1","1","0","0","0","1","0","1","1","0","0","0","1","0","0","4","2","2","1","3","1","3","3","2","4","3","572507877353193472","郑","681","","","","","","","","","","","","","","","","","","","","","","","","","","","","","","","","","","","","","","","","","",""
"507","<p style=""color:rgb(150, 250, 100); font-size: 35px;"">自己</p>","e","categorize-html","88","153849","0.0-6.0-0.0-6.0-1.14","4","3","4","4","3","3","3","4","3","4","4","4","2","3","3","5","4","3","4","4","1","1","2","2","1","1","1","2","1","1","1","0","0","0","1","0","1","1","0","0","0","1","0","0","4","2","2","1","3","1","3","3","2","4","3","572507877353193472","郑","681","","","","","","","","","","","","","","","","","","","true","3","3","ability","507","self","自己","","","","","","","","","","","","","","","","",""
"null","","null","html-keyboard-response","89","154101","0.0-6.0-0.0-6.0-0.15","4","3","4","4","3","3","3","4","3","4","4","4","2","3","3","5","4","3","4","4","1","1","2","2","1","1","1","2","1","1","1","0","0","0","1","0","1","1","0","0","0","1","0","0","4","2","2","1","3","1","3","3","2","4","3","572507877353193472","郑","681","","","","","","","","","","","","","","","","","","","","","","","","","","","","","","","","","","","","","","","","","",""
"629","<p style=""color:white; font-size: 35px;"">精干</p>","i","categorize-html","90","154734","0.0-6.0-0.0-6.0-1.15","4","3","4","4","3","3","3","4","3","4","4","4","2","3","3","5","4","3","4","4","1","1","2","2","1","1","1","2","1","1","1","0","0","0","1","0","1","1","0","0","0","1","0","0","4","2","2","1","3","1","3","3","2","4","3","572507877353193472","郑","681","","","","","","","","","","","","","","","","","","","true","3","3","ability","629","positive","精干","","","","","","","","","","","","","","","","",""
"null","","null","html-keyboard-response","91","154987","0.0-6.0-0.0-6.0-0.16","4","3","4","4","3","3","3","4","3","4","4","4","2","3","3","5","4","3","4","4","1","1","2","2","1","1","1","2","1","1","1","0","0","0","1","0","1","1","0","0","0","1","0","0","4","2","2","1","3","1","3","3","2","4","3","572507877353193472","郑","681","","","","","","","","","","","","","","","","","","","","","","","","","","","","","","","","","","","","","","","","","",""
"552","<p style=""color:rgb(150, 250, 100); font-size: 35px;"">他人的</p>","i","categorize-html","92","155540","0.0-6.0-0.0-6.0-1.16","4","3","4","4","3","3","3","4","3","4","4","4","2","3","3","5","4","3","4","4","1","1","2","2","1","1","1","2","1","1","1","0","0","0","1","0","1","1","0","0","0","1","0","0","4","2","2","1","3","1","3","3","2","4","3","572507877353193472","郑","681","","","","","","","","","","","","","","","","","","","true","3","3","ability","552","other","他人的","","","","","","","","","","","","","","","","",""
"null","","null","html-keyboard-response","93","155791","0.0-6.0-0.0-6.0-0.17","4","3","4","4","3","3","3","4","3","4","4","4","2","3","3","5","4","3","4","4","1","1","2","2","1","1","1","2","1","1","1","0","0","0","1","0","1","1","0","0","0","1","0","0","4","2","2","1","3","1","3","3","2","4","3","572507877353193472","郑","681","","","","","","","","","","","","","","","","","","","","","","","","","","","","","","","","","","","","","","","","","",""
"952","<p style=""color:white; font-size: 35px;"">高效</p>","i","categorize-html","94","156746","0.0-6.0-0.0-6.0-1.17","4","3","4","4","3","3","3","4","3","4","4","4","2","3","3","5","4","3","4","4","1","1","2","2","1","1","1","2","1","1","1","0","0","0","1","0","1","1","0","0","0","1","0","0","4","2","2","1","3","1","3","3","2","4","3","572507877353193472","郑","681","","","","","","","","","","","","","","","","","","","true","3","3","ability","952","positive","高效","","","","","","","","","","","","","","","","",""
"null","","null","html-keyboard-response","95","156998","0.0-6.0-0.0-6.0-0.18","4","3","4","4","3","3","3","4","3","4","4","4","2","3","3","5","4","3","4","4","1","1","2","2","1","1","1","2","1","1","1","0","0","0","1","0","1","1","0","0","0","1","0","0","4","2","2","1","3","1","3","3","2","4","3","572507877353193472","郑","681","","","","","","","","","","","","","","","","","","","","","","","","","","","","","","","","","","","","","","","","","",""
"853","<p style=""color:rgb(150, 250, 100); font-size: 35px;"">自己的</p>","e","categorize-html","96","157854","0.0-6.0-0.0-6.0-1.18","4","3","4","4","3","3","3","4","3","4","4","4","2","3","3","5","4","3","4","4","1","1","2","2","1","1","1","2","1","1","1","0","0","0","1","0","1","1","0","0","0","1","0","0","4","2","2","1","3","1","3","3","2","4","3","572507877353193472","郑","681","","","","","","","","","","","","","","","","","","","true","3","3","ability","853","self","自己的","","","","","","","","","","","","","","","","",""
"null","","null","html-keyboard-response","97","158105","0.0-6.0-0.0-6.0-0.19","4","3","4","4","3","3","3","4","3","4","4","4","2","3","3","5","4","3","4","4","1","1","2","2","1","1","1","2","1","1","1","0","0","0","1","0","1","1","0","0","0","1","0","0","4","2","2","1","3","1","3","3","2","4","3","572507877353193472","郑","681","","","","","","","","","","","","","","","","","","","","","","","","","","","","","","","","","","","","","","","","","",""
"985","<p style=""color:white; font-size: 35px;"">蠢笨</p>","e","categorize-html","98","159096","0.0-6.0-0.0-6.0-1.19","4","3","4","4","3","3","3","4","3","4","4","4","2","3","3","5","4","3","4","4","1","1","2","2","1","1","1","2","1","1","1","0","0","0","1","0","1","1","0","0","0","1","0","0","4","2","2","1","3","1","3","3","2","4","3","572507877353193472","郑","681","","","","","","","","","","","","","","","","","","","true","3","3","ability","985","negative","蠢笨","","","","","","","","","","","","","","","","",""
"null","","null","html-keyboard-response","99","159348","0.0-6.0-0.0-6.0-0.20","4","3","4","4","3","3","3","4","3","4","4","4","2","3","3","5","4","3","4","4","1","1","2","2","1","1","1","2","1","1","1","0","0","0","1","0","1","1","0","0","0","1","0","0","4","2","2","1","3","1","3","3","2","4","3","572507877353193472","郑","681","","","","","","","","","","","","","","","","","","","","","","","","","","","","","","","","","","","","","","","","","",""
"594","<p style=""color:rgb(150, 250, 100); font-size: 35px;"">我的</p>","e","categorize-html","100","159943","0.0-6.0-0.0-6.0-1.20","4","3","4","4","3","3","3","4","3","4","4","4","2","3","3","5","4","3","4","4","1","1","2","2","1","1","1","2","1","1","1","0","0","0","1","0","1","1","0","0","0","1","0","0","4","2","2","1","3","1","3","3","2","4","3","572507877353193472","郑","681","","","","","","","","","","","","","","","","","","","true","3","3","ability","594","self","我的","","","","","","","","","","","","","","","","",""
"null","","null","html-keyboard-response","101","160194","0.0-6.0-0.0-6.0-0.21","4","3","4","4","3","3","3","4","3","4","4","4","2","3","3","5","4","3","4","4","1","1","2","2","1","1","1","2","1","1","1","0","0","0","1","0","1","1","0","0","0","1","0","0","4","2","2","1","3","1","3","3","2","4","3","572507877353193472","郑","681","","","","","","","","","","","","","","","","","","","","","","","","","","","","","","","","","","","","","","","","","",""
"606","<p style=""color:white; font-size: 35px;"">拙笨</p>","e","categorize-html","102","160804","0.0-6.0-0.0-6.0-1.21","4","3","4","4","3","3","3","4","3","4","4","4","2","3","3","5","4","3","4","4","1","1","2","2","1","1","1","2","1","1","1","0","0","0","1","0","1","1","0","0","0","1","0","0","4","2","2","1","3","1","3","3","2","4","3","572507877353193472","郑","681","","","","","","","","","","","","","","","","","","","true","3","3","ability","606","negative","拙笨","","","","","","","","","","","","","","","","",""
"null","","null","html-keyboard-response","103","161056","0.0-6.0-0.0-6.0-0.22","4","3","4","4","3","3","3","4","3","4","4","4","2","3","3","5","4","3","4","4","1","1","2","2","1","1","1","2","1","1","1","0","0","0","1","0","1","1","0","0","0","1","0","0","4","2","2","1","3","1","3","3","2","4","3","572507877353193472","郑","681","","","","","","","","","","","","","","","","","","","","","","","","","","","","","","","","","","","","","","","","","",""
"732","<p style=""color:rgb(150, 250, 100); font-size: 35px;"">他人</p>","i","categorize-html","104","161790","0.0-6.0-0.0-6.0-1.22","4","3","4","4","3","3","3","4","3","4","4","4","2","3","3","5","4","3","4","4","1","1","2","2","1","1","1","2","1","1","1","0","0","0","1","0","1","1","0","0","0","1","0","0","4","2","2","1","3","1","3","3","2","4","3","572507877353193472","郑","681","","","","","","","","","","","","","","","","","","","true","3","3","ability","732","other","他人","","","","","","","","","","","","","","","","",""
"null","","null","html-keyboard-response","105","162041","0.0-6.0-0.0-6.0-0.23","4","3","4","4","3","3","3","4","3","4","4","4","2","3","3","5","4","3","4","4","1","1","2","2","1","1","1","2","1","1","1","0","0","0","1","0","1","1","0","0","0","1","0","0","4","2","2","1","3","1","3","3","2","4","3","572507877353193472","郑","681","","","","","","","","","","","","","","","","","","","","","","","","","","","","","","","","","","","","","","","","","",""
"622","<p style=""color:white; font-size: 35px;"">全才</p>","i","categorize-html","106","162666","0.0-6.0-0.0-6.0-1.23","4","3","4","4","3","3","3","4","3","4","4","4","2","3","3","5","4","3","4","4","1","1","2","2","1","1","1","2","1","1","1","0","0","0","1","0","1","1","0","0","0","1","0","0","4","2","2","1","3","1","3","3","2","4","3","572507877353193472","郑","681","","","","","","","","","","","","","","","","","","","true","3","3","ability","622","positive","全才","","","","","","","","","","","","","","","","",""
"2154","
    <div class=""tag-bottom""><p>
    —— 任务4：对“自我/消极”词和“他人/积极”词分类 ——<p/>
    <span style=""color:#78DCE8""><b>与刚才的任务完全相同，请再次对这四类词语分类</b></span><p/>
    <span style=""color:#FFD866""><b>请根据上方标签的提示，尽可能正确并且快速地做出按键反应</b></span><p/>
    当按键错误时屏幕中会出现<span style=""color:red""> X </span>，需要按另一个键纠正才能继续<br/><p/>
    请把双手食指分别放在键盘的“E”键和“I”键上<p/>
    按<空格键>开始
    </p></div>"," ","html-keyboard-response","107","164821","0.0-6.0-0.0-7.0","4","3","4","4","3","3","3","4","3","4","4","4","2","3","3","5","4","3","4","4","1","1","2","2","1","1","1","2","1","1","1","0","0","0","1","0","1","1","0","0","0","1","0","0","4","2","2","1","3","1","3","3","2","4","3","572507877353193472","郑","681","","","","","","","","","","","","","","","","","","","","","","","","","","","","","","","","","","","","","","","","","",""
"null","","null","html-keyboard-response","108","165072","0.0-6.0-0.0-8.0-0.0","4","3","4","4","3","3","3","4","3","4","4","4","2","3","3","5","4","3","4","4","1","1","2","2","1","1","1","2","1","1","1","0","0","0","1","0","1","1","0","0","0","1","0","0","4","2","2","1","3","1","3","3","2","4","3","572507877353193472","郑","681","","","","","","","","","","","","","","","","","","","","","","","","","","","","","","","","","","","","","","","","","",""
"1576","<p style=""color:rgb(150, 250, 100); font-size: 35px;"">别人</p>","i","categorize-html","109","166652","0.0-6.0-0.0-8.0-1.0","4","3","4","4","3","3","3","4","3","4","4","4","2","3","3","5","4","3","4","4","1","1","2","2","1","1","1","2","1","1","1","0","0","0","1","0","1","1","0","0","0","1","0","0","4","2","2","1","3","1","3","3","2","4","3","572507877353193472","郑","681","","","","","","","","","","","","","","","","","","","true","4","4","ability","1576","other","别人","","","","","","","","","","","","","","","","",""
"null","","null","html-keyboard-response","110","166903","0.0-6.0-0.0-8.0-0.1","4","3","4","4","3","3","3","4","3","4","4","4","2","3","3","5","4","3","4","4","1","1","2","2","1","1","1","2","1","1","1","0","0","0","1","0","1","1","0","0","0","1","0","0","4","2","2","1","3","1","3","3","2","4","3","572507877353193472","郑","681","","","","","","","","","","","","","","","","","","","","","","","","","","","","","","","","","","","","","","","","","",""
"806","<p style=""color:white; font-size: 35px;"">全才</p>","i","categorize-html","111","167711","0.0-6.0-0.0-8.0-1.1","4","3","4","4","3","3","3","4","3","4","4","4","2","3","3","5","4","3","4","4","1","1","2","2","1","1","1","2","1","1","1","0","0","0","1","0","1","1","0","0","0","1","0","0","4","2","2","1","3","1","3","3","2","4","3","572507877353193472","郑","681","","","","","","","","","","","","","","","","","","","true","4","4","ability","806","positive","全才","","","","","","","","","","","","","","","","",""
"null","","null","html-keyboard-response","112","167963","0.0-6.0-0.0-8.0-0.2","4","3","4","4","3","3","3","4","3","4","4","4","2","3","3","5","4","3","4","4","1","1","2","2","1","1","1","2","1","1","1","0","0","0","1","0","1","1","0","0","0","1","0","0","4","2","2","1","3","1","3","3","2","4","3","572507877353193472","郑","681","","","","","","","","","","","","","","","","","","","","","","","","","","","","","","","","","","","","","","","","","",""
"808","<p style=""color:rgb(150, 250, 100); font-size: 35px;"">我的</p>","e","categorize-html","113","168773","0.0-6.0-0.0-8.0-1.2","4","3","4","4","3","3","3","4","3","4","4","4","2","3","3","5","4","3","4","4","1","1","2","2","1","1","1","2","1","1","1","0","0","0","1","0","1","1","0","0","0","1","0","0","4","2","2","1","3","1","3","3","2","4","3","572507877353193472","郑","681","","","","","","","","","","","","","","","","","","","true","4","4","ability","808","self","我的","","","","","","","","","","","","","","","","",""
"null","","null","html-keyboard-response","114","169025","0.0-6.0-0.0-8.0-0.3","4","3","4","4","3","3","3","4","3","4","4","4","2","3","3","5","4","3","4","4","1","1","2","2","1","1","1","2","1","1","1","0","0","0","1","0","1","1","0","0","0","1","0","0","4","2","2","1","3","1","3","3","2","4","3","572507877353193472","郑","681","","","","","","","","","","","","","","","","","","","","","","","","","","","","","","","","","","","","","","","","","",""
"589","<p style=""color:white; font-size: 35px;"">拙笨</p>","e","categorize-html","115","169616","0.0-6.0-0.0-8.0-1.3","4","3","4","4","3","3","3","4","3","4","4","4","2","3","3","5","4","3","4","4","1","1","2","2","1","1","1","2","1","1","1","0","0","0","1","0","1","1","0","0","0","1","0","0","4","2","2","1","3","1","3","3","2","4","3","572507877353193472","郑","681","","","","","","","","","","","","","","","","","","","true","4","4","ability","589","negative","拙笨","","","","","","","","","","","","","","","","",""
"null","","null","html-keyboard-response","116","169867","0.0-6.0-0.0-8.0-0.4","4","3","4","4","3","3","3","4","3","4","4","4","2","3","3","5","4","3","4","4","1","1","2","2","1","1","1","2","1","1","1","0","0","0","1","0","1","1","0","0","0","1","0","0","4","2","2","1","3","1","3","3","2","4","3","572507877353193472","郑","681","","","","","","","","","","","","","","","","","","","","","","","","","","","","","","","","","","","","","","","","","",""
"832","<p style=""color:rgb(150, 250, 100); font-size: 35px;"">别人的</p>","i","categorize-html","117","170701","0.0-6.0-0.0-8.0-1.4","4","3","4","4","3","3","3","4","3","4","4","4","2","3","3","5","4","3","4","4","1","1","2","2","1","1","1","2","1","1","1","0","0","0","1","0","1","1","0","0","0","1","0","0","4","2","2","1","3","1","3","3","2","4","3","572507877353193472","郑","681","","","","","","","","","","","","","","","","","","","true","4","4","ability","832","other","别人的","","","","","","","","","","","","","","","","",""
"null","","null","html-keyboard-response","118","170953","0.0-6.0-0.0-8.0-0.5","4","3","4","4","3","3","3","4","3","4","4","4","2","3","3","5","4","3","4","4","1","1","2","2","1","1","1","2","1","1","1","0","0","0","1","0","1","1","0","0","0","1","0","0","4","2","2","1","3","1","3","3","2","4","3","572507877353193472","郑","681","","","","","","","","","","","","","","","","","","","","","","","","","","","","","","","","","","","","","","","","","",""
"709","<p style=""color:white; font-size: 35px;"">愚钝</p>","e","categorize-html","119","171667","0.0-6.0-0.0-8.0-1.5","4","3","4","4","3","3","3","4","3","4","4","4","2","3","3","5","4","3","4","4","1","1","2","2","1","1","1","2","1","1","1","0","0","0","1","0","1","1","0","0","0","1","0","0","4","2","2","1","3","1","3","3","2","4","3","572507877353193472","郑","681","","","","","","","","","","","","","","","","","","","true","4","4","ability","709","negative","愚钝","","","","","","","","","","","","","","","","",""
"null","","null","html-keyboard-response","120","171919","0.0-6.0-0.0-8.0-0.6","4","3","4","4","3","3","3","4","3","4","4","4","2","3","3","5","4","3","4","4","1","1","2","2","1","1","1","2","1","1","1","0","0","0","1","0","1","1","0","0","0","1","0","0","4","2","2","1","3","1","3","3","2","4","3","572507877353193472","郑","681","","","","","","","","","","","","","","","","","","","","","","","","","","","","","","","","","","","","","","","","","",""
"571","<p style=""color:rgb(150, 250, 100); font-size: 35px;"">本人</p>","e","categorize-html","121","172492","0.0-6.0-0.0-8.0-1.6","4","3","4","4","3","3","3","4","3","4","4","4","2","3","3","5","4","3","4","4","1","1","2","2","1","1","1","2","1","1","1","0","0","0","1","0","1","1","0","0","0","1","0","0","4","2","2","1","3","1","3","3","2","4","3","572507877353193472","郑","681","","","","","","","","","","","","","","","","","","","true","4","4","ability","571","self","本人","","","","","","","","","","","","","","","","",""
"null","","null","html-keyboard-response","122","172744","0.0-6.0-0.0-8.0-0.7","4","3","4","4","3","3","3","4","3","4","4","4","2","3","3","5","4","3","4","4","1","1","2","2","1","1","1","2","1","1","1","0","0","0","1","0","1","1","0","0","0","1","0","0","4","2","2","1","3","1","3","3","2","4","3","572507877353193472","郑","681","","","","","","","","","","","","","","","","","","","","","","","","","","","","","","","","","","","","","","","","","",""
"655","<p style=""color:white; font-size: 35px;"">精干</p>","i","categorize-html","123","173402","0.0-6.0-0.0-8.0-1.7","4","3","4","4","3","3","3","4","3","4","4","4","2","3","3","5","4","3","4","4","1","1","2","2","1","1","1","2","1","1","1","0","0","0","1","0","1","1","0","0","0","1","0","0","4","2","2","1","3","1","3","3","2","4","3","572507877353193472","郑","681","","","","","","","","","","","","","","","","","","","true","4","4","ability","655","positive","精干","","","","","","","","","","","","","","","","",""
"null","","null","html-keyboard-response","124","173653","0.0-6.0-0.0-8.0-0.8","4","3","4","4","3","3","3","4","3","4","4","4","2","3","3","5","4","3","4","4","1","1","2","2","1","1","1","2","1","1","1","0","0","0","1","0","1","1","0","0","0","1","0","0","4","2","2","1","3","1","3","3","2","4","3","572507877353193472","郑","681","","","","","","","","","","","","","","","","","","","","","","","","","","","","","","","","","","","","","","","","","",""
"539","<p style=""color:rgb(150, 250, 100); font-size: 35px;"">他的</p>","i","categorize-html","125","174197","0.0-6.0-0.0-8.0-1.8","4","3","4","4","3","3","3","4","3","4","4","4","2","3","3","5","4","3","4","4","1","1","2","2","1","1","1","2","1","1","1","0","0","0","1","0","1","1","0","0","0","1","0","0","4","2","2","1","3","1","3","3","2","4","3","572507877353193472","郑","681","","","","","","","","","","","","","","","","","","","true","4","4","ability","539","other","他的","","","","","","","","","","","","","","","","",""
"null","","null","html-keyboard-response","126","174450","0.0-6.0-0.0-8.0-0.9","4","3","4","4","3","3","3","4","3","4","4","4","2","3","3","5","4","3","4","4","1","1","2","2","1","1","1","2","1","1","1","0","0","0","1","0","1","1","0","0","0","1","0","0","4","2","2","1","3","1","3","3","2","4","3","572507877353193472","郑","681","","","","","","","","","","","","","","","","","","","","","","","","","","","","","","","","","","","","","","","","","",""
"644","<p style=""color:white; font-size: 35px;"">无能</p>","i","categorize-html","127","175573","0.0-6.0-0.0-8.0-1.9","4","3","4","4","3","3","3","4","3","4","4","4","2","3","3","5","4","3","4","4","1","1","2","2","1","1","1","2","1","1","1","0","0","0","1","0","1","1","0","0","0","1","0","0","4","2","2","1","3","1","3","3","2","4","3","572507877353193472","郑","681","","","","","","","","","","","","","","","","","","","false","4","4","ability","1429.891304347826","negative","无能","","","","","","","","","","","","","","","","",""
"null","","null","html-keyboard-response","128","175824","0.0-6.0-0.0-8.0-0.10","4","3","4","4","3","3","3","4","3","4","4","4","2","3","3","5","4","3","4","4","1","1","2","2","1","1","1","2","1","1","1","0","0","0","1","0","1","1","0","0","0","1","0","0","4","2","2","1","3","1","3","3","2","4","3","572507877353193472","郑","681","","","","","","","","","","","","","","","","","","","","","","","","","","","","","","","","","","","","","","","","","",""
"702","<p style=""color:rgb(150, 250, 100); font-size: 35px;"">自己</p>","e","categorize-html","129","176531","0.0-6.0-0.0-8.0-1.10","4","3","4","4","3","3","3","4","3","4","4","4","2","3","3","5","4","3","4","4","1","1","2","2","1","1","1","2","1","1","1","0","0","0","1","0","1","1","0","0","0","1","0","0","4","2","2","1","3","1","3","3","2","4","3","572507877353193472","郑","681","","","","","","","","","","","","","","","","","","","true","4","4","ability","702","self","自己","","","","","","","","","","","","","","","","",""
"null","","null","html-keyboard-response","130","176783","0.0-6.0-0.0-8.0-0.11","4","3","4","4","3","3","3","4","3","4","4","4","2","3","3","5","4","3","4","4","1","1","2","2","1","1","1","2","1","1","1","0","0","0","1","0","1","1","0","0","0","1","0","0","4","2","2","1","3","1","3","3","2","4","3","572507877353193472","郑","681","","","","","","","","","","","","","","","","","","","","","","","","","","","","","","","","","","","","","","","","","",""
"578","<p style=""color:white; font-size: 35px;"">能干</p>","i","categorize-html","131","177362","0.0-6.0-0.0-8.0-1.11","4","3","4","4","3","3","3","4","3","4","4","4","2","3","3","5","4","3","4","4","1","1","2","2","1","1","1","2","1","1","1","0","0","0","1","0","1","1","0","0","0","1","0","0","4","2","2","1","3","1","3","3","2","4","3","572507877353193472","郑","681","","","","","","","","","","","","","","","","","","","true","4","4","ability","578","positive","能干","","","","","","","","","","","","","","","","",""
"null","","null","html-keyboard-response","132","177613","0.0-6.0-0.0-8.0-0.12","4","3","4","4","3","3","3","4","3","4","4","4","2","3","3","5","4","3","4","4","1","1","2","2","1","1","1","2","1","1","1","0","0","0","1","0","1","1","0","0","0","1","0","0","4","2","2","1","3","1","3","3","2","4","3","572507877353193472","郑","681","","","","","","","","","","","","","","","","","","","","","","","","","","","","","","","","","","","","","","","","","",""
"784","<p style=""color:rgb(150, 250, 100); font-size: 35px;"">别人的</p>","i","categorize-html","133","178398","0.0-6.0-0.0-8.0-1.12","4","3","4","4","3","3","3","4","3","4","4","4","2","3","3","5","4","3","4","4","1","1","2","2","1","1","1","2","1","1","1","0","0","0","1","0","1","1","0","0","0","1","0","0","4","2","2","1","3","1","3","3","2","4","3","572507877353193472","郑","681","","","","","","","","","","","","","","","","","","","true","4","4","ability","784","other","别人的","","","","","","","","","","","","","","","","",""
"null","","null","html-keyboard-response","134","178650","0.0-6.0-0.0-8.0-0.13","4","3","4","4","3","3","3","4","3","4","4","4","2","3","3","5","4","3","4","4","1","1","2","2","1","1","1","2","1","1","1","0","0","0","1","0","1","1","0","0","0","1","0","0","4","2","2","1","3","1","3","3","2","4","3","572507877353193472","郑","681","","","","","","","","","","","","","","","","","","","","","","","","","","","","","","","","","","","","","","","","","",""
"713","<p style=""color:white; font-size: 35px;"">全能</p>","i","categorize-html","135","179365","0.0-6.0-0.0-8.0-1.13","4","3","4","4","3","3","3","4","3","4","4","4","2","3","3","5","4","3","4","4","1","1","2","2","1","1","1","2","1","1","1","0","0","0","1","0","1","1","0","0","0","1","0","0","4","2","2","1","3","1","3","3","2","4","3","572507877353193472","郑","681","","","","","","","","","","","","","","","","","","","true","4","4","ability","713","positive","全能","","","","","","","","","","","","","","","","",""
"null","","null","html-keyboard-response","136","179616","0.0-6.0-0.0-8.0-0.14","4","3","4","4","3","3","3","4","3","4","4","4","2","3","3","5","4","3","4","4","1","1","2","2","1","1","1","2","1","1","1","0","0","0","1","0","1","1","0","0","0","1","0","0","4","2","2","1","3","1","3","3","2","4","3","572507877353193472","郑","681","","","","","","","","","","","","","","","","","","","","","","","","","","","","","","","","","","","","","","","","","",""
"1035","<p style=""color:rgb(150, 250, 100); font-size: 35px;"">我</p>","e","categorize-html","137","180655","0.0-6.0-0.0-8.0-1.14","4","3","4","4","3","3","3","4","3","4","4","4","2","3","3","5","4","3","4","4","1","1","2","2","1","1","1","2","1","1","1","0","0","0","1","0","1","1","0","0","0","1","0","0","4","2","2","1","3","1","3","3","2","4","3","572507877353193472","郑","681","","","","","","","","","","","","","","","","","","","true","4","4","ability","1035","self","我","","","","","","","","","","","","","","","","",""
"null","","null","html-keyboard-response","138","180906","0.0-6.0-0.0-8.0-0.15","4","3","4","4","3","3","3","4","3","4","4","4","2","3","3","5","4","3","4","4","1","1","2","2","1","1","1","2","1","1","1","0","0","0","1","0","1","1","0","0","0","1","0","0","4","2","2","1","3","1","3","3","2","4","3","572507877353193472","郑","681","","","","","","","","","","","","","","","","","","","","","","","","","","","","","","","","","","","","","","","","","",""
"636","<p style=""color:white; font-size: 35px;"">废物</p>","e","categorize-html","139","181544","0.0-6.0-0.0-8.0-1.15","4","3","4","4","3","3","3","4","3","4","4","4","2","3","3","5","4","3","4","4","1","1","2","2","1","1","1","2","1","1","1","0","0","0","1","0","1","1","0","0","0","1","0","0","4","2","2","1","3","1","3","3","2","4","3","572507877353193472","郑","681","","","","","","","","","","","","","","","","","","","true","4","4","ability","636","negative","废物","","","","","","","","","","","","","","","","",""
"null","","null","html-keyboard-response","140","181795","0.0-6.0-0.0-8.0-0.16","4","3","4","4","3","3","3","4","3","4","4","4","2","3","3","5","4","3","4","4","1","1","2","2","1","1","1","2","1","1","1","0","0","0","1","0","1","1","0","0","0","1","0","0","4","2","2","1","3","1","3","3","2","4","3","572507877353193472","郑","681","","","","","","","","","","","","","","","","","","","","","","","","","","","","","","","","","","","","","","","","","",""
"473","<p style=""color:rgb(150, 250, 100); font-size: 35px;"">我</p>","e","categorize-html","141","182273","0.0-6.0-0.0-8.0-1.16","4","3","4","4","3","3","3","4","3","4","4","4","2","3","3","5","4","3","4","4","1","1","2","2","1","1","1","2","1","1","1","0","0","0","1","0","1","1","0","0","0","1","0","0","4","2","2","1","3","1","3","3","2","4","3","572507877353193472","郑","681","","","","","","","","","","","","","","","","","","","true","4","4","ability","473","self","我","","","","","","","","","","","","","","","","",""
"null","","null","html-keyboard-response","142","182524","0.0-6.0-0.0-8.0-0.17","4","3","4","4","3","3","3","4","3","4","4","4","2","3","3","5","4","3","4","4","1","1","2","2","1","1","1","2","1","1","1","0","0","0","1","0","1","1","0","0","0","1","0","0","4","2","2","1","3","1","3","3","2","4","3","572507877353193472","郑","681","","","","","","","","","","","","","","","","","","","","","","","","","","","","","","","","","","","","","","","","","",""
"1126","<p style=""color:white; font-size: 35px;"">无能</p>","e","categorize-html","143","183654","0.0-6.0-0.0-8.0-1.17","4","3","4","4","3","3","3","4","3","4","4","4","2","3","3","5","4","3","4","4","1","1","2","2","1","1","1","2","1","1","1","0","0","0","1","0","1","1","0","0","0","1","0","0","4","2","2","1","3","1","3","3","2","4","3","572507877353193472","郑","681","","","","","","","","","","","","","","","","","","","true","4","4","ability","1126","negative","无能","","","","","","","","","","","","","","","","",""
"null","","null","html-keyboard-response","144","183906","0.0-6.0-0.0-8.0-0.18","4","3","4","4","3","3","3","4","3","4","4","4","2","3","3","5","4","3","4","4","1","1","2","2","1","1","1","2","1","1","1","0","0","0","1","0","1","1","0","0","0","1","0","0","4","2","2","1","3","1","3","3","2","4","3","572507877353193472","郑","681","","","","","","","","","","","","","","","","","","","","","","","","","","","","","","","","","","","","","","","","","",""
"739","<p style=""color:rgb(150, 250, 100); font-size: 35px;"">他</p>","i","categorize-html","145","184650","0.0-6.0-0.0-8.0-1.18","4","3","4","4","3","3","3","4","3","4","4","4","2","3","3","5","4","3","4","4","1","1","2","2","1","1","1","2","1","1","1","0","0","0","1","0","1","1","0","0","0","1","0","0","4","2","2","1","3","1","3","3","2","4","3","572507877353193472","郑","681","","","","","","","","","","","","","","","","","","","true","4","4","ability","739","other","他","","","","","","","","","","","","","","","","",""
"null","","null","html-keyboard-response","146","184902","0.0-6.0-0.0-8.0-0.19","4","3","4","4","3","3","3","4","3","4","4","4","2","3","3","5","4","3","4","4","1","1","2","2","1","1","1","2","1","1","1","0","0","0","1","0","1","1","0","0","0","1","0","0","4","2","2","1","3","1","3","3","2","4","3","572507877353193472","郑","681","","","","","","","","","","","","","","","","","","","","","","","","","","","","","","","","","","","","","","","","","",""
"653","<p style=""color:white; font-size: 35px;"">天才</p>","i","categorize-html","147","185557","0.0-6.0-0.0-8.0-1.19","4","3","4","4","3","3","3","4","3","4","4","4","2","3","3","5","4","3","4","4","1","1","2","2","1","1","1","2","1","1","1","0","0","0","1","0","1","1","0","0","0","1","0","0","4","2","2","1","3","1","3","3","2","4","3","572507877353193472","郑","681","","","","","","","","","","","","","","","","","","","true","4","4","ability","653","positive","天才","","","","","","","","","","","","","","","","",""
"null","","null","html-keyboard-response","148","185808","0.0-6.0-0.0-8.0-0.20","4","3","4","4","3","3","3","4","3","4","4","4","2","3","3","5","4","3","4","4","1","1","2","2","1","1","1","2","1","1","1","0","0","0","1","0","1","1","0","0","0","1","0","0","4","2","2","1","3","1","3","3","2","4","3","572507877353193472","郑","681","","","","","","","","","","","","","","","","","","","","","","","","","","","","","","","","","","","","","","","","","",""
"539","<p style=""color:rgb(150, 250, 100); font-size: 35px;"">他人的</p>","i","categorize-html","149","186352","0.0-6.0-0.0-8.0-1.20","4","3","4","4","3","3","3","4","3","4","4","4","2","3","3","5","4","3","4","4","1","1","2","2","1","1","1","2","1","1","1","0","0","0","1","0","1","1","0","0","0","1","0","0","4","2","2","1","3","1","3","3","2","4","3","572507877353193472","郑","681","","","","","","","","","","","","","","","","","","","true","4","4","ability","539","other","他人的","","","","","","","","","","","","","","","","",""
"null","","null","html-keyboard-response","150","186605","0.0-6.0-0.0-8.0-0.21","4","3","4","4","3","3","3","4","3","4","4","4","2","3","3","5","4","3","4","4","1","1","2","2","1","1","1","2","1","1","1","0","0","0","1","0","1","1","0","0","0","1","0","0","4","2","2","1","3","1","3","3","2","4","3","572507877353193472","郑","681","","","","","","","","","","","","","","","","","","","","","","","","","","","","","","","","","","","","","","","","","",""
"697","<p style=""color:white; font-size: 35px;"">蠢笨</p>","e","categorize-html","151","187308","0.0-6.0-0.0-8.0-1.21","4","3","4","4","3","3","3","4","3","4","4","4","2","3","3","5","4","3","4","4","1","1","2","2","1","1","1","2","1","1","1","0","0","0","1","0","1","1","0","0","0","1","0","0","4","2","2","1","3","1","3","3","2","4","3","572507877353193472","郑","681","","","","","","","","","","","","","","","","","","","true","4","4","ability","697","negative","蠢笨","","","","","","","","","","","","","","","","",""
"null","","null","html-keyboard-response","152","187561","0.0-6.0-0.0-8.0-0.22","4","3","4","4","3","3","3","4","3","4","4","4","2","3","3","5","4","3","4","4","1","1","2","2","1","1","1","2","1","1","1","0","0","0","1","0","1","1","0","0","0","1","0","0","4","2","2","1","3","1","3","3","2","4","3","572507877353193472","郑","681","","","","","","","","","","","","","","","","","","","","","","","","","","","","","","","","","","","","","","","","","",""
"648","<p style=""color:rgb(150, 250, 100); font-size: 35px;"">自己的</p>","e","categorize-html","153","188214","0.0-6.0-0.0-8.0-1.22","4","3","4","4","3","3","3","4","3","4","4","4","2","3","3","5","4","3","4","4","1","1","2","2","1","1","1","2","1","1","1","0","0","0","1","0","1","1","0","0","0","1","0","0","4","2","2","1","3","1","3","3","2","4","3","572507877353193472","郑","681","","","","","","","","","","","","","","","","","","","true","4","4","ability","648","self","自己的","","","","","","","","","","","","","","","","",""
"null","","null","html-keyboard-response","154","188466","0.0-6.0-0.0-8.0-0.23","4","3","4","4","3","3","3","4","3","4","4","4","2","3","3","5","4","3","4","4","1","1","2","2","1","1","1","2","1","1","1","0","0","0","1","0","1","1","0","0","0","1","0","0","4","2","2","1","3","1","3","3","2","4","3","572507877353193472","郑","681","","","","","","","","","","","","","","","","","","","","","","","","","","","","","","","","","","","","","","","","","",""
"1490","<p style=""color:white; font-size: 35px;"">天才</p>","i","categorize-html","155","189962","0.0-6.0-0.0-8.0-1.23","4","3","4","4","3","3","3","4","3","4","4","4","2","3","3","5","4","3","4","4","1","1","2","2","1","1","1","2","1","1","1","0","0","0","1","0","1","1","0","0","0","1","0","0","4","2","2","1","3","1","3","3","2","4","3","572507877353193472","郑","681","","","","","","","","","","","","","","","","","","","true","4","4","ability","1490","positive","天才","","","","","","","","","","","","","","","","",""
"null","","null","html-keyboard-response","156","190214","0.0-6.0-0.0-8.0-0.24","4","3","4","4","3","3","3","4","3","4","4","4","2","3","3","5","4","3","4","4","1","1","2","2","1","1","1","2","1","1","1","0","0","0","1","0","1","1","0","0","0","1","0","0","4","2","2","1","3","1","3","3","2","4","3","572507877353193472","郑","681","","","","","","","","","","","","","","","","","","","","","","","","","","","","","","","","","","","","","","","","","",""
"583","<p style=""color:rgb(150, 250, 100); font-size: 35px;"">他人的</p>","i","categorize-html","157","190800","0.0-6.0-0.0-8.0-1.24","4","3","4","4","3","3","3","4","3","4","4","4","2","3","3","5","4","3","4","4","1","1","2","2","1","1","1","2","1","1","1","0","0","0","1","0","1","1","0","0","0","1","0","0","4","2","2","1","3","1","3","3","2","4","3","572507877353193472","郑","681","","","","","","","","","","","","","","","","","","","true","4","4","ability","583","other","他人的","","","","","","","","","","","","","","","","",""
"null","","null","html-keyboard-response","158","191052","0.0-6.0-0.0-8.0-0.25","4","3","4","4","3","3","3","4","3","4","4","4","2","3","3","5","4","3","4","4","1","1","2","2","1","1","1","2","1","1","1","0","0","0","1","0","1","1","0","0","0","1","0","0","4","2","2","1","3","1","3","3","2","4","3","572507877353193472","郑","681","","","","","","","","","","","","","","","","","","","","","","","","","","","","","","","","","","","","","","","","","",""
"585","<p style=""color:white; font-size: 35px;"">高效</p>","e","categorize-html","159","192284","0.0-6.0-0.0-8.0-1.25","4","3","4","4","3","3","3","4","3","4","4","4","2","3","3","5","4","3","4","4","1","1","2","2","1","1","1","2","1","1","1","0","0","0","1","0","1","1","0","0","0","1","0","0","4","2","2","1","3","1","3","3","2","4","3","572507877353193472","郑","681","","","","","","","","","","","","","","","","","","","false","4","4","ability","1429.891304347826","positive","高效","","","","","","","","","","","","","","","","",""
"null","","null","html-keyboard-response","160","192537","0.0-6.0-0.0-8.0-0.26","4","3","4","4","3","3","3","4","3","4","4","4","2","3","3","5","4","3","4","4","1","1","2","2","1","1","1","2","1","1","1","0","0","0","1","0","1","1","0","0","0","1","0","0","4","2","2","1","3","1","3","3","2","4","3","572507877353193472","郑","681","","","","","","","","","","","","","","","","","","","","","","","","","","","","","","","","","","","","","","","","","",""
"807","<p style=""color:rgb(150, 250, 100); font-size: 35px;"">本人</p>","e","categorize-html","161","193346","0.0-6.0-0.0-8.0-1.26","4","3","4","4","3","3","3","4","3","4","4","4","2","3","3","5","4","3","4","4","1","1","2","2","1","1","1","2","1","1","1","0","0","0","1","0","1","1","0","0","0","1","0","0","4","2","2","1","3","1","3","3","2","4","3","572507877353193472","郑","681","","","","","","","","","","","","","","","","","","","true","4","4","ability","807","self","本人","","","","","","","","","","","","","","","","",""
"null","","null","html-keyboard-response","162","193598","0.0-6.0-0.0-8.0-0.27","4","3","4","4","3","3","3","4","3","4","4","4","2","3","3","5","4","3","4","4","1","1","2","2","1","1","1","2","1","1","1","0","0","0","1","0","1","1","0","0","0","1","0","0","4","2","2","1","3","1","3","3","2","4","3","572507877353193472","郑","681","","","","","","","","","","","","","","","","","","","","","","","","","","","","","","","","","","","","","","","","","",""
"383","<p style=""color:white; font-size: 35px;"">蠢笨</p>","e","categorize-html","163","193984","0.0-6.0-0.0-8.0-1.27","4","3","4","4","3","3","3","4","3","4","4","4","2","3","3","5","4","3","4","4","1","1","2","2","1","1","1","2","1","1","1","0","0","0","1","0","1","1","0","0","0","1","0","0","4","2","2","1","3","1","3","3","2","4","3","572507877353193472","郑","681","","","","","","","","","","","","","","","","","","","true","4","4","ability","383","negative","蠢笨","","","","","","","","","","","","","","","","",""
"null","","null","html-keyboard-response","164","194235","0.0-6.0-0.0-8.0-0.28","4","3","4","4","3","3","3","4","3","4","4","4","2","3","3","5","4","3","4","4","1","1","2","2","1","1","1","2","1","1","1","0","0","0","1","0","1","1","0","0","0","1","0","0","4","2","2","1","3","1","3","3","2","4","3","572507877353193472","郑","681","","","","","","","","","","","","","","","","","","","","","","","","","","","","","","","","","","","","","","","","","",""
"641","<p style=""color:rgb(150, 250, 100); font-size: 35px;"">他人</p>","i","categorize-html","165","194877","0.0-6.0-0.0-8.0-1.28","4","3","4","4","3","3","3","4","3","4","4","4","2","3","3","5","4","3","4","4","1","1","2","2","1","1","1","2","1","1","1","0","0","0","1","0","1","1","0","0","0","1","0","0","4","2","2","1","3","1","3","3","2","4","3","572507877353193472","郑","681","","","","","","","","","","","","","","","","","","","true","4","4","ability","641","other","他人","","","","","","","","","","","","","","","","",""
"null","","null","html-keyboard-response","166","195129","0.0-6.0-0.0-8.0-0.29","4","3","4","4","3","3","3","4","3","4","4","4","2","3","3","5","4","3","4","4","1","1","2","2","1","1","1","2","1","1","1","0","0","0","1","0","1","1","0","0","0","1","0","0","4","2","2","1","3","1","3","3","2","4","3","572507877353193472","郑","681","","","","","","","","","","","","","","","","","","","","","","","","","","","","","","","","","","","","","","","","","",""
"652","<p style=""color:white; font-size: 35px;"">愚钝</p>","e","categorize-html","167","195783","0.0-6.0-0.0-8.0-1.29","4","3","4","4","3","3","3","4","3","4","4","4","2","3","3","5","4","3","4","4","1","1","2","2","1","1","1","2","1","1","1","0","0","0","1","0","1","1","0","0","0","1","0","0","4","2","2","1","3","1","3","3","2","4","3","572507877353193472","郑","681","","","","","","","","","","","","","","","","","","","true","4","4","ability","652","negative","愚钝","","","","","","","","","","","","","","","","",""
"null","","null","html-keyboard-response","168","196035","0.0-6.0-0.0-8.0-0.30","4","3","4","4","3","3","3","4","3","4","4","4","2","3","3","5","4","3","4","4","1","1","2","2","1","1","1","2","1","1","1","0","0","0","1","0","1","1","0","0","0","1","0","0","4","2","2","1","3","1","3","3","2","4","3","572507877353193472","郑","681","","","","","","","","","","","","","","","","","","","","","","","","","","","","","","","","","","","","","","","","","",""
"911","<p style=""color:rgb(150, 250, 100); font-size: 35px;"">本人的</p>","e","categorize-html","169","196950","0.0-6.0-0.0-8.0-1.30","4","3","4","4","3","3","3","4","3","4","4","4","2","3","3","5","4","3","4","4","1","1","2","2","1","1","1","2","1","1","1","0","0","0","1","0","1","1","0","0","0","1","0","0","4","2","2","1","3","1","3","3","2","4","3","572507877353193472","郑","681","","","","","","","","","","","","","","","","","","","true","4","4","ability","911","self","本人的","","","","","","","","","","","","","","","","",""
"null","","null","html-keyboard-response","170","197201","0.0-6.0-0.0-8.0-0.31","4","3","4","4","3","3","3","4","3","4","4","4","2","3","3","5","4","3","4","4","1","1","2","2","1","1","1","2","1","1","1","0","0","0","1","0","1","1","0","0","0","1","0","0","4","2","2","1","3","1","3","3","2","4","3","572507877353193472","郑","681","","","","","","","","","","","","","","","","","","","","","","","","","","","","","","","","","","","","","","","","","",""
"918","<p style=""color:white; font-size: 35px;"">高效</p>","i","categorize-html","171","198119","0.0-6.0-0.0-8.0-1.31","4","3","4","4","3","3","3","4","3","4","4","4","2","3","3","5","4","3","4","4","1","1","2","2","1","1","1","2","1","1","1","0","0","0","1","0","1","1","0","0","0","1","0","0","4","2","2","1","3","1","3","3","2","4","3","572507877353193472","郑","681","","","","","","","","","","","","","","","","","","","true","4","4","ability","918","positive","高效","","","","","","","","","","","","","","","","",""
"null","","null","html-keyboard-response","172","198370","0.0-6.0-0.0-8.0-0.32","4","3","4","4","3","3","3","4","3","4","4","4","2","3","3","5","4","3","4","4","1","1","2","2","1","1","1","2","1","1","1","0","0","0","1","0","1","1","0","0","0","1","0","0","4","2","2","1","3","1","3","3","2","4","3","572507877353193472","郑","681","","","","","","","","","","","","","","","","","","","","","","","","","","","","","","","","","","","","","","","","","",""
"574","<p style=""color:rgb(150, 250, 100); font-size: 35px;"">别人</p>","i","categorize-html","173","198947","0.0-6.0-0.0-8.0-1.32","4","3","4","4","3","3","3","4","3","4","4","4","2","3","3","5","4","3","4","4","1","1","2","2","1","1","1","2","1","1","1","0","0","0","1","0","1","1","0","0","0","1","0","0","4","2","2","1","3","1","3","3","2","4","3","572507877353193472","郑","681","","","","","","","","","","","","","","","","","","","true","4","4","ability","574","other","别人","","","","","","","","","","","","","","","","",""
"null","","null","html-keyboard-response","174","199199","0.0-6.0-0.0-8.0-0.33","4","3","4","4","3","3","3","4","3","4","4","4","2","3","3","5","4","3","4","4","1","1","2","2","1","1","1","2","1","1","1","0","0","0","1","0","1","1","0","0","0","1","0","0","4","2","2","1","3","1","3","3","2","4","3","572507877353193472","郑","681","","","","","","","","","","","","","","","","","","","","","","","","","","","","","","","","","","","","","","","","","",""
"515","<p style=""color:white; font-size: 35px;"">全能</p>","i","categorize-html","175","199718","0.0-6.0-0.0-8.0-1.33","4","3","4","4","3","3","3","4","3","4","4","4","2","3","3","5","4","3","4","4","1","1","2","2","1","1","1","2","1","1","1","0","0","0","1","0","1","1","0","0","0","1","0","0","4","2","2","1","3","1","3","3","2","4","3","572507877353193472","郑","681","","","","","","","","","","","","","","","","","","","true","4","4","ability","515","positive","全能","","","","","","","","","","","","","","","","",""
"null","","null","html-keyboard-response","176","199970","0.0-6.0-0.0-8.0-0.34","4","3","4","4","3","3","3","4","3","4","4","4","2","3","3","5","4","3","4","4","1","1","2","2","1","1","1","2","1","1","1","0","0","0","1","0","1","1","0","0","0","1","0","0","4","2","2","1","3","1","3","3","2","4","3","572507877353193472","郑","681","","","","","","","","","","","","","","","","","","","","","","","","","","","","","","","","","","","","","","","","","",""
"587","<p style=""color:rgb(150, 250, 100); font-size: 35px;"">自己的</p>","e","categorize-html","177","200562","0.0-6.0-0.0-8.0-1.34","4","3","4","4","3","3","3","4","3","4","4","4","2","3","3","5","4","3","4","4","1","1","2","2","1","1","1","2","1","1","1","0","0","0","1","0","1","1","0","0","0","1","0","0","4","2","2","1","3","1","3","3","2","4","3","572507877353193472","郑","681","","","","","","","","","","","","","","","","","","","true","4","4","ability","587","self","自己的","","","","","","","","","","","","","","","","",""
"null","","null","html-keyboard-response","178","200815","0.0-6.0-0.0-8.0-0.35","4","3","4","4","3","3","3","4","3","4","4","4","2","3","3","5","4","3","4","4","1","1","2","2","1","1","1","2","1","1","1","0","0","0","1","0","1","1","0","0","0","1","0","0","4","2","2","1","3","1","3","3","2","4","3","572507877353193472","郑","681","","","","","","","","","","","","","","","","","","","","","","","","","","","","","","","","","","","","","","","","","",""
"641","<p style=""color:white; font-size: 35px;"">低能</p>","e","categorize-html","179","201459","0.0-6.0-0.0-8.0-1.35","4","3","4","4","3","3","3","4","3","4","4","4","2","3","3","5","4","3","4","4","1","1","2","2","1","1","1","2","1","1","1","0","0","0","1","0","1","1","0","0","0","1","0","0","4","2","2","1","3","1","3","3","2","4","3","572507877353193472","郑","681","","","","","","","","","","","","","","","","","","","true","4","4","ability","641","negative","低能","","","","","","","","","","","","","","","","",""
"null","","null","html-keyboard-response","180","201710","0.0-6.0-0.0-8.0-0.36","4","3","4","4","3","3","3","4","3","4","4","4","2","3","3","5","4","3","4","4","1","1","2","2","1","1","1","2","1","1","1","0","0","0","1","0","1","1","0","0","0","1","0","0","4","2","2","1","3","1","3","3","2","4","3","572507877353193472","郑","681","","","","","","","","","","","","","","","","","","","","","","","","","","","","","","","","","","","","","","","","","",""
"684","<p style=""color:rgb(150, 250, 100); font-size: 35px;"">他人</p>","i","categorize-html","181","202395","0.0-6.0-0.0-8.0-1.36","4","3","4","4","3","3","3","4","3","4","4","4","2","3","3","5","4","3","4","4","1","1","2","2","1","1","1","2","1","1","1","0","0","0","1","0","1","1","0","0","0","1","0","0","4","2","2","1","3","1","3","3","2","4","3","572507877353193472","郑","681","","","","","","","","","","","","","","","","","","","true","4","4","ability","684","other","他人","","","","","","","","","","","","","","","","",""
"null","","null","html-keyboard-response","182","202646","0.0-6.0-0.0-8.0-0.37","4","3","4","4","3","3","3","4","3","4","4","4","2","3","3","5","4","3","4","4","1","1","2","2","1","1","1","2","1","1","1","0","0","0","1","0","1","1","0","0","0","1","0","0","4","2","2","1","3","1","3","3","2","4","3","572507877353193472","郑","681","","","","","","","","","","","","","","","","","","","","","","","","","","","","","","","","","","","","","","","","","",""
"698","<p style=""color:white; font-size: 35px;"">全才</p>","i","categorize-html","183","203346","0.0-6.0-0.0-8.0-1.37","4","3","4","4","3","3","3","4","3","4","4","4","2","3","3","5","4","3","4","4","1","1","2","2","1","1","1","2","1","1","1","0","0","0","1","0","1","1","0","0","0","1","0","0","4","2","2","1","3","1","3","3","2","4","3","572507877353193472","郑","681","","","","","","","","","","","","","","","","","","","true","4","4","ability","698","positive","全才","","","","","","","","","","","","","","","","",""
"null","","null","html-keyboard-response","184","203598","0.0-6.0-0.0-8.0-0.38","4","3","4","4","3","3","3","4","3","4","4","4","2","3","3","5","4","3","4","4","1","1","2","2","1","1","1","2","1","1","1","0","0","0","1","0","1","1","0","0","0","1","0","0","4","2","2","1","3","1","3","3","2","4","3","572507877353193472","郑","681","","","","","","","","","","","","","","","","","","","","","","","","","","","","","","","","","","","","","","","","","",""
"1387","<p style=""color:rgb(150, 250, 100); font-size: 35px;"">自己</p>","e","categorize-html","185","204990","0.0-6.0-0.0-8.0-1.38","4","3","4","4","3","3","3","4","3","4","4","4","2","3","3","5","4","3","4","4","1","1","2","2","1","1","1","2","1","1","1","0","0","0","1","0","1","1","0","0","0","1","0","0","4","2","2","1","3","1","3","3","2","4","3","572507877353193472","郑","681","","","","","","","","","","","","","","","","","","","true","4","4","ability","1387","self","自己","","","","","","","","","","","","","","","","",""
"null","","null","html-keyboard-response","186","205241","0.0-6.0-0.0-8.0-0.39","4","3","4","4","3","3","3","4","3","4","4","4","2","3","3","5","4","3","4","4","1","1","2","2","1","1","1","2","1","1","1","0","0","0","1","0","1","1","0","0","0","1","0","0","4","2","2","1","3","1","3","3","2","4","3","572507877353193472","郑","681","","","","","","","","","","","","","","","","","","","","","","","","","","","","","","","","","","","","","","","","","",""
"4281","<p style=""color:white; font-size: 35px;"">低能</p>","e","categorize-html","187","209528","0.0-6.0-0.0-8.0-1.39","4","3","4","4","3","3","3","4","3","4","4","4","2","3","3","5","4","3","4","4","1","1","2","2","1","1","1","2","1","1","1","0","0","0","1","0","1","1","0","0","0","1","0","0","4","2","2","1","3","1","3","3","2","4","3","572507877353193472","郑","681","","","","","","","","","","","","","","","","","","","true","4","4","ability","4281","negative","低能","","","","","","","","","","","","","","","","",""
"null","","null","html-keyboard-response","188","209780","0.0-6.0-0.0-8.0-0.40","4","3","4","4","3","3","3","4","3","4","4","4","2","3","3","5","4","3","4","4","1","1","2","2","1","1","1","2","1","1","1","0","0","0","1","0","1","1","0","0","0","1","0","0","4","2","2","1","3","1","3","3","2","4","3","572507877353193472","郑","681","","","","","","","","","","","","","","","","","","","","","","","","","","","","","","","","","","","","","","","","","",""
"510","<p style=""color:rgb(150, 250, 100); font-size: 35px;"">我的</p>","e","categorize-html","189","210295","0.0-6.0-0.0-8.0-1.40","4","3","4","4","3","3","3","4","3","4","4","4","2","3","3","5","4","3","4","4","1","1","2","2","1","1","1","2","1","1","1","0","0","0","1","0","1","1","0","0","0","1","0","0","4","2","2","1","3","1","3","3","2","4","3","572507877353193472","郑","681","","","","","","","","","","","","","","","","","","","true","4","4","ability","510","self","我的","","","","","","","","","","","","","","","","",""
"null","","null","html-keyboard-response","190","210547","0.0-6.0-0.0-8.0-0.41","4","3","4","4","3","3","3","4","3","4","4","4","2","3","3","5","4","3","4","4","1","1","2","2","1","1","1","2","1","1","1","0","0","0","1","0","1","1","0","0","0","1","0","0","4","2","2","1","3","1","3","3","2","4","3","572507877353193472","郑","681","","","","","","","","","","","","","","","","","","","","","","","","","","","","","","","","","","","","","","","","","",""
"702","<p style=""color:white; font-size: 35px;"">能干</p>","i","categorize-html","191","211253","0.0-6.0-0.0-8.0-1.41","4","3","4","4","3","3","3","4","3","4","4","4","2","3","3","5","4","3","4","4","1","1","2","2","1","1","1","2","1","1","1","0","0","0","1","0","1","1","0","0","0","1","0","0","4","2","2","1","3","1","3","3","2","4","3","572507877353193472","郑","681","","","","","","","","","","","","","","","","","","","true","4","4","ability","702","positive","能干","","","","","","","","","","","","","","","","",""
"null","","null","html-keyboard-response","192","211505","0.0-6.0-0.0-8.0-0.42","4","3","4","4","3","3","3","4","3","4","4","4","2","3","3","5","4","3","4","4","1","1","2","2","1","1","1","2","1","1","1","0","0","0","1","0","1","1","0","0","0","1","0","0","4","2","2","1","3","1","3","3","2","4","3","572507877353193472","郑","681","","","","","","","","","","","","","","","","","","","","","","","","","","","","","","","","","","","","","","","","","",""
