"rt","stimulus","response","trial_type","trial_index","time_elapsed","internal_node_id","ses_1","ses_2","ses_3","ses_4","ses_5","ses_6","ses_7","ses_8","ses_9","ses_10","coreself_1","coreself_2","coreself_3","coreself_4","coreself_5","coreself_6","coreself_7","coreself_8","coreself_9","coreself_10","SGPS_1","SGPS_2","SGPS_3","SGPS_4","SGPS_5","SGPS_6","SGPS_7","SGPS_8","SGPS_9","NPI1","NPI2","NPI3","NPI4","NPI5","NPI6","NPI7","NPI8","NPI9","NPI10","NPI11","NPI12","NPI13","NPI14","NPI15","hsns_1","hsns_2","hsns_3","hsns_4","hsns_5","trap1","hsns_6","hsns_7","hsns_8","hsns_9","hsns_10","subj_idx","friend_name","ParticipantID","value","success","user_agent","responses","item_order","radio_event_ids","radio_event_times","key_event_times","mouse_event_times","straightlining","zigzagging","honeypot","timeout","failed_images","failed_audio","failed_video","view_history","response_type","key_press","avg_frame_time","center_x","center_y","correct_response","correct","identity","Image","word","condition","task_id","screen_id","time_stamp","version_attrib","version_target","IAT","RT","varname","summary","version_attrib2","version_target2","question_order","correct_answer","trap1_item"
"4858","
   <p><div style = ""color: white;font-size:25px;"">您好，欢迎参加本次实验。</div> </p>
   <p><div style = ""color: white;font-size:25px;"">为充分保障您的权利，请确保您已经知晓并同意《参与实验同意书》以及《数据公开知情同意书》。</div></p>
   <p><div style = ""color: white;font-size:25px;"">如果您未见过上述内容，请咨询实验员。</div></p>
   <p><div style = ""color: white;font-size:25px;"">如果您选择继续实验，则表示您已经清楚两份知情同意书的内容并同意。</div></p>
   <p><div style = ""color: pink;font-size:30px;"">请确保您记得day0的实验编号，您将在本次实验输入该编号，若您忘记，请咨询实验员后作答。</div></p>
   <p><div style = ""color: lightblue;font-size:25px;"">请您尽可能认真地作答，我们将依据您在各问卷和按键任务中的作答质量发放报酬。</div></p>
   <p> <div style = ""color: green;font-size:25px;""><按空格键至下页></div> </p>
   "," ","html-keyboard-response","0","4861","0.0-0.0","3","4","4","3","3","3","3","4","3","3","5","3","3","4","3","5","4","3","3","4","2","2","1","1","2","2","1","2","2","1","1","0","0","1","1","0","1","1","0","0","0","1","0","0","4","2","3","2","4","1","3","3","2","4","4","572507279396438016","赵","221","","","","","","","","","","","","","","","","","","","","","","","","","","","","","","","","","","","","","","","","","",""
"","","","call-function","1","4863","0.0-1.0-0.0","3","4","4","3","3","3","3","4","3","3","5","3","3","4","3","5","4","3","3","4","2","2","1","1","2","2","1","2","2","1","1","0","0","1","1","0","1","1","0","0","0","1","0","0","4","2","3","2","4","1","3","3","2","4","4","572507279396438016","赵","221","","","","","","","","","","","","","","","","","","","","","","","","","","","","","","","","","","","","","","","","","",""
"22830","","{""friend_name"":""赵"",""ParticipantID"":""221""}","survey-html-form","2","27694","0.0-1.0-1.0","3","4","4","3","3","3","3","4","3","3","5","3","3","4","3","5","4","3","3","4","2","2","1","1","2","2","1","2","2","1","1","0","0","1","1","0","1","1","0","0","0","1","0","0","4","2","3","2","4","1","3","3","2","4","4","572507279396438016","赵","221","","","","","","","","","","","","","","","","","","","","","","","","","","","","","","","","","","","","","","","","","",""
"","","","fullscreen","3","30068","0.0-2.0","3","4","4","3","3","3","3","4","3","3","5","3","3","4","3","5","4","3","3","4","2","2","1","1","2","2","1","2","2","1","1","0","0","1","1","0","1","1","0","0","0","1","0","0","4","2","3","2","4","1","3","3","2","4","4","572507279396438016","赵","221","","true","{}","","","","","","","","","","","","","","","","","","","","","","","","","","","","","","","","","","","","","","",""
"19233.200000047684","","{""Q01"":""3"",""Q02"":""4"",""Q03"":""4"",""Q04"":""3"",""Q05"":""3"",""Q06"":""3"",""Q07"":""3"",""Q08"":""4"",""Q09"":""3"",""Q10"":""3""}","survey-template","4","49305","0.0-3.0","3","4","4","3","3","3","3","4","3","3","5","3","3","4","3","5","4","3","3","4","2","2","1","1","2","2","1","2","2","1","1","0","0","1","1","0","1","1","0","0","0","1","0","0","4","2","3","2","4","1","3","3","2","4","4","572507279396438016","赵","221","","","","{""Q01"":""3"",""Q02"":""4"",""Q03"":""4"",""Q04"":""3"",""Q05"":""3"",""Q06"":""3"",""Q07"":""3"",""Q08"":""4"",""Q09"":""3"",""Q10"":""3""}","[0,1,2,3,4,5,6,7,8,9]","[""Q01"",""Q02"",""Q03"",""Q04"",""Q05"",""Q06"",""Q07"",""Q08"",""Q09"",""Q10""]","[2976.7000000476837,4787.400000095367,6451.299999952316,7723.099999904633,8830,9722.700000047684,10957.299999952316,14877.299999952316,16405.599999904633,17207.400000095367]","[]","[2976.7000000476837,4787.400000095367,6451.299999952316,7723.099999904633,8830,9722.700000047684,10957.299999952316,14877.299999952316,16405.599999904633,17207.400000095367,19231.299999952316]","0.4","0.5555555555555556","0","","","","","","","","","","","","","","","","","","","","","","","","","","","","","",""
"32047.700000047684","","{""Q01"":""5"",""Q02"":""3"",""Q03"":""3"",""Q04"":""4"",""Q05"":""3"",""Q06"":""5"",""Q07"":""4"",""Q08"":""3"",""Q09"":""3"",""Q10"":""4""}","survey-template","5","81361","0.0-4.0","3","4","4","3","3","3","3","4","3","3","5","3","3","4","3","5","4","3","3","4","2","2","1","1","2","2","1","2","2","1","1","0","0","1","1","0","1","1","0","0","0","1","0","0","4","2","3","2","4","1","3","3","2","4","4","572507279396438016","赵","221","","","","{""Q01"":""5"",""Q02"":""3"",""Q03"":""3"",""Q04"":""4"",""Q05"":""3"",""Q06"":""5"",""Q07"":""4"",""Q08"":""3"",""Q09"":""3"",""Q10"":""4""}","[0,1,2,3,4,5,6,7,8,9]","[""Q01"",""Q02"",""Q03"",""Q04"",""Q05"",""Q06"",""Q07"",""Q08"",""Q09"",""Q09"",""Q10""]","[8934.400000095367,10934.5,12658.300000190735,14049,16043.200000047684,17904.300000190735,19432.800000190735,20532.400000095367,22656.700000047684,24178.800000190735,30524.200000047684]","[]","[8934.400000095367,10934.5,12658.300000190735,14049,16043.200000047684,17904.300000190735,19432.800000190735,20532.400000095367,22656.700000047684,24178.800000190735,30524.200000047684,32046.10000014305]","0.5","0.4444444444444444","0","","","","","","","","","","","","","","","","","","","","","","","","","","","","","",""
"","","","preload","6","81642","0.0-5.0","3","4","4","3","3","3","3","4","3","3","5","3","3","4","3","5","4","3","3","4","2","2","1","1","2","2","1","2","2","1","1","0","0","1","1","0","1","1","0","0","0","1","0","0","4","2","3","2","4","1","3","3","2","4","4","572507279396438016","赵","221","","true","","","","","","","","","","","false","[]","[]","[]","","","","","","","","","","","","","","","","","","","","","","","","","",""
"27391","","","instructions","7","109034","0.0-6.0","3","4","4","3","3","3","3","4","3","3","5","3","3","4","3","5","4","3","3","4","2","2","1","1","2","2","1","2","2","1","1","0","0","1","1","0","1","1","0","0","0","1","0","0","4","2","3","2","4","1","3","3","2","4","4","572507279396438016","赵","221","","","","","","","","","","","","","","","","","[{""page_index"":0,""viewing_time"":27391}]","","","","","","","","","","","","","","","","","","","","","","","","",""
"23814","","","instructions","8","132851","0.0-7.0-0.0-0.0","3","4","4","3","3","3","3","4","3","3","5","3","3","4","3","5","4","3","3","4","2","2","1","1","2","2","1","2","2","1","1","0","0","1","1","0","1","1","0","0","0","1","0","0","4","2","3","2","4","1","3","3","2","4","4","572507279396438016","赵","221","","","","","","","","","","","","","","","","","[{""page_index"":0,""viewing_time"":17357},{""page_index"":1,""viewing_time"":5165},{""page_index"":2,""viewing_time"":1292}]","","","","","","","","","","","","","","","","","","","","","","","","",""
"731","","j","psychophysics","9","134587","0.0-7.0-0.0-1.0-0.0-0.0","3","4","4","3","3","3","3","4","3","3","5","3","3","4","3","5","4","3","3","4","2","2","1","1","2","2","1","2","2","1","1","0","0","1","1","0","1","1","0","0","0","1","0","0","4","2","3","2","4","1","3","3","2","4","4","572507279396438016","赵","221","","","","match","","","","","","","","","","","","","","key","j","16.664077669902856","768","428","j","true","match","img/pentagon.png","五边","五边","ALT1_1","prac_ALT1_1","","","","","","","","","","","",""
"null","<span style='color:GreenYellow; font-size: 70px;'>正确! </span>","null","html-keyboard-response","10","135089","0.0-7.0-0.0-1.0-0.0-1.0","3","4","4","3","3","3","3","4","3","3","5","3","3","4","3","5","4","3","3","4","2","2","1","1","2","2","1","2","2","1","1","0","0","1","1","0","1","1","0","0","0","1","0","0","4","2","3","2","4","1","3","3","2","4","4","572507279396438016","赵","221","","","","","","","","","","","","","","","","","","","","","","","","","","","","","","feedback_test","","","","","","","","","","","",""
"792","","f","psychophysics","11","136886","0.0-7.0-0.0-1.0-0.0-0.1","3","4","4","3","3","3","3","4","3","3","5","3","3","4","3","5","4","3","3","4","2","2","1","1","2","2","1","2","2","1","1","0","0","1","1","0","1","1","0","0","0","1","0","0","4","2","3","2","4","1","3","3","2","4","4","572507279396438016","赵","221","","","","nonmatch","","","","","","","","","","","","","","key","f","16.6632075471697","768","428","f","true","nonmatch","img/trapezoid.png","五边","梯形","ALT1_1","prac_ALT1_1","","","","","","","","","","","",""
"null","<span style='color:GreenYellow; font-size: 70px;'>正确! </span>","null","html-keyboard-response","12","137387","0.0-7.0-0.0-1.0-0.0-1.1","3","4","4","3","3","3","3","4","3","3","5","3","3","4","3","5","4","3","3","4","2","2","1","1","2","2","1","2","2","1","1","0","0","1","1","0","1","1","0","0","0","1","0","0","4","2","3","2","4","1","3","3","2","4","4","572507279396438016","赵","221","","","","","","","","","","","","","","","","","","","","","","","","","","","","","","feedback_test","","","","","","","","","","","",""
"694","","j","psychophysics","13","139084","0.0-7.0-0.0-1.0-0.0-0.2","3","4","4","3","3","3","3","4","3","3","5","3","3","4","3","5","4","3","3","4","2","2","1","1","2","2","1","2","2","1","1","0","0","1","1","0","1","1","0","0","0","1","0","0","4","2","3","2","4","1","3","3","2","4","4","572507279396438016","赵","221","","","","match","","","","","","","","","","","","","","key","j","16.662999999999883","768","428","j","true","match","img/circle.png","圆形","圆形","ALT1_1","prac_ALT1_1","","","","","","","","","","","",""
"null","<span style='color:GreenYellow; font-size: 70px;'>正确! </span>","null","html-keyboard-response","14","139585","0.0-7.0-0.0-1.0-0.0-1.2","3","4","4","3","3","3","3","4","3","3","5","3","3","4","3","5","4","3","3","4","2","2","1","1","2","2","1","2","2","1","1","0","0","1","1","0","1","1","0","0","0","1","0","0","4","2","3","2","4","1","3","3","2","4","4","572507279396438016","赵","221","","","","","","","","","","","","","","","","","","","","","","","","","","","","","","feedback_test","","","","","","","","","","","",""
"897","","j","psychophysics","15","141483","0.0-7.0-0.0-1.0-0.0-0.3","3","4","4","3","3","3","3","4","3","3","5","3","3","4","3","5","4","3","3","4","2","2","1","1","2","2","1","2","2","1","1","0","0","1","1","0","1","1","0","0","0","1","0","0","4","2","3","2","4","1","3","3","2","4","4","572507279396438016","赵","221","","","","match","","","","","","","","","","","","","","key","j","16.665178571428573","768","428","j","true","match","img/diamond.png","菱形","菱形","ALT1_1","prac_ALT1_1","","","","","","","","","","","",""
"null","<span style='color:GreenYellow; font-size: 70px;'>正确! </span>","null","html-keyboard-response","16","141989","0.0-7.0-0.0-1.0-0.0-1.3","3","4","4","3","3","3","3","4","3","3","5","3","3","4","3","5","4","3","3","4","2","2","1","1","2","2","1","2","2","1","1","0","0","1","1","0","1","1","0","0","0","1","0","0","4","2","3","2","4","1","3","3","2","4","4","572507279396438016","赵","221","","","","","","","","","","","","","","","","","","","","","","","","","","","","","","feedback_test","","","","","","","","","","","",""
"836","","f","psychophysics","17","143845","0.0-7.0-0.0-1.0-0.0-0.4","3","4","4","3","3","3","3","4","3","3","5","3","3","4","3","5","4","3","3","4","2","2","1","1","2","2","1","2","2","1","1","0","0","1","1","0","1","1","0","0","0","1","0","0","4","2","3","2","4","1","3","3","2","4","4","572507279396438016","赵","221","","","","nonmatch","","","","","","","","","","","","","","key","f","16.66545454545465","768","428","f","true","nonmatch","img/diamond.png","圆形","菱形","ALT1_1","prac_ALT1_1","","","","","","","","","","","",""
"null","<span style='color:GreenYellow; font-size: 70px;'>正确! </span>","null","html-keyboard-response","18","144347","0.0-7.0-0.0-1.0-0.0-1.4","3","4","4","3","3","3","3","4","3","3","5","3","3","4","3","5","4","3","3","4","2","2","1","1","2","2","1","2","2","1","1","0","0","1","1","0","1","1","0","0","0","1","0","0","4","2","3","2","4","1","3","3","2","4","4","572507279396438016","赵","221","","","","","","","","","","","","","","","","","","","","","","","","","","","","","","feedback_test","","","","","","","","","","","",""
"648","","j","psychophysics","19","145998","0.0-7.0-0.0-1.0-0.0-0.5","3","4","4","3","3","3","3","4","3","3","5","3","3","4","3","5","4","3","3","4","2","2","1","1","2","2","1","2","2","1","1","0","0","1","1","0","1","1","0","0","0","1","0","0","4","2","3","2","4","1","3","3","2","4","4","572507279396438016","赵","221","","","","match","","","","","","","","","","","","","","key","j","16.664285714285775","768","428","j","true","match","img/diamond.png","菱形","菱形","ALT1_1","prac_ALT1_1","","","","","","","","","","","",""
"null","<span style='color:GreenYellow; font-size: 70px;'>正确! </span>","null","html-keyboard-response","20","146499","0.0-7.0-0.0-1.0-0.0-1.5","3","4","4","3","3","3","3","4","3","3","5","3","3","4","3","5","4","3","3","4","2","2","1","1","2","2","1","2","2","1","1","0","0","1","1","0","1","1","0","0","0","1","0","0","4","2","3","2","4","1","3","3","2","4","4","572507279396438016","赵","221","","","","","","","","","","","","","","","","","","","","","","","","","","","","","","feedback_test","","","","","","","","","","","",""
"754","","f","psychophysics","21","148257","0.0-7.0-0.0-1.0-0.0-0.6","3","4","4","3","3","3","3","4","3","3","5","3","3","4","3","5","4","3","3","4","2","2","1","1","2","2","1","2","2","1","1","0","0","1","1","0","1","1","0","0","0","1","0","0","4","2","3","2","4","1","3","3","2","4","4","572507279396438016","赵","221","","","","nonmatch","","","","","","","","","","","","","","key","f","17.683673469387756","768","428","f","true","nonmatch","img/circle.png","菱形","圆形","ALT1_1","prac_ALT1_1","","","","","","","","","","","",""
"null","<span style='color:GreenYellow; font-size: 70px;'>正确! </span>","null","html-keyboard-response","22","148759","0.0-7.0-0.0-1.0-0.0-1.6","3","4","4","3","3","3","3","4","3","3","5","3","3","4","3","5","4","3","3","4","2","2","1","1","2","2","1","2","2","1","1","0","0","1","1","0","1","1","0","0","0","1","0","0","4","2","3","2","4","1","3","3","2","4","4","572507279396438016","赵","221","","","","","","","","","","","","","","","","","","","","","","","","","","","","","","feedback_test","","","","","","","","","","","",""
"717","","j","psychophysics","23","150505","0.0-7.0-0.0-1.0-0.0-0.7","3","4","4","3","3","3","3","4","3","3","5","3","3","4","3","5","4","3","3","4","2","2","1","1","2","2","1","2","2","1","1","0","0","1","1","0","1","1","0","0","0","1","0","0","4","2","3","2","4","1","3","3","2","4","4","572507279396438016","赵","221","","","","match","","","","","","","","","","","","","","key","j","16.664423076923132","768","428","j","true","match","img/diamond.png","菱形","菱形","ALT1_1","prac_ALT1_1","","","","","","","","","","","",""
"null","<span style='color:GreenYellow; font-size: 70px;'>正确! </span>","null","html-keyboard-response","24","151008","0.0-7.0-0.0-1.0-0.0-1.7","3","4","4","3","3","3","3","4","3","3","5","3","3","4","3","5","4","3","3","4","2","2","1","1","2","2","1","2","2","1","1","0","0","1","1","0","1","1","0","0","0","1","0","0","4","2","3","2","4","1","3","3","2","4","4","572507279396438016","赵","221","","","","","","","","","","","","","","","","","","","","","","","","","","","","","","feedback_test","","","","","","","","","","","",""
"689","","f","psychophysics","25","152701","0.0-7.0-0.0-1.0-0.0-0.8","3","4","4","3","3","3","3","4","3","3","5","3","3","4","3","5","4","3","3","4","2","2","1","1","2","2","1","2","2","1","1","0","0","1","1","0","1","1","0","0","0","1","0","0","4","2","3","2","4","1","3","3","2","4","4","572507279396438016","赵","221","","","","nonmatch","","","","","","","","","","","","","","key","f","16.661386138613747","768","428","f","true","nonmatch","img/pentagon.png","菱形","五边","ALT1_1","prac_ALT1_1","","","","","","","","","","","",""
"null","<span style='color:GreenYellow; font-size: 70px;'>正确! </span>","null","html-keyboard-response","26","153203","0.0-7.0-0.0-1.0-0.0-1.8","3","4","4","3","3","3","3","4","3","3","5","3","3","4","3","5","4","3","3","4","2","2","1","1","2","2","1","2","2","1","1","0","0","1","1","0","1","1","0","0","0","1","0","0","4","2","3","2","4","1","3","3","2","4","4","572507279396438016","赵","221","","","","","","","","","","","","","","","","","","","","","","","","","","","","","","feedback_test","","","","","","","","","","","",""
"797","","f","psychophysics","27","155003","0.0-7.0-0.0-1.0-0.0-0.9","3","4","4","3","3","3","3","4","3","3","5","3","3","4","3","5","4","3","3","4","2","2","1","1","2","2","1","2","2","1","1","0","0","1","1","0","1","1","0","0","0","1","0","0","4","2","3","2","4","1","3","3","2","4","4","572507279396438016","赵","221","","","","nonmatch","","","","","","","","","","","","","","key","f","16.665420560747773","768","428","f","true","nonmatch","img/circle.png","五边","圆形","ALT1_1","prac_ALT1_1","","","","","","","","","","","",""
"null","<span style='color:GreenYellow; font-size: 70px;'>正确! </span>","null","html-keyboard-response","28","155505","0.0-7.0-0.0-1.0-0.0-1.9","3","4","4","3","3","3","3","4","3","3","5","3","3","4","3","5","4","3","3","4","2","2","1","1","2","2","1","2","2","1","1","0","0","1","1","0","1","1","0","0","0","1","0","0","4","2","3","2","4","1","3","3","2","4","4","572507279396438016","赵","221","","","","","","","","","","","","","","","","","","","","","","","","","","","","","","feedback_test","","","","","","","","","","","",""
"1150","","f","psychophysics","29","157659","0.0-7.0-0.0-1.0-0.0-0.10","3","4","4","3","3","3","3","4","3","3","5","3","3","4","3","5","4","3","3","4","2","2","1","1","2","2","1","2","2","1","1","0","0","1","1","0","1","1","0","0","0","1","0","0","4","2","3","2","4","1","3","3","2","4","4","572507279396438016","赵","221","","","","nonmatch","","","","","","","","","","","","","","key","f","16.663281249999955","768","428","f","true","nonmatch","img/diamond.png","五边","菱形","ALT1_1","prac_ALT1_1","","","","","","","","","","","",""
"null","<span style='color:GreenYellow; font-size: 70px;'>正确! </span>","null","html-keyboard-response","30","158162","0.0-7.0-0.0-1.0-0.0-1.10","3","4","4","3","3","3","3","4","3","3","5","3","3","4","3","5","4","3","3","4","2","2","1","1","2","2","1","2","2","1","1","0","0","1","1","0","1","1","0","0","0","1","0","0","4","2","3","2","4","1","3","3","2","4","4","572507279396438016","赵","221","","","","","","","","","","","","","","","","","","","","","","","","","","","","","","feedback_test","","","","","","","","","","","",""
"941","","j","psychophysics","31","160106","0.0-7.0-0.0-1.0-0.0-0.11","3","4","4","3","3","3","3","4","3","3","5","3","3","4","3","5","4","3","3","4","2","2","1","1","2","2","1","2","2","1","1","0","0","1","1","0","1","1","0","0","0","1","0","0","4","2","3","2","4","1","3","3","2","4","4","572507279396438016","赵","221","","","","match","","","","","","","","","","","","","","key","j","16.65913043478276","768","428","j","true","match","img/pentagon.png","五边","五边","ALT1_1","prac_ALT1_1","","","","","","","","","","","",""
"null","<span style='color:GreenYellow; font-size: 70px;'>正确! </span>","null","html-keyboard-response","32","160618","0.0-7.0-0.0-1.0-0.0-1.11","3","4","4","3","3","3","3","4","3","3","5","3","3","4","3","5","4","3","3","4","2","2","1","1","2","2","1","2","2","1","1","0","0","1","1","0","1","1","0","0","0","1","0","0","4","2","3","2","4","1","3","3","2","4","4","572507279396438016","赵","221","","","","","","","","","","","","","","","","","","","","","","","","","","","","","","feedback_test","","","","","","","","","","","",""
"904","","j","psychophysics","33","162525","0.0-7.0-0.0-1.0-0.0-0.12","3","4","4","3","3","3","3","4","3","3","5","3","3","4","3","5","4","3","3","4","2","2","1","1","2","2","1","2","2","1","1","0","0","1","1","0","1","1","0","0","0","1","0","0","4","2","3","2","4","1","3","3","2","4","4","572507279396438016","赵","221","","","","match","","","","","","","","","","","","","","key","j","16.664601769911297","768","428","j","true","match","img/trapezoid.png","梯形","梯形","ALT1_1","prac_ALT1_1","","","","","","","","","","","",""
"null","<span style='color:GreenYellow; font-size: 70px;'>正确! </span>","null","html-keyboard-response","34","163050","0.0-7.0-0.0-1.0-0.0-1.12","3","4","4","3","3","3","3","4","3","3","5","3","3","4","3","5","4","3","3","4","2","2","1","1","2","2","1","2","2","1","1","0","0","1","1","0","1","1","0","0","0","1","0","0","4","2","3","2","4","1","3","3","2","4","4","572507279396438016","赵","221","","","","","","","","","","","","","","","","","","","","","","","","","","","","","","feedback_test","","","","","","","","","","","",""
"759","","f","psychophysics","35","164827","0.0-7.0-0.0-1.0-0.0-0.13","3","4","4","3","3","3","3","4","3","3","5","3","3","4","3","5","4","3","3","4","2","2","1","1","2","2","1","2","2","1","1","0","0","1","1","0","1","1","0","0","0","1","0","0","4","2","3","2","4","1","3","3","2","4","4","572507279396438016","赵","221","","","","nonmatch","","","","","","","","","","","","","","key","f","16.6628571428572","768","428","f","true","nonmatch","img/trapezoid.png","圆形","梯形","ALT1_1","prac_ALT1_1","","","","","","","","","","","",""
"null","<span style='color:GreenYellow; font-size: 70px;'>正确! </span>","null","html-keyboard-response","36","165329","0.0-7.0-0.0-1.0-0.0-1.13","3","4","4","3","3","3","3","4","3","3","5","3","3","4","3","5","4","3","3","4","2","2","1","1","2","2","1","2","2","1","1","0","0","1","1","0","1","1","0","0","0","1","0","0","4","2","3","2","4","1","3","3","2","4","4","572507279396438016","赵","221","","","","","","","","","","","","","","","","","","","","","","","","","","","","","","feedback_test","","","","","","","","","","","",""
"918","","f","psychophysics","37","167250","0.0-7.0-0.0-1.0-0.0-0.14","3","4","4","3","3","3","3","4","3","3","5","3","3","4","3","5","4","3","3","4","2","2","1","1","2","2","1","2","2","1","1","0","0","1","1","0","1","1","0","0","0","1","0","0","4","2","3","2","4","1","3","3","2","4","4","572507279396438016","赵","221","","","","nonmatch","","","","","","","","","","","","","","key","f","16.66491228070191","768","428","f","true","nonmatch","img/diamond.png","梯形","菱形","ALT1_1","prac_ALT1_1","","","","","","","","","","","",""
"null","<span style='color:GreenYellow; font-size: 70px;'>正确! </span>","null","html-keyboard-response","38","167754","0.0-7.0-0.0-1.0-0.0-1.14","3","4","4","3","3","3","3","4","3","3","5","3","3","4","3","5","4","3","3","4","2","2","1","1","2","2","1","2","2","1","1","0","0","1","1","0","1","1","0","0","0","1","0","0","4","2","3","2","4","1","3","3","2","4","4","572507279396438016","赵","221","","","","","","","","","","","","","","","","","","","","","","","","","","","","","","feedback_test","","","","","","","","","","","",""
"852","","f","psychophysics","39","169608","0.0-7.0-0.0-1.0-0.0-0.15","3","4","4","3","3","3","3","4","3","3","5","3","3","4","3","5","4","3","3","4","2","2","1","1","2","2","1","2","2","1","1","0","0","1","1","0","1","1","0","0","0","1","0","0","4","2","3","2","4","1","3","3","2","4","4","572507279396438016","赵","221","","","","nonmatch","","","","","","","","","","","","","","key","f","16.665454545454388","768","428","f","true","nonmatch","img/trapezoid.png","菱形","梯形","ALT1_1","prac_ALT1_1","","","","","","","","","","","",""
"null","<span style='color:GreenYellow; font-size: 70px;'>正确! </span>","null","html-keyboard-response","40","170129","0.0-7.0-0.0-1.0-0.0-1.15","3","4","4","3","3","3","3","4","3","3","5","3","3","4","3","5","4","3","3","4","2","2","1","1","2","2","1","2","2","1","1","0","0","1","1","0","1","1","0","0","0","1","0","0","4","2","3","2","4","1","3","3","2","4","4","572507279396438016","赵","221","","","","","","","","","","","","","","","","","","","","","","","","","","","","","","feedback_test","","","","","","","","","","","",""
"798","","j","psychophysics","41","171947","0.0-7.0-0.0-1.0-0.0-0.16","3","4","4","3","3","3","3","4","3","3","5","3","3","4","3","5","4","3","3","4","2","2","1","1","2","2","1","2","2","1","1","0","0","1","1","0","1","1","0","0","0","1","0","0","4","2","3","2","4","1","3","3","2","4","4","572507279396438016","赵","221","","","","match","","","","","","","","","","","","","","key","j","16.662037037037038","768","428","j","true","match","img/trapezoid.png","梯形","梯形","ALT1_1","prac_ALT1_1","","","","","","","","","","","",""
"null","<span style='color:GreenYellow; font-size: 70px;'>正确! </span>","null","html-keyboard-response","42","172454","0.0-7.0-0.0-1.0-0.0-1.16","3","4","4","3","3","3","3","4","3","3","5","3","3","4","3","5","4","3","3","4","2","2","1","1","2","2","1","2","2","1","1","0","0","1","1","0","1","1","0","0","0","1","0","0","4","2","3","2","4","1","3","3","2","4","4","572507279396438016","赵","221","","","","","","","","","","","","","","","","","","","","","","","","","","","","","","feedback_test","","","","","","","","","","","",""
"806","","j","psychophysics","43","174262","0.0-7.0-0.0-1.0-0.0-0.17","3","4","4","3","3","3","3","4","3","3","5","3","3","4","3","5","4","3","3","4","2","2","1","1","2","2","1","2","2","1","1","0","0","1","1","0","1","1","0","0","0","1","0","0","4","2","3","2","4","1","3","3","2","4","4","572507279396438016","赵","221","","","","match","","","","","","","","","","","","","","key","j","16.66355140186916","768","428","j","true","match","img/circle.png","圆形","圆形","ALT1_1","prac_ALT1_1","","","","","","","","","","","",""
"null","<span style='color:GreenYellow; font-size: 70px;'>正确! </span>","null","html-keyboard-response","44","174764","0.0-7.0-0.0-1.0-0.0-1.17","3","4","4","3","3","3","3","4","3","3","5","3","3","4","3","5","4","3","3","4","2","2","1","1","2","2","1","2","2","1","1","0","0","1","1","0","1","1","0","0","0","1","0","0","4","2","3","2","4","1","3","3","2","4","4","572507279396438016","赵","221","","","","","","","","","","","","","","","","","","","","","","","","","","","","","","feedback_test","","","","","","","","","","","",""
"725","","f","psychophysics","45","176489","0.0-7.0-0.0-1.0-0.0-0.18","3","4","4","3","3","3","3","4","3","3","5","3","3","4","3","5","4","3","3","4","2","2","1","1","2","2","1","2","2","1","1","0","0","1","1","0","1","1","0","0","0","1","0","0","4","2","3","2","4","1","3","3","2","4","4","572507279396438016","赵","221","","","","nonmatch","","","","","","","","","","","","","","key","f","16.66470588235311","768","428","f","true","nonmatch","img/circle.png","梯形","圆形","ALT1_1","prac_ALT1_1","","","","","","","","","","","",""
"null","<span style='color:GreenYellow; font-size: 70px;'>正确! </span>","null","html-keyboard-response","46","177000","0.0-7.0-0.0-1.0-0.0-1.18","3","4","4","3","3","3","3","4","3","3","5","3","3","4","3","5","4","3","3","4","2","2","1","1","2","2","1","2","2","1","1","0","0","1","1","0","1","1","0","0","0","1","0","0","4","2","3","2","4","1","3","3","2","4","4","572507279396438016","赵","221","","","","","","","","","","","","","","","","","","","","","","","","","","","","","","feedback_test","","","","","","","","","","","",""
"739","","j","psychophysics","47","178757","0.0-7.0-0.0-1.0-0.0-0.19","3","4","4","3","3","3","3","4","3","3","5","3","3","4","3","5","4","3","3","4","2","2","1","1","2","2","1","2","2","1","1","0","0","1","1","0","1","1","0","0","0","1","0","0","4","2","3","2","4","1","3","3","2","4","4","572507279396438016","赵","221","","","","match","","","","","","","","","","","","","","key","j","16.664423076923132","768","428","j","true","match","img/pentagon.png","五边","五边","ALT1_1","prac_ALT1_1","","","","","","","","","","","",""
"null","<span style='color:GreenYellow; font-size: 70px;'>正确! </span>","null","html-keyboard-response","48","179258","0.0-7.0-0.0-1.0-0.0-1.19","3","4","4","3","3","3","3","4","3","3","5","3","3","4","3","5","4","3","3","4","2","2","1","1","2","2","1","2","2","1","1","0","0","1","1","0","1","1","0","0","0","1","0","0","4","2","3","2","4","1","3","3","2","4","4","572507279396438016","赵","221","","","","","","","","","","","","","","","","","","","","","","","","","","","","","","feedback_test","","","","","","","","","","","",""
"755","","f","psychophysics","49","181020","0.0-7.0-0.0-1.0-0.0-0.20","3","4","4","3","3","3","3","4","3","3","5","3","3","4","3","5","4","3","3","4","2","2","1","1","2","2","1","2","2","1","1","0","0","1","1","0","1","1","0","0","0","1","0","0","4","2","3","2","4","1","3","3","2","4","4","572507279396438016","赵","221","","","","nonmatch","","","","","","","","","","","","","","key","f","16.6628571428572","768","428","f","true","nonmatch","img/pentagon.png","圆形","五边","ALT1_1","prac_ALT1_1","","","","","","","","","","","",""
"null","<span style='color:GreenYellow; font-size: 70px;'>正确! </span>","null","html-keyboard-response","50","181522","0.0-7.0-0.0-1.0-0.0-1.20","3","4","4","3","3","3","3","4","3","3","5","3","3","4","3","5","4","3","3","4","2","2","1","1","2","2","1","2","2","1","1","0","0","1","1","0","1","1","0","0","0","1","0","0","4","2","3","2","4","1","3","3","2","4","4","572507279396438016","赵","221","","","","","","","","","","","","","","","","","","","","","","","","","","","","","","feedback_test","","","","","","","","","","","",""
"590","","j","psychophysics","51","183114","0.0-7.0-0.0-1.0-0.0-0.21","3","4","4","3","3","3","3","4","3","3","5","3","3","4","3","5","4","3","3","4","2","2","1","1","2","2","1","2","2","1","1","0","0","1","1","0","1","1","0","0","0","1","0","0","4","2","3","2","4","1","3","3","2","4","4","572507279396438016","赵","221","","","","match","","","","","","","","","","","","","","key","j","16.66526315789486","768","428","j","true","match","img/trapezoid.png","梯形","梯形","ALT1_1","prac_ALT1_1","","","","","","","","","","","",""
"null","<span style='color:GreenYellow; font-size: 70px;'>正确! </span>","null","html-keyboard-response","52","183617","0.0-7.0-0.0-1.0-0.0-1.21","3","4","4","3","3","3","3","4","3","3","5","3","3","4","3","5","4","3","3","4","2","2","1","1","2","2","1","2","2","1","1","0","0","1","1","0","1","1","0","0","0","1","0","0","4","2","3","2","4","1","3","3","2","4","4","572507279396438016","赵","221","","","","","","","","","","","","","","","","","","","","","","","","","","","","","","feedback_test","","","","","","","","","","","",""
"750","","j","psychophysics","53","185399","0.0-7.0-0.0-1.0-0.0-0.22","3","4","4","3","3","3","3","4","3","3","5","3","3","4","3","5","4","3","3","4","2","2","1","1","2","2","1","2","2","1","1","0","0","1","1","0","1","1","0","0","0","1","0","0","4","2","3","2","4","1","3","3","2","4","4","572507279396438016","赵","221","","","","match","","","","","","","","","","","","","","key","j","16.662264150943507","768","428","f","false","nonmatch","img/pentagon.png","梯形","五边","ALT1_1","prac_ALT1_1","","","","","","","","","","","",""
"null","<span style='color:red; font-size: 70px;'>错误! </span>","null","html-keyboard-response","54","185901","0.0-7.0-0.0-1.0-0.0-1.22","3","4","4","3","3","3","3","4","3","3","5","3","3","4","3","5","4","3","3","4","2","2","1","1","2","2","1","2","2","1","1","0","0","1","1","0","1","1","0","0","0","1","0","0","4","2","3","2","4","1","3","3","2","4","4","572507279396438016","赵","221","","","","","","","","","","","","","","","","","","","","","","","","","","","","","","feedback_test","","","","","","","","","","","",""
"587","","j","psychophysics","55","187489","0.0-7.0-0.0-1.0-0.0-0.23","3","4","4","3","3","3","3","4","3","3","5","3","3","4","3","5","4","3","3","4","2","2","1","1","2","2","1","2","2","1","1","0","0","1","1","0","1","1","0","0","0","1","0","0","4","2","3","2","4","1","3","3","2","4","4","572507279396438016","赵","221","","","","match","","","","","","","","","","","","","","key","j","16.664893617021278","768","428","j","true","match","img/circle.png","圆形","圆形","ALT1_1","prac_ALT1_1","","","","","","","","","","","",""
"null","<span style='color:GreenYellow; font-size: 70px;'>正确! </span>","null","html-keyboard-response","56","187991","0.0-7.0-0.0-1.0-0.0-1.23","3","4","4","3","3","3","3","4","3","3","5","3","3","4","3","5","4","3","3","4","2","2","1","1","2","2","1","2","2","1","1","0","0","1","1","0","1","1","0","0","0","1","0","0","4","2","3","2","4","1","3","3","2","4","4","572507279396438016","赵","221","","","","","","","","","","","","","","","","","","","","","","","","","","","","","","feedback_test","","","","","","","","","","","",""
"876","","f","psychophysics","57","189874","0.0-7.0-0.0-1.0-0.0-0.24","3","4","4","3","3","3","3","4","3","3","5","3","3","4","3","5","4","3","3","4","2","2","1","1","2","2","1","2","2","1","1","0","0","1","1","0","1","1","0","0","0","1","0","0","4","2","3","2","4","1","3","3","2","4","4","572507279396438016","赵","221","","","","nonmatch","","","","","","","","","","","","","","key","f","16.663063063062854","768","428","f","true","nonmatch","img/trapezoid.png","五边","梯形","ALT1_1","prac_ALT1_1","","","","","","","","","","","",""
"null","<span style='color:GreenYellow; font-size: 70px;'>正确! </span>","null","html-keyboard-response","58","190375","0.0-7.0-0.0-1.0-0.0-1.24","3","4","4","3","3","3","3","4","3","3","5","3","3","4","3","5","4","3","3","4","2","2","1","1","2","2","1","2","2","1","1","0","0","1","1","0","1","1","0","0","0","1","0","0","4","2","3","2","4","1","3","3","2","4","4","572507279396438016","赵","221","","","","","","","","","","","","","","","","","","","","","","","","","","","","","","feedback_test","","","","","","","","","","","",""
"686","","j","psychophysics","59","192084","0.0-7.0-0.0-1.0-0.0-0.25","3","4","4","3","3","3","3","4","3","3","5","3","3","4","3","5","4","3","3","4","2","2","1","1","2","2","1","2","2","1","1","0","0","1","1","0","1","1","0","0","0","1","0","0","4","2","3","2","4","1","3","3","2","4","4","572507279396438016","赵","221","","","","match","","","","","","","","","","","","","","key","j","16.662376237623704","768","428","f","false","nonmatch","img/trapezoid.png","菱形","梯形","ALT1_1","prac_ALT1_1","","","","","","","","","","","",""
"null","<span style='color:red; font-size: 70px;'>错误! </span>","null","html-keyboard-response","60","192586","0.0-7.0-0.0-1.0-0.0-1.25","3","4","4","3","3","3","3","4","3","3","5","3","3","4","3","5","4","3","3","4","2","2","1","1","2","2","1","2","2","1","1","0","0","1","1","0","1","1","0","0","0","1","0","0","4","2","3","2","4","1","3","3","2","4","4","572507279396438016","赵","221","","","","","","","","","","","","","","","","","","","","","","","","","","","","","","feedback_test","","","","","","","","","","","",""
"899","","j","psychophysics","61","194489","0.0-7.0-0.0-1.0-0.0-0.26","3","4","4","3","3","3","3","4","3","3","5","3","3","4","3","5","4","3","3","4","2","2","1","1","2","2","1","2","2","1","1","0","0","1","1","0","1","1","0","0","0","1","0","0","4","2","3","2","4","1","3","3","2","4","4","572507279396438016","赵","221","","","","match","","","","","","","","","","","","","","key","j","16.663716814159294","768","428","j","true","match","img/diamond.png","菱形","菱形","ALT1_1","prac_ALT1_1","","","","","","","","","","","",""
"null","<span style='color:GreenYellow; font-size: 70px;'>正确! </span>","null","html-keyboard-response","62","194991","0.0-7.0-0.0-1.0-0.0-1.26","3","4","4","3","3","3","3","4","3","3","5","3","3","4","3","5","4","3","3","4","2","2","1","1","2","2","1","2","2","1","1","0","0","1","1","0","1","1","0","0","0","1","0","0","4","2","3","2","4","1","3","3","2","4","4","572507279396438016","赵","221","","","","","","","","","","","","","","","","","","","","","","","","","","","","","","feedback_test","","","","","","","","","","","",""
"621","","j","psychophysics","63","196613","0.0-7.0-0.0-1.0-0.0-0.27","3","4","4","3","3","3","3","4","3","3","5","3","3","4","3","5","4","3","3","4","2","2","1","1","2","2","1","2","2","1","1","0","0","1","1","0","1","1","0","0","0","1","0","0","4","2","3","2","4","1","3","3","2","4","4","572507279396438016","赵","221","","","","match","","","","","","","","","","","","","","key","j","16.664583333333514","768","428","j","true","match","img/trapezoid.png","梯形","梯形","ALT1_1","prac_ALT1_1","","","","","","","","","","","",""
"null","<span style='color:GreenYellow; font-size: 70px;'>正确! </span>","null","html-keyboard-response","64","197130","0.0-7.0-0.0-1.0-0.0-1.27","3","4","4","3","3","3","3","4","3","3","5","3","3","4","3","5","4","3","3","4","2","2","1","1","2","2","1","2","2","1","1","0","0","1","1","0","1","1","0","0","0","1","0","0","4","2","3","2","4","1","3","3","2","4","4","572507279396438016","赵","221","","","","","","","","","","","","","","","","","","","","","","","","","","","","","","feedback_test","","","","","","","","","","","",""
"722","","f","psychophysics","65","198871","0.0-7.0-0.0-1.0-0.0-0.28","3","4","4","3","3","3","3","4","3","3","5","3","3","4","3","5","4","3","3","4","2","2","1","1","2","2","1","2","2","1","1","0","0","1","1","0","1","1","0","0","0","1","0","0","4","2","3","2","4","1","3","3","2","4","4","572507279396438016","赵","221","","","","nonmatch","","","","","","","","","","","","","","key","f","16.663725490196192","768","428","f","true","nonmatch","img/circle.png","五边","圆形","ALT1_1","prac_ALT1_1","","","","","","","","","","","",""
"null","<span style='color:GreenYellow; font-size: 70px;'>正确! </span>","null","html-keyboard-response","66","199373","0.0-7.0-0.0-1.0-0.0-1.28","3","4","4","3","3","3","3","4","3","3","5","3","3","4","3","5","4","3","3","4","2","2","1","1","2","2","1","2","2","1","1","0","0","1","1","0","1","1","0","0","0","1","0","0","4","2","3","2","4","1","3","3","2","4","4","572507279396438016","赵","221","","","","","","","","","","","","","","","","","","","","","","","","","","","","","","feedback_test","","","","","","","","","","","",""
"647","","j","psychophysics","67","201024","0.0-7.0-0.0-1.0-0.0-0.29","3","4","4","3","3","3","3","4","3","3","5","3","3","4","3","5","4","3","3","4","2","2","1","1","2","2","1","2","2","1","1","0","0","1","1","0","1","1","0","0","0","1","0","0","4","2","3","2","4","1","3","3","2","4","4","572507279396438016","赵","221","","","","match","","","","","","","","","","","","","","key","j","16.664285714285775","768","428","j","true","match","img/pentagon.png","五边","五边","ALT1_1","prac_ALT1_1","","","","","","","","","","","",""
"null","<span style='color:GreenYellow; font-size: 70px;'>正确! </span>","null","html-keyboard-response","68","201525","0.0-7.0-0.0-1.0-0.0-1.29","3","4","4","3","3","3","3","4","3","3","5","3","3","4","3","5","4","3","3","4","2","2","1","1","2","2","1","2","2","1","1","0","0","1","1","0","1","1","0","0","0","1","0","0","4","2","3","2","4","1","3","3","2","4","4","572507279396438016","赵","221","","","","","","","","","","","","","","","","","","","","","","","","","","","","","","feedback_test","","","","","","","","","","","",""
"748","","j","psychophysics","69","203276","0.0-7.0-0.0-1.0-0.0-0.30","3","4","4","3","3","3","3","4","3","3","5","3","3","4","3","5","4","3","3","4","2","2","1","1","2","2","1","2","2","1","1","0","0","1","1","0","1","1","0","0","0","1","0","0","4","2","3","2","4","1","3","3","2","4","4","572507279396438016","赵","221","","","","match","","","","","","","","","","","","","","key","j","16.66346153846154","768","428","j","true","match","img/circle.png","圆形","圆形","ALT1_1","prac_ALT1_1","","","","","","","","","","","",""
"null","<span style='color:GreenYellow; font-size: 70px;'>正确! </span>","null","html-keyboard-response","70","203777","0.0-7.0-0.0-1.0-0.0-1.30","3","4","4","3","3","3","3","4","3","3","5","3","3","4","3","5","4","3","3","4","2","2","1","1","2","2","1","2","2","1","1","0","0","1","1","0","1","1","0","0","0","1","0","0","4","2","3","2","4","1","3","3","2","4","4","572507279396438016","赵","221","","","","","","","","","","","","","","","","","","","","","","","","","","","","","","feedback_test","","","","","","","","","","","",""
"838","","j","psychophysics","71","205647","0.0-7.0-0.0-1.0-0.0-0.31","3","4","4","3","3","3","3","4","3","3","5","3","3","4","3","5","4","3","3","4","2","2","1","1","2","2","1","2","2","1","1","0","0","1","1","0","1","1","0","0","0","1","0","0","4","2","3","2","4","1","3","3","2","4","4","572507279396438016","赵","221","","","","match","","","","","","","","","","","","","","key","j","16.66396396396407","768","428","j","true","match","img/diamond.png","菱形","菱形","ALT1_1","prac_ALT1_1","","","","","","","","","","","",""
"null","<span style='color:GreenYellow; font-size: 70px;'>正确! </span>","null","html-keyboard-response","72","206148","0.0-7.0-0.0-1.0-0.0-1.31","3","4","4","3","3","3","3","4","3","3","5","3","3","4","3","5","4","3","3","4","2","2","1","1","2","2","1","2","2","1","1","0","0","1","1","0","1","1","0","0","0","1","0","0","4","2","3","2","4","1","3","3","2","4","4","572507279396438016","赵","221","","","","","","","","","","","","","","","","","","","","","","","","","","","","","","feedback_test","","","","","","","","","","","",""
"661","","f","psychophysics","73","207812","0.0-7.0-0.0-1.0-0.0-0.32","3","4","4","3","3","3","3","4","3","3","5","3","3","4","3","5","4","3","3","4","2","2","1","1","2","2","1","2","2","1","1","0","0","1","1","0","1","1","0","0","0","1","0","0","4","2","3","2","4","1","3","3","2","4","4","572507279396438016","赵","221","","","","nonmatch","","","","","","","","","","","","","","key","f","16.661616161616163","768","428","f","true","nonmatch","img/pentagon.png","圆形","五边","ALT1_1","prac_ALT1_1","","","","","","","","","","","",""
"null","<span style='color:GreenYellow; font-size: 70px;'>正确! </span>","null","html-keyboard-response","74","208313","0.0-7.0-0.0-1.0-0.0-1.32","3","4","4","3","3","3","3","4","3","3","5","3","3","4","3","5","4","3","3","4","2","2","1","1","2","2","1","2","2","1","1","0","0","1","1","0","1","1","0","0","0","1","0","0","4","2","3","2","4","1","3","3","2","4","4","572507279396438016","赵","221","","","","","","","","","","","","","","","","","","","","","","","","","","","","","","feedback_test","","","","","","","","","","","",""
"657","","j","psychophysics","75","209972","0.0-7.0-0.0-1.0-0.0-0.33","3","4","4","3","3","3","3","4","3","3","5","3","3","4","3","5","4","3","3","4","2","2","1","1","2","2","1","2","2","1","1","0","0","1","1","0","1","1","0","0","0","1","0","0","4","2","3","2","4","1","3","3","2","4","4","572507279396438016","赵","221","","","","match","","","","","","","","","","","","","","key","j","16.664285714285775","768","428","j","true","match","img/circle.png","圆形","圆形","ALT1_1","prac_ALT1_1","","","","","","","","","","","",""
"null","<span style='color:GreenYellow; font-size: 70px;'>正确! </span>","null","html-keyboard-response","76","210473","0.0-7.0-0.0-1.0-0.0-1.33","3","4","4","3","3","3","3","4","3","3","5","3","3","4","3","5","4","3","3","4","2","2","1","1","2","2","1","2","2","1","1","0","0","1","1","0","1","1","0","0","0","1","0","0","4","2","3","2","4","1","3","3","2","4","4","572507279396438016","赵","221","","","","","","","","","","","","","","","","","","","","","","","","","","","","","","feedback_test","","","","","","","","","","","",""
"809","","f","psychophysics","77","212307","0.0-7.0-0.0-1.0-0.0-0.34","3","4","4","3","3","3","3","4","3","3","5","3","3","4","3","5","4","3","3","4","2","2","1","1","2","2","1","2","2","1","1","0","0","1","1","0","1","1","0","0","0","1","0","0","4","2","3","2","4","1","3","3","2","4","4","572507279396438016","赵","221","","","","nonmatch","","","","","","","","","","","","","","key","f","16.659433962264096","768","428","f","true","nonmatch","img/diamond.png","圆形","菱形","ALT1_1","prac_ALT1_1","","","","","","","","","","","",""
"null","<span style='color:GreenYellow; font-size: 70px;'>正确! </span>","null","html-keyboard-response","78","212809","0.0-7.0-0.0-1.0-0.0-1.34","3","4","4","3","3","3","3","4","3","3","5","3","3","4","3","5","4","3","3","4","2","2","1","1","2","2","1","2","2","1","1","0","0","1","1","0","1","1","0","0","0","1","0","0","4","2","3","2","4","1","3","3","2","4","4","572507279396438016","赵","221","","","","","","","","","","","","","","","","","","","","","","","","","","","","","","feedback_test","","","","","","","","","","","",""
"647","","j","psychophysics","79","214459","0.0-7.0-0.0-1.0-0.0-0.35","3","4","4","3","3","3","3","4","3","3","5","3","3","4","3","5","4","3","3","4","2","2","1","1","2","2","1","2","2","1","1","0","0","1","1","0","1","1","0","0","0","1","0","0","4","2","3","2","4","1","3","3","2","4","4","572507279396438016","赵","221","","","","match","","","","","","","","","","","","","","key","j","16.662244897959123","768","428","j","true","match","img/trapezoid.png","梯形","梯形","ALT1_1","prac_ALT1_1","","","","","","","","","","","",""
"null","<span style='color:GreenYellow; font-size: 70px;'>正确! </span>","null","html-keyboard-response","80","214961","0.0-7.0-0.0-1.0-0.0-1.35","3","4","4","3","3","3","3","4","3","3","5","3","3","4","3","5","4","3","3","4","2","2","1","1","2","2","1","2","2","1","1","0","0","1","1","0","1","1","0","0","0","1","0","0","4","2","3","2","4","1","3","3","2","4","4","572507279396438016","赵","221","","","","","","","","","","","","","","","","","","","","","","","","","","","","","","feedback_test","","","","","","","","","","","",""
"964","","j","psychophysics","81","216927","0.0-7.0-0.0-1.0-0.0-0.36","3","4","4","3","3","3","3","4","3","3","5","3","3","4","3","5","4","3","3","4","2","2","1","1","2","2","1","2","2","1","1","0","0","1","1","0","1","1","0","0","0","1","0","0","4","2","3","2","4","1","3","3","2","4","4","572507279396438016","赵","221","","","","match","","","","","","","","","","","","","","key","j","16.661016949152543","768","428","f","false","nonmatch","img/pentagon.png","梯形","五边","ALT1_1","prac_ALT1_1","","","","","","","","","","","",""
"null","<span style='color:red; font-size: 70px;'>错误! </span>","null","html-keyboard-response","82","217439","0.0-7.0-0.0-1.0-0.0-1.36","3","4","4","3","3","3","3","4","3","3","5","3","3","4","3","5","4","3","3","4","2","2","1","1","2","2","1","2","2","1","1","0","0","1","1","0","1","1","0","0","0","1","0","0","4","2","3","2","4","1","3","3","2","4","4","572507279396438016","赵","221","","","","","","","","","","","","","","","","","","","","","","","","","","","","","","feedback_test","","","","","","","","","","","",""
"806","","j","psychophysics","83","219264","0.0-7.0-0.0-1.0-0.0-0.37","3","4","4","3","3","3","3","4","3","3","5","3","3","4","3","5","4","3","3","4","2","2","1","1","2","2","1","2","2","1","1","0","0","1","1","0","1","1","0","0","0","1","0","0","4","2","3","2","4","1","3","3","2","4","4","572507279396438016","赵","221","","","","match","","","","","","","","","","","","","","key","j","16.664814814814978","768","428","j","true","match","img/diamond.png","菱形","菱形","ALT1_1","prac_ALT1_1","","","","","","","","","","","",""
"null","<span style='color:GreenYellow; font-size: 70px;'>正确! </span>","null","html-keyboard-response","84","219767","0.0-7.0-0.0-1.0-0.0-1.37","3","4","4","3","3","3","3","4","3","3","5","3","3","4","3","5","4","3","3","4","2","2","1","1","2","2","1","2","2","1","1","0","0","1","1","0","1","1","0","0","0","1","0","0","4","2","3","2","4","1","3","3","2","4","4","572507279396438016","赵","221","","","","","","","","","","","","","","","","","","","","","","","","","","","","","","feedback_test","","","","","","","","","","","",""
"713","","f","psychophysics","85","221483","0.0-7.0-0.0-1.0-0.0-0.38","3","4","4","3","3","3","3","4","3","3","5","3","3","4","3","5","4","3","3","4","2","2","1","1","2","2","1","2","2","1","1","0","0","1","1","0","1","1","0","0","0","1","0","0","4","2","3","2","4","1","3","3","2","4","4","572507279396438016","赵","221","","","","nonmatch","","","","","","","","","","","","","","key","f","16.664356435643622","768","428","j","false","match","img/pentagon.png","五边","五边","ALT1_1","prac_ALT1_1","","","","","","","","","","","",""
"null","<span style='color:red; font-size: 70px;'>错误! </span>","null","html-keyboard-response","86","221985","0.0-7.0-0.0-1.0-0.0-1.38","3","4","4","3","3","3","3","4","3","3","5","3","3","4","3","5","4","3","3","4","2","2","1","1","2","2","1","2","2","1","1","0","0","1","1","0","1","1","0","0","0","1","0","0","4","2","3","2","4","1","3","3","2","4","4","572507279396438016","赵","221","","","","","","","","","","","","","","","","","","","","","","","","","","","","","","feedback_test","","","","","","","","","","","",""
"713","","j","psychophysics","87","223700","0.0-7.0-0.0-1.0-0.0-0.39","3","4","4","3","3","3","3","4","3","3","5","3","3","4","3","5","4","3","3","4","2","2","1","1","2","2","1","2","2","1","1","0","0","1","1","0","1","1","0","0","0","1","0","0","4","2","3","2","4","1","3","3","2","4","4","572507279396438016","赵","221","","","","match","","","","","","","","","","","","","","key","j","16.665686274509746","768","428","j","true","match","img/trapezoid.png","梯形","梯形","ALT1_1","prac_ALT1_1","","","","","","","","","","","",""
"null","<span style='color:GreenYellow; font-size: 70px;'>正确! </span>","null","html-keyboard-response","88","224201","0.0-7.0-0.0-1.0-0.0-1.39","3","4","4","3","3","3","3","4","3","3","5","3","3","4","3","5","4","3","3","4","2","2","1","1","2","2","1","2","2","1","1","0","0","1","1","0","1","1","0","0","0","1","0","0","4","2","3","2","4","1","3","3","2","4","4","572507279396438016","赵","221","","","","","","","","","","","","","","","","","","","","","","","","","","","","","","feedback_test","","","","","","","","","","","",""
"585","","j","psychophysics","89","225794","0.0-7.0-0.0-1.0-0.0-0.40","3","4","4","3","3","3","3","4","3","3","5","3","3","4","3","5","4","3","3","4","2","2","1","1","2","2","1","2","2","1","1","0","0","1","1","0","1","1","0","0","0","1","0","0","4","2","3","2","4","1","3","3","2","4","4","572507279396438016","赵","221","","","","match","","","","","","","","","","","","","","key","j","16.662765957446993","768","428","j","true","match","img/circle.png","圆形","圆形","ALT1_1","prac_ALT1_1","","","","","","","","","","","",""
"null","<span style='color:GreenYellow; font-size: 70px;'>正确! </span>","null","html-keyboard-response","90","226295","0.0-7.0-0.0-1.0-0.0-1.40","3","4","4","3","3","3","3","4","3","3","5","3","3","4","3","5","4","3","3","4","2","2","1","1","2","2","1","2","2","1","1","0","0","1","1","0","1","1","0","0","0","1","0","0","4","2","3","2","4","1","3","3","2","4","4","572507279396438016","赵","221","","","","","","","","","","","","","","","","","","","","","","","","","","","","","","feedback_test","","","","","","","","","","","",""
"857","","f","psychophysics","91","228154","0.0-7.0-0.0-1.0-0.0-0.41","3","4","4","3","3","3","3","4","3","3","5","3","3","4","3","5","4","3","3","4","2","2","1","1","2","2","1","2","2","1","1","0","0","1","1","0","1","1","0","0","0","1","0","0","4","2","3","2","4","1","3","3","2","4","4","572507279396438016","赵","221","","","","nonmatch","","","","","","","","","","","","","","key","f","16.664545454545507","768","428","f","true","nonmatch","img/diamond.png","梯形","菱形","ALT1_1","prac_ALT1_1","","","","","","","","","","","",""
"null","<span style='color:GreenYellow; font-size: 70px;'>正确! </span>","null","html-keyboard-response","92","228656","0.0-7.0-0.0-1.0-0.0-1.41","3","4","4","3","3","3","3","4","3","3","5","3","3","4","3","5","4","3","3","4","2","2","1","1","2","2","1","2","2","1","1","0","0","1","1","0","1","1","0","0","0","1","0","0","4","2","3","2","4","1","3","3","2","4","4","572507279396438016","赵","221","","","","","","","","","","","","","","","","","","","","","","","","","","","","","","feedback_test","","","","","","","","","","","",""
"891","","j","psychophysics","93","230551","0.0-7.0-0.0-1.0-0.0-0.42","3","4","4","3","3","3","3","4","3","3","5","3","3","4","3","5","4","3","3","4","2","2","1","1","2","2","1","2","2","1","1","0","0","1","1","0","1","1","0","0","0","1","0","0","4","2","3","2","4","1","3","3","2","4","4","572507279396438016","赵","221","","","","match","","","","","","","","","","","","","","key","j","16.663392857143013","768","428","j","true","match","img/pentagon.png","五边","五边","ALT1_1","prac_ALT1_1","","","","","","","","","","","",""
"null","<span style='color:GreenYellow; font-size: 70px;'>正确! </span>","null","html-keyboard-response","94","231059","0.0-7.0-0.0-1.0-0.0-1.42","3","4","4","3","3","3","3","4","3","3","5","3","3","4","3","5","4","3","3","4","2","2","1","1","2","2","1","2","2","1","1","0","0","1","1","0","1","1","0","0","0","1","0","0","4","2","3","2","4","1","3","3","2","4","4","572507279396438016","赵","221","","","","","","","","","","","","","","","","","","","","","","","","","","","","","","feedback_test","","","","","","","","","","","",""
"777","","f","psychophysics","95","232857","0.0-7.0-0.0-1.0-0.0-0.43","3","4","4","3","3","3","3","4","3","3","5","3","3","4","3","5","4","3","3","4","2","2","1","1","2","2","1","2","2","1","1","0","0","1","1","0","1","1","0","0","0","1","0","0","4","2","3","2","4","1","3","3","2","4","4","572507279396438016","赵","221","","","","nonmatch","","","","","","","","","","","","","","key","f","16.662616822429854","768","428","f","true","nonmatch","img/pentagon.png","菱形","五边","ALT1_1","prac_ALT1_1","","","","","","","","","","","",""
"null","<span style='color:GreenYellow; font-size: 70px;'>正确! </span>","null","html-keyboard-response","96","233359","0.0-7.0-0.0-1.0-0.0-1.43","3","4","4","3","3","3","3","4","3","3","5","3","3","4","3","5","4","3","3","4","2","2","1","1","2","2","1","2","2","1","1","0","0","1","1","0","1","1","0","0","0","1","0","0","4","2","3","2","4","1","3","3","2","4","4","572507279396438016","赵","221","","","","","","","","","","","","","","","","","","","","","","","","","","","","","","feedback_test","","","","","","","","","","","",""
"720","","f","psychophysics","97","235082","0.0-7.0-0.0-1.0-0.0-0.44","3","4","4","3","3","3","3","4","3","3","5","3","3","4","3","5","4","3","3","4","2","2","1","1","2","2","1","2","2","1","1","0","0","1","1","0","1","1","0","0","0","1","0","0","4","2","3","2","4","1","3","3","2","4","4","572507279396438016","赵","221","","","","nonmatch","","","","","","","","","","","","","","key","f","16.663725490196192","768","428","f","true","nonmatch","img/circle.png","菱形","圆形","ALT1_1","prac_ALT1_1","","","","","","","","","","","",""
"null","<span style='color:GreenYellow; font-size: 70px;'>正确! </span>","null","html-keyboard-response","98","235584","0.0-7.0-0.0-1.0-0.0-1.44","3","4","4","3","3","3","3","4","3","3","5","3","3","4","3","5","4","3","3","4","2","2","1","1","2","2","1","2","2","1","1","0","0","1","1","0","1","1","0","0","0","1","0","0","4","2","3","2","4","1","3","3","2","4","4","572507279396438016","赵","221","","","","","","","","","","","","","","","","","","","","","","","","","","","","","","feedback_test","","","","","","","","","","","",""
"774","","f","psychophysics","99","237361","0.0-7.0-0.0-1.0-0.0-0.45","3","4","4","3","3","3","3","4","3","3","5","3","3","4","3","5","4","3","3","4","2","2","1","1","2","2","1","2","2","1","1","0","0","1","1","0","1","1","0","0","0","1","0","0","4","2","3","2","4","1","3","3","2","4","4","572507279396438016","赵","221","","","","nonmatch","","","","","","","","","","","","","","key","f","16.663809523809636","768","428","f","true","nonmatch","img/circle.png","梯形","圆形","ALT1_1","prac_ALT1_1","","","","","","","","","","","",""
"null","<span style='color:GreenYellow; font-size: 70px;'>正确! </span>","null","html-keyboard-response","100","237869","0.0-7.0-0.0-1.0-0.0-1.45","3","4","4","3","3","3","3","4","3","3","5","3","3","4","3","5","4","3","3","4","2","2","1","1","2","2","1","2","2","1","1","0","0","1","1","0","1","1","0","0","0","1","0","0","4","2","3","2","4","1","3","3","2","4","4","572507279396438016","赵","221","","","","","","","","","","","","","","","","","","","","","","","","","","","","","","feedback_test","","","","","","","","","","","",""
"946","","f","psychophysics","101","239834","0.0-7.0-0.0-1.0-0.0-0.46","3","4","4","3","3","3","3","4","3","3","5","3","3","4","3","5","4","3","3","4","2","2","1","1","2","2","1","2","2","1","1","0","0","1","1","0","1","1","0","0","0","1","0","0","4","2","3","2","4","1","3","3","2","4","4","572507279396438016","赵","221","","","","nonmatch","","","","","","","","","","","","","","key","f","16.66206896551714","768","428","f","true","nonmatch","img/trapezoid.png","圆形","梯形","ALT1_1","prac_ALT1_1","","","","","","","","","","","",""
"null","<span style='color:GreenYellow; font-size: 70px;'>正确! </span>","null","html-keyboard-response","102","240337","0.0-7.0-0.0-1.0-0.0-1.46","3","4","4","3","3","3","3","4","3","3","5","3","3","4","3","5","4","3","3","4","2","2","1","1","2","2","1","2","2","1","1","0","0","1","1","0","1","1","0","0","0","1","0","0","4","2","3","2","4","1","3","3","2","4","4","572507279396438016","赵","221","","","","","","","","","","","","","","","","","","","","","","","","","","","","","","feedback_test","","","","","","","","","","","",""
"844","","f","psychophysics","103","242185","0.0-7.0-0.0-1.0-0.0-0.47","3","4","4","3","3","3","3","4","3","3","5","3","3","4","3","5","4","3","3","4","2","2","1","1","2","2","1","2","2","1","1","0","0","1","1","0","1","1","0","0","0","1","0","0","4","2","3","2","4","1","3","3","2","4","4","572507279396438016","赵","221","","","","nonmatch","","","","","","","","","","","","","","key","f","16.66272727272722","768","428","f","true","nonmatch","img/diamond.png","五边","菱形","ALT1_1","prac_ALT1_1","","","","","","","","","","","",""
"null","<span style='color:GreenYellow; font-size: 70px;'>正确! </span>","null","html-keyboard-response","104","242686","0.0-7.0-0.0-1.0-0.0-1.47","3","4","4","3","3","3","3","4","3","3","5","3","3","4","3","5","4","3","3","4","2","2","1","1","2","2","1","2","2","1","1","0","0","1","1","0","1","1","0","0","0","1","0","0","4","2","3","2","4","1","3","3","2","4","4","572507279396438016","赵","221","","","","","","","","","","","","","","","","","","","","","","","","","","","","","","feedback_test","","","","","","","","","","","",""
"48648","<style>.context{color:white; font-size: 35px; line-height:40px}</style>                            <div><p class='context'>您正确回答了92% 的试次。</p><p class='context'>您的平均反应时为775毫秒。</p><p class='context'>恭喜您完成练习。按空格键进入正式实验。</p><p class='footer' style='font-size: 35px; line-height:40px;'>请在进入正式实验之前将您的<span style='color: lightgreen;'>食指</span>放在电脑键盘的相应键位上进行按键。</p>"," ","html-keyboard-response","105","291337","0.0-7.0-0.0-2.0","3","4","4","3","3","3","3","4","3","3","5","3","3","4","3","5","4","3","3","4","2","2","1","1","2","2","1","2","2","1","1","0","0","1","1","0","1","1","0","0","0","1","0","0","4","2","3","2","4","1","3","3","2","4","4","572507279396438016","赵","221","","","","","","","","","","","","","","","","","","","","","","","","","","","","","","","","","","","","","","","","","",""
"1470","
    <p style='color: white; font-size: 22px'>请您将手指放在按键上，准备进入正式的匹配任务。</p>
    <p> <div style = ""color: green""><按空格键进入下一阶段的匹配任务></div></p>
    "," ","html-keyboard-response","106","292811","0.0-7.0-0.0-3.0","3","4","4","3","3","3","3","4","3","3","5","3","3","4","3","5","4","3","3","4","2","2","1","1","2","2","1","2","2","1","1","0","0","1","1","0","1","1","0","0","0","1","0","0","4","2","3","2","4","1","3","3","2","4","4","572507279396438016","赵","221","","","","","","","","","","","","","","","","","","","","","","","","","","","","","","","","","","","","","","","","","",""
"783","","f","psychophysics","107","294594","0.0-7.0-0.0-4.0-0.0-0.0","3","4","4","3","3","3","3","4","3","3","5","3","3","4","3","5","4","3","3","4","2","2","1","1","2","2","1","2","2","1","1","0","0","1","1","0","1","1","0","0","0","1","0","0","4","2","3","2","4","1","3","3","2","4","4","572507279396438016","赵","221","","","","nonmatch","","","","","","","","","","","","","","key","f","16.662264150942956","768","428","f","true","nonmatch","img/circle.png","梯形","圆形","ALT1","formal_ALT1_1","","","","","","","","","","","",""
"null","<span style='color:GreenYellow; font-size: 70px;'>正确! </span>","null","html-keyboard-response","108","295095","0.0-7.0-0.0-4.0-0.0-1.0","3","4","4","3","3","3","3","4","3","3","5","3","3","4","3","5","4","3","3","4","2","2","1","1","2","2","1","2","2","1","1","0","0","1","1","0","1","1","0","0","0","1","0","0","4","2","3","2","4","1","3","3","2","4","4","572507279396438016","赵","221","","","","","","","","","","","","","","","","","","","","","","","","","","","","","","feedback_test","","","","","","","","","","","",""
"583","","j","psychophysics","109","296680","0.0-7.0-0.0-4.0-0.0-0.1","3","4","4","3","3","3","3","4","3","3","5","3","3","4","3","5","4","3","3","4","2","2","1","1","2","2","1","2","2","1","1","0","0","1","1","0","1","1","0","0","0","1","0","0","4","2","3","2","4","1","3","3","2","4","4","572507279396438016","赵","221","","","","match","","","","","","","","","","","","","","key","j","16.66382978723367","768","428","j","true","match","img/trapezoid.png","梯形","梯形","ALT1","formal_ALT1_1","","","","","","","","","","","",""
"null","<span style='color:GreenYellow; font-size: 70px;'>正确! </span>","null","html-keyboard-response","110","297182","0.0-7.0-0.0-4.0-0.0-1.1","3","4","4","3","3","3","3","4","3","3","5","3","3","4","3","5","4","3","3","4","2","2","1","1","2","2","1","2","2","1","1","0","0","1","1","0","1","1","0","0","0","1","0","0","4","2","3","2","4","1","3","3","2","4","4","572507279396438016","赵","221","","","","","","","","","","","","","","","","","","","","","","","","","","","","","","feedback_test","","","","","","","","","","","",""
"767","","j","psychophysics","111","298952","0.0-7.0-0.0-4.0-0.0-0.2","3","4","4","3","3","3","3","4","3","3","5","3","3","4","3","5","4","3","3","4","2","2","1","1","2","2","1","2","2","1","1","0","0","1","1","0","1","1","0","0","0","1","0","0","4","2","3","2","4","1","3","3","2","4","4","572507279396438016","赵","221","","","","match","","","","","","","","","","","","","","key","j","16.663809523809636","768","428","j","true","match","img/circle.png","圆形","圆形","ALT1","formal_ALT1_1","","","","","","","","","","","",""
"null","<span style='color:GreenYellow; font-size: 70px;'>正确! </span>","null","html-keyboard-response","112","299455","0.0-7.0-0.0-4.0-0.0-1.2","3","4","4","3","3","3","3","4","3","3","5","3","3","4","3","5","4","3","3","4","2","2","1","1","2","2","1","2","2","1","1","0","0","1","1","0","1","1","0","0","0","1","0","0","4","2","3","2","4","1","3","3","2","4","4","572507279396438016","赵","221","","","","","","","","","","","","","","","","","","","","","","","","","","","","","","feedback_test","","","","","","","","","","","",""
"730","","f","psychophysics","113","301187","0.0-7.0-0.0-4.0-0.0-0.3","3","4","4","3","3","3","3","4","3","3","5","3","3","4","3","5","4","3","3","4","2","2","1","1","2","2","1","2","2","1","1","0","0","1","1","0","1","1","0","0","0","1","0","0","4","2","3","2","4","1","3","3","2","4","4","572507279396438016","赵","221","","","","nonmatch","","","","","","","","","","","","","","key","f","16.662745098039558","768","428","f","true","nonmatch","img/pentagon.png","菱形","五边","ALT1","formal_ALT1_1","","","","","","","","","","","",""
"null","<span style='color:GreenYellow; font-size: 70px;'>正确! </span>","null","html-keyboard-response","114","301710","0.0-7.0-0.0-4.0-0.0-1.3","3","4","4","3","3","3","3","4","3","3","5","3","3","4","3","5","4","3","3","4","2","2","1","1","2","2","1","2","2","1","1","0","0","1","1","0","1","1","0","0","0","1","0","0","4","2","3","2","4","1","3","3","2","4","4","572507279396438016","赵","221","","","","","","","","","","","","","","","","","","","","","","","","","","","","","","feedback_test","","","","","","","","","","","",""
"826","","f","psychophysics","115","303554","0.0-7.0-0.0-4.0-0.0-0.4","3","4","4","3","3","3","3","4","3","3","5","3","3","4","3","5","4","3","3","4","2","2","1","1","2","2","1","2","2","1","1","0","0","1","1","0","1","1","0","0","0","1","0","0","4","2","3","2","4","1","3","3","2","4","4","572507279396438016","赵","221","","","","nonmatch","","","","","","","","","","","","","","key","f","16.664220183486453","768","428","f","true","nonmatch","img/pentagon.png","梯形","五边","ALT1","formal_ALT1_1","","","","","","","","","","","",""
"null","<span style='color:GreenYellow; font-size: 70px;'>正确! </span>","null","html-keyboard-response","116","304056","0.0-7.0-0.0-4.0-0.0-1.4","3","4","4","3","3","3","3","4","3","3","5","3","3","4","3","5","4","3","3","4","2","2","1","1","2","2","1","2","2","1","1","0","0","1","1","0","1","1","0","0","0","1","0","0","4","2","3","2","4","1","3","3","2","4","4","572507279396438016","赵","221","","","","","","","","","","","","","","","","","","","","","","","","","","","","","","feedback_test","","","","","","","","","","","",""
"663","","j","psychophysics","117","305721","0.0-7.0-0.0-4.0-0.0-0.5","3","4","4","3","3","3","3","4","3","3","5","3","3","4","3","5","4","3","3","4","2","2","1","1","2","2","1","2","2","1","1","0","0","1","1","0","1","1","0","0","0","1","0","0","4","2","3","2","4","1","3","3","2","4","4","572507279396438016","赵","221","","","","match","","","","","","","","","","","","","","key","j","16.66428571428607","768","428","f","false","nonmatch","img/trapezoid.png","五边","梯形","ALT1","formal_ALT1_1","","","","","","","","","","","",""
"null","<span style='color:red; font-size: 70px;'>错误! </span>","null","html-keyboard-response","118","306221","0.0-7.0-0.0-4.0-0.0-1.5","3","4","4","3","3","3","3","4","3","3","5","3","3","4","3","5","4","3","3","4","2","2","1","1","2","2","1","2","2","1","1","0","0","1","1","0","1","1","0","0","0","1","0","0","4","2","3","2","4","1","3","3","2","4","4","572507279396438016","赵","221","","","","","","","","","","","","","","","","","","","","","","","","","","","","","","feedback_test","","","","","","","","","","","",""
"800","","j","psychophysics","119","308022","0.0-7.0-0.0-4.0-0.0-0.6","3","4","4","3","3","3","3","4","3","3","5","3","3","4","3","5","4","3","3","4","2","2","1","1","2","2","1","2","2","1","1","0","0","1","1","0","1","1","0","0","0","1","0","0","4","2","3","2","4","1","3","3","2","4","4","572507279396438016","赵","221","","","","match","","","","","","","","","","","","","","key","j","16.66355140186916","768","428","j","true","match","img/circle.png","圆形","圆形","ALT1","formal_ALT1_1","","","","","","","","","","","",""
"null","<span style='color:GreenYellow; font-size: 70px;'>正确! </span>","null","html-keyboard-response","120","308524","0.0-7.0-0.0-4.0-0.0-1.6","3","4","4","3","3","3","3","4","3","3","5","3","3","4","3","5","4","3","3","4","2","2","1","1","2","2","1","2","2","1","1","0","0","1","1","0","1","1","0","0","0","1","0","0","4","2","3","2","4","1","3","3","2","4","4","572507279396438016","赵","221","","","","","","","","","","","","","","","","","","","","","","","","","","","","","","feedback_test","","","","","","","","","","","",""
"686","","f","psychophysics","121","310224","0.0-7.0-0.0-4.0-0.0-0.7","3","4","4","3","3","3","3","4","3","3","5","3","3","4","3","5","4","3","3","4","2","2","1","1","2","2","1","2","2","1","1","0","0","1","1","0","1","1","0","0","0","1","0","0","4","2","3","2","4","1","3","3","2","4","4","572507279396438016","赵","221","","","","nonmatch","","","","","","","","","","","","","","key","f","16.663366336633665","768","428","f","true","nonmatch","img/pentagon.png","圆形","五边","ALT1","formal_ALT1_1","","","","","","","","","","","",""
"null","<span style='color:GreenYellow; font-size: 70px;'>正确! </span>","null","html-keyboard-response","122","310725","0.0-7.0-0.0-4.0-0.0-1.7","3","4","4","3","3","3","3","4","3","3","5","3","3","4","3","5","4","3","3","4","2","2","1","1","2","2","1","2","2","1","1","0","0","1","1","0","1","1","0","0","0","1","0","0","4","2","3","2","4","1","3","3","2","4","4","572507279396438016","赵","221","","","","","","","","","","","","","","","","","","","","","","","","","","","","","","feedback_test","","","","","","","","","","","",""
"608","","j","psychophysics","123","312335","0.0-7.0-0.0-4.0-0.0-0.8","3","4","4","3","3","3","3","4","3","3","5","3","3","4","3","5","4","3","3","4","2","2","1","1","2","2","1","2","2","1","1","0","0","1","1","0","1","1","0","0","0","1","0","0","4","2","3","2","4","1","3","3","2","4","4","572507279396438016","赵","221","","","","match","","","","","","","","","","","","","","key","j","16.661458333333332","768","428","j","true","match","img/pentagon.png","五边","五边","ALT1","formal_ALT1_1","","","","","","","","","","","",""
"null","<span style='color:GreenYellow; font-size: 70px;'>正确! </span>","null","html-keyboard-response","124","312848","0.0-7.0-0.0-4.0-0.0-1.8","3","4","4","3","3","3","3","4","3","3","5","3","3","4","3","5","4","3","3","4","2","2","1","1","2","2","1","2","2","1","1","0","0","1","1","0","1","1","0","0","0","1","0","0","4","2","3","2","4","1","3","3","2","4","4","572507279396438016","赵","221","","","","","","","","","","","","","","","","","","","","","","","","","","","","","","feedback_test","","","","","","","","","","","",""
"572","","j","psychophysics","125","314423","0.0-7.0-0.0-4.0-0.0-0.9","3","4","4","3","3","3","3","4","3","3","5","3","3","4","3","5","4","3","3","4","2","2","1","1","2","2","1","2","2","1","1","0","0","1","1","0","1","1","0","0","0","1","0","0","4","2","3","2","4","1","3","3","2","4","4","572507279396438016","赵","221","","","","match","","","","","","","","","","","","","","key","j","16.66344086021518","768","428","j","true","match","img/diamond.png","菱形","菱形","ALT1","formal_ALT1_1","","","","","","","","","","","",""
"null","<span style='color:GreenYellow; font-size: 70px;'>正确! </span>","null","html-keyboard-response","126","314924","0.0-7.0-0.0-4.0-0.0-1.9","3","4","4","3","3","3","3","4","3","3","5","3","3","4","3","5","4","3","3","4","2","2","1","1","2","2","1","2","2","1","1","0","0","1","1","0","1","1","0","0","0","1","0","0","4","2","3","2","4","1","3","3","2","4","4","572507279396438016","赵","221","","","","","","","","","","","","","","","","","","","","","","","","","","","","","","feedback_test","","","","","","","","","","","",""
"775","","f","psychophysics","127","316705","0.0-7.0-0.0-4.0-0.0-0.10","3","4","4","3","3","3","3","4","3","3","5","3","3","4","3","5","4","3","3","4","2","2","1","1","2","2","1","2","2","1","1","0","0","1","1","0","1","1","0","0","0","1","0","0","4","2","3","2","4","1","3","3","2","4","4","572507279396438016","赵","221","","","","nonmatch","","","","","","","","","","","","","","key","f","16.662264150943507","768","428","f","true","nonmatch","img/trapezoid.png","菱形","梯形","ALT1","formal_ALT1_1","","","","","","","","","","","",""
"null","<span style='color:GreenYellow; font-size: 70px;'>正确! </span>","null","html-keyboard-response","128","317207","0.0-7.0-0.0-4.0-0.0-1.10","3","4","4","3","3","3","3","4","3","3","5","3","3","4","3","5","4","3","3","4","2","2","1","1","2","2","1","2","2","1","1","0","0","1","1","0","1","1","0","0","0","1","0","0","4","2","3","2","4","1","3","3","2","4","4","572507279396438016","赵","221","","","","","","","","","","","","","","","","","","","","","","","","","","","","","","feedback_test","","","","","","","","","","","",""
"496","","j","psychophysics","129","318707","0.0-7.0-0.0-4.0-0.0-0.11","3","4","4","3","3","3","3","4","3","3","5","3","3","4","3","5","4","3","3","4","2","2","1","1","2","2","1","2","2","1","1","0","0","1","1","0","1","1","0","0","0","1","0","0","4","2","3","2","4","1","3","3","2","4","4","572507279396438016","赵","221","","","","match","","","","","","","","","","","","","","key","j","16.664444444444314","768","428","j","true","match","img/circle.png","圆形","圆形","ALT1","formal_ALT1_1","","","","","","","","","","","",""
"null","<span style='color:GreenYellow; font-size: 70px;'>正确! </span>","null","html-keyboard-response","130","319208","0.0-7.0-0.0-4.0-0.0-1.11","3","4","4","3","3","3","3","4","3","3","5","3","3","4","3","5","4","3","3","4","2","2","1","1","2","2","1","2","2","1","1","0","0","1","1","0","1","1","0","0","0","1","0","0","4","2","3","2","4","1","3","3","2","4","4","572507279396438016","赵","221","","","","","","","","","","","","","","","","","","","","","","","","","","","","","","feedback_test","","","","","","","","","","","",""
"840","","f","psychophysics","131","321052","0.0-7.0-0.0-4.0-0.0-0.12","3","4","4","3","3","3","3","4","3","3","5","3","3","4","3","5","4","3","3","4","2","2","1","1","2","2","1","2","2","1","1","0","0","1","1","0","1","1","0","0","0","1","0","0","4","2","3","2","4","1","3","3","2","4","4","572507279396438016","赵","221","","","","nonmatch","","","","","","","","","","","","","","key","f","16.664220183485916","768","428","f","true","nonmatch","img/trapezoid.png","圆形","梯形","ALT1","formal_ALT1_1","","","","","","","","","","","",""
"null","<span style='color:GreenYellow; font-size: 70px;'>正确! </span>","null","html-keyboard-response","132","321553","0.0-7.0-0.0-4.0-0.0-1.12","3","4","4","3","3","3","3","4","3","3","5","3","3","4","3","5","4","3","3","4","2","2","1","1","2","2","1","2","2","1","1","0","0","1","1","0","1","1","0","0","0","1","0","0","4","2","3","2","4","1","3","3","2","4","4","572507279396438016","赵","221","","","","","","","","","","","","","","","","","","","","","","","","","","","","","","feedback_test","","","","","","","","","","","",""
"900","","j","psychophysics","133","323459","0.0-7.0-0.0-4.0-0.0-0.13","3","4","4","3","3","3","3","4","3","3","5","3","3","4","3","5","4","3","3","4","2","2","1","1","2","2","1","2","2","1","1","0","0","1","1","0","1","1","0","0","0","1","0","0","4","2","3","2","4","1","3","3","2","4","4","572507279396438016","赵","221","","","","match","","","","","","","","","","","","","","key","j","16.66548672566382","768","428","j","true","match","img/pentagon.png","五边","五边","ALT1","formal_ALT1_1","","","","","","","","","","","",""
"null","<span style='color:GreenYellow; font-size: 70px;'>正确! </span>","null","html-keyboard-response","134","323961","0.0-7.0-0.0-4.0-0.0-1.13","3","4","4","3","3","3","3","4","3","3","5","3","3","4","3","5","4","3","3","4","2","2","1","1","2","2","1","2","2","1","1","0","0","1","1","0","1","1","0","0","0","1","0","0","4","2","3","2","4","1","3","3","2","4","4","572507279396438016","赵","221","","","","","","","","","","","","","","","","","","","","","","","","","","","","","","feedback_test","","","","","","","","","","","",""
"607","","j","psychophysics","135","325571","0.0-7.0-0.0-4.0-0.0-0.14","3","4","4","3","3","3","3","4","3","3","5","3","3","4","3","5","4","3","3","4","2","2","1","1","2","2","1","2","2","1","1","0","0","1","1","0","1","1","0","0","0","1","0","0","4","2","3","2","4","1","3","3","2","4","4","572507279396438016","赵","221","","","","match","","","","","","","","","","","","","","key","j","16.665625000000244","768","428","j","true","match","img/trapezoid.png","梯形","梯形","ALT1","formal_ALT1_1","","","","","","","","","","","",""
"null","<span style='color:GreenYellow; font-size: 70px;'>正确! </span>","null","html-keyboard-response","136","326072","0.0-7.0-0.0-4.0-0.0-1.14","3","4","4","3","3","3","3","4","3","3","5","3","3","4","3","5","4","3","3","4","2","2","1","1","2","2","1","2","2","1","1","0","0","1","1","0","1","1","0","0","0","1","0","0","4","2","3","2","4","1","3","3","2","4","4","572507279396438016","赵","221","","","","","","","","","","","","","","","","","","","","","","","","","","","","","","feedback_test","","","","","","","","","","","",""
"669","","j","psychophysics","137","327743","0.0-7.0-0.0-4.0-0.0-0.15","3","4","4","3","3","3","3","4","3","3","5","3","3","4","3","5","4","3","3","4","2","2","1","1","2","2","1","2","2","1","1","0","0","1","1","0","1","1","0","0","0","1","0","0","4","2","3","2","4","1","3","3","2","4","4","572507279396438016","赵","221","","","","match","","","","","","","","","","","","","","key","j","16.6656565656568","768","428","j","true","match","img/pentagon.png","五边","五边","ALT1","formal_ALT1_1","","","","","","","","","","","",""
"null","<span style='color:GreenYellow; font-size: 70px;'>正确! </span>","null","html-keyboard-response","138","328246","0.0-7.0-0.0-4.0-0.0-1.15","3","4","4","3","3","3","3","4","3","3","5","3","3","4","3","5","4","3","3","4","2","2","1","1","2","2","1","2","2","1","1","0","0","1","1","0","1","1","0","0","0","1","0","0","4","2","3","2","4","1","3","3","2","4","4","572507279396438016","赵","221","","","","","","","","","","","","","","","","","","","","","","","","","","","","","","feedback_test","","","","","","","","","","","",""
"655","","j","psychophysics","139","329935","0.0-7.0-0.0-4.0-0.0-0.16","3","4","4","3","3","3","3","4","3","3","5","3","3","4","3","5","4","3","3","4","2","2","1","1","2","2","1","2","2","1","1","0","0","1","1","0","1","1","0","0","0","1","0","0","4","2","3","2","4","1","3","3","2","4","4","572507279396438016","赵","221","","","","match","","","","","","","","","","","","","","key","j","16.662999999999883","768","428","j","true","match","img/diamond.png","菱形","菱形","ALT1","formal_ALT1_1","","","","","","","","","","","",""
"null","<span style='color:GreenYellow; font-size: 70px;'>正确! </span>","null","html-keyboard-response","140","330437","0.0-7.0-0.0-4.0-0.0-1.16","3","4","4","3","3","3","3","4","3","3","5","3","3","4","3","5","4","3","3","4","2","2","1","1","2","2","1","2","2","1","1","0","0","1","1","0","1","1","0","0","0","1","0","0","4","2","3","2","4","1","3","3","2","4","4","572507279396438016","赵","221","","","","","","","","","","","","","","","","","","","","","","","","","","","","","","feedback_test","","","","","","","","","","","",""
"641","","f","psychophysics","141","332080","0.0-7.0-0.0-4.0-0.0-0.17","3","4","4","3","3","3","3","4","3","3","5","3","3","4","3","5","4","3","3","4","2","2","1","1","2","2","1","2","2","1","1","0","0","1","1","0","1","1","0","0","0","1","0","0","4","2","3","2","4","1","3","3","2","4","4","572507279396438016","赵","221","","","","nonmatch","","","","","","","","","","","","","","key","f","16.662886597938023","768","428","f","true","nonmatch","img/circle.png","五边","圆形","ALT1","formal_ALT1_1","","","","","","","","","","","",""
"null","<span style='color:GreenYellow; font-size: 70px;'>正确! </span>","null","html-keyboard-response","142","332580","0.0-7.0-0.0-4.0-0.0-1.17","3","4","4","3","3","3","3","4","3","3","5","3","3","4","3","5","4","3","3","4","2","2","1","1","2","2","1","2","2","1","1","0","0","1","1","0","1","1","0","0","0","1","0","0","4","2","3","2","4","1","3","3","2","4","4","572507279396438016","赵","221","","","","","","","","","","","","","","","","","","","","","","","","","","","","","","feedback_test","","","","","","","","","","","",""
"588","","j","psychophysics","143","334171","0.0-7.0-0.0-4.0-0.0-0.18","3","4","4","3","3","3","3","4","3","3","5","3","3","4","3","5","4","3","3","4","2","2","1","1","2","2","1","2","2","1","1","0","0","1","1","0","1","1","0","0","0","1","0","0","4","2","3","2","4","1","3","3","2","4","4","572507279396438016","赵","221","","","","match","","","","","","","","","","","","","","key","j","16.66382978723367","768","428","j","true","match","img/diamond.png","菱形","菱形","ALT1","formal_ALT1_1","","","","","","","","","","","",""
"null","<span style='color:GreenYellow; font-size: 70px;'>正确! </span>","null","html-keyboard-response","144","334672","0.0-7.0-0.0-4.0-0.0-1.18","3","4","4","3","3","3","3","4","3","3","5","3","3","4","3","5","4","3","3","4","2","2","1","1","2","2","1","2","2","1","1","0","0","1","1","0","1","1","0","0","0","1","0","0","4","2","3","2","4","1","3","3","2","4","4","572507279396438016","赵","221","","","","","","","","","","","","","","","","","","","","","","","","","","","","","","feedback_test","","","","","","","","","","","",""
"603","","j","psychophysics","145","336302","0.0-7.0-0.0-4.0-0.0-0.19","3","4","4","3","3","3","3","4","3","3","5","3","3","4","3","5","4","3","3","4","2","2","1","1","2","2","1","2","2","1","1","0","0","1","1","0","1","1","0","0","0","1","0","0","4","2","3","2","4","1","3","3","2","4","4","572507279396438016","赵","221","","","","match","","","","","","","","","","","","","","key","j","16.664948453608247","768","428","j","true","match","img/trapezoid.png","梯形","梯形","ALT1","formal_ALT1_1","","","","","","","","","","","",""
"null","<span style='color:GreenYellow; font-size: 70px;'>正确! </span>","null","html-keyboard-response","146","336803","0.0-7.0-0.0-4.0-0.0-1.19","3","4","4","3","3","3","3","4","3","3","5","3","3","4","3","5","4","3","3","4","2","2","1","1","2","2","1","2","2","1","1","0","0","1","1","0","1","1","0","0","0","1","0","0","4","2","3","2","4","1","3","3","2","4","4","572507279396438016","赵","221","","","","","","","","","","","","","","","","","","","","","","","","","","","","","","feedback_test","","","","","","","","","","","",""
"556","","j","psychophysics","147","338360","0.0-7.0-0.0-4.0-0.0-0.20","3","4","4","3","3","3","3","4","3","3","5","3","3","4","3","5","4","3","3","4","2","2","1","1","2","2","1","2","2","1","1","0","0","1","1","0","1","1","0","0","0","1","0","0","4","2","3","2","4","1","3","3","2","4","4","572507279396438016","赵","221","","","","match","","","","","","","","","","","","","","key","j","16.664130434782987","768","428","f","false","nonmatch","img/circle.png","菱形","圆形","ALT1","formal_ALT1_1","","","","","","","","","","","",""
"null","<span style='color:red; font-size: 70px;'>错误! </span>","null","html-keyboard-response","148","338861","0.0-7.0-0.0-4.0-0.0-1.20","3","4","4","3","3","3","3","4","3","3","5","3","3","4","3","5","4","3","3","4","2","2","1","1","2","2","1","2","2","1","1","0","0","1","1","0","1","1","0","0","0","1","0","0","4","2","3","2","4","1","3","3","2","4","4","572507279396438016","赵","221","","","","","","","","","","","","","","","","","","","","","","","","","","","","","","feedback_test","","","","","","","","","","","",""
"871","","f","psychophysics","149","340735","0.0-7.0-0.0-4.0-0.0-0.21","3","4","4","3","3","3","3","4","3","3","5","3","3","4","3","5","4","3","3","4","2","2","1","1","2","2","1","2","2","1","1","0","0","1","1","0","1","1","0","0","0","1","0","0","4","2","3","2","4","1","3","3","2","4","4","572507279396438016","赵","221","","","","nonmatch","","","","","","","","","","","","","","key","f","16.663963963963546","768","428","f","true","nonmatch","img/diamond.png","五边","菱形","ALT1","formal_ALT1_1","","","","","","","","","","","",""
"null","<span style='color:GreenYellow; font-size: 70px;'>正确! </span>","null","html-keyboard-response","150","341236","0.0-7.0-0.0-4.0-0.0-1.21","3","4","4","3","3","3","3","4","3","3","5","3","3","4","3","5","4","3","3","4","2","2","1","1","2","2","1","2","2","1","1","0","0","1","1","0","1","1","0","0","0","1","0","0","4","2","3","2","4","1","3","3","2","4","4","572507279396438016","赵","221","","","","","","","","","","","","","","","","","","","","","","","","","","","","","","feedback_test","","","","","","","","","","","",""
"881","","f","psychophysics","151","343121","0.0-7.0-0.0-4.0-0.0-0.22","3","4","4","3","3","3","3","4","3","3","5","3","3","4","3","5","4","3","3","4","2","2","1","1","2","2","1","2","2","1","1","0","0","1","1","0","1","1","0","0","0","1","0","0","4","2","3","2","4","1","3","3","2","4","4","572507279396438016","赵","221","","","","nonmatch","","","","","","","","","","","","","","key","f","16.663716814159294","768","428","f","true","nonmatch","img/diamond.png","梯形","菱形","ALT1","formal_ALT1_1","","","","","","","","","","","",""
"null","<span style='color:GreenYellow; font-size: 70px;'>正确! </span>","null","html-keyboard-response","152","343624","0.0-7.0-0.0-4.0-0.0-1.22","3","4","4","3","3","3","3","4","3","3","5","3","3","4","3","5","4","3","3","4","2","2","1","1","2","2","1","2","2","1","1","0","0","1","1","0","1","1","0","0","0","1","0","0","4","2","3","2","4","1","3","3","2","4","4","572507279396438016","赵","221","","","","","","","","","","","","","","","","","","","","","","","","","","","","","","feedback_test","","","","","","","","","","","",""
"679","","f","psychophysics","153","345305","0.0-7.0-0.0-4.0-0.0-0.23","3","4","4","3","3","3","3","4","3","3","5","3","3","4","3","5","4","3","3","4","2","2","1","1","2","2","1","2","2","1","1","0","0","1","1","0","1","1","0","0","0","1","0","0","4","2","3","2","4","1","3","3","2","4","4","572507279396438016","赵","221","","","","nonmatch","","","","","","","","","","","","","","key","f","16.664000000000232","768","428","f","true","nonmatch","img/diamond.png","圆形","菱形","ALT1","formal_ALT1_1","","","","","","","","","","","",""
"null","<span style='color:GreenYellow; font-size: 70px;'>正确! </span>","null","html-keyboard-response","154","345808","0.0-7.0-0.0-4.0-0.0-1.23","3","4","4","3","3","3","3","4","3","3","5","3","3","4","3","5","4","3","3","4","2","2","1","1","2","2","1","2","2","1","1","0","0","1","1","0","1","1","0","0","0","1","0","0","4","2","3","2","4","1","3","3","2","4","4","572507279396438016","赵","221","","","","","","","","","","","","","","","","","","","","","","","","","","","","","","feedback_test","","","","","","","","","","","",""
"925","","j","psychophysics","155","347736","0.0-7.0-0.0-4.0-0.0-0.24","3","4","4","3","3","3","3","4","3","3","5","3","3","4","3","5","4","3","3","4","2","2","1","1","2","2","1","2","2","1","1","0","0","1","1","0","1","1","0","0","0","1","0","0","4","2","3","2","4","1","3","3","2","4","4","572507279396438016","赵","221","","","","match","","","","","","","","","","","","","","key","j","16.663478260869464","768","428","f","false","nonmatch","img/trapezoid.png","五边","梯形","ALT1","formal_ALT1_1","","","","","","","","","","","",""
"null","<span style='color:red; font-size: 70px;'>错误! </span>","null","html-keyboard-response","156","348239","0.0-7.0-0.0-4.0-0.0-1.24","3","4","4","3","3","3","3","4","3","3","5","3","3","4","3","5","4","3","3","4","2","2","1","1","2","2","1","2","2","1","1","0","0","1","1","0","1","1","0","0","0","1","0","0","4","2","3","2","4","1","3","3","2","4","4","572507279396438016","赵","221","","","","","","","","","","","","","","","","","","","","","","","","","","","","","","feedback_test","","","","","","","","","","","",""
"740","","f","psychophysics","157","350000","0.0-7.0-0.0-4.0-0.0-0.25","3","4","4","3","3","3","3","4","3","3","5","3","3","4","3","5","4","3","3","4","2","2","1","1","2","2","1","2","2","1","1","0","0","1","1","0","1","1","0","0","0","1","0","0","4","2","3","2","4","1","3","3","2","4","4","572507279396438016","赵","221","","","","nonmatch","","","","","","","","","","","","","","key","f","16.663809523809636","768","428","f","true","nonmatch","img/circle.png","菱形","圆形","ALT1","formal_ALT1_1","","","","","","","","","","","",""
"null","<span style='color:GreenYellow; font-size: 70px;'>正确! </span>","null","html-keyboard-response","158","350502","0.0-7.0-0.0-4.0-0.0-1.25","3","4","4","3","3","3","3","4","3","3","5","3","3","4","3","5","4","3","3","4","2","2","1","1","2","2","1","2","2","1","1","0","0","1","1","0","1","1","0","0","0","1","0","0","4","2","3","2","4","1","3","3","2","4","4","572507279396438016","赵","221","","","","","","","","","","","","","","","","","","","","","","","","","","","","","","feedback_test","","","","","","","","","","","",""
"720","","j","psychophysics","159","352225","0.0-7.0-0.0-4.0-0.0-0.26","3","4","4","3","3","3","3","4","3","3","5","3","3","4","3","5","4","3","3","4","2","2","1","1","2","2","1","2","2","1","1","0","0","1","1","0","1","1","0","0","0","1","0","0","4","2","3","2","4","1","3","3","2","4","4","572507279396438016","赵","221","","","","match","","","","","","","","","","","","","","key","j","16.6647058823534","768","428","j","true","match","img/pentagon.png","五边","五边","ALT1","formal_ALT1_1","","","","","","","","","","","",""
"null","<span style='color:GreenYellow; font-size: 70px;'>正确! </span>","null","html-keyboard-response","160","352728","0.0-7.0-0.0-4.0-0.0-1.26","3","4","4","3","3","3","3","4","3","3","5","3","3","4","3","5","4","3","3","4","2","2","1","1","2","2","1","2","2","1","1","0","0","1","1","0","1","1","0","0","0","1","0","0","4","2","3","2","4","1","3","3","2","4","4","572507279396438016","赵","221","","","","","","","","","","","","","","","","","","","","","","","","","","","","","","feedback_test","","","","","","","","","","","",""
"877","","f","psychophysics","161","354607","0.0-7.0-0.0-4.0-0.0-0.27","3","4","4","3","3","3","3","4","3","3","5","3","3","4","3","5","4","3","3","4","2","2","1","1","2","2","1","2","2","1","1","0","0","1","1","0","1","1","0","0","0","1","0","0","4","2","3","2","4","1","3","3","2","4","4","572507279396438016","赵","221","","","","nonmatch","","","","","","","","","","","","","","key","f","16.663963963963546","768","428","f","true","nonmatch","img/diamond.png","梯形","菱形","ALT1","formal_ALT1_1","","","","","","","","","","","",""
"null","<span style='color:GreenYellow; font-size: 70px;'>正确! </span>","null","html-keyboard-response","162","355109","0.0-7.0-0.0-4.0-0.0-1.27","3","4","4","3","3","3","3","4","3","3","5","3","3","4","3","5","4","3","3","4","2","2","1","1","2","2","1","2","2","1","1","0","0","1","1","0","1","1","0","0","0","1","0","0","4","2","3","2","4","1","3","3","2","4","4","572507279396438016","赵","221","","","","","","","","","","","","","","","","","","","","","","","","","","","","","","feedback_test","","","","","","","","","","","",""
"540","","j","psychophysics","163","356669","0.0-7.0-0.0-4.0-0.0-0.28","3","4","4","3","3","3","3","4","3","3","5","3","3","4","3","5","4","3","3","4","2","2","1","1","2","2","1","2","2","1","1","0","0","1","1","0","1","1","0","0","0","1","0","0","4","2","3","2","4","1","3","3","2","4","4","572507279396438016","赵","221","","","","match","","","","","","","","","","","","","","key","j","16.664516129032133","768","428","j","true","match","img/circle.png","圆形","圆形","ALT1","formal_ALT1_1","","","","","","","","","","","",""
"null","<span style='color:GreenYellow; font-size: 70px;'>正确! </span>","null","html-keyboard-response","164","357171","0.0-7.0-0.0-4.0-0.0-1.28","3","4","4","3","3","3","3","4","3","3","5","3","3","4","3","5","4","3","3","4","2","2","1","1","2","2","1","2","2","1","1","0","0","1","1","0","1","1","0","0","0","1","0","0","4","2","3","2","4","1","3","3","2","4","4","572507279396438016","赵","221","","","","","","","","","","","","","","","","","","","","","","","","","","","","","","feedback_test","","","","","","","","","","","",""
"529","","j","psychophysics","165","358705","0.0-7.0-0.0-4.0-0.0-0.29","3","4","4","3","3","3","3","4","3","3","5","3","3","4","3","5","4","3","3","4","2","2","1","1","2","2","1","2","2","1","1","0","0","1","1","0","1","1","0","0","0","1","0","0","4","2","3","2","4","1","3","3","2","4","4","572507279396438016","赵","221","","","","match","","","","","","","","","","","","","","key","j","16.662637362637234","768","428","j","true","match","img/trapezoid.png","梯形","梯形","ALT1","formal_ALT1_1","","","","","","","","","","","",""
"null","<span style='color:GreenYellow; font-size: 70px;'>正确! </span>","null","html-keyboard-response","166","359207","0.0-7.0-0.0-4.0-0.0-1.29","3","4","4","3","3","3","3","4","3","3","5","3","3","4","3","5","4","3","3","4","2","2","1","1","2","2","1","2","2","1","1","0","0","1","1","0","1","1","0","0","0","1","0","0","4","2","3","2","4","1","3","3","2","4","4","572507279396438016","赵","221","","","","","","","","","","","","","","","","","","","","","","","","","","","","","","feedback_test","","","","","","","","","","","",""
"762","","f","psychophysics","167","360972","0.0-7.0-0.0-4.0-0.0-0.30","3","4","4","3","3","3","3","4","3","3","5","3","3","4","3","5","4","3","3","4","2","2","1","1","2","2","1","2","2","1","1","0","0","1","1","0","1","1","0","0","0","1","0","0","4","2","3","2","4","1","3","3","2","4","4","572507279396438016","赵","221","","","","nonmatch","","","","","","","","","","","","","","key","f","16.663809523809082","768","428","f","true","nonmatch","img/pentagon.png","梯形","五边","ALT1","formal_ALT1_1","","","","","","","","","","","",""
"null","<span style='color:GreenYellow; font-size: 70px;'>正确! </span>","null","html-keyboard-response","168","361473","0.0-7.0-0.0-4.0-0.0-1.30","3","4","4","3","3","3","3","4","3","3","5","3","3","4","3","5","4","3","3","4","2","2","1","1","2","2","1","2","2","1","1","0","0","1","1","0","1","1","0","0","0","1","0","0","4","2","3","2","4","1","3","3","2","4","4","572507279396438016","赵","221","","","","","","","","","","","","","","","","","","","","","","","","","","","","","","feedback_test","","","","","","","","","","","",""
"586","","j","psychophysics","169","363076","0.0-7.0-0.0-4.0-0.0-0.31","3","4","4","3","3","3","3","4","3","3","5","3","3","4","3","5","4","3","3","4","2","2","1","1","2","2","1","2","2","1","1","0","0","1","1","0","1","1","0","0","0","1","0","0","4","2","3","2","4","1","3","3","2","4","4","572507279396438016","赵","221","","","","match","","","","","","","","","","","","","","key","j","16.664210526315543","768","428","j","true","match","img/pentagon.png","五边","五边","ALT1","formal_ALT1_1","","","","","","","","","","","",""
"null","<span style='color:GreenYellow; font-size: 70px;'>正确! </span>","null","html-keyboard-response","170","363577","0.0-7.0-0.0-4.0-0.0-1.31","3","4","4","3","3","3","3","4","3","3","5","3","3","4","3","5","4","3","3","4","2","2","1","1","2","2","1","2","2","1","1","0","0","1","1","0","1","1","0","0","0","1","0","0","4","2","3","2","4","1","3","3","2","4","4","572507279396438016","赵","221","","","","","","","","","","","","","","","","","","","","","","","","","","","","","","feedback_test","","","","","","","","","","","",""
"603","","j","psychophysics","171","365182","0.0-7.0-0.0-4.0-0.0-0.32","3","4","4","3","3","3","3","4","3","3","5","3","3","4","3","5","4","3","3","4","2","2","1","1","2","2","1","2","2","1","1","0","0","1","1","0","1","1","0","0","0","1","0","0","4","2","3","2","4","1","3","3","2","4","4","572507279396438016","赵","221","","","","match","","","","","","","","","","","","","","key","j","16.842553191489486","768","428","j","true","match","img/trapezoid.png","梯形","梯形","ALT1","formal_ALT1_1","","","","","","","","","","","",""
"null","<span style='color:GreenYellow; font-size: 70px;'>正确! </span>","null","html-keyboard-response","172","365684","0.0-7.0-0.0-4.0-0.0-1.32","3","4","4","3","3","3","3","4","3","3","5","3","3","4","3","5","4","3","3","4","2","2","1","1","2","2","1","2","2","1","1","0","0","1","1","0","1","1","0","0","0","1","0","0","4","2","3","2","4","1","3","3","2","4","4","572507279396438016","赵","221","","","","","","","","","","","","","","","","","","","","","","","","","","","","","","feedback_test","","","","","","","","","","","",""
"742","","f","psychophysics","173","367428","0.0-7.0-0.0-4.0-0.0-0.33","3","4","4","3","3","3","3","4","3","3","5","3","3","4","3","5","4","3","3","4","2","2","1","1","2","2","1","2","2","1","1","0","0","1","1","0","1","1","0","0","0","1","0","0","4","2","3","2","4","1","3","3","2","4","4","572507279396438016","赵","221","","","","nonmatch","","","","","","","","","","","","","","key","f","16.665384615384166","768","428","f","true","nonmatch","img/pentagon.png","菱形","五边","ALT1","formal_ALT1_1","","","","","","","","","","","",""
"null","<span style='color:GreenYellow; font-size: 70px;'>正确! </span>","null","html-keyboard-response","174","367931","0.0-7.0-0.0-4.0-0.0-1.33","3","4","4","3","3","3","3","4","3","3","5","3","3","4","3","5","4","3","3","4","2","2","1","1","2","2","1","2","2","1","1","0","0","1","1","0","1","1","0","0","0","1","0","0","4","2","3","2","4","1","3","3","2","4","4","572507279396438016","赵","221","","","","","","","","","","","","","","","","","","","","","","","","","","","","","","feedback_test","","","","","","","","","","","",""
"859","","j","psychophysics","175","369798","0.0-7.0-0.0-4.0-0.0-0.34","3","4","4","3","3","3","3","4","3","3","5","3","3","4","3","5","4","3","3","4","2","2","1","1","2","2","1","2","2","1","1","0","0","1","1","0","1","1","0","0","0","1","0","0","4","2","3","2","4","1","3","3","2","4","4","572507279396438016","赵","221","","","","match","","","","","","","","","","","","","","key","j","16.663063063062854","768","428","j","true","match","img/diamond.png","菱形","菱形","ALT1","formal_ALT1_1","","","","","","","","","","","",""
"null","<span style='color:GreenYellow; font-size: 70px;'>正确! </span>","null","html-keyboard-response","176","370299","0.0-7.0-0.0-4.0-0.0-1.34","3","4","4","3","3","3","3","4","3","3","5","3","3","4","3","5","4","3","3","4","2","2","1","1","2","2","1","2","2","1","1","0","0","1","1","0","1","1","0","0","0","1","0","0","4","2","3","2","4","1","3","3","2","4","4","572507279396438016","赵","221","","","","","","","","","","","","","","","","","","","","","","","","","","","","","","feedback_test","","","","","","","","","","","",""
"635","","f","psychophysics","177","371936","0.0-7.0-0.0-4.0-0.0-0.35","3","4","4","3","3","3","3","4","3","3","5","3","3","4","3","5","4","3","3","4","2","2","1","1","2","2","1","2","2","1","1","0","0","1","1","0","1","1","0","0","0","1","0","0","4","2","3","2","4","1","3","3","2","4","4","572507279396438016","赵","221","","","","nonmatch","","","","","","","","","","","","","","key","f","16.66597938144306","768","428","f","true","nonmatch","img/circle.png","梯形","圆形","ALT1","formal_ALT1_1","","","","","","","","","","","",""
"null","<span style='color:GreenYellow; font-size: 70px;'>正确! </span>","null","html-keyboard-response","178","372437","0.0-7.0-0.0-4.0-0.0-1.35","3","4","4","3","3","3","3","4","3","3","5","3","3","4","3","5","4","3","3","4","2","2","1","1","2","2","1","2","2","1","1","0","0","1","1","0","1","1","0","0","0","1","0","0","4","2","3","2","4","1","3","3","2","4","4","572507279396438016","赵","221","","","","","","","","","","","","","","","","","","","","","","","","","","","","","","feedback_test","","","","","","","","","","","",""
"455","","j","psychophysics","179","373894","0.0-7.0-0.0-4.0-0.0-0.36","3","4","4","3","3","3","3","4","3","3","5","3","3","4","3","5","4","3","3","4","2","2","1","1","2","2","1","2","2","1","1","0","0","1","1","0","1","1","0","0","0","1","0","0","4","2","3","2","4","1","3","3","2","4","4","572507279396438016","赵","221","","","","match","","","","","","","","","","","","","","key","j","16.655813953488643","768","428","j","true","match","img/circle.png","圆形","圆形","ALT1","formal_ALT1_1","","","","","","","","","","","",""
"null","<span style='color:GreenYellow; font-size: 70px;'>正确! </span>","null","html-keyboard-response","180","374396","0.0-7.0-0.0-4.0-0.0-1.36","3","4","4","3","3","3","3","4","3","3","5","3","3","4","3","5","4","3","3","4","2","2","1","1","2","2","1","2","2","1","1","0","0","1","1","0","1","1","0","0","0","1","0","0","4","2","3","2","4","1","3","3","2","4","4","572507279396438016","赵","221","","","","","","","","","","","","","","","","","","","","","","","","","","","","","","feedback_test","","","","","","","","","","","",""
"762","","f","psychophysics","181","376181","0.0-7.0-0.0-4.0-0.0-0.37","3","4","4","3","3","3","3","4","3","3","5","3","3","4","3","5","4","3","3","4","2","2","1","1","2","2","1","2","2","1","1","0","0","1","1","0","1","1","0","0","0","1","0","0","4","2","3","2","4","1","3","3","2","4","4","572507279396438016","赵","221","","","","nonmatch","","","","","","","","","","","","","","key","f","17.48910891089132","768","428","j","false","match","img/diamond.png","菱形","菱形","ALT1","formal_ALT1_1","","","","","","","","","","","",""
