"rt","stimulus","response","trial_type","trial_index","time_elapsed","internal_node_id","ses_1","ses_2","ses_3","ses_4","ses_5","ses_6","ses_7","ses_8","ses_9","ses_10","coreself_1","coreself_2","coreself_3","coreself_4","coreself_5","coreself_6","coreself_7","coreself_8","coreself_9","coreself_10","SGPS_1","SGPS_2","SGPS_3","SGPS_4","SGPS_5","SGPS_6","SGPS_7","SGPS_8","SGPS_9","NPI1","NPI2","NPI3","NPI4","NPI5","NPI6","NPI7","NPI8","NPI9","NPI10","NPI11","NPI12","NPI13","NPI14","NPI15","hsns_1","hsns_2","hsns_3","hsns_4","hsns_5","trap1","hsns_6","hsns_7","hsns_8","hsns_9","hsns_10","subj_idx","friend_name","ParticipantID","value","success","user_agent","responses","item_order","radio_event_ids","radio_event_times","key_event_times","mouse_event_times","straightlining","zigzagging","honeypot","timeout","failed_images","failed_audio","failed_video","version_attrib","version_target","correct","IAT","screen_id","task_id","RT","condition","word","varname","summary","version_attrib2","version_target2","time_stamp","view_history","response_type","key_press","avg_frame_time","center_x","center_y","correct_response","identity","Image","question_order","correct_answer","trap1_item"
"21294","
   <p><div style = ""color: white;font-size:25px;"">您好，欢迎参加本次实验。</div> </p>
   <p><div style = ""color: white;font-size:25px;"">为充分保障您的权利，请确保您已经知晓并同意《参与实验同意书》以及《数据公开知情同意书》。</div></p>
   <p><div style = ""color: white;font-size:25px;"">如果您未见过上述内容，请咨询实验员。</div></p>
   <p><div style = ""color: white;font-size:25px;"">如果您选择继续实验，则表示您已经清楚两份知情同意书的内容并同意。</div></p>
   <p><div style = ""color: pink;font-size:30px;"">请确保您记得day0的实验编号，您将在本次实验输入该编号，若您忘记，请咨询实验员后作答。</div></p>
   <p><div style = ""color: lightblue;font-size:25px;"">请您尽可能认真地作答，我们将依据您在各问卷和按键任务中的作答质量发放报酬。</div></p>
   <p> <div style = ""color: green;font-size:25px;""><按空格键至下页></div> </p>
   "," ","html-keyboard-response","0","21298","0.0-0.0","3","3","3","3","3","3","3","3","3","3","4","4","4","4","4","4","4","4","4","4","2","2","2","2","2","2","2","4","2","1","0","1","1","0","0","0","1","0","1","1","0","1","0","1","4","2","2","2","2","2","3","4","4","4","2","763092748139237377","李","25","","","","","","","","","","","","","","","","","","","","","","","","","","","","","","","","","","","","","","","","","",""
"","","","call-function","1","21300","0.0-1.0-0.0","3","3","3","3","3","3","3","3","3","3","4","4","4","4","4","4","4","4","4","4","2","2","2","2","2","2","2","4","2","1","0","1","1","0","0","0","1","0","1","1","0","1","0","1","4","2","2","2","2","2","3","4","4","4","2","763092748139237377","李","25","","","","","","","","","","","","","","","","","","","","","","","","","","","","","","","","","","","","","","","","","",""
"21045","","{""friend_name"":""李"",""ParticipantID"":""25""}","survey-html-form","2","42352","0.0-1.0-1.0","3","3","3","3","3","3","3","3","3","3","4","4","4","4","4","4","4","4","4","4","2","2","2","2","2","2","2","4","2","1","0","1","1","0","0","0","1","0","1","1","0","1","0","1","4","2","2","2","2","2","3","4","4","4","2","763092748139237377","李","25","","","","","","","","","","","","","","","","","","","","","","","","","","","","","","","","","","","","","","","","","",""
"","","","fullscreen","3","90327","0.0-2.0","3","3","3","3","3","3","3","3","3","3","4","4","4","4","4","4","4","4","4","4","2","2","2","2","2","2","2","4","2","1","0","1","1","0","0","0","1","0","1","1","0","1","0","1","4","2","2","2","2","2","3","4","4","4","2","763092748139237377","李","25","","true","{}","","","","","","","","","","","","","","","","","","","","","","","","","","","","","","","","","","","","","","",""
"59032.199999928474","","{""Q01"":""3"",""Q02"":""3"",""Q03"":""3"",""Q04"":""3"",""Q05"":""3"",""Q06"":""3"",""Q07"":""3"",""Q08"":""3"",""Q09"":""3"",""Q10"":""3""}","survey-template","4","149366","0.0-3.0","3","3","3","3","3","3","3","3","3","3","4","4","4","4","4","4","4","4","4","4","2","2","2","2","2","2","2","4","2","1","0","1","1","0","0","0","1","0","1","1","0","1","0","1","4","2","2","2","2","2","3","4","4","4","2","763092748139237377","李","25","","","","{""Q01"":""3"",""Q02"":""3"",""Q03"":""3"",""Q04"":""3"",""Q05"":""3"",""Q06"":""3"",""Q07"":""3"",""Q08"":""3"",""Q09"":""3"",""Q10"":""3""}","[0,1,2,3,4,5,6,7,8,9]","[""Q01"",""Q02"",""Q03"",""Q04"",""Q05"",""Q06"",""Q07"",""Q08"",""Q09"",""Q10""]","[5282.899999976158,7257.899999976158,9813.699999928474,12516.899999976158,15104.799999952316,17077.600000023842,21048.199999928474,23144,25242.399999976158,27853]","[]","[5282.899999976158,7257.899999976158,9813.699999928474,12516.899999976158,15104.799999952316,17077.600000023842,19363.799999952316,21048.199999928474,23144,25242.399999976158,27853,59030.10000002384]","0.5","0.5555555555555556","0","","","","","","","","","","","","","","","","","","","","","","","","","","","","","",""
"39239.200000047684","","{""Q01"":""4"",""Q02"":""4"",""Q03"":""4"",""Q04"":""4"",""Q05"":""4"",""Q06"":""4"",""Q07"":""4"",""Q08"":""4"",""Q09"":""4"",""Q10"":""4""}","survey-template","5","188614","0.0-4.0","3","3","3","3","3","3","3","3","3","3","4","4","4","4","4","4","4","4","4","4","2","2","2","2","2","2","2","4","2","1","0","1","1","0","0","0","1","0","1","1","0","1","0","1","4","2","2","2","2","2","3","4","4","4","2","763092748139237377","李","25","","","","{""Q01"":""4"",""Q02"":""4"",""Q03"":""4"",""Q04"":""4"",""Q05"":""4"",""Q06"":""4"",""Q07"":""4"",""Q08"":""4"",""Q09"":""4"",""Q10"":""4""}","[0,1,2,3,4,5,6,7,8,9]","[""Q01"",""Q02"",""Q03"",""Q04"",""Q05"",""Q06"",""Q07"",""Q08"",""Q10"",""Q09""]","[5932.300000071526,11125.900000095367,14012.200000047684,16052.100000023842,17989.5,22759,24688.900000095367,27888.200000047684,32743.100000023842,34752.90000009537]","[]","[5932.300000071526,8651.700000047684,10710.700000047684,11125.900000095367,12556.5,14012.200000047684,16052.100000023842,17989.5,19909.100000023842,21235.5,21450.700000047684,22759,24688.900000095367,26587.700000047684,27888.200000047684,30419.900000095367,32743.100000023842,34752.90000009537,39237]","0.6","0","0","","","","","","","","","","","","","","","","","","","","","","","","","","","","","",""
"","","","preload","6","189045","0.0-5.0","3","3","3","3","3","3","3","3","3","3","4","4","4","4","4","4","4","4","4","4","2","2","2","2","2","2","2","4","2","1","0","1","1","0","0","0","1","0","1","1","0","1","0","1","4","2","2","2","2","2","3","4","4","4","2","763092748139237377","李","25","","true","","","","","","","","","","","false","[]","[]","[]","","","","","","","","","","","","","","","","","","","","","","","","","",""
"52818","
    <h3>词语分类任务</h3>
    <p>在接下来的任务中，你需要对一系列词语进行分类。</p>
    <p>请先熟悉这些词语，这有利于你完成接下来的任务。</p>
    <table align=""center"" border=1 cellpadding=3 cellspacing=0>
    <tr> <th>类别</th> <th>词语</th> </tr>
    <tr> <td>&emsp;积极&emsp;</td> <td>&emsp;能干、全能、全才、高效、精干、天才&emsp;</td> </tr>
    <tr> <td>&emsp;消极&emsp;</td> <td>&emsp;无能、低能、废物、拙笨、愚钝、蠢笨&emsp;</td> </tr>
    <tr> <td>&emsp;自我&emsp;</td> <td>&emsp;我、我的、自己、自己的、本人、本人的&emsp;</td> </tr>
    <tr> <td>&emsp;他人&emsp;</td> <td>&emsp;他、他的、别人、别人的、他人、他人的&emsp;</td> </tr>
    </table><br/>","0","html-button-response","7","241869","0.0-6.0-0.0-0.0","3","3","3","3","3","3","3","3","3","3","4","4","4","4","4","4","4","4","4","4","2","2","2","2","2","2","2","4","2","1","0","1","1","0","0","0","1","0","1","1","0","1","0","1","4","2","2","2","2","2","3","4","4","4","2","763092748139237377","李","25","","","","","","","","","","","","","","","","","2","1","","","","","","","","","","","","","","","","","","","","","","","",""
"46810","
    <div class=""tag-bottom"">
    <p> —— 任务1：对“自我”词和“他人”词分类 ——<p/>
    不同词语会出现在屏幕中央，类别标签将始终显示在屏幕上方<p/>   
    <span style=""color:#FFD866""><b>请根据上方标签的提示，尽可能正确并且快速地做出按键反应</b></span><p/>
    当按键错误时屏幕中会出现<span style=""color:red""> X </span>，需要按另一个键纠正才能继续<br/><p/>
    请把双手食指分别放在键盘的“E”键和“I”键上<p/>
    按<空格键>开始
    </p></div>"," ","html-keyboard-response","8","288683","0.0-6.0-0.0-1.0","3","3","3","3","3","3","3","3","3","3","4","4","4","4","4","4","4","4","4","4","2","2","2","2","2","2","2","4","2","1","0","1","1","0","0","0","1","0","1","1","0","1","0","1","4","2","2","2","2","2","3","4","4","4","2","763092748139237377","李","25","","","","","","","","","","","","","","","","","","","","","","","","","","","","","","","","","","","","","","","","","",""
"null","","null","html-keyboard-response","9","288944","0.0-6.0-0.0-2.0-0.0","3","3","3","3","3","3","3","3","3","3","4","4","4","4","4","4","4","4","4","4","2","2","2","2","2","2","2","4","2","1","0","1","1","0","0","0","1","0","1","1","0","1","0","1","4","2","2","2","2","2","3","4","4","4","2","763092748139237377","李","25","","","","","","","","","","","","","","","","","","","","","","","","","","","","","","","","","","","","","","","","","",""
"1342","<p style=""color:rgb(150, 250, 100); font-size: 35px;"">本人</p>","e","categorize-html","10","290293","0.0-6.0-0.0-2.0-1.0","3","3","3","3","3","3","3","3","3","3","4","4","4","4","4","4","4","4","4","4","2","2","2","2","2","2","2","4","2","1","0","1","1","0","0","0","1","0","1","1","0","1","0","1","4","2","2","2","2","2","3","4","4","4","2","763092748139237377","李","25","","","","","","","","","","","","","","","","","","","true","1","1","ability","1342","self","本人","","","","","","","","","","","","","","","","",""
"null","","null","html-keyboard-response","11","290548","0.0-6.0-0.0-2.0-0.1","3","3","3","3","3","3","3","3","3","3","4","4","4","4","4","4","4","4","4","4","2","2","2","2","2","2","2","4","2","1","0","1","1","0","0","0","1","0","1","1","0","1","0","1","4","2","2","2","2","2","3","4","4","4","2","763092748139237377","李","25","","","","","","","","","","","","","","","","","","","","","","","","","","","","","","","","","","","","","","","","","",""
"2302","<p style=""color:rgb(150, 250, 100); font-size: 35px;"">自己</p>","e","categorize-html","12","292855","0.0-6.0-0.0-2.0-1.1","3","3","3","3","3","3","3","3","3","3","4","4","4","4","4","4","4","4","4","4","2","2","2","2","2","2","2","4","2","1","0","1","1","0","0","0","1","0","1","1","0","1","0","1","4","2","2","2","2","2","3","4","4","4","2","763092748139237377","李","25","","","","","","","","","","","","","","","","","","","true","1","1","ability","2302","self","自己","","","","","","","","","","","","","","","","",""
"null","","null","html-keyboard-response","13","293113","0.0-6.0-0.0-2.0-0.2","3","3","3","3","3","3","3","3","3","3","4","4","4","4","4","4","4","4","4","4","2","2","2","2","2","2","2","4","2","1","0","1","1","0","0","0","1","0","1","1","0","1","0","1","4","2","2","2","2","2","3","4","4","4","2","763092748139237377","李","25","","","","","","","","","","","","","","","","","","","","","","","","","","","","","","","","","","","","","","","","","",""
"708","<p style=""color:rgb(150, 250, 100); font-size: 35px;"">他的</p>","i","categorize-html","14","293827","0.0-6.0-0.0-2.0-1.2","3","3","3","3","3","3","3","3","3","3","4","4","4","4","4","4","4","4","4","4","2","2","2","2","2","2","2","4","2","1","0","1","1","0","0","0","1","0","1","1","0","1","0","1","4","2","2","2","2","2","3","4","4","4","2","763092748139237377","李","25","","","","","","","","","","","","","","","","","","","true","1","1","ability","708","other","他的","","","","","","","","","","","","","","","","",""
"null","","null","html-keyboard-response","15","294081","0.0-6.0-0.0-2.0-0.3","3","3","3","3","3","3","3","3","3","3","4","4","4","4","4","4","4","4","4","4","2","2","2","2","2","2","2","4","2","1","0","1","1","0","0","0","1","0","1","1","0","1","0","1","4","2","2","2","2","2","3","4","4","4","2","763092748139237377","李","25","","","","","","","","","","","","","","","","","","","","","","","","","","","","","","","","","","","","","","","","","",""
"697","<p style=""color:rgb(150, 250, 100); font-size: 35px;"">本人的</p>","e","categorize-html","16","294783","0.0-6.0-0.0-2.0-1.3","3","3","3","3","3","3","3","3","3","3","4","4","4","4","4","4","4","4","4","4","2","2","2","2","2","2","2","4","2","1","0","1","1","0","0","0","1","0","1","1","0","1","0","1","4","2","2","2","2","2","3","4","4","4","2","763092748139237377","李","25","","","","","","","","","","","","","","","","","","","true","1","1","ability","697","self","本人的","","","","","","","","","","","","","","","","",""
"null","","null","html-keyboard-response","17","295049","0.0-6.0-0.0-2.0-0.4","3","3","3","3","3","3","3","3","3","3","4","4","4","4","4","4","4","4","4","4","2","2","2","2","2","2","2","4","2","1","0","1","1","0","0","0","1","0","1","1","0","1","0","1","4","2","2","2","2","2","3","4","4","4","2","763092748139237377","李","25","","","","","","","","","","","","","","","","","","","","","","","","","","","","","","","","","","","","","","","","","",""
"633","<p style=""color:rgb(150, 250, 100); font-size: 35px;"">他人</p>","i","categorize-html","18","295688","0.0-6.0-0.0-2.0-1.4","3","3","3","3","3","3","3","3","3","3","4","4","4","4","4","4","4","4","4","4","2","2","2","2","2","2","2","4","2","1","0","1","1","0","0","0","1","0","1","1","0","1","0","1","4","2","2","2","2","2","3","4","4","4","2","763092748139237377","李","25","","","","","","","","","","","","","","","","","","","true","1","1","ability","633","other","他人","","","","","","","","","","","","","","","","",""
"null","","null","html-keyboard-response","19","295950","0.0-6.0-0.0-2.0-0.5","3","3","3","3","3","3","3","3","3","3","4","4","4","4","4","4","4","4","4","4","2","2","2","2","2","2","2","4","2","1","0","1","1","0","0","0","1","0","1","1","0","1","0","1","4","2","2","2","2","2","3","4","4","4","2","763092748139237377","李","25","","","","","","","","","","","","","","","","","","","","","","","","","","","","","","","","","","","","","","","","","",""
"896","<p style=""color:rgb(150, 250, 100); font-size: 35px;"">他人的</p>","i","categorize-html","20","296852","0.0-6.0-0.0-2.0-1.5","3","3","3","3","3","3","3","3","3","3","4","4","4","4","4","4","4","4","4","4","2","2","2","2","2","2","2","4","2","1","0","1","1","0","0","0","1","0","1","1","0","1","0","1","4","2","2","2","2","2","3","4","4","4","2","763092748139237377","李","25","","","","","","","","","","","","","","","","","","","true","1","1","ability","896","other","他人的","","","","","","","","","","","","","","","","",""
"null","","null","html-keyboard-response","21","297113","0.0-6.0-0.0-2.0-0.6","3","3","3","3","3","3","3","3","3","3","4","4","4","4","4","4","4","4","4","4","2","2","2","2","2","2","2","4","2","1","0","1","1","0","0","0","1","0","1","1","0","1","0","1","4","2","2","2","2","2","3","4","4","4","2","763092748139237377","李","25","","","","","","","","","","","","","","","","","","","","","","","","","","","","","","","","","","","","","","","","","",""
"686","<p style=""color:rgb(150, 250, 100); font-size: 35px;"">我</p>","e","categorize-html","22","297804","0.0-6.0-0.0-2.0-1.6","3","3","3","3","3","3","3","3","3","3","4","4","4","4","4","4","4","4","4","4","2","2","2","2","2","2","2","4","2","1","0","1","1","0","0","0","1","0","1","1","0","1","0","1","4","2","2","2","2","2","3","4","4","4","2","763092748139237377","李","25","","","","","","","","","","","","","","","","","","","true","1","1","ability","686","self","我","","","","","","","","","","","","","","","","",""
"null","","null","html-keyboard-response","23","298063","0.0-6.0-0.0-2.0-0.7","3","3","3","3","3","3","3","3","3","3","4","4","4","4","4","4","4","4","4","4","2","2","2","2","2","2","2","4","2","1","0","1","1","0","0","0","1","0","1","1","0","1","0","1","4","2","2","2","2","2","3","4","4","4","2","763092748139237377","李","25","","","","","","","","","","","","","","","","","","","","","","","","","","","","","","","","","","","","","","","","","",""
"784","<p style=""color:rgb(150, 250, 100); font-size: 35px;"">别人的</p>","i","categorize-html","24","298851","0.0-6.0-0.0-2.0-1.7","3","3","3","3","3","3","3","3","3","3","4","4","4","4","4","4","4","4","4","4","2","2","2","2","2","2","2","4","2","1","0","1","1","0","0","0","1","0","1","1","0","1","0","1","4","2","2","2","2","2","3","4","4","4","2","763092748139237377","李","25","","","","","","","","","","","","","","","","","","","true","1","1","ability","784","other","别人的","","","","","","","","","","","","","","","","",""
"null","","null","html-keyboard-response","25","299107","0.0-6.0-0.0-2.0-0.8","3","3","3","3","3","3","3","3","3","3","4","4","4","4","4","4","4","4","4","4","2","2","2","2","2","2","2","4","2","1","0","1","1","0","0","0","1","0","1","1","0","1","0","1","4","2","2","2","2","2","3","4","4","4","2","763092748139237377","李","25","","","","","","","","","","","","","","","","","","","","","","","","","","","","","","","","","","","","","","","","","",""
"638","<p style=""color:rgb(150, 250, 100); font-size: 35px;"">他</p>","i","categorize-html","26","299749","0.0-6.0-0.0-2.0-1.8","3","3","3","3","3","3","3","3","3","3","4","4","4","4","4","4","4","4","4","4","2","2","2","2","2","2","2","4","2","1","0","1","1","0","0","0","1","0","1","1","0","1","0","1","4","2","2","2","2","2","3","4","4","4","2","763092748139237377","李","25","","","","","","","","","","","","","","","","","","","true","1","1","ability","638","other","他","","","","","","","","","","","","","","","","",""
"null","","null","html-keyboard-response","27","300012","0.0-6.0-0.0-2.0-0.9","3","3","3","3","3","3","3","3","3","3","4","4","4","4","4","4","4","4","4","4","2","2","2","2","2","2","2","4","2","1","0","1","1","0","0","0","1","0","1","1","0","1","0","1","4","2","2","2","2","2","3","4","4","4","2","763092748139237377","李","25","","","","","","","","","","","","","","","","","","","","","","","","","","","","","","","","","","","","","","","","","",""
"695","<p style=""color:rgb(150, 250, 100); font-size: 35px;"">自己的</p>","e","categorize-html","28","300711","0.0-6.0-0.0-2.0-1.9","3","3","3","3","3","3","3","3","3","3","4","4","4","4","4","4","4","4","4","4","2","2","2","2","2","2","2","4","2","1","0","1","1","0","0","0","1","0","1","1","0","1","0","1","4","2","2","2","2","2","3","4","4","4","2","763092748139237377","李","25","","","","","","","","","","","","","","","","","","","true","1","1","ability","695","self","自己的","","","","","","","","","","","","","","","","",""
"null","","null","html-keyboard-response","29","300969","0.0-6.0-0.0-2.0-0.10","3","3","3","3","3","3","3","3","3","3","4","4","4","4","4","4","4","4","4","4","2","2","2","2","2","2","2","4","2","1","0","1","1","0","0","0","1","0","1","1","0","1","0","1","4","2","2","2","2","2","3","4","4","4","2","763092748139237377","李","25","","","","","","","","","","","","","","","","","","","","","","","","","","","","","","","","","","","","","","","","","",""
"1537","<p style=""color:rgb(150, 250, 100); font-size: 35px;"">别人</p>","i","categorize-html","30","302509","0.0-6.0-0.0-2.0-1.10","3","3","3","3","3","3","3","3","3","3","4","4","4","4","4","4","4","4","4","4","2","2","2","2","2","2","2","4","2","1","0","1","1","0","0","0","1","0","1","1","0","1","0","1","4","2","2","2","2","2","3","4","4","4","2","763092748139237377","李","25","","","","","","","","","","","","","","","","","","","true","1","1","ability","1537","other","别人","","","","","","","","","","","","","","","","",""
"null","","null","html-keyboard-response","31","302762","0.0-6.0-0.0-2.0-0.11","3","3","3","3","3","3","3","3","3","3","4","4","4","4","4","4","4","4","4","4","2","2","2","2","2","2","2","4","2","1","0","1","1","0","0","0","1","0","1","1","0","1","0","1","4","2","2","2","2","2","3","4","4","4","2","763092748139237377","李","25","","","","","","","","","","","","","","","","","","","","","","","","","","","","","","","","","","","","","","","","","",""
"765","<p style=""color:rgb(150, 250, 100); font-size: 35px;"">我的</p>","e","categorize-html","32","303534","0.0-6.0-0.0-2.0-1.11","3","3","3","3","3","3","3","3","3","3","4","4","4","4","4","4","4","4","4","4","2","2","2","2","2","2","2","4","2","1","0","1","1","0","0","0","1","0","1","1","0","1","0","1","4","2","2","2","2","2","3","4","4","4","2","763092748139237377","李","25","","","","","","","","","","","","","","","","","","","true","1","1","ability","765","self","我的","","","","","","","","","","","","","","","","",""
"41673","
    <div class=""tag-bottom""><p>
    —— 任务2：对“消极”词和“积极”词分类 ——<p/>   
    <span style=""color:#78DCE8""><b>注意上方，类别标签和需要分类的词语都已经改变</b></span><p/>
    <span style=""color:#FFD866""><b>请根据上方标签的提示，尽可能正确并且快速地做出按键反应</b></span><p/>
    当按键错误时屏幕中会出现<span style=""color:red""> X </span>，需要按另一个键纠正才能继续<br/><p/>
    请把双手食指分别放在键盘的“E”键和“I”键上<p/>
    按<空格键>开始
    </p></div>"," ","html-keyboard-response","33","345208","0.0-6.0-0.0-3.0","3","3","3","3","3","3","3","3","3","3","4","4","4","4","4","4","4","4","4","4","2","2","2","2","2","2","2","4","2","1","0","1","1","0","0","0","1","0","1","1","0","1","0","1","4","2","2","2","2","2","3","4","4","4","2","763092748139237377","李","25","","","","","","","","","","","","","","","","","","","","","","","","","","","","","","","","","","","","","","","","","",""
"null","","null","html-keyboard-response","34","345465","0.0-6.0-0.0-4.0-0.0","3","3","3","3","3","3","3","3","3","3","4","4","4","4","4","4","4","4","4","4","2","2","2","2","2","2","2","4","2","1","0","1","1","0","0","0","1","0","1","1","0","1","0","1","4","2","2","2","2","2","3","4","4","4","2","763092748139237377","李","25","","","","","","","","","","","","","","","","","","","","","","","","","","","","","","","","","","","","","","","","","",""
"1948","<p style=""color:white; font-size: 35px;"">天才</p>","i","categorize-html","35","347418","0.0-6.0-0.0-4.0-1.0","3","3","3","3","3","3","3","3","3","3","4","4","4","4","4","4","4","4","4","4","2","2","2","2","2","2","2","4","2","1","0","1","1","0","0","0","1","0","1","1","0","1","0","1","4","2","2","2","2","2","3","4","4","4","2","763092748139237377","李","25","","","","","","","","","","","","","","","","","","","true","2","2","ability","1948","positive","天才","","","","","","","","","","","","","","","","",""
"null","","null","html-keyboard-response","36","347685","0.0-6.0-0.0-4.0-0.1","3","3","3","3","3","3","3","3","3","3","4","4","4","4","4","4","4","4","4","4","2","2","2","2","2","2","2","4","2","1","0","1","1","0","0","0","1","0","1","1","0","1","0","1","4","2","2","2","2","2","3","4","4","4","2","763092748139237377","李","25","","","","","","","","","","","","","","","","","","","","","","","","","","","","","","","","","","","","","","","","","",""
"1312","<p style=""color:white; font-size: 35px;"">能干</p>","e","categorize-html","37","349678","0.0-6.0-0.0-4.0-1.1","3","3","3","3","3","3","3","3","3","3","4","4","4","4","4","4","4","4","4","4","2","2","2","2","2","2","2","4","2","1","0","1","1","0","0","0","1","0","1","1","0","1","0","1","4","2","2","2","2","2","3","4","4","4","2","763092748139237377","李","25","","","","","","","","","","","","","","","","","","","false","2","2","ability","1312","positive","能干","","","","","","","","","","","","","","","","",""
"null","","null","html-keyboard-response","38","349936","0.0-6.0-0.0-4.0-0.2","3","3","3","3","3","3","3","3","3","3","4","4","4","4","4","4","4","4","4","4","2","2","2","2","2","2","2","4","2","1","0","1","1","0","0","0","1","0","1","1","0","1","0","1","4","2","2","2","2","2","3","4","4","4","2","763092748139237377","李","25","","","","","","","","","","","","","","","","","","","","","","","","","","","","","","","","","","","","","","","","","",""
"1083","<p style=""color:white; font-size: 35px;"">低能</p>","e","categorize-html","39","351024","0.0-6.0-0.0-4.0-1.2","3","3","3","3","3","3","3","3","3","3","4","4","4","4","4","4","4","4","4","4","2","2","2","2","2","2","2","4","2","1","0","1","1","0","0","0","1","0","1","1","0","1","0","1","4","2","2","2","2","2","3","4","4","4","2","763092748139237377","李","25","","","","","","","","","","","","","","","","","","","true","2","2","ability","1083","negative","低能","","","","","","","","","","","","","","","","",""
"null","","null","html-keyboard-response","40","351280","0.0-6.0-0.0-4.0-0.3","3","3","3","3","3","3","3","3","3","3","4","4","4","4","4","4","4","4","4","4","2","2","2","2","2","2","2","4","2","1","0","1","1","0","0","0","1","0","1","1","0","1","0","1","4","2","2","2","2","2","3","4","4","4","2","763092748139237377","李","25","","","","","","","","","","","","","","","","","","","","","","","","","","","","","","","","","","","","","","","","","",""
"804","<p style=""color:white; font-size: 35px;"">愚钝</p>","e","categorize-html","41","352090","0.0-6.0-0.0-4.0-1.3","3","3","3","3","3","3","3","3","3","3","4","4","4","4","4","4","4","4","4","4","2","2","2","2","2","2","2","4","2","1","0","1","1","0","0","0","1","0","1","1","0","1","0","1","4","2","2","2","2","2","3","4","4","4","2","763092748139237377","李","25","","","","","","","","","","","","","","","","","","","true","2","2","ability","804","negative","愚钝","","","","","","","","","","","","","","","","",""
"null","","null","html-keyboard-response","42","352346","0.0-6.0-0.0-4.0-0.4","3","3","3","3","3","3","3","3","3","3","4","4","4","4","4","4","4","4","4","4","2","2","2","2","2","2","2","4","2","1","0","1","1","0","0","0","1","0","1","1","0","1","0","1","4","2","2","2","2","2","3","4","4","4","2","763092748139237377","李","25","","","","","","","","","","","","","","","","","","","","","","","","","","","","","","","","","","","","","","","","","",""
"1183","<p style=""color:white; font-size: 35px;"">全能</p>","i","categorize-html","43","353534","0.0-6.0-0.0-4.0-1.4","3","3","3","3","3","3","3","3","3","3","4","4","4","4","4","4","4","4","4","4","2","2","2","2","2","2","2","4","2","1","0","1","1","0","0","0","1","0","1","1","0","1","0","1","4","2","2","2","2","2","3","4","4","4","2","763092748139237377","李","25","","","","","","","","","","","","","","","","","","","true","2","2","ability","1183","positive","全能","","","","","","","","","","","","","","","","",""
"null","","null","html-keyboard-response","44","353793","0.0-6.0-0.0-4.0-0.5","3","3","3","3","3","3","3","3","3","3","4","4","4","4","4","4","4","4","4","4","2","2","2","2","2","2","2","4","2","1","0","1","1","0","0","0","1","0","1","1","0","1","0","1","4","2","2","2","2","2","3","4","4","4","2","763092748139237377","李","25","","","","","","","","","","","","","","","","","","","","","","","","","","","","","","","","","","","","","","","","","",""
"906","<p style=""color:white; font-size: 35px;"">全才</p>","i","categorize-html","45","354704","0.0-6.0-0.0-4.0-1.5","3","3","3","3","3","3","3","3","3","3","4","4","4","4","4","4","4","4","4","4","2","2","2","2","2","2","2","4","2","1","0","1","1","0","0","0","1","0","1","1","0","1","0","1","4","2","2","2","2","2","3","4","4","4","2","763092748139237377","李","25","","","","","","","","","","","","","","","","","","","true","2","2","ability","906","positive","全才","","","","","","","","","","","","","","","","",""
"null","","null","html-keyboard-response","46","354965","0.0-6.0-0.0-4.0-0.6","3","3","3","3","3","3","3","3","3","3","4","4","4","4","4","4","4","4","4","4","2","2","2","2","2","2","2","4","2","1","0","1","1","0","0","0","1","0","1","1","0","1","0","1","4","2","2","2","2","2","3","4","4","4","2","763092748139237377","李","25","","","","","","","","","","","","","","","","","","","","","","","","","","","","","","","","","","","","","","","","","",""
"861","<p style=""color:white; font-size: 35px;"">精干</p>","i","categorize-html","47","355831","0.0-6.0-0.0-4.0-1.6","3","3","3","3","3","3","3","3","3","3","4","4","4","4","4","4","4","4","4","4","2","2","2","2","2","2","2","4","2","1","0","1","1","0","0","0","1","0","1","1","0","1","0","1","4","2","2","2","2","2","3","4","4","4","2","763092748139237377","李","25","","","","","","","","","","","","","","","","","","","true","2","2","ability","861","positive","精干","","","","","","","","","","","","","","","","",""
"null","","null","html-keyboard-response","48","356090","0.0-6.0-0.0-4.0-0.7","3","3","3","3","3","3","3","3","3","3","4","4","4","4","4","4","4","4","4","4","2","2","2","2","2","2","2","4","2","1","0","1","1","0","0","0","1","0","1","1","0","1","0","1","4","2","2","2","2","2","3","4","4","4","2","763092748139237377","李","25","","","","","","","","","","","","","","","","","","","","","","","","","","","","","","","","","","","","","","","","","",""
"639","<p style=""color:white; font-size: 35px;"">拙笨</p>","e","categorize-html","49","356733","0.0-6.0-0.0-4.0-1.7","3","3","3","3","3","3","3","3","3","3","4","4","4","4","4","4","4","4","4","4","2","2","2","2","2","2","2","4","2","1","0","1","1","0","0","0","1","0","1","1","0","1","0","1","4","2","2","2","2","2","3","4","4","4","2","763092748139237377","李","25","","","","","","","","","","","","","","","","","","","true","2","2","ability","639","negative","拙笨","","","","","","","","","","","","","","","","",""
"null","","null","html-keyboard-response","50","356993","0.0-6.0-0.0-4.0-0.8","3","3","3","3","3","3","3","3","3","3","4","4","4","4","4","4","4","4","4","4","2","2","2","2","2","2","2","4","2","1","0","1","1","0","0","0","1","0","1","1","0","1","0","1","4","2","2","2","2","2","3","4","4","4","2","763092748139237377","李","25","","","","","","","","","","","","","","","","","","","","","","","","","","","","","","","","","","","","","","","","","",""
"777","<p style=""color:white; font-size: 35px;"">高效</p>","i","categorize-html","51","357775","0.0-6.0-0.0-4.0-1.8","3","3","3","3","3","3","3","3","3","3","4","4","4","4","4","4","4","4","4","4","2","2","2","2","2","2","2","4","2","1","0","1","1","0","0","0","1","0","1","1","0","1","0","1","4","2","2","2","2","2","3","4","4","4","2","763092748139237377","李","25","","","","","","","","","","","","","","","","","","","true","2","2","ability","777","positive","高效","","","","","","","","","","","","","","","","",""
"null","","null","html-keyboard-response","52","358032","0.0-6.0-0.0-4.0-0.9","3","3","3","3","3","3","3","3","3","3","4","4","4","4","4","4","4","4","4","4","2","2","2","2","2","2","2","4","2","1","0","1","1","0","0","0","1","0","1","1","0","1","0","1","4","2","2","2","2","2","3","4","4","4","2","763092748139237377","李","25","","","","","","","","","","","","","","","","","","","","","","","","","","","","","","","","","","","","","","","","","",""
"1013","<p style=""color:white; font-size: 35px;"">废物</p>","e","categorize-html","53","359050","0.0-6.0-0.0-4.0-1.9","3","3","3","3","3","3","3","3","3","3","4","4","4","4","4","4","4","4","4","4","2","2","2","2","2","2","2","4","2","1","0","1","1","0","0","0","1","0","1","1","0","1","0","1","4","2","2","2","2","2","3","4","4","4","2","763092748139237377","李","25","","","","","","","","","","","","","","","","","","","true","2","2","ability","1013","negative","废物","","","","","","","","","","","","","","","","",""
"null","","null","html-keyboard-response","54","359302","0.0-6.0-0.0-4.0-0.10","3","3","3","3","3","3","3","3","3","3","4","4","4","4","4","4","4","4","4","4","2","2","2","2","2","2","2","4","2","1","0","1","1","0","0","0","1","0","1","1","0","1","0","1","4","2","2","2","2","2","3","4","4","4","2","763092748139237377","李","25","","","","","","","","","","","","","","","","","","","","","","","","","","","","","","","","","","","","","","","","","",""
"733","<p style=""color:white; font-size: 35px;"">蠢笨</p>","e","categorize-html","55","360039","0.0-6.0-0.0-4.0-1.10","3","3","3","3","3","3","3","3","3","3","4","4","4","4","4","4","4","4","4","4","2","2","2","2","2","2","2","4","2","1","0","1","1","0","0","0","1","0","1","1","0","1","0","1","4","2","2","2","2","2","3","4","4","4","2","763092748139237377","李","25","","","","","","","","","","","","","","","","","","","true","2","2","ability","733","negative","蠢笨","","","","","","","","","","","","","","","","",""
"null","","null","html-keyboard-response","56","360299","0.0-6.0-0.0-4.0-0.11","3","3","3","3","3","3","3","3","3","3","4","4","4","4","4","4","4","4","4","4","2","2","2","2","2","2","2","4","2","1","0","1","1","0","0","0","1","0","1","1","0","1","0","1","4","2","2","2","2","2","3","4","4","4","2","763092748139237377","李","25","","","","","","","","","","","","","","","","","","","","","","","","","","","","","","","","","","","","","","","","","",""
"1449","<p style=""color:white; font-size: 35px;"">无能</p>","i","categorize-html","57","362457","0.0-6.0-0.0-4.0-1.11","3","3","3","3","3","3","3","3","3","3","4","4","4","4","4","4","4","4","4","4","2","2","2","2","2","2","2","4","2","1","0","1","1","0","0","0","1","0","1","1","0","1","0","1","4","2","2","2","2","2","3","4","4","4","2","763092748139237377","李","25","","","","","","","","","","","","","","","","","","","false","2","2","ability","1449","negative","无能","","","","","","","","","","","","","","","","",""
"37128","
    <div class=""tag-bottom""><p>
    —— 任务3：对“自我/消极”词和“他人/积极”词分类 ——<p/>
    <span style=""color:#78DCE8""><b>注意上方，之前的四类词语将混合在一起交替呈现</b></span><p/>
    <span style=""color:#FFD866""><b>请根据上方标签的提示，尽可能正确并且快速地做出按键反应</b></span><p/>
    当按键错误时屏幕中会出现<span style=""color:red""> X </span>，需要按另一个键纠正才能继续<br/><p/>
    请把双手食指分别放在键盘的“E”键和“I”键上<p/>
    按<空格键>开始
    </p></div>"," ","html-keyboard-response","58","399590","0.0-6.0-0.0-5.0","3","3","3","3","3","3","3","3","3","3","4","4","4","4","4","4","4","4","4","4","2","2","2","2","2","2","2","4","2","1","0","1","1","0","0","0","1","0","1","1","0","1","0","1","4","2","2","2","2","2","3","4","4","4","2","763092748139237377","李","25","","","","","","","","","","","","","","","","","","","","","","","","","","","","","","","","","","","","","","","","","",""
"null","","null","html-keyboard-response","59","399843","0.0-6.0-0.0-6.0-0.0","3","3","3","3","3","3","3","3","3","3","4","4","4","4","4","4","4","4","4","4","2","2","2","2","2","2","2","4","2","1","0","1","1","0","0","0","1","0","1","1","0","1","0","1","4","2","2","2","2","2","3","4","4","4","2","763092748139237377","李","25","","","","","","","","","","","","","","","","","","","","","","","","","","","","","","","","","","","","","","","","","",""
"1769","<p style=""color:rgb(150, 250, 100); font-size: 35px;"">他人</p>","i","categorize-html","60","401625","0.0-6.0-0.0-6.0-1.0","3","3","3","3","3","3","3","3","3","3","4","4","4","4","4","4","4","4","4","4","2","2","2","2","2","2","2","4","2","1","0","1","1","0","0","0","1","0","1","1","0","1","0","1","4","2","2","2","2","2","3","4","4","4","2","763092748139237377","李","25","","","","","","","","","","","","","","","","","","","true","3","3","ability","1769","other","他人","","","","","","","","","","","","","","","","",""
"null","","null","html-keyboard-response","61","401882","0.0-6.0-0.0-6.0-0.1","3","3","3","3","3","3","3","3","3","3","4","4","4","4","4","4","4","4","4","4","2","2","2","2","2","2","2","4","2","1","0","1","1","0","0","0","1","0","1","1","0","1","0","1","4","2","2","2","2","2","3","4","4","4","2","763092748139237377","李","25","","","","","","","","","","","","","","","","","","","","","","","","","","","","","","","","","","","","","","","","","",""
"747","<p style=""color:white; font-size: 35px;"">能干</p>","i","categorize-html","62","402633","0.0-6.0-0.0-6.0-1.1","3","3","3","3","3","3","3","3","3","3","4","4","4","4","4","4","4","4","4","4","2","2","2","2","2","2","2","4","2","1","0","1","1","0","0","0","1","0","1","1","0","1","0","1","4","2","2","2","2","2","3","4","4","4","2","763092748139237377","李","25","","","","","","","","","","","","","","","","","","","true","3","3","ability","747","positive","能干","","","","","","","","","","","","","","","","",""
"null","","null","html-keyboard-response","63","402894","0.0-6.0-0.0-6.0-0.2","3","3","3","3","3","3","3","3","3","3","4","4","4","4","4","4","4","4","4","4","2","2","2","2","2","2","2","4","2","1","0","1","1","0","0","0","1","0","1","1","0","1","0","1","4","2","2","2","2","2","3","4","4","4","2","763092748139237377","李","25","","","","","","","","","","","","","","","","","","","","","","","","","","","","","","","","","","","","","","","","","",""
"711","<p style=""color:rgb(150, 250, 100); font-size: 35px;"">本人的</p>","e","categorize-html","64","403611","0.0-6.0-0.0-6.0-1.2","3","3","3","3","3","3","3","3","3","3","4","4","4","4","4","4","4","4","4","4","2","2","2","2","2","2","2","4","2","1","0","1","1","0","0","0","1","0","1","1","0","1","0","1","4","2","2","2","2","2","3","4","4","4","2","763092748139237377","李","25","","","","","","","","","","","","","","","","","","","true","3","3","ability","711","self","本人的","","","","","","","","","","","","","","","","",""
"null","","null","html-keyboard-response","65","403868","0.0-6.0-0.0-6.0-0.3","3","3","3","3","3","3","3","3","3","3","4","4","4","4","4","4","4","4","4","4","2","2","2","2","2","2","2","4","2","1","0","1","1","0","0","0","1","0","1","1","0","1","0","1","4","2","2","2","2","2","3","4","4","4","2","763092748139237377","李","25","","","","","","","","","","","","","","","","","","","","","","","","","","","","","","","","","","","","","","","","","",""
"630","<p style=""color:white; font-size: 35px;"">废物</p>","e","categorize-html","66","404501","0.0-6.0-0.0-6.0-1.3","3","3","3","3","3","3","3","3","3","3","4","4","4","4","4","4","4","4","4","4","2","2","2","2","2","2","2","4","2","1","0","1","1","0","0","0","1","0","1","1","0","1","0","1","4","2","2","2","2","2","3","4","4","4","2","763092748139237377","李","25","","","","","","","","","","","","","","","","","","","true","3","3","ability","630","negative","废物","","","","","","","","","","","","","","","","",""
"null","","null","html-keyboard-response","67","404761","0.0-6.0-0.0-6.0-0.4","3","3","3","3","3","3","3","3","3","3","4","4","4","4","4","4","4","4","4","4","2","2","2","2","2","2","2","4","2","1","0","1","1","0","0","0","1","0","1","1","0","1","0","1","4","2","2","2","2","2","3","4","4","4","2","763092748139237377","李","25","","","","","","","","","","","","","","","","","","","","","","","","","","","","","","","","","","","","","","","","","",""
"636","<p style=""color:rgb(150, 250, 100); font-size: 35px;"">他人的</p>","i","categorize-html","68","405400","0.0-6.0-0.0-6.0-1.4","3","3","3","3","3","3","3","3","3","3","4","4","4","4","4","4","4","4","4","4","2","2","2","2","2","2","2","4","2","1","0","1","1","0","0","0","1","0","1","1","0","1","0","1","4","2","2","2","2","2","3","4","4","4","2","763092748139237377","李","25","","","","","","","","","","","","","","","","","","","true","3","3","ability","636","other","他人的","","","","","","","","","","","","","","","","",""
"null","","null","html-keyboard-response","69","405660","0.0-6.0-0.0-6.0-0.5","3","3","3","3","3","3","3","3","3","3","4","4","4","4","4","4","4","4","4","4","2","2","2","2","2","2","2","4","2","1","0","1","1","0","0","0","1","0","1","1","0","1","0","1","4","2","2","2","2","2","3","4","4","4","2","763092748139237377","李","25","","","","","","","","","","","","","","","","","","","","","","","","","","","","","","","","","","","","","","","","","",""
"1030","<p style=""color:white; font-size: 35px;"">全能</p>","i","categorize-html","70","406694","0.0-6.0-0.0-6.0-1.5","3","3","3","3","3","3","3","3","3","3","4","4","4","4","4","4","4","4","4","4","2","2","2","2","2","2","2","4","2","1","0","1","1","0","0","0","1","0","1","1","0","1","0","1","4","2","2","2","2","2","3","4","4","4","2","763092748139237377","李","25","","","","","","","","","","","","","","","","","","","true","3","3","ability","1030","positive","全能","","","","","","","","","","","","","","","","",""
"null","","null","html-keyboard-response","71","406953","0.0-6.0-0.0-6.0-0.6","3","3","3","3","3","3","3","3","3","3","4","4","4","4","4","4","4","4","4","4","2","2","2","2","2","2","2","4","2","1","0","1","1","0","0","0","1","0","1","1","0","1","0","1","4","2","2","2","2","2","3","4","4","4","2","763092748139237377","李","25","","","","","","","","","","","","","","","","","","","","","","","","","","","","","","","","","","","","","","","","","",""
"654","<p style=""color:rgb(150, 250, 100); font-size: 35px;"">我</p>","e","categorize-html","72","407611","0.0-6.0-0.0-6.0-1.6","3","3","3","3","3","3","3","3","3","3","4","4","4","4","4","4","4","4","4","4","2","2","2","2","2","2","2","4","2","1","0","1","1","0","0","0","1","0","1","1","0","1","0","1","4","2","2","2","2","2","3","4","4","4","2","763092748139237377","李","25","","","","","","","","","","","","","","","","","","","true","3","3","ability","654","self","我","","","","","","","","","","","","","","","","",""
"null","","null","html-keyboard-response","73","407870","0.0-6.0-0.0-6.0-0.7","3","3","3","3","3","3","3","3","3","3","4","4","4","4","4","4","4","4","4","4","2","2","2","2","2","2","2","4","2","1","0","1","1","0","0","0","1","0","1","1","0","1","0","1","4","2","2","2","2","2","3","4","4","4","2","763092748139237377","李","25","","","","","","","","","","","","","","","","","","","","","","","","","","","","","","","","","","","","","","","","","",""
"796","<p style=""color:white; font-size: 35px;"">蠢笨</p>","e","categorize-html","74","408670","0.0-6.0-0.0-6.0-1.7","3","3","3","3","3","3","3","3","3","3","4","4","4","4","4","4","4","4","4","4","2","2","2","2","2","2","2","4","2","1","0","1","1","0","0","0","1","0","1","1","0","1","0","1","4","2","2","2","2","2","3","4","4","4","2","763092748139237377","李","25","","","","","","","","","","","","","","","","","","","true","3","3","ability","796","negative","蠢笨","","","","","","","","","","","","","","","","",""
"null","","null","html-keyboard-response","75","408929","0.0-6.0-0.0-6.0-0.8","3","3","3","3","3","3","3","3","3","3","4","4","4","4","4","4","4","4","4","4","2","2","2","2","2","2","2","4","2","1","0","1","1","0","0","0","1","0","1","1","0","1","0","1","4","2","2","2","2","2","3","4","4","4","2","763092748139237377","李","25","","","","","","","","","","","","","","","","","","","","","","","","","","","","","","","","","","","","","","","","","",""
"661","<p style=""color:rgb(150, 250, 100); font-size: 35px;"">他</p>","i","categorize-html","76","409594","0.0-6.0-0.0-6.0-1.8","3","3","3","3","3","3","3","3","3","3","4","4","4","4","4","4","4","4","4","4","2","2","2","2","2","2","2","4","2","1","0","1","1","0","0","0","1","0","1","1","0","1","0","1","4","2","2","2","2","2","3","4","4","4","2","763092748139237377","李","25","","","","","","","","","","","","","","","","","","","true","3","3","ability","661","other","他","","","","","","","","","","","","","","","","",""
"null","","null","html-keyboard-response","77","409856","0.0-6.0-0.0-6.0-0.9","3","3","3","3","3","3","3","3","3","3","4","4","4","4","4","4","4","4","4","4","2","2","2","2","2","2","2","4","2","1","0","1","1","0","0","0","1","0","1","1","0","1","0","1","4","2","2","2","2","2","3","4","4","4","2","763092748139237377","李","25","","","","","","","","","","","","","","","","","","","","","","","","","","","","","","","","","","","","","","","","","",""
"1520","<p style=""color:white; font-size: 35px;"">拙笨</p>","e","categorize-html","78","411380","0.0-6.0-0.0-6.0-1.9","3","3","3","3","3","3","3","3","3","3","4","4","4","4","4","4","4","4","4","4","2","2","2","2","2","2","2","4","2","1","0","1","1","0","0","0","1","0","1","1","0","1","0","1","4","2","2","2","2","2","3","4","4","4","2","763092748139237377","李","25","","","","","","","","","","","","","","","","","","","true","3","3","ability","1520","negative","拙笨","","","","","","","","","","","","","","","","",""
"null","","null","html-keyboard-response","79","411639","0.0-6.0-0.0-6.0-0.10","3","3","3","3","3","3","3","3","3","3","4","4","4","4","4","4","4","4","4","4","2","2","2","2","2","2","2","4","2","1","0","1","1","0","0","0","1","0","1","1","0","1","0","1","4","2","2","2","2","2","3","4","4","4","2","763092748139237377","李","25","","","","","","","","","","","","","","","","","","","","","","","","","","","","","","","","","","","","","","","","","",""
"688","<p style=""color:rgb(150, 250, 100); font-size: 35px;"">自己</p>","e","categorize-html","80","412333","0.0-6.0-0.0-6.0-1.10","3","3","3","3","3","3","3","3","3","3","4","4","4","4","4","4","4","4","4","4","2","2","2","2","2","2","2","4","2","1","0","1","1","0","0","0","1","0","1","1","0","1","0","1","4","2","2","2","2","2","3","4","4","4","2","763092748139237377","李","25","","","","","","","","","","","","","","","","","","","true","3","3","ability","688","self","自己","","","","","","","","","","","","","","","","",""
"null","","null","html-keyboard-response","81","412586","0.0-6.0-0.0-6.0-0.11","3","3","3","3","3","3","3","3","3","3","4","4","4","4","4","4","4","4","4","4","2","2","2","2","2","2","2","4","2","1","0","1","1","0","0","0","1","0","1","1","0","1","0","1","4","2","2","2","2","2","3","4","4","4","2","763092748139237377","李","25","","","","","","","","","","","","","","","","","","","","","","","","","","","","","","","","","","","","","","","","","",""
"744","<p style=""color:white; font-size: 35px;"">天才</p>","i","categorize-html","82","413336","0.0-6.0-0.0-6.0-1.11","3","3","3","3","3","3","3","3","3","3","4","4","4","4","4","4","4","4","4","4","2","2","2","2","2","2","2","4","2","1","0","1","1","0","0","0","1","0","1","1","0","1","0","1","4","2","2","2","2","2","3","4","4","4","2","763092748139237377","李","25","","","","","","","","","","","","","","","","","","","true","3","3","ability","744","positive","天才","","","","","","","","","","","","","","","","",""
"null","","null","html-keyboard-response","83","413592","0.0-6.0-0.0-6.0-0.12","3","3","3","3","3","3","3","3","3","3","4","4","4","4","4","4","4","4","4","4","2","2","2","2","2","2","2","4","2","1","0","1","1","0","0","0","1","0","1","1","0","1","0","1","4","2","2","2","2","2","3","4","4","4","2","763092748139237377","李","25","","","","","","","","","","","","","","","","","","","","","","","","","","","","","","","","","","","","","","","","","",""
"684","<p style=""color:rgb(150, 250, 100); font-size: 35px;"">自己的</p>","e","categorize-html","84","414283","0.0-6.0-0.0-6.0-1.12","3","3","3","3","3","3","3","3","3","3","4","4","4","4","4","4","4","4","4","4","2","2","2","2","2","2","2","4","2","1","0","1","1","0","0","0","1","0","1","1","0","1","0","1","4","2","2","2","2","2","3","4","4","4","2","763092748139237377","李","25","","","","","","","","","","","","","","","","","","","true","3","3","ability","684","self","自己的","","","","","","","","","","","","","","","","",""
"null","","null","html-keyboard-response","85","414540","0.0-6.0-0.0-6.0-0.13","3","3","3","3","3","3","3","3","3","3","4","4","4","4","4","4","4","4","4","4","2","2","2","2","2","2","2","4","2","1","0","1","1","0","0","0","1","0","1","1","0","1","0","1","4","2","2","2","2","2","3","4","4","4","2","763092748139237377","李","25","","","","","","","","","","","","","","","","","","","","","","","","","","","","","","","","","","","","","","","","","",""
"1152","<p style=""color:white; font-size: 35px;"">愚钝</p>","e","categorize-html","86","415696","0.0-6.0-0.0-6.0-1.13","3","3","3","3","3","3","3","3","3","3","4","4","4","4","4","4","4","4","4","4","2","2","2","2","2","2","2","4","2","1","0","1","1","0","0","0","1","0","1","1","0","1","0","1","4","2","2","2","2","2","3","4","4","4","2","763092748139237377","李","25","","","","","","","","","","","","","","","","","","","true","3","3","ability","1152","negative","愚钝","","","","","","","","","","","","","","","","",""
"null","","null","html-keyboard-response","87","415951","0.0-6.0-0.0-6.0-0.14","3","3","3","3","3","3","3","3","3","3","4","4","4","4","4","4","4","4","4","4","2","2","2","2","2","2","2","4","2","1","0","1","1","0","0","0","1","0","1","1","0","1","0","1","4","2","2","2","2","2","3","4","4","4","2","763092748139237377","李","25","","","","","","","","","","","","","","","","","","","","","","","","","","","","","","","","","","","","","","","","","",""
"671","<p style=""color:rgb(150, 250, 100); font-size: 35px;"">别人</p>","i","categorize-html","88","416627","0.0-6.0-0.0-6.0-1.14","3","3","3","3","3","3","3","3","3","3","4","4","4","4","4","4","4","4","4","4","2","2","2","2","2","2","2","4","2","1","0","1","1","0","0","0","1","0","1","1","0","1","0","1","4","2","2","2","2","2","3","4","4","4","2","763092748139237377","李","25","","","","","","","","","","","","","","","","","","","true","3","3","ability","671","other","别人","","","","","","","","","","","","","","","","",""
"null","","null","html-keyboard-response","89","416884","0.0-6.0-0.0-6.0-0.15","3","3","3","3","3","3","3","3","3","3","4","4","4","4","4","4","4","4","4","4","2","2","2","2","2","2","2","4","2","1","0","1","1","0","0","0","1","0","1","1","0","1","0","1","4","2","2","2","2","2","3","4","4","4","2","763092748139237377","李","25","","","","","","","","","","","","","","","","","","","","","","","","","","","","","","","","","","","","","","","","","",""
"914","<p style=""color:white; font-size: 35px;"">精干</p>","i","categorize-html","90","417803","0.0-6.0-0.0-6.0-1.15","3","3","3","3","3","3","3","3","3","3","4","4","4","4","4","4","4","4","4","4","2","2","2","2","2","2","2","4","2","1","0","1","1","0","0","0","1","0","1","1","0","1","0","1","4","2","2","2","2","2","3","4","4","4","2","763092748139237377","李","25","","","","","","","","","","","","","","","","","","","true","3","3","ability","914","positive","精干","","","","","","","","","","","","","","","","",""
"null","","null","html-keyboard-response","91","418063","0.0-6.0-0.0-6.0-0.16","3","3","3","3","3","3","3","3","3","3","4","4","4","4","4","4","4","4","4","4","2","2","2","2","2","2","2","4","2","1","0","1","1","0","0","0","1","0","1","1","0","1","0","1","4","2","2","2","2","2","3","4","4","4","2","763092748139237377","李","25","","","","","","","","","","","","","","","","","","","","","","","","","","","","","","","","","","","","","","","","","",""
"633","<p style=""color:rgb(150, 250, 100); font-size: 35px;"">别人的</p>","i","categorize-html","92","418701","0.0-6.0-0.0-6.0-1.16","3","3","3","3","3","3","3","3","3","3","4","4","4","4","4","4","4","4","4","4","2","2","2","2","2","2","2","4","2","1","0","1","1","0","0","0","1","0","1","1","0","1","0","1","4","2","2","2","2","2","3","4","4","4","2","763092748139237377","李","25","","","","","","","","","","","","","","","","","","","true","3","3","ability","633","other","别人的","","","","","","","","","","","","","","","","",""
"null","","null","html-keyboard-response","93","418961","0.0-6.0-0.0-6.0-0.17","3","3","3","3","3","3","3","3","3","3","4","4","4","4","4","4","4","4","4","4","2","2","2","2","2","2","2","4","2","1","0","1","1","0","0","0","1","0","1","1","0","1","0","1","4","2","2","2","2","2","3","4","4","4","2","763092748139237377","李","25","","","","","","","","","","","","","","","","","","","","","","","","","","","","","","","","","","","","","","","","","",""
"985","<p style=""color:white; font-size: 35px;"">高效</p>","i","categorize-html","94","419952","0.0-6.0-0.0-6.0-1.17","3","3","3","3","3","3","3","3","3","3","4","4","4","4","4","4","4","4","4","4","2","2","2","2","2","2","2","4","2","1","0","1","1","0","0","0","1","0","1","1","0","1","0","1","4","2","2","2","2","2","3","4","4","4","2","763092748139237377","李","25","","","","","","","","","","","","","","","","","","","true","3","3","ability","985","positive","高效","","","","","","","","","","","","","","","","",""
"null","","null","html-keyboard-response","95","420211","0.0-6.0-0.0-6.0-0.18","3","3","3","3","3","3","3","3","3","3","4","4","4","4","4","4","4","4","4","4","2","2","2","2","2","2","2","4","2","1","0","1","1","0","0","0","1","0","1","1","0","1","0","1","4","2","2","2","2","2","3","4","4","4","2","763092748139237377","李","25","","","","","","","","","","","","","","","","","","","","","","","","","","","","","","","","","","","","","","","","","",""
"638","<p style=""color:rgb(150, 250, 100); font-size: 35px;"">我的</p>","e","categorize-html","96","420854","0.0-6.0-0.0-6.0-1.18","3","3","3","3","3","3","3","3","3","3","4","4","4","4","4","4","4","4","4","4","2","2","2","2","2","2","2","4","2","1","0","1","1","0","0","0","1","0","1","1","0","1","0","1","4","2","2","2","2","2","3","4","4","4","2","763092748139237377","李","25","","","","","","","","","","","","","","","","","","","true","3","3","ability","638","self","我的","","","","","","","","","","","","","","","","",""
"null","","null","html-keyboard-response","97","421114","0.0-6.0-0.0-6.0-0.19","3","3","3","3","3","3","3","3","3","3","4","4","4","4","4","4","4","4","4","4","2","2","2","2","2","2","2","4","2","1","0","1","1","0","0","0","1","0","1","1","0","1","0","1","4","2","2","2","2","2","3","4","4","4","2","763092748139237377","李","25","","","","","","","","","","","","","","","","","","","","","","","","","","","","","","","","","","","","","","","","","",""
"723","<p style=""color:white; font-size: 35px;"">低能</p>","e","categorize-html","98","421842","0.0-6.0-0.0-6.0-1.19","3","3","3","3","3","3","3","3","3","3","4","4","4","4","4","4","4","4","4","4","2","2","2","2","2","2","2","4","2","1","0","1","1","0","0","0","1","0","1","1","0","1","0","1","4","2","2","2","2","2","3","4","4","4","2","763092748139237377","李","25","","","","","","","","","","","","","","","","","","","true","3","3","ability","723","negative","低能","","","","","","","","","","","","","","","","",""
"null","","null","html-keyboard-response","99","422095","0.0-6.0-0.0-6.0-0.20","3","3","3","3","3","3","3","3","3","3","4","4","4","4","4","4","4","4","4","4","2","2","2","2","2","2","2","4","2","1","0","1","1","0","0","0","1","0","1","1","0","1","0","1","4","2","2","2","2","2","3","4","4","4","2","763092748139237377","李","25","","","","","","","","","","","","","","","","","","","","","","","","","","","","","","","","","","","","","","","","","",""
"700","<p style=""color:rgb(150, 250, 100); font-size: 35px;"">他的</p>","i","categorize-html","100","422798","0.0-6.0-0.0-6.0-1.20","3","3","3","3","3","3","3","3","3","3","4","4","4","4","4","4","4","4","4","4","2","2","2","2","2","2","2","4","2","1","0","1","1","0","0","0","1","0","1","1","0","1","0","1","4","2","2","2","2","2","3","4","4","4","2","763092748139237377","李","25","","","","","","","","","","","","","","","","","","","true","3","3","ability","700","other","他的","","","","","","","","","","","","","","","","",""
"null","","null","html-keyboard-response","101","423055","0.0-6.0-0.0-6.0-0.21","3","3","3","3","3","3","3","3","3","3","4","4","4","4","4","4","4","4","4","4","2","2","2","2","2","2","2","4","2","1","0","1","1","0","0","0","1","0","1","1","0","1","0","1","4","2","2","2","2","2","3","4","4","4","2","763092748139237377","李","25","","","","","","","","","","","","","","","","","","","","","","","","","","","","","","","","","","","","","","","","","",""
"1278","<p style=""color:white; font-size: 35px;"">无能</p>","e","categorize-html","102","424338","0.0-6.0-0.0-6.0-1.21","3","3","3","3","3","3","3","3","3","3","4","4","4","4","4","4","4","4","4","4","2","2","2","2","2","2","2","4","2","1","0","1","1","0","0","0","1","0","1","1","0","1","0","1","4","2","2","2","2","2","3","4","4","4","2","763092748139237377","李","25","","","","","","","","","","","","","","","","","","","true","3","3","ability","1278","negative","无能","","","","","","","","","","","","","","","","",""
"null","","null","html-keyboard-response","103","424596","0.0-6.0-0.0-6.0-0.22","3","3","3","3","3","3","3","3","3","3","4","4","4","4","4","4","4","4","4","4","2","2","2","2","2","2","2","4","2","1","0","1","1","0","0","0","1","0","1","1","0","1","0","1","4","2","2","2","2","2","3","4","4","4","2","763092748139237377","李","25","","","","","","","","","","","","","","","","","","","","","","","","","","","","","","","","","","","","","","","","","",""
"658","<p style=""color:rgb(150, 250, 100); font-size: 35px;"">本人</p>","e","categorize-html","104","425259","0.0-6.0-0.0-6.0-1.22","3","3","3","3","3","3","3","3","3","3","4","4","4","4","4","4","4","4","4","4","2","2","2","2","2","2","2","4","2","1","0","1","1","0","0","0","1","0","1","1","0","1","0","1","4","2","2","2","2","2","3","4","4","4","2","763092748139237377","李","25","","","","","","","","","","","","","","","","","","","true","3","3","ability","658","self","本人","","","","","","","","","","","","","","","","",""
"null","","null","html-keyboard-response","105","425513","0.0-6.0-0.0-6.0-0.23","3","3","3","3","3","3","3","3","3","3","4","4","4","4","4","4","4","4","4","4","2","2","2","2","2","2","2","4","2","1","0","1","1","0","0","0","1","0","1","1","0","1","0","1","4","2","2","2","2","2","3","4","4","4","2","763092748139237377","李","25","","","","","","","","","","","","","","","","","","","","","","","","","","","","","","","","","","","","","","","","","",""
"813","<p style=""color:white; font-size: 35px;"">全才</p>","i","categorize-html","106","426331","0.0-6.0-0.0-6.0-1.23","3","3","3","3","3","3","3","3","3","3","4","4","4","4","4","4","4","4","4","4","2","2","2","2","2","2","2","4","2","1","0","1","1","0","0","0","1","0","1","1","0","1","0","1","4","2","2","2","2","2","3","4","4","4","2","763092748139237377","李","25","","","","","","","","","","","","","","","","","","","true","3","3","ability","813","positive","全才","","","","","","","","","","","","","","","","",""
"57228","
    <div class=""tag-bottom""><p>
    —— 任务4：对“自我/消极”词和“他人/积极”词分类 ——<p/>
    <span style=""color:#78DCE8""><b>与刚才的任务完全相同，请再次对这四类词语分类</b></span><p/>
    <span style=""color:#FFD866""><b>请根据上方标签的提示，尽可能正确并且快速地做出按键反应</b></span><p/>
    当按键错误时屏幕中会出现<span style=""color:red""> X </span>，需要按另一个键纠正才能继续<br/><p/>
    请把双手食指分别放在键盘的“E”键和“I”键上<p/>
    按<空格键>开始
    </p></div>"," ","html-keyboard-response","107","483562","0.0-6.0-0.0-7.0","3","3","3","3","3","3","3","3","3","3","4","4","4","4","4","4","4","4","4","4","2","2","2","2","2","2","2","4","2","1","0","1","1","0","0","0","1","0","1","1","0","1","0","1","4","2","2","2","2","2","3","4","4","4","2","763092748139237377","李","25","","","","","","","","","","","","","","","","","","","","","","","","","","","","","","","","","","","","","","","","","",""
"null","","null","html-keyboard-response","108","483822","0.0-6.0-0.0-8.0-0.0","3","3","3","3","3","3","3","3","3","3","4","4","4","4","4","4","4","4","4","4","2","2","2","2","2","2","2","4","2","1","0","1","1","0","0","0","1","0","1","1","0","1","0","1","4","2","2","2","2","2","3","4","4","4","2","763092748139237377","李","25","","","","","","","","","","","","","","","","","","","","","","","","","","","","","","","","","","","","","","","","","",""
"896","<p style=""color:rgb(150, 250, 100); font-size: 35px;"">本人的</p>","e","categorize-html","109","484723","0.0-6.0-0.0-8.0-1.0","3","3","3","3","3","3","3","3","3","3","4","4","4","4","4","4","4","4","4","4","2","2","2","2","2","2","2","4","2","1","0","1","1","0","0","0","1","0","1","1","0","1","0","1","4","2","2","2","2","2","3","4","4","4","2","763092748139237377","李","25","","","","","","","","","","","","","","","","","","","true","4","4","ability","896","self","本人的","","","","","","","","","","","","","","","","",""
"null","","null","html-keyboard-response","110","484984","0.0-6.0-0.0-8.0-0.1","3","3","3","3","3","3","3","3","3","3","4","4","4","4","4","4","4","4","4","4","2","2","2","2","2","2","2","4","2","1","0","1","1","0","0","0","1","0","1","1","0","1","0","1","4","2","2","2","2","2","3","4","4","4","2","763092748139237377","李","25","","","","","","","","","","","","","","","","","","","","","","","","","","","","","","","","","","","","","","","","","",""
"811","<p style=""color:white; font-size: 35px;"">废物</p>","e","categorize-html","111","485800","0.0-6.0-0.0-8.0-1.1","3","3","3","3","3","3","3","3","3","3","4","4","4","4","4","4","4","4","4","4","2","2","2","2","2","2","2","4","2","1","0","1","1","0","0","0","1","0","1","1","0","1","0","1","4","2","2","2","2","2","3","4","4","4","2","763092748139237377","李","25","","","","","","","","","","","","","","","","","","","true","4","4","ability","811","negative","废物","","","","","","","","","","","","","","","","",""
"null","","null","html-keyboard-response","112","486053","0.0-6.0-0.0-8.0-0.2","3","3","3","3","3","3","3","3","3","3","4","4","4","4","4","4","4","4","4","4","2","2","2","2","2","2","2","4","2","1","0","1","1","0","0","0","1","0","1","1","0","1","0","1","4","2","2","2","2","2","3","4","4","4","2","763092748139237377","李","25","","","","","","","","","","","","","","","","","","","","","","","","","","","","","","","","","","","","","","","","","",""
"664","<p style=""color:rgb(150, 250, 100); font-size: 35px;"">别人</p>","i","categorize-html","113","486723","0.0-6.0-0.0-8.0-1.2","3","3","3","3","3","3","3","3","3","3","4","4","4","4","4","4","4","4","4","4","2","2","2","2","2","2","2","4","2","1","0","1","1","0","0","0","1","0","1","1","0","1","0","1","4","2","2","2","2","2","3","4","4","4","2","763092748139237377","李","25","","","","","","","","","","","","","","","","","","","true","4","4","ability","664","other","别人","","","","","","","","","","","","","","","","",""
"null","","null","html-keyboard-response","114","486984","0.0-6.0-0.0-8.0-0.3","3","3","3","3","3","3","3","3","3","3","4","4","4","4","4","4","4","4","4","4","2","2","2","2","2","2","2","4","2","1","0","1","1","0","0","0","1","0","1","1","0","1","0","1","4","2","2","2","2","2","3","4","4","4","2","763092748139237377","李","25","","","","","","","","","","","","","","","","","","","","","","","","","","","","","","","","","","","","","","","","","",""
"866","<p style=""color:white; font-size: 35px;"">天才</p>","i","categorize-html","115","487856","0.0-6.0-0.0-8.0-1.3","3","3","3","3","3","3","3","3","3","3","4","4","4","4","4","4","4","4","4","4","2","2","2","2","2","2","2","4","2","1","0","1","1","0","0","0","1","0","1","1","0","1","0","1","4","2","2","2","2","2","3","4","4","4","2","763092748139237377","李","25","","","","","","","","","","","","","","","","","","","true","4","4","ability","866","positive","天才","","","","","","","","","","","","","","","","",""
"null","","null","html-keyboard-response","116","488110","0.0-6.0-0.0-8.0-0.4","3","3","3","3","3","3","3","3","3","3","4","4","4","4","4","4","4","4","4","4","2","2","2","2","2","2","2","4","2","1","0","1","1","0","0","0","1","0","1","1","0","1","0","1","4","2","2","2","2","2","3","4","4","4","2","763092748139237377","李","25","","","","","","","","","","","","","","","","","","","","","","","","","","","","","","","","","","","","","","","","","",""
"733","<p style=""color:rgb(150, 250, 100); font-size: 35px;"">自己的</p>","e","categorize-html","117","488849","0.0-6.0-0.0-8.0-1.4","3","3","3","3","3","3","3","3","3","3","4","4","4","4","4","4","4","4","4","4","2","2","2","2","2","2","2","4","2","1","0","1","1","0","0","0","1","0","1","1","0","1","0","1","4","2","2","2","2","2","3","4","4","4","2","763092748139237377","李","25","","","","","","","","","","","","","","","","","","","true","4","4","ability","733","self","自己的","","","","","","","","","","","","","","","","",""
"null","","null","html-keyboard-response","118","489104","0.0-6.0-0.0-8.0-0.5","3","3","3","3","3","3","3","3","3","3","4","4","4","4","4","4","4","4","4","4","2","2","2","2","2","2","2","4","2","1","0","1","1","0","0","0","1","0","1","1","0","1","0","1","4","2","2","2","2","2","3","4","4","4","2","763092748139237377","李","25","","","","","","","","","","","","","","","","","","","","","","","","","","","","","","","","","","","","","","","","","",""
"888","<p style=""color:white; font-size: 35px;"">能干</p>","i","categorize-html","119","489999","0.0-6.0-0.0-8.0-1.5","3","3","3","3","3","3","3","3","3","3","4","4","4","4","4","4","4","4","4","4","2","2","2","2","2","2","2","4","2","1","0","1","1","0","0","0","1","0","1","1","0","1","0","1","4","2","2","2","2","2","3","4","4","4","2","763092748139237377","李","25","","","","","","","","","","","","","","","","","","","true","4","4","ability","888","positive","能干","","","","","","","","","","","","","","","","",""
"null","","null","html-keyboard-response","120","490252","0.0-6.0-0.0-8.0-0.6","3","3","3","3","3","3","3","3","3","3","4","4","4","4","4","4","4","4","4","4","2","2","2","2","2","2","2","4","2","1","0","1","1","0","0","0","1","0","1","1","0","1","0","1","4","2","2","2","2","2","3","4","4","4","2","763092748139237377","李","25","","","","","","","","","","","","","","","","","","","","","","","","","","","","","","","","","","","","","","","","","",""
"628","<p style=""color:rgb(150, 250, 100); font-size: 35px;"">别人的</p>","i","categorize-html","121","490886","0.0-6.0-0.0-8.0-1.6","3","3","3","3","3","3","3","3","3","3","4","4","4","4","4","4","4","4","4","4","2","2","2","2","2","2","2","4","2","1","0","1","1","0","0","0","1","0","1","1","0","1","0","1","4","2","2","2","2","2","3","4","4","4","2","763092748139237377","李","25","","","","","","","","","","","","","","","","","","","true","4","4","ability","628","other","别人的","","","","","","","","","","","","","","","","",""
"null","","null","html-keyboard-response","122","491139","0.0-6.0-0.0-8.0-0.7","3","3","3","3","3","3","3","3","3","3","4","4","4","4","4","4","4","4","4","4","2","2","2","2","2","2","2","4","2","1","0","1","1","0","0","0","1","0","1","1","0","1","0","1","4","2","2","2","2","2","3","4","4","4","2","763092748139237377","李","25","","","","","","","","","","","","","","","","","","","","","","","","","","","","","","","","","","","","","","","","","",""
"924","<p style=""color:white; font-size: 35px;"">无能</p>","e","categorize-html","123","492067","0.0-6.0-0.0-8.0-1.7","3","3","3","3","3","3","3","3","3","3","4","4","4","4","4","4","4","4","4","4","2","2","2","2","2","2","2","4","2","1","0","1","1","0","0","0","1","0","1","1","0","1","0","1","4","2","2","2","2","2","3","4","4","4","2","763092748139237377","李","25","","","","","","","","","","","","","","","","","","","true","4","4","ability","924","negative","无能","","","","","","","","","","","","","","","","",""
"null","","null","html-keyboard-response","124","492321","0.0-6.0-0.0-8.0-0.8","3","3","3","3","3","3","3","3","3","3","4","4","4","4","4","4","4","4","4","4","2","2","2","2","2","2","2","4","2","1","0","1","1","0","0","0","1","0","1","1","0","1","0","1","4","2","2","2","2","2","3","4","4","4","2","763092748139237377","李","25","","","","","","","","","","","","","","","","","","","","","","","","","","","","","","","","","","","","","","","","","",""
"688","<p style=""color:rgb(150, 250, 100); font-size: 35px;"">他人的</p>","i","categorize-html","125","493014","0.0-6.0-0.0-8.0-1.8","3","3","3","3","3","3","3","3","3","3","4","4","4","4","4","4","4","4","4","4","2","2","2","2","2","2","2","4","2","1","0","1","1","0","0","0","1","0","1","1","0","1","0","1","4","2","2","2","2","2","3","4","4","4","2","763092748139237377","李","25","","","","","","","","","","","","","","","","","","","true","4","4","ability","688","other","他人的","","","","","","","","","","","","","","","","",""
"null","","null","html-keyboard-response","126","493269","0.0-6.0-0.0-8.0-0.9","3","3","3","3","3","3","3","3","3","3","4","4","4","4","4","4","4","4","4","4","2","2","2","2","2","2","2","4","2","1","0","1","1","0","0","0","1","0","1","1","0","1","0","1","4","2","2","2","2","2","3","4","4","4","2","763092748139237377","李","25","","","","","","","","","","","","","","","","","","","","","","","","","","","","","","","","","","","","","","","","","",""
"1664","<p style=""color:white; font-size: 35px;"">无能</p>","e","categorize-html","127","494939","0.0-6.0-0.0-8.0-1.9","3","3","3","3","3","3","3","3","3","3","4","4","4","4","4","4","4","4","4","4","2","2","2","2","2","2","2","4","2","1","0","1","1","0","0","0","1","0","1","1","0","1","0","1","4","2","2","2","2","2","3","4","4","4","2","763092748139237377","李","25","","","","","","","","","","","","","","","","","","","true","4","4","ability","1664","negative","无能","","","","","","","","","","","","","","","","",""
"null","","null","html-keyboard-response","128","495202","0.0-6.0-0.0-8.0-0.10","3","3","3","3","3","3","3","3","3","3","4","4","4","4","4","4","4","4","4","4","2","2","2","2","2","2","2","4","2","1","0","1","1","0","0","0","1","0","1","1","0","1","0","1","4","2","2","2","2","2","3","4","4","4","2","763092748139237377","李","25","","","","","","","","","","","","","","","","","","","","","","","","","","","","","","","","","","","","","","","","","",""
"690","<p style=""color:rgb(150, 250, 100); font-size: 35px;"">自己</p>","e","categorize-html","129","495897","0.0-6.0-0.0-8.0-1.10","3","3","3","3","3","3","3","3","3","3","4","4","4","4","4","4","4","4","4","4","2","2","2","2","2","2","2","4","2","1","0","1","1","0","0","0","1","0","1","1","0","1","0","1","4","2","2","2","2","2","3","4","4","4","2","763092748139237377","李","25","","","","","","","","","","","","","","","","","","","true","4","4","ability","690","self","自己","","","","","","","","","","","","","","","","",""
"null","","null","html-keyboard-response","130","496158","0.0-6.0-0.0-8.0-0.11","3","3","3","3","3","3","3","3","3","3","4","4","4","4","4","4","4","4","4","4","2","2","2","2","2","2","2","4","2","1","0","1","1","0","0","0","1","0","1","1","0","1","0","1","4","2","2","2","2","2","3","4","4","4","2","763092748139237377","李","25","","","","","","","","","","","","","","","","","","","","","","","","","","","","","","","","","","","","","","","","","",""
"640","<p style=""color:white; font-size: 35px;"">高效</p>","i","categorize-html","131","496803","0.0-6.0-0.0-8.0-1.11","3","3","3","3","3","3","3","3","3","3","4","4","4","4","4","4","4","4","4","4","2","2","2","2","2","2","2","4","2","1","0","1","1","0","0","0","1","0","1","1","0","1","0","1","4","2","2","2","2","2","3","4","4","4","2","763092748139237377","李","25","","","","","","","","","","","","","","","","","","","true","4","4","ability","640","positive","高效","","","","","","","","","","","","","","","","",""
"null","","null","html-keyboard-response","132","497062","0.0-6.0-0.0-8.0-0.12","3","3","3","3","3","3","3","3","3","3","4","4","4","4","4","4","4","4","4","4","2","2","2","2","2","2","2","4","2","1","0","1","1","0","0","0","1","0","1","1","0","1","0","1","4","2","2","2","2","2","3","4","4","4","2","763092748139237377","李","25","","","","","","","","","","","","","","","","","","","","","","","","","","","","","","","","","","","","","","","","","",""
"585","<p style=""color:rgb(150, 250, 100); font-size: 35px;"">他人的</p>","i","categorize-html","133","497652","0.0-6.0-0.0-8.0-1.12","3","3","3","3","3","3","3","3","3","3","4","4","4","4","4","4","4","4","4","4","2","2","2","2","2","2","2","4","2","1","0","1","1","0","0","0","1","0","1","1","0","1","0","1","4","2","2","2","2","2","3","4","4","4","2","763092748139237377","李","25","","","","","","","","","","","","","","","","","","","true","4","4","ability","585","other","他人的","","","","","","","","","","","","","","","","",""
"null","","null","html-keyboard-response","134","497912","0.0-6.0-0.0-8.0-0.13","3","3","3","3","3","3","3","3","3","3","4","4","4","4","4","4","4","4","4","4","2","2","2","2","2","2","2","4","2","1","0","1","1","0","0","0","1","0","1","1","0","1","0","1","4","2","2","2","2","2","3","4","4","4","2","763092748139237377","李","25","","","","","","","","","","","","","","","","","","","","","","","","","","","","","","","","","","","","","","","","","",""
"946","<p style=""color:white; font-size: 35px;"">愚钝</p>","e","categorize-html","135","498863","0.0-6.0-0.0-8.0-1.13","3","3","3","3","3","3","3","3","3","3","4","4","4","4","4","4","4","4","4","4","2","2","2","2","2","2","2","4","2","1","0","1","1","0","0","0","1","0","1","1","0","1","0","1","4","2","2","2","2","2","3","4","4","4","2","763092748139237377","李","25","","","","","","","","","","","","","","","","","","","true","4","4","ability","946","negative","愚钝","","","","","","","","","","","","","","","","",""
"null","","null","html-keyboard-response","136","499118","0.0-6.0-0.0-8.0-0.14","3","3","3","3","3","3","3","3","3","3","4","4","4","4","4","4","4","4","4","4","2","2","2","2","2","2","2","4","2","1","0","1","1","0","0","0","1","0","1","1","0","1","0","1","4","2","2","2","2","2","3","4","4","4","2","763092748139237377","李","25","","","","","","","","","","","","","","","","","","","","","","","","","","","","","","","","","","","","","","","","","",""
"642","<p style=""color:rgb(150, 250, 100); font-size: 35px;"">自己的</p>","e","categorize-html","137","499765","0.0-6.0-0.0-8.0-1.14","3","3","3","3","3","3","3","3","3","3","4","4","4","4","4","4","4","4","4","4","2","2","2","2","2","2","2","4","2","1","0","1","1","0","0","0","1","0","1","1","0","1","0","1","4","2","2","2","2","2","3","4","4","4","2","763092748139237377","李","25","","","","","","","","","","","","","","","","","","","true","4","4","ability","642","self","自己的","","","","","","","","","","","","","","","","",""
"null","","null","html-keyboard-response","138","500024","0.0-6.0-0.0-8.0-0.15","3","3","3","3","3","3","3","3","3","3","4","4","4","4","4","4","4","4","4","4","2","2","2","2","2","2","2","4","2","1","0","1","1","0","0","0","1","0","1","1","0","1","0","1","4","2","2","2","2","2","3","4","4","4","2","763092748139237377","李","25","","","","","","","","","","","","","","","","","","","","","","","","","","","","","","","","","","","","","","","","","",""
"610","<p style=""color:white; font-size: 35px;"">精干</p>","i","categorize-html","139","500640","0.0-6.0-0.0-8.0-1.15","3","3","3","3","3","3","3","3","3","3","4","4","4","4","4","4","4","4","4","4","2","2","2","2","2","2","2","4","2","1","0","1","1","0","0","0","1","0","1","1","0","1","0","1","4","2","2","2","2","2","3","4","4","4","2","763092748139237377","李","25","","","","","","","","","","","","","","","","","","","true","4","4","ability","610","positive","精干","","","","","","","","","","","","","","","","",""
"null","","null","html-keyboard-response","140","500896","0.0-6.0-0.0-8.0-0.16","3","3","3","3","3","3","3","3","3","3","4","4","4","4","4","4","4","4","4","4","2","2","2","2","2","2","2","4","2","1","0","1","1","0","0","0","1","0","1","1","0","1","0","1","4","2","2","2","2","2","3","4","4","4","2","763092748139237377","李","25","","","","","","","","","","","","","","","","","","","","","","","","","","","","","","","","","","","","","","","","","",""
"630","<p style=""color:rgb(150, 250, 100); font-size: 35px;"">我的</p>","e","categorize-html","141","501531","0.0-6.0-0.0-8.0-1.16","3","3","3","3","3","3","3","3","3","3","4","4","4","4","4","4","4","4","4","4","2","2","2","2","2","2","2","4","2","1","0","1","1","0","0","0","1","0","1","1","0","1","0","1","4","2","2","2","2","2","3","4","4","4","2","763092748139237377","李","25","","","","","","","","","","","","","","","","","","","true","4","4","ability","630","self","我的","","","","","","","","","","","","","","","","",""
"null","","null","html-keyboard-response","142","501790","0.0-6.0-0.0-8.0-0.17","3","3","3","3","3","3","3","3","3","3","4","4","4","4","4","4","4","4","4","4","2","2","2","2","2","2","2","4","2","1","0","1","1","0","0","0","1","0","1","1","0","1","0","1","4","2","2","2","2","2","3","4","4","4","2","763092748139237377","李","25","","","","","","","","","","","","","","","","","","","","","","","","","","","","","","","","","","","","","","","","","",""
"636","<p style=""color:white; font-size: 35px;"">蠢笨</p>","i","categorize-html","143","503209","0.0-6.0-0.0-8.0-1.17","3","3","3","3","3","3","3","3","3","3","4","4","4","4","4","4","4","4","4","4","2","2","2","2","2","2","2","4","2","1","0","1","1","0","0","0","1","0","1","1","0","1","0","1","4","2","2","2","2","2","3","4","4","4","2","763092748139237377","李","25","","","","","","","","","","","","","","","","","","","false","4","4","ability","1428.8478260869565","negative","蠢笨","","","","","","","","","","","","","","","","",""
"null","","null","html-keyboard-response","144","503468","0.0-6.0-0.0-8.0-0.18","3","3","3","3","3","3","3","3","3","3","4","4","4","4","4","4","4","4","4","4","2","2","2","2","2","2","2","4","2","1","0","1","1","0","0","0","1","0","1","1","0","1","0","1","4","2","2","2","2","2","3","4","4","4","2","763092748139237377","李","25","","","","","","","","","","","","","","","","","","","","","","","","","","","","","","","","","","","","","","","","","",""
"711","<p style=""color:rgb(150, 250, 100); font-size: 35px;"">别人</p>","i","categorize-html","145","504183","0.0-6.0-0.0-8.0-1.18","3","3","3","3","3","3","3","3","3","3","4","4","4","4","4","4","4","4","4","4","2","2","2","2","2","2","2","4","2","1","0","1","1","0","0","0","1","0","1","1","0","1","0","1","4","2","2","2","2","2","3","4","4","4","2","763092748139237377","李","25","","","","","","","","","","","","","","","","","","","true","4","4","ability","711","other","别人","","","","","","","","","","","","","","","","",""
"null","","null","html-keyboard-response","146","504438","0.0-6.0-0.0-8.0-0.19","3","3","3","3","3","3","3","3","3","3","4","4","4","4","4","4","4","4","4","4","2","2","2","2","2","2","2","4","2","1","0","1","1","0","0","0","1","0","1","1","0","1","0","1","4","2","2","2","2","2","3","4","4","4","2","763092748139237377","李","25","","","","","","","","","","","","","","","","","","","","","","","","","","","","","","","","","","","","","","","","","",""
"1159","<p style=""color:white; font-size: 35px;"">能干</p>","i","categorize-html","147","505600","0.0-6.0-0.0-8.0-1.19","3","3","3","3","3","3","3","3","3","3","4","4","4","4","4","4","4","4","4","4","2","2","2","2","2","2","2","4","2","1","0","1","1","0","0","0","1","0","1","1","0","1","0","1","4","2","2","2","2","2","3","4","4","4","2","763092748139237377","李","25","","","","","","","","","","","","","","","","","","","true","4","4","ability","1159","positive","能干","","","","","","","","","","","","","","","","",""
"null","","null","html-keyboard-response","148","505853","0.0-6.0-0.0-8.0-0.20","3","3","3","3","3","3","3","3","3","3","4","4","4","4","4","4","4","4","4","4","2","2","2","2","2","2","2","4","2","1","0","1","1","0","0","0","1","0","1","1","0","1","0","1","4","2","2","2","2","2","3","4","4","4","2","763092748139237377","李","25","","","","","","","","","","","","","","","","","","","","","","","","","","","","","","","","","","","","","","","","","",""
"657","<p style=""color:rgb(150, 250, 100); font-size: 35px;"">他的</p>","i","categorize-html","149","506513","0.0-6.0-0.0-8.0-1.20","3","3","3","3","3","3","3","3","3","3","4","4","4","4","4","4","4","4","4","4","2","2","2","2","2","2","2","4","2","1","0","1","1","0","0","0","1","0","1","1","0","1","0","1","4","2","2","2","2","2","3","4","4","4","2","763092748139237377","李","25","","","","","","","","","","","","","","","","","","","true","4","4","ability","657","other","他的","","","","","","","","","","","","","","","","",""
"null","","null","html-keyboard-response","150","506765","0.0-6.0-0.0-8.0-0.21","3","3","3","3","3","3","3","3","3","3","4","4","4","4","4","4","4","4","4","4","2","2","2","2","2","2","2","4","2","1","0","1","1","0","0","0","1","0","1","1","0","1","0","1","4","2","2","2","2","2","3","4","4","4","2","763092748139237377","李","25","","","","","","","","","","","","","","","","","","","","","","","","","","","","","","","","","","","","","","","","","",""
"780","<p style=""color:white; font-size: 35px;"">废物</p>","e","categorize-html","151","507552","0.0-6.0-0.0-8.0-1.21","3","3","3","3","3","3","3","3","3","3","4","4","4","4","4","4","4","4","4","4","2","2","2","2","2","2","2","4","2","1","0","1","1","0","0","0","1","0","1","1","0","1","0","1","4","2","2","2","2","2","3","4","4","4","2","763092748139237377","李","25","","","","","","","","","","","","","","","","","","","true","4","4","ability","780","negative","废物","","","","","","","","","","","","","","","","",""
"null","","null","html-keyboard-response","152","507805","0.0-6.0-0.0-8.0-0.22","3","3","3","3","3","3","3","3","3","3","4","4","4","4","4","4","4","4","4","4","2","2","2","2","2","2","2","4","2","1","0","1","1","0","0","0","1","0","1","1","0","1","0","1","4","2","2","2","2","2","3","4","4","4","2","763092748139237377","李","25","","","","","","","","","","","","","","","","","","","","","","","","","","","","","","","","","","","","","","","","","",""
"879","<p style=""color:rgb(150, 250, 100); font-size: 35px;"">本人的</p>","e","categorize-html","153","508688","0.0-6.0-0.0-8.0-1.22","3","3","3","3","3","3","3","3","3","3","4","4","4","4","4","4","4","4","4","4","2","2","2","2","2","2","2","4","2","1","0","1","1","0","0","0","1","0","1","1","0","1","0","1","4","2","2","2","2","2","3","4","4","4","2","763092748139237377","李","25","","","","","","","","","","","","","","","","","","","true","4","4","ability","879","self","本人的","","","","","","","","","","","","","","","","",""
"null","","null","html-keyboard-response","154","508948","0.0-6.0-0.0-8.0-0.23","3","3","3","3","3","3","3","3","3","3","4","4","4","4","4","4","4","4","4","4","2","2","2","2","2","2","2","4","2","1","0","1","1","0","0","0","1","0","1","1","0","1","0","1","4","2","2","2","2","2","3","4","4","4","2","763092748139237377","李","25","","","","","","","","","","","","","","","","","","","","","","","","","","","","","","","","","","","","","","","","","",""
"934","<p style=""color:white; font-size: 35px;"">全才</p>","i","categorize-html","155","509888","0.0-6.0-0.0-8.0-1.23","3","3","3","3","3","3","3","3","3","3","4","4","4","4","4","4","4","4","4","4","2","2","2","2","2","2","2","4","2","1","0","1","1","0","0","0","1","0","1","1","0","1","0","1","4","2","2","2","2","2","3","4","4","4","2","763092748139237377","李","25","","","","","","","","","","","","","","","","","","","true","4","4","ability","934","positive","全才","","","","","","","","","","","","","","","","",""
"null","","null","html-keyboard-response","156","510145","0.0-6.0-0.0-8.0-0.24","3","3","3","3","3","3","3","3","3","3","4","4","4","4","4","4","4","4","4","4","2","2","2","2","2","2","2","4","2","1","0","1","1","0","0","0","1","0","1","1","0","1","0","1","4","2","2","2","2","2","3","4","4","4","2","763092748139237377","李","25","","","","","","","","","","","","","","","","","","","","","","","","","","","","","","","","","","","","","","","","","",""
"657","<p style=""color:rgb(150, 250, 100); font-size: 35px;"">别人的</p>","i","categorize-html","157","510807","0.0-6.0-0.0-8.0-1.24","3","3","3","3","3","3","3","3","3","3","4","4","4","4","4","4","4","4","4","4","2","2","2","2","2","2","2","4","2","1","0","1","1","0","0","0","1","0","1","1","0","1","0","1","4","2","2","2","2","2","3","4","4","4","2","763092748139237377","李","25","","","","","","","","","","","","","","","","","","","true","4","4","ability","657","other","别人的","","","","","","","","","","","","","","","","",""
"null","","null","html-keyboard-response","158","511061","0.0-6.0-0.0-8.0-0.25","3","3","3","3","3","3","3","3","3","3","4","4","4","4","4","4","4","4","4","4","2","2","2","2","2","2","2","4","2","1","0","1","1","0","0","0","1","0","1","1","0","1","0","1","4","2","2","2","2","2","3","4","4","4","2","763092748139237377","李","25","","","","","","","","","","","","","","","","","","","","","","","","","","","","","","","","","","","","","","","","","",""
"1088","<p style=""color:white; font-size: 35px;"">全能</p>","i","categorize-html","159","512154","0.0-6.0-0.0-8.0-1.25","3","3","3","3","3","3","3","3","3","3","4","4","4","4","4","4","4","4","4","4","2","2","2","2","2","2","2","4","2","1","0","1","1","0","0","0","1","0","1","1","0","1","0","1","4","2","2","2","2","2","3","4","4","4","2","763092748139237377","李","25","","","","","","","","","","","","","","","","","","","true","4","4","ability","1088","positive","全能","","","","","","","","","","","","","","","","",""
"null","","null","html-keyboard-response","160","512412","0.0-6.0-0.0-8.0-0.26","3","3","3","3","3","3","3","3","3","3","4","4","4","4","4","4","4","4","4","4","2","2","2","2","2","2","2","4","2","1","0","1","1","0","0","0","1","0","1","1","0","1","0","1","4","2","2","2","2","2","3","4","4","4","2","763092748139237377","李","25","","","","","","","","","","","","","","","","","","","","","","","","","","","","","","","","","","","","","","","","","",""
"887","<p style=""color:rgb(150, 250, 100); font-size: 35px;"">本人</p>","e","categorize-html","161","513305","0.0-6.0-0.0-8.0-1.26","3","3","3","3","3","3","3","3","3","3","4","4","4","4","4","4","4","4","4","4","2","2","2","2","2","2","2","4","2","1","0","1","1","0","0","0","1","0","1","1","0","1","0","1","4","2","2","2","2","2","3","4","4","4","2","763092748139237377","李","25","","","","","","","","","","","","","","","","","","","true","4","4","ability","887","self","本人","","","","","","","","","","","","","","","","",""
"null","","null","html-keyboard-response","162","513565","0.0-6.0-0.0-8.0-0.27","3","3","3","3","3","3","3","3","3","3","4","4","4","4","4","4","4","4","4","4","2","2","2","2","2","2","2","4","2","1","0","1","1","0","0","0","1","0","1","1","0","1","0","1","4","2","2","2","2","2","3","4","4","4","2","763092748139237377","李","25","","","","","","","","","","","","","","","","","","","","","","","","","","","","","","","","","","","","","","","","","",""
"654","<p style=""color:white; font-size: 35px;"">低能</p>","e","categorize-html","163","514222","0.0-6.0-0.0-8.0-1.27","3","3","3","3","3","3","3","3","3","3","4","4","4","4","4","4","4","4","4","4","2","2","2","2","2","2","2","4","2","1","0","1","1","0","0","0","1","0","1","1","0","1","0","1","4","2","2","2","2","2","3","4","4","4","2","763092748139237377","李","25","","","","","","","","","","","","","","","","","","","true","4","4","ability","654","negative","低能","","","","","","","","","","","","","","","","",""
"null","","null","html-keyboard-response","164","514481","0.0-6.0-0.0-8.0-0.28","3","3","3","3","3","3","3","3","3","3","4","4","4","4","4","4","4","4","4","4","2","2","2","2","2","2","2","4","2","1","0","1","1","0","0","0","1","0","1","1","0","1","0","1","4","2","2","2","2","2","3","4","4","4","2","763092748139237377","李","25","","","","","","","","","","","","","","","","","","","","","","","","","","","","","","","","","","","","","","","","","",""
"593","<p style=""color:rgb(150, 250, 100); font-size: 35px;"">我</p>","e","categorize-html","165","515079","0.0-6.0-0.0-8.0-1.28","3","3","3","3","3","3","3","3","3","3","4","4","4","4","4","4","4","4","4","4","2","2","2","2","2","2","2","4","2","1","0","1","1","0","0","0","1","0","1","1","0","1","0","1","4","2","2","2","2","2","3","4","4","4","2","763092748139237377","李","25","","","","","","","","","","","","","","","","","","","true","4","4","ability","593","self","我","","","","","","","","","","","","","","","","",""
"null","","null","html-keyboard-response","166","515345","0.0-6.0-0.0-8.0-0.29","3","3","3","3","3","3","3","3","3","3","4","4","4","4","4","4","4","4","4","4","2","2","2","2","2","2","2","4","2","1","0","1","1","0","0","0","1","0","1","1","0","1","0","1","4","2","2","2","2","2","3","4","4","4","2","763092748139237377","李","25","","","","","","","","","","","","","","","","","","","","","","","","","","","","","","","","","","","","","","","","","",""
"580","<p style=""color:white; font-size: 35px;"">精干</p>","i","categorize-html","167","515930","0.0-6.0-0.0-8.0-1.29","3","3","3","3","3","3","3","3","3","3","4","4","4","4","4","4","4","4","4","4","2","2","2","2","2","2","2","4","2","1","0","1","1","0","0","0","1","0","1","1","0","1","0","1","4","2","2","2","2","2","3","4","4","4","2","763092748139237377","李","25","","","","","","","","","","","","","","","","","","","true","4","4","ability","580","positive","精干","","","","","","","","","","","","","","","","",""
"null","","null","html-keyboard-response","168","516197","0.0-6.0-0.0-8.0-0.30","3","3","3","3","3","3","3","3","3","3","4","4","4","4","4","4","4","4","4","4","2","2","2","2","2","2","2","4","2","1","0","1","1","0","0","0","1","0","1","1","0","1","0","1","4","2","2","2","2","2","3","4","4","4","2","763092748139237377","李","25","","","","","","","","","","","","","","","","","","","","","","","","","","","","","","","","","","","","","","","","","",""
"605","<p style=""color:rgb(150, 250, 100); font-size: 35px;"">他的</p>","i","categorize-html","169","516807","0.0-6.0-0.0-8.0-1.30","3","3","3","3","3","3","3","3","3","3","4","4","4","4","4","4","4","4","4","4","2","2","2","2","2","2","2","4","2","1","0","1","1","0","0","0","1","0","1","1","0","1","0","1","4","2","2","2","2","2","3","4","4","4","2","763092748139237377","李","25","","","","","","","","","","","","","","","","","","","true","4","4","ability","605","other","他的","","","","","","","","","","","","","","","","",""
"null","","null","html-keyboard-response","170","517059","0.0-6.0-0.0-8.0-0.31","3","3","3","3","3","3","3","3","3","3","4","4","4","4","4","4","4","4","4","4","2","2","2","2","2","2","2","4","2","1","0","1","1","0","0","0","1","0","1","1","0","1","0","1","4","2","2","2","2","2","3","4","4","4","2","763092748139237377","李","25","","","","","","","","","","","","","","","","","","","","","","","","","","","","","","","","","","","","","","","","","",""
"1003","<p style=""color:white; font-size: 35px;"">拙笨</p>","e","categorize-html","171","518066","0.0-6.0-0.0-8.0-1.31","3","3","3","3","3","3","3","3","3","3","4","4","4","4","4","4","4","4","4","4","2","2","2","2","2","2","2","4","2","1","0","1","1","0","0","0","1","0","1","1","0","1","0","1","4","2","2","2","2","2","3","4","4","4","2","763092748139237377","李","25","","","","","","","","","","","","","","","","","","","true","4","4","ability","1003","negative","拙笨","","","","","","","","","","","","","","","","",""
"null","","null","html-keyboard-response","172","518324","0.0-6.0-0.0-8.0-0.32","3","3","3","3","3","3","3","3","3","3","4","4","4","4","4","4","4","4","4","4","2","2","2","2","2","2","2","4","2","1","0","1","1","0","0","0","1","0","1","1","0","1","0","1","4","2","2","2","2","2","3","4","4","4","2","763092748139237377","李","25","","","","","","","","","","","","","","","","","","","","","","","","","","","","","","","","","","","","","","","","","",""
"838","<p style=""color:rgb(150, 250, 100); font-size: 35px;"">他</p>","i","categorize-html","173","519166","0.0-6.0-0.0-8.0-1.32","3","3","3","3","3","3","3","3","3","3","4","4","4","4","4","4","4","4","4","4","2","2","2","2","2","2","2","4","2","1","0","1","1","0","0","0","1","0","1","1","0","1","0","1","4","2","2","2","2","2","3","4","4","4","2","763092748139237377","李","25","","","","","","","","","","","","","","","","","","","true","4","4","ability","838","other","他","","","","","","","","","","","","","","","","",""
"null","","null","html-keyboard-response","174","519424","0.0-6.0-0.0-8.0-0.33","3","3","3","3","3","3","3","3","3","3","4","4","4","4","4","4","4","4","4","4","2","2","2","2","2","2","2","4","2","1","0","1","1","0","0","0","1","0","1","1","0","1","0","1","4","2","2","2","2","2","3","4","4","4","2","763092748139237377","李","25","","","","","","","","","","","","","","","","","","","","","","","","","","","","","","","","","","","","","","","","","",""
"1971","<p style=""color:white; font-size: 35px;"">全才</p>","i","categorize-html","175","521400","0.0-6.0-0.0-8.0-1.33","3","3","3","3","3","3","3","3","3","3","4","4","4","4","4","4","4","4","4","4","2","2","2","2","2","2","2","4","2","1","0","1","1","0","0","0","1","0","1","1","0","1","0","1","4","2","2","2","2","2","3","4","4","4","2","763092748139237377","李","25","","","","","","","","","","","","","","","","","","","true","4","4","ability","1971","positive","全才","","","","","","","","","","","","","","","","",""
"null","","null","html-keyboard-response","176","521656","0.0-6.0-0.0-8.0-0.34","3","3","3","3","3","3","3","3","3","3","4","4","4","4","4","4","4","4","4","4","2","2","2","2","2","2","2","4","2","1","0","1","1","0","0","0","1","0","1","1","0","1","0","1","4","2","2","2","2","2","3","4","4","4","2","763092748139237377","李","25","","","","","","","","","","","","","","","","","","","","","","","","","","","","","","","","","","","","","","","","","",""
"563","<p style=""color:rgb(150, 250, 100); font-size: 35px;"">本人</p>","e","categorize-html","177","522228","0.0-6.0-0.0-8.0-1.34","3","3","3","3","3","3","3","3","3","3","4","4","4","4","4","4","4","4","4","4","2","2","2","2","2","2","2","4","2","1","0","1","1","0","0","0","1","0","1","1","0","1","0","1","4","2","2","2","2","2","3","4","4","4","2","763092748139237377","李","25","","","","","","","","","","","","","","","","","","","true","4","4","ability","563","self","本人","","","","","","","","","","","","","","","","",""
"null","","null","html-keyboard-response","178","522486","0.0-6.0-0.0-8.0-0.35","3","3","3","3","3","3","3","3","3","3","4","4","4","4","4","4","4","4","4","4","2","2","2","2","2","2","2","4","2","1","0","1","1","0","0","0","1","0","1","1","0","1","0","1","4","2","2","2","2","2","3","4","4","4","2","763092748139237377","李","25","","","","","","","","","","","","","","","","","","","","","","","","","","","","","","","","","","","","","","","","","",""
"726","<p style=""color:white; font-size: 35px;"">拙笨</p>","e","categorize-html","179","523217","0.0-6.0-0.0-8.0-1.35","3","3","3","3","3","3","3","3","3","3","4","4","4","4","4","4","4","4","4","4","2","2","2","2","2","2","2","4","2","1","0","1","1","0","0","0","1","0","1","1","0","1","0","1","4","2","2","2","2","2","3","4","4","4","2","763092748139237377","李","25","","","","","","","","","","","","","","","","","","","true","4","4","ability","726","negative","拙笨","","","","","","","","","","","","","","","","",""
"null","","null","html-keyboard-response","180","523476","0.0-6.0-0.0-8.0-0.36","3","3","3","3","3","3","3","3","3","3","4","4","4","4","4","4","4","4","4","4","2","2","2","2","2","2","2","4","2","1","0","1","1","0","0","0","1","0","1","1","0","1","0","1","4","2","2","2","2","2","3","4","4","4","2","763092748139237377","李","25","","","","","","","","","","","","","","","","","","","","","","","","","","","","","","","","","","","","","","","","","",""
"580","<p style=""color:rgb(150, 250, 100); font-size: 35px;"">他人</p>","i","categorize-html","181","524060","0.0-6.0-0.0-8.0-1.36","3","3","3","3","3","3","3","3","3","3","4","4","4","4","4","4","4","4","4","4","2","2","2","2","2","2","2","4","2","1","0","1","1","0","0","0","1","0","1","1","0","1","0","1","4","2","2","2","2","2","3","4","4","4","2","763092748139237377","李","25","","","","","","","","","","","","","","","","","","","true","4","4","ability","580","other","他人","","","","","","","","","","","","","","","","",""
"null","","null","html-keyboard-response","182","524314","0.0-6.0-0.0-8.0-0.37","3","3","3","3","3","3","3","3","3","3","4","4","4","4","4","4","4","4","4","4","2","2","2","2","2","2","2","4","2","1","0","1","1","0","0","0","1","0","1","1","0","1","0","1","4","2","2","2","2","2","3","4","4","4","2","763092748139237377","李","25","","","","","","","","","","","","","","","","","","","","","","","","","","","","","","","","","","","","","","","","","",""
"877","<p style=""color:white; font-size: 35px;"">天才</p>","e","categorize-html","183","525935","0.0-6.0-0.0-8.0-1.37","3","3","3","3","3","3","3","3","3","3","4","4","4","4","4","4","4","4","4","4","2","2","2","2","2","2","2","4","2","1","0","1","1","0","0","0","1","0","1","1","0","1","0","1","4","2","2","2","2","2","3","4","4","4","2","763092748139237377","李","25","","","","","","","","","","","","","","","","","","","false","4","4","ability","1428.8478260869565","positive","天才","","","","","","","","","","","","","","","","",""
"null","","null","html-keyboard-response","184","526189","0.0-6.0-0.0-8.0-0.38","3","3","3","3","3","3","3","3","3","3","4","4","4","4","4","4","4","4","4","4","2","2","2","2","2","2","2","4","2","1","0","1","1","0","0","0","1","0","1","1","0","1","0","1","4","2","2","2","2","2","3","4","4","4","2","763092748139237377","李","25","","","","","","","","","","","","","","","","","","","","","","","","","","","","","","","","","","","","","","","","","",""
"854","<p style=""color:rgb(150, 250, 100); font-size: 35px;"">我</p>","e","categorize-html","185","527048","0.0-6.0-0.0-8.0-1.38","3","3","3","3","3","3","3","3","3","3","4","4","4","4","4","4","4","4","4","4","2","2","2","2","2","2","2","4","2","1","0","1","1","0","0","0","1","0","1","1","0","1","0","1","4","2","2","2","2","2","3","4","4","4","2","763092748139237377","李","25","","","","","","","","","","","","","","","","","","","true","4","4","ability","854","self","我","","","","","","","","","","","","","","","","",""
"null","","null","html-keyboard-response","186","527312","0.0-6.0-0.0-8.0-0.39","3","3","3","3","3","3","3","3","3","3","4","4","4","4","4","4","4","4","4","4","2","2","2","2","2","2","2","4","2","1","0","1","1","0","0","0","1","0","1","1","0","1","0","1","4","2","2","2","2","2","3","4","4","4","2","763092748139237377","李","25","","","","","","","","","","","","","","","","","","","","","","","","","","","","","","","","","","","","","","","","","",""
"781","<p style=""color:white; font-size: 35px;"">蠢笨</p>","e","categorize-html","187","528098","0.0-6.0-0.0-8.0-1.39","3","3","3","3","3","3","3","3","3","3","4","4","4","4","4","4","4","4","4","4","2","2","2","2","2","2","2","4","2","1","0","1","1","0","0","0","1","0","1","1","0","1","0","1","4","2","2","2","2","2","3","4","4","4","2","763092748139237377","李","25","","","","","","","","","","","","","","","","","","","true","4","4","ability","781","negative","蠢笨","","","","","","","","","","","","","","","","",""
"null","","null","html-keyboard-response","188","528352","0.0-6.0-0.0-8.0-0.40","3","3","3","3","3","3","3","3","3","3","4","4","4","4","4","4","4","4","4","4","2","2","2","2","2","2","2","4","2","1","0","1","1","0","0","0","1","0","1","1","0","1","0","1","4","2","2","2","2","2","3","4","4","4","2","763092748139237377","李","25","","","","","","","","","","","","","","","","","","","","","","","","","","","","","","","","","","","","","","","","","",""
"953","<p style=""color:rgb(150, 250, 100); font-size: 35px;"">他</p>","i","categorize-html","189","529310","0.0-6.0-0.0-8.0-1.40","3","3","3","3","3","3","3","3","3","3","4","4","4","4","4","4","4","4","4","4","2","2","2","2","2","2","2","4","2","1","0","1","1","0","0","0","1","0","1","1","0","1","0","1","4","2","2","2","2","2","3","4","4","4","2","763092748139237377","李","25","","","","","","","","","","","","","","","","","","","true","4","4","ability","953","other","他","","","","","","","","","","","","","","","","",""
"null","","null","html-keyboard-response","190","529573","0.0-6.0-0.0-8.0-0.41","3","3","3","3","3","3","3","3","3","3","4","4","4","4","4","4","4","4","4","4","2","2","2","2","2","2","2","4","2","1","0","1","1","0","0","0","1","0","1","1","0","1","0","1","4","2","2","2","2","2","3","4","4","4","2","763092748139237377","李","25","","","","","","","","","","","","","","","","","","","","","","","","","","","","","","","","","","","","","","","","","",""
"740","<p style=""color:white; font-size: 35px;"">愚钝</p>","e","categorize-html","191","530318","0.0-6.0-0.0-8.0-1.41","3","3","3","3","3","3","3","3","3","3","4","4","4","4","4","4","4","4","4","4","2","2","2","2","2","2","2","4","2","1","0","1","1","0","0","0","1","0","1","1","0","1","0","1","4","2","2","2","2","2","3","4","4","4","2","763092748139237377","李","25","","","","","","","","","","","","","","","","","","","true","4","4","ability","740","negative","愚钝","","","","","","","","","","","","","","","","",""
"null","","null","html-keyboard-response","192","530570","0.0-6.0-0.0-8.0-0.42","3","3","3","3","3","3","3","3","3","3","4","4","4","4","4","4","4","4","4","4","2","2","2","2","2","2","2","4","2","1","0","1","1","0","0","0","1","0","1","1","0","1","0","1","4","2","2","2","2","2","3","4","4","4","2","763092748139237377","李","25","","","","","","","","","","","","","","","","","","","","","","","","","","","","","","","","","","","","","","","","","",""
"1042","<p style=""color:rgb(150, 250, 100); font-size: 35px;"">自己</p>","e","categorize-html","193","531618","0.0-6.0-0.0-8.0-1.42","3","3","3","3","3","3","3","3","3","3","4","4","4","4","4","4","4","4","4","4","2","2","2","2","2","2","2","4","2","1","0","1","1","0","0","0","1","0","1","1","0","1","0","1","4","2","2","2","2","2","3","4","4","4","2","763092748139237377","李","25","","","","","","","","","","","","","","","","","","","true","4","4","ability","1042","self","自己","","","","","","","","","","","","","","","","",""
