"rt","stimulus","response","trial_type","trial_index","time_elapsed","internal_node_id","ses_1","ses_2","ses_3","ses_4","ses_5","ses_6","ses_7","ses_8","ses_9","ses_10","coreself_1","coreself_2","coreself_3","coreself_4","coreself_5","coreself_6","coreself_7","coreself_8","coreself_9","coreself_10","SGPS_1","SGPS_2","SGPS_3","SGPS_4","SGPS_5","SGPS_6","SGPS_7","SGPS_8","SGPS_9","NPI1","NPI2","NPI3","NPI4","NPI5","NPI6","NPI7","NPI8","NPI9","NPI10","NPI11","NPI12","NPI13","NPI14","NPI15","hsns_1","hsns_2","hsns_3","hsns_4","hsns_5","trap1","hsns_6","hsns_7","hsns_8","hsns_9","hsns_10","subj_idx","friend_name","ParticipantID","value","success","user_agent","responses","item_order","radio_event_ids","radio_event_times","key_event_times","mouse_event_times","straightlining","zigzagging","honeypot","timeout","failed_images","failed_audio","failed_video","version_attrib","version_target","correct","IAT","screen_id","task_id","RT","condition","word","varname","summary","version_attrib2","version_target2","time_stamp","view_history","response_type","key_press","avg_frame_time","center_x","center_y","correct_response","identity","Image","question_order","correct_answer","trap1_item"
"9917","
   <p><div style = ""color: white;font-size:25px;"">您好，欢迎参加本次实验。</div> </p>
   <p><div style = ""color: white;font-size:25px;"">为充分保障您的权利，请确保您已经知晓并同意《参与实验同意书》以及《数据公开知情同意书》。</div></p>
   <p><div style = ""color: white;font-size:25px;"">如果您未见过上述内容，请咨询实验员。</div></p>
   <p><div style = ""color: white;font-size:25px;"">如果您选择继续实验，则表示您已经清楚两份知情同意书的内容并同意。</div></p>
   <p><div style = ""color: pink;font-size:30px;"">请确保您记得day0的实验编号，您将在本次实验输入该编号，若您忘记，请咨询实验员后作答。</div></p>
   <p><div style = ""color: lightblue;font-size:25px;"">请您尽可能认真地作答，我们将依据您在各问卷和按键任务中的作答质量发放报酬。</div></p>
   <p> <div style = ""color: green;font-size:25px;""><按空格键至下页></div> </p>
   "," ","html-keyboard-response","0","9919","0.0-0.0","3","3","3","3","3","3","4","2","4","4","3","3","4","4","3","5","4","3","4","5","2","2","3","3","3","2","2","1","2","1","0","1","1","0","0","1","1","0","1","1","0","1","0","1","4","3","2","2","3","1","2","3","4","1","3","796359969116135425","李","654","","","","","","","","","","","","","","","","","","","","","","","","","","","","","","","","","","","","","","","","","",""
"","","","call-function","1","9920","0.0-1.0-0.0","3","3","3","3","3","3","4","2","4","4","3","3","4","4","3","5","4","3","4","5","2","2","3","3","3","2","2","1","2","1","0","1","1","0","0","1","1","0","1","1","0","1","0","1","4","3","2","2","3","1","2","3","4","1","3","796359969116135425","李","654","","","","","","","","","","","","","","","","","","","","","","","","","","","","","","","","","","","","","","","","","",""
"32882","","{""friend_name"":""李"",""ParticipantID"":""654""}","survey-html-form","2","42803","0.0-1.0-1.0","3","3","3","3","3","3","4","2","4","4","3","3","4","4","3","5","4","3","4","5","2","2","3","3","3","2","2","1","2","1","0","1","1","0","0","1","1","0","1","1","0","1","0","1","4","3","2","2","3","1","2","3","4","1","3","796359969116135425","李","654","","","","","","","","","","","","","","","","","","","","","","","","","","","","","","","","","","","","","","","","","",""
"","","","fullscreen","3","57760","0.0-2.0","3","3","3","3","3","3","4","2","4","4","3","3","4","4","3","5","4","3","4","5","2","2","3","3","3","2","2","1","2","1","0","1","1","0","0","1","1","0","1","1","0","1","0","1","4","3","2","2","3","1","2","3","4","1","3","796359969116135425","李","654","","true","{}","","","","","","","","","","","","","","","","","","","","","","","","","","","","","","","","","","","","","","",""
"58819.19999998808","","{""Q01"":""3"",""Q02"":""3"",""Q03"":""3"",""Q04"":""3"",""Q05"":""3"",""Q06"":""3"",""Q07"":""4"",""Q08"":""2"",""Q09"":""4"",""Q10"":""4""}","survey-template","4","116581","0.0-3.0","3","3","3","3","3","3","4","2","4","4","3","3","4","4","3","5","4","3","4","5","2","2","3","3","3","2","2","1","2","1","0","1","1","0","0","1","1","0","1","1","0","1","0","1","4","3","2","2","3","1","2","3","4","1","3","796359969116135425","李","654","","","","{""Q01"":""3"",""Q02"":""3"",""Q03"":""3"",""Q04"":""3"",""Q05"":""3"",""Q06"":""3"",""Q07"":""4"",""Q08"":""2"",""Q09"":""4"",""Q10"":""4""}","[0,1,2,3,4,5,6,7,8,9]","[""Q01"",""Q02"",""Q03"",""Q04"",""Q05"",""Q06"",""Q05"",""Q07"",""Q08"",""Q09"",""Q10""]","[14389.399999976158,16505.80000001192,24006,26385.19999998808,30064.599999964237,32120.399999976158,33067.5,37785.59999996424,42775.5,45159.39999997616,47503.30000001192]","[]","[13921,14389.399999976158,16505.80000001192,24006,26385.19999998808,30064.599999964237,32120.399999976158,33067.5,37785.59999996424,42775.5,45159.39999997616,47503.30000001192,58818.5]","0.5","0.6666666666666666","0","","","","","","","","","","","","","","","","","","","","","","","","","","","","","",""
"41914.69999998808","","{""Q01"":""3"",""Q02"":""3"",""Q03"":""4"",""Q04"":""4"",""Q05"":""3"",""Q06"":""5"",""Q07"":""4"",""Q08"":""3"",""Q09"":""4"",""Q10"":""5""}","survey-template","5","158499","0.0-4.0","3","3","3","3","3","3","4","2","4","4","3","3","4","4","3","5","4","3","4","5","2","2","3","3","3","2","2","1","2","1","0","1","1","0","0","1","1","0","1","1","0","1","0","1","4","3","2","2","3","1","2","3","4","1","3","796359969116135425","李","654","","","","{""Q01"":""3"",""Q02"":""3"",""Q03"":""4"",""Q04"":""4"",""Q05"":""3"",""Q06"":""5"",""Q07"":""4"",""Q08"":""3"",""Q09"":""4"",""Q10"":""5""}","[0,1,2,3,4,5,6,7,8,9]","[""Q01"",""Q02"",""Q03"",""Q04"",""Q03"",""Q03"",""Q05"",""Q06"",""Q06"",""Q07"",""Q08"",""Q09"",""Q09"",""Q10""]","[5089.800000011921,7348,12604,14893.900000035763,15654.400000035763,17087.80000001192,20979.19999998808,22761.19999998808,24671.600000023842,29115.100000023842,33749.60000002384,35672.90000003576,36411.30000001192,39630.5]","[]","[5089.800000011921,7348,12604,14347.400000035763,14893.900000035763,15654.400000035763,17087.80000001192,20979.19999998808,22761.19999998808,23504.5,24671.600000023842,29115.100000023842,31799.5,32783.19999998808,33749.60000002384,35672.90000003576,36411.30000001192,39052.40000003576,39630.5,41914.19999998808]","0.4","0.4444444444444444","0","","","","","","","","","","","","","","","","","","","","","","","","","","","","","",""
"","","","preload","6","158881","0.0-5.0","3","3","3","3","3","3","4","2","4","4","3","3","4","4","3","5","4","3","4","5","2","2","3","3","3","2","2","1","2","1","0","1","1","0","0","1","1","0","1","1","0","1","0","1","4","3","2","2","3","1","2","3","4","1","3","796359969116135425","李","654","","true","","","","","","","","","","","false","[]","[]","[]","","","","","","","","","","","","","","","","","","","","","","","","","",""
"19982","
    <h3>词语分类任务</h3>
    <p>在接下来的任务中，你需要对一系列词语进行分类。</p>
    <p>请先熟悉这些词语，这有利于你完成接下来的任务。</p>
    <table align=""center"" border=1 cellpadding=3 cellspacing=0>
    <tr> <th>类别</th> <th>词语</th> </tr>
    <tr> <td>&emsp;积极&emsp;</td> <td>&emsp;能干、全能、全才、高效、精干、天才&emsp;</td> </tr>
    <tr> <td>&emsp;消极&emsp;</td> <td>&emsp;无能、低能、废物、拙笨、愚钝、蠢笨&emsp;</td> </tr>
    <tr> <td>&emsp;自我&emsp;</td> <td>&emsp;我、我的、自己、自己的、本人、本人的&emsp;</td> </tr>
    <tr> <td>&emsp;他人&emsp;</td> <td>&emsp;他、他的、别人、别人的、他人、他人的&emsp;</td> </tr>
    </table><br/>","0","html-button-response","7","178864","0.0-6.0-0.0-0.0","3","3","3","3","3","3","4","2","4","4","3","3","4","4","3","5","4","3","4","5","2","2","3","3","3","2","2","1","2","1","0","1","1","0","0","1","1","0","1","1","0","1","0","1","4","3","2","2","3","1","2","3","4","1","3","796359969116135425","李","654","","","","","","","","","","","","","","","","","1","2","","","","","","","","","","","","","","","","","","","","","","","",""
"24338","
    <div class=""tag-bottom"">
    <p> —— 任务1：对“他人”词和“自我”词分类 ——<p/>
    不同词语会出现在屏幕中央，类别标签将始终显示在屏幕上方<p/>   
    <span style=""color:#FFD866""><b>请根据上方标签的提示，尽可能正确并且快速地做出按键反应</b></span><p/>
    当按键错误时屏幕中会出现<span style=""color:red""> X </span>，需要按另一个键纠正才能继续<br/><p/>
    请把双手食指分别放在键盘的“E”键和“I”键上<p/>
    按<空格键>开始
    </p></div>"," ","html-keyboard-response","8","203204","0.0-6.0-0.0-1.0","3","3","3","3","3","3","4","2","4","4","3","3","4","4","3","5","4","3","4","5","2","2","3","3","3","2","2","1","2","1","0","1","1","0","0","1","1","0","1","1","0","1","0","1","4","3","2","2","3","1","2","3","4","1","3","796359969116135425","李","654","","","","","","","","","","","","","","","","","","","","","","","","","","","","","","","","","","","","","","","","","",""
"null","","null","html-keyboard-response","9","203455","0.0-6.0-0.0-2.0-0.0","3","3","3","3","3","3","4","2","4","4","3","3","4","4","3","5","4","3","4","5","2","2","3","3","3","2","2","1","2","1","0","1","1","0","0","1","1","0","1","1","0","1","0","1","4","3","2","2","3","1","2","3","4","1","3","796359969116135425","李","654","","","","","","","","","","","","","","","","","","","","","","","","","","","","","","","","","","","","","","","","","",""
"1115","<p style=""color:rgb(150, 250, 100); font-size: 35px;"">我</p>","i","categorize-html","10","204572","0.0-6.0-0.0-2.0-1.0","3","3","3","3","3","3","4","2","4","4","3","3","4","4","3","5","4","3","4","5","2","2","3","3","3","2","2","1","2","1","0","1","1","0","0","1","1","0","1","1","0","1","0","1","4","3","2","2","3","1","2","3","4","1","3","796359969116135425","李","654","","","","","","","","","","","","","","","","","","","true","1","1","ability","1115","self","我","","","","","","","","","","","","","","","","",""
"null","","null","html-keyboard-response","11","204824","0.0-6.0-0.0-2.0-0.1","3","3","3","3","3","3","4","2","4","4","3","3","4","4","3","5","4","3","4","5","2","2","3","3","3","2","2","1","2","1","0","1","1","0","0","1","1","0","1","1","0","1","0","1","4","3","2","2","3","1","2","3","4","1","3","796359969116135425","李","654","","","","","","","","","","","","","","","","","","","","","","","","","","","","","","","","","","","","","","","","","",""
"764","<p style=""color:rgb(150, 250, 100); font-size: 35px;"">他的</p>","e","categorize-html","12","205589","0.0-6.0-0.0-2.0-1.1","3","3","3","3","3","3","4","2","4","4","3","3","4","4","3","5","4","3","4","5","2","2","3","3","3","2","2","1","2","1","0","1","1","0","0","1","1","0","1","1","0","1","0","1","4","3","2","2","3","1","2","3","4","1","3","796359969116135425","李","654","","","","","","","","","","","","","","","","","","","true","1","1","ability","764","other","他的","","","","","","","","","","","","","","","","",""
"null","","null","html-keyboard-response","13","205839","0.0-6.0-0.0-2.0-0.2","3","3","3","3","3","3","4","2","4","4","3","3","4","4","3","5","4","3","4","5","2","2","3","3","3","2","2","1","2","1","0","1","1","0","0","1","1","0","1","1","0","1","0","1","4","3","2","2","3","1","2","3","4","1","3","796359969116135425","李","654","","","","","","","","","","","","","","","","","","","","","","","","","","","","","","","","","","","","","","","","","",""
"710","<p style=""color:rgb(150, 250, 100); font-size: 35px;"">自己</p>","i","categorize-html","14","206551","0.0-6.0-0.0-2.0-1.2","3","3","3","3","3","3","4","2","4","4","3","3","4","4","3","5","4","3","4","5","2","2","3","3","3","2","2","1","2","1","0","1","1","0","0","1","1","0","1","1","0","1","0","1","4","3","2","2","3","1","2","3","4","1","3","796359969116135425","李","654","","","","","","","","","","","","","","","","","","","true","1","1","ability","710","self","自己","","","","","","","","","","","","","","","","",""
"null","","null","html-keyboard-response","15","206802","0.0-6.0-0.0-2.0-0.3","3","3","3","3","3","3","4","2","4","4","3","3","4","4","3","5","4","3","4","5","2","2","3","3","3","2","2","1","2","1","0","1","1","0","0","1","1","0","1","1","0","1","0","1","4","3","2","2","3","1","2","3","4","1","3","796359969116135425","李","654","","","","","","","","","","","","","","","","","","","","","","","","","","","","","","","","","","","","","","","","","",""
"550","<p style=""color:rgb(150, 250, 100); font-size: 35px;"">别人</p>","e","categorize-html","16","207353","0.0-6.0-0.0-2.0-1.3","3","3","3","3","3","3","4","2","4","4","3","3","4","4","3","5","4","3","4","5","2","2","3","3","3","2","2","1","2","1","0","1","1","0","0","1","1","0","1","1","0","1","0","1","4","3","2","2","3","1","2","3","4","1","3","796359969116135425","李","654","","","","","","","","","","","","","","","","","","","true","1","1","ability","550","other","别人","","","","","","","","","","","","","","","","",""
"null","","null","html-keyboard-response","17","207605","0.0-6.0-0.0-2.0-0.4","3","3","3","3","3","3","4","2","4","4","3","3","4","4","3","5","4","3","4","5","2","2","3","3","3","2","2","1","2","1","0","1","1","0","0","1","1","0","1","1","0","1","0","1","4","3","2","2","3","1","2","3","4","1","3","796359969116135425","李","654","","","","","","","","","","","","","","","","","","","","","","","","","","","","","","","","","","","","","","","","","",""
"558","<p style=""color:rgb(150, 250, 100); font-size: 35px;"">别人的</p>","e","categorize-html","18","208164","0.0-6.0-0.0-2.0-1.4","3","3","3","3","3","3","4","2","4","4","3","3","4","4","3","5","4","3","4","5","2","2","3","3","3","2","2","1","2","1","0","1","1","0","0","1","1","0","1","1","0","1","0","1","4","3","2","2","3","1","2","3","4","1","3","796359969116135425","李","654","","","","","","","","","","","","","","","","","","","true","1","1","ability","558","other","别人的","","","","","","","","","","","","","","","","",""
"null","","null","html-keyboard-response","19","208414","0.0-6.0-0.0-2.0-0.5","3","3","3","3","3","3","4","2","4","4","3","3","4","4","3","5","4","3","4","5","2","2","3","3","3","2","2","1","2","1","0","1","1","0","0","1","1","0","1","1","0","1","0","1","4","3","2","2","3","1","2","3","4","1","3","796359969116135425","李","654","","","","","","","","","","","","","","","","","","","","","","","","","","","","","","","","","","","","","","","","","",""
"639","<p style=""color:rgb(150, 250, 100); font-size: 35px;"">自己的</p>","i","categorize-html","20","209054","0.0-6.0-0.0-2.0-1.5","3","3","3","3","3","3","4","2","4","4","3","3","4","4","3","5","4","3","4","5","2","2","3","3","3","2","2","1","2","1","0","1","1","0","0","1","1","0","1","1","0","1","0","1","4","3","2","2","3","1","2","3","4","1","3","796359969116135425","李","654","","","","","","","","","","","","","","","","","","","true","1","1","ability","639","self","自己的","","","","","","","","","","","","","","","","",""
"null","","null","html-keyboard-response","21","209319","0.0-6.0-0.0-2.0-0.6","3","3","3","3","3","3","4","2","4","4","3","3","4","4","3","5","4","3","4","5","2","2","3","3","3","2","2","1","2","1","0","1","1","0","0","1","1","0","1","1","0","1","0","1","4","3","2","2","3","1","2","3","4","1","3","796359969116135425","李","654","","","","","","","","","","","","","","","","","","","","","","","","","","","","","","","","","","","","","","","","","",""
"672","<p style=""color:rgb(150, 250, 100); font-size: 35px;"">他</p>","e","categorize-html","22","209993","0.0-6.0-0.0-2.0-1.6","3","3","3","3","3","3","4","2","4","4","3","3","4","4","3","5","4","3","4","5","2","2","3","3","3","2","2","1","2","1","0","1","1","0","0","1","1","0","1","1","0","1","0","1","4","3","2","2","3","1","2","3","4","1","3","796359969116135425","李","654","","","","","","","","","","","","","","","","","","","true","1","1","ability","672","other","他","","","","","","","","","","","","","","","","",""
"null","","null","html-keyboard-response","23","210245","0.0-6.0-0.0-2.0-0.7","3","3","3","3","3","3","4","2","4","4","3","3","4","4","3","5","4","3","4","5","2","2","3","3","3","2","2","1","2","1","0","1","1","0","0","1","1","0","1","1","0","1","0","1","4","3","2","2","3","1","2","3","4","1","3","796359969116135425","李","654","","","","","","","","","","","","","","","","","","","","","","","","","","","","","","","","","","","","","","","","","",""
"701","<p style=""color:rgb(150, 250, 100); font-size: 35px;"">本人的</p>","i","categorize-html","24","210948","0.0-6.0-0.0-2.0-1.7","3","3","3","3","3","3","4","2","4","4","3","3","4","4","3","5","4","3","4","5","2","2","3","3","3","2","2","1","2","1","0","1","1","0","0","1","1","0","1","1","0","1","0","1","4","3","2","2","3","1","2","3","4","1","3","796359969116135425","李","654","","","","","","","","","","","","","","","","","","","true","1","1","ability","701","self","本人的","","","","","","","","","","","","","","","","",""
"null","","null","html-keyboard-response","25","211198","0.0-6.0-0.0-2.0-0.8","3","3","3","3","3","3","4","2","4","4","3","3","4","4","3","5","4","3","4","5","2","2","3","3","3","2","2","1","2","1","0","1","1","0","0","1","1","0","1","1","0","1","0","1","4","3","2","2","3","1","2","3","4","1","3","796359969116135425","李","654","","","","","","","","","","","","","","","","","","","","","","","","","","","","","","","","","","","","","","","","","",""
"728","<p style=""color:rgb(150, 250, 100); font-size: 35px;"">他人</p>","e","categorize-html","26","211928","0.0-6.0-0.0-2.0-1.8","3","3","3","3","3","3","4","2","4","4","3","3","4","4","3","5","4","3","4","5","2","2","3","3","3","2","2","1","2","1","0","1","1","0","0","1","1","0","1","1","0","1","0","1","4","3","2","2","3","1","2","3","4","1","3","796359969116135425","李","654","","","","","","","","","","","","","","","","","","","true","1","1","ability","728","other","他人","","","","","","","","","","","","","","","","",""
"null","","null","html-keyboard-response","27","212178","0.0-6.0-0.0-2.0-0.9","3","3","3","3","3","3","4","2","4","4","3","3","4","4","3","5","4","3","4","5","2","2","3","3","3","2","2","1","2","1","0","1","1","0","0","1","1","0","1","1","0","1","0","1","4","3","2","2","3","1","2","3","4","1","3","796359969116135425","李","654","","","","","","","","","","","","","","","","","","","","","","","","","","","","","","","","","","","","","","","","","",""
"426","<p style=""color:rgb(150, 250, 100); font-size: 35px;"">我的</p>","i","categorize-html","28","212605","0.0-6.0-0.0-2.0-1.9","3","3","3","3","3","3","4","2","4","4","3","3","4","4","3","5","4","3","4","5","2","2","3","3","3","2","2","1","2","1","0","1","1","0","0","1","1","0","1","1","0","1","0","1","4","3","2","2","3","1","2","3","4","1","3","796359969116135425","李","654","","","","","","","","","","","","","","","","","","","true","1","1","ability","426","self","我的","","","","","","","","","","","","","","","","",""
"null","","null","html-keyboard-response","29","212856","0.0-6.0-0.0-2.0-0.10","3","3","3","3","3","3","4","2","4","4","3","3","4","4","3","5","4","3","4","5","2","2","3","3","3","2","2","1","2","1","0","1","1","0","0","1","1","0","1","1","0","1","0","1","4","3","2","2","3","1","2","3","4","1","3","796359969116135425","李","654","","","","","","","","","","","","","","","","","","","","","","","","","","","","","","","","","","","","","","","","","",""
"573","<p style=""color:rgb(150, 250, 100); font-size: 35px;"">他人的</p>","i","categorize-html","30","215319","0.0-6.0-0.0-2.0-1.10","3","3","3","3","3","3","4","2","4","4","3","3","4","4","3","5","4","3","4","5","2","2","3","3","3","2","2","1","2","1","0","1","1","0","0","1","1","0","1","1","0","1","0","1","4","3","2","2","3","1","2","3","4","1","3","796359969116135425","李","654","","","","","","","","","","","","","","","","","","","false","1","1","ability","573","other","他人的","","","","","","","","","","","","","","","","",""
"null","","null","html-keyboard-response","31","215570","0.0-6.0-0.0-2.0-0.11","3","3","3","3","3","3","4","2","4","4","3","3","4","4","3","5","4","3","4","5","2","2","3","3","3","2","2","1","2","1","0","1","1","0","0","1","1","0","1","1","0","1","0","1","4","3","2","2","3","1","2","3","4","1","3","796359969116135425","李","654","","","","","","","","","","","","","","","","","","","","","","","","","","","","","","","","","","","","","","","","","",""
"665","<p style=""color:rgb(150, 250, 100); font-size: 35px;"">本人</p>","i","categorize-html","32","216236","0.0-6.0-0.0-2.0-1.11","3","3","3","3","3","3","4","2","4","4","3","3","4","4","3","5","4","3","4","5","2","2","3","3","3","2","2","1","2","1","0","1","1","0","0","1","1","0","1","1","0","1","0","1","4","3","2","2","3","1","2","3","4","1","3","796359969116135425","李","654","","","","","","","","","","","","","","","","","","","true","1","1","ability","665","self","本人","","","","","","","","","","","","","","","","",""
"4667","
    <div class=""tag-bottom""><p>
    —— 任务2：对“积极”词和“消极”词分类 ——<p/>   
    <span style=""color:#78DCE8""><b>注意上方，类别标签和需要分类的词语都已经改变</b></span><p/>
    <span style=""color:#FFD866""><b>请根据上方标签的提示，尽可能正确并且快速地做出按键反应</b></span><p/>
    当按键错误时屏幕中会出现<span style=""color:red""> X </span>，需要按另一个键纠正才能继续<br/><p/>
    请把双手食指分别放在键盘的“E”键和“I”键上<p/>
    按<空格键>开始
    </p></div>"," ","html-keyboard-response","33","220904","0.0-6.0-0.0-3.0","3","3","3","3","3","3","4","2","4","4","3","3","4","4","3","5","4","3","4","5","2","2","3","3","3","2","2","1","2","1","0","1","1","0","0","1","1","0","1","1","0","1","0","1","4","3","2","2","3","1","2","3","4","1","3","796359969116135425","李","654","","","","","","","","","","","","","","","","","","","","","","","","","","","","","","","","","","","","","","","","","",""
"null","","null","html-keyboard-response","34","221154","0.0-6.0-0.0-4.0-0.0","3","3","3","3","3","3","4","2","4","4","3","3","4","4","3","5","4","3","4","5","2","2","3","3","3","2","2","1","2","1","0","1","1","0","0","1","1","0","1","1","0","1","0","1","4","3","2","2","3","1","2","3","4","1","3","796359969116135425","李","654","","","","","","","","","","","","","","","","","","","","","","","","","","","","","","","","","","","","","","","","","",""
"1403","<p style=""color:white; font-size: 35px;"">拙笨</p>","i","categorize-html","35","222559","0.0-6.0-0.0-4.0-1.0","3","3","3","3","3","3","4","2","4","4","3","3","4","4","3","5","4","3","4","5","2","2","3","3","3","2","2","1","2","1","0","1","1","0","0","1","1","0","1","1","0","1","0","1","4","3","2","2","3","1","2","3","4","1","3","796359969116135425","李","654","","","","","","","","","","","","","","","","","","","true","2","2","ability","1403","negative","拙笨","","","","","","","","","","","","","","","","",""
"null","","null","html-keyboard-response","36","222809","0.0-6.0-0.0-4.0-0.1","3","3","3","3","3","3","4","2","4","4","3","3","4","4","3","5","4","3","4","5","2","2","3","3","3","2","2","1","2","1","0","1","1","0","0","1","1","0","1","1","0","1","0","1","4","3","2","2","3","1","2","3","4","1","3","796359969116135425","李","654","","","","","","","","","","","","","","","","","","","","","","","","","","","","","","","","","","","","","","","","","",""
"563","<p style=""color:white; font-size: 35px;"">低能</p>","i","categorize-html","37","223374","0.0-6.0-0.0-4.0-1.1","3","3","3","3","3","3","4","2","4","4","3","3","4","4","3","5","4","3","4","5","2","2","3","3","3","2","2","1","2","1","0","1","1","0","0","1","1","0","1","1","0","1","0","1","4","3","2","2","3","1","2","3","4","1","3","796359969116135425","李","654","","","","","","","","","","","","","","","","","","","true","2","2","ability","563","negative","低能","","","","","","","","","","","","","","","","",""
"null","","null","html-keyboard-response","38","223625","0.0-6.0-0.0-4.0-0.2","3","3","3","3","3","3","4","2","4","4","3","3","4","4","3","5","4","3","4","5","2","2","3","3","3","2","2","1","2","1","0","1","1","0","0","1","1","0","1","1","0","1","0","1","4","3","2","2","3","1","2","3","4","1","3","796359969116135425","李","654","","","","","","","","","","","","","","","","","","","","","","","","","","","","","","","","","","","","","","","","","",""
"497","<p style=""color:white; font-size: 35px;"">废物</p>","i","categorize-html","39","224124","0.0-6.0-0.0-4.0-1.2","3","3","3","3","3","3","4","2","4","4","3","3","4","4","3","5","4","3","4","5","2","2","3","3","3","2","2","1","2","1","0","1","1","0","0","1","1","0","1","1","0","1","0","1","4","3","2","2","3","1","2","3","4","1","3","796359969116135425","李","654","","","","","","","","","","","","","","","","","","","true","2","2","ability","497","negative","废物","","","","","","","","","","","","","","","","",""
"null","","null","html-keyboard-response","40","224375","0.0-6.0-0.0-4.0-0.3","3","3","3","3","3","3","4","2","4","4","3","3","4","4","3","5","4","3","4","5","2","2","3","3","3","2","2","1","2","1","0","1","1","0","0","1","1","0","1","1","0","1","0","1","4","3","2","2","3","1","2","3","4","1","3","796359969116135425","李","654","","","","","","","","","","","","","","","","","","","","","","","","","","","","","","","","","","","","","","","","","",""
"565","<p style=""color:white; font-size: 35px;"">全才</p>","e","categorize-html","41","224942","0.0-6.0-0.0-4.0-1.3","3","3","3","3","3","3","4","2","4","4","3","3","4","4","3","5","4","3","4","5","2","2","3","3","3","2","2","1","2","1","0","1","1","0","0","1","1","0","1","1","0","1","0","1","4","3","2","2","3","1","2","3","4","1","3","796359969116135425","李","654","","","","","","","","","","","","","","","","","","","true","2","2","ability","565","positive","全才","","","","","","","","","","","","","","","","",""
"null","","null","html-keyboard-response","42","225193","0.0-6.0-0.0-4.0-0.4","3","3","3","3","3","3","4","2","4","4","3","3","4","4","3","5","4","3","4","5","2","2","3","3","3","2","2","1","2","1","0","1","1","0","0","1","1","0","1","1","0","1","0","1","4","3","2","2","3","1","2","3","4","1","3","796359969116135425","李","654","","","","","","","","","","","","","","","","","","","","","","","","","","","","","","","","","","","","","","","","","",""
"536","<p style=""color:white; font-size: 35px;"">能干</p>","e","categorize-html","43","225730","0.0-6.0-0.0-4.0-1.4","3","3","3","3","3","3","4","2","4","4","3","3","4","4","3","5","4","3","4","5","2","2","3","3","3","2","2","1","2","1","0","1","1","0","0","1","1","0","1","1","0","1","0","1","4","3","2","2","3","1","2","3","4","1","3","796359969116135425","李","654","","","","","","","","","","","","","","","","","","","true","2","2","ability","536","positive","能干","","","","","","","","","","","","","","","","",""
"null","","null","html-keyboard-response","44","225981","0.0-6.0-0.0-4.0-0.5","3","3","3","3","3","3","4","2","4","4","3","3","4","4","3","5","4","3","4","5","2","2","3","3","3","2","2","1","2","1","0","1","1","0","0","1","1","0","1","1","0","1","0","1","4","3","2","2","3","1","2","3","4","1","3","796359969116135425","李","654","","","","","","","","","","","","","","","","","","","","","","","","","","","","","","","","","","","","","","","","","",""
"536","<p style=""color:white; font-size: 35px;"">蠢笨</p>","i","categorize-html","45","226519","0.0-6.0-0.0-4.0-1.5","3","3","3","3","3","3","4","2","4","4","3","3","4","4","3","5","4","3","4","5","2","2","3","3","3","2","2","1","2","1","0","1","1","0","0","1","1","0","1","1","0","1","0","1","4","3","2","2","3","1","2","3","4","1","3","796359969116135425","李","654","","","","","","","","","","","","","","","","","","","true","2","2","ability","536","negative","蠢笨","","","","","","","","","","","","","","","","",""
"null","","null","html-keyboard-response","46","226772","0.0-6.0-0.0-4.0-0.6","3","3","3","3","3","3","4","2","4","4","3","3","4","4","3","5","4","3","4","5","2","2","3","3","3","2","2","1","2","1","0","1","1","0","0","1","1","0","1","1","0","1","0","1","4","3","2","2","3","1","2","3","4","1","3","796359969116135425","李","654","","","","","","","","","","","","","","","","","","","","","","","","","","","","","","","","","","","","","","","","","",""
"557","<p style=""color:white; font-size: 35px;"">高效</p>","e","categorize-html","47","227330","0.0-6.0-0.0-4.0-1.6","3","3","3","3","3","3","4","2","4","4","3","3","4","4","3","5","4","3","4","5","2","2","3","3","3","2","2","1","2","1","0","1","1","0","0","1","1","0","1","1","0","1","0","1","4","3","2","2","3","1","2","3","4","1","3","796359969116135425","李","654","","","","","","","","","","","","","","","","","","","true","2","2","ability","557","positive","高效","","","","","","","","","","","","","","","","",""
"null","","null","html-keyboard-response","48","227581","0.0-6.0-0.0-4.0-0.7","3","3","3","3","3","3","4","2","4","4","3","3","4","4","3","5","4","3","4","5","2","2","3","3","3","2","2","1","2","1","0","1","1","0","0","1","1","0","1","1","0","1","0","1","4","3","2","2","3","1","2","3","4","1","3","796359969116135425","李","654","","","","","","","","","","","","","","","","","","","","","","","","","","","","","","","","","","","","","","","","","",""
"607","<p style=""color:white; font-size: 35px;"">愚钝</p>","i","categorize-html","49","228189","0.0-6.0-0.0-4.0-1.7","3","3","3","3","3","3","4","2","4","4","3","3","4","4","3","5","4","3","4","5","2","2","3","3","3","2","2","1","2","1","0","1","1","0","0","1","1","0","1","1","0","1","0","1","4","3","2","2","3","1","2","3","4","1","3","796359969116135425","李","654","","","","","","","","","","","","","","","","","","","true","2","2","ability","607","negative","愚钝","","","","","","","","","","","","","","","","",""
"null","","null","html-keyboard-response","50","228439","0.0-6.0-0.0-4.0-0.8","3","3","3","3","3","3","4","2","4","4","3","3","4","4","3","5","4","3","4","5","2","2","3","3","3","2","2","1","2","1","0","1","1","0","0","1","1","0","1","1","0","1","0","1","4","3","2","2","3","1","2","3","4","1","3","796359969116135425","李","654","","","","","","","","","","","","","","","","","","","","","","","","","","","","","","","","","","","","","","","","","",""
"523","<p style=""color:white; font-size: 35px;"">天才</p>","e","categorize-html","51","228964","0.0-6.0-0.0-4.0-1.8","3","3","3","3","3","3","4","2","4","4","3","3","4","4","3","5","4","3","4","5","2","2","3","3","3","2","2","1","2","1","0","1","1","0","0","1","1","0","1","1","0","1","0","1","4","3","2","2","3","1","2","3","4","1","3","796359969116135425","李","654","","","","","","","","","","","","","","","","","","","true","2","2","ability","523","positive","天才","","","","","","","","","","","","","","","","",""
"null","","null","html-keyboard-response","52","229215","0.0-6.0-0.0-4.0-0.9","3","3","3","3","3","3","4","2","4","4","3","3","4","4","3","5","4","3","4","5","2","2","3","3","3","2","2","1","2","1","0","1","1","0","0","1","1","0","1","1","0","1","0","1","4","3","2","2","3","1","2","3","4","1","3","796359969116135425","李","654","","","","","","","","","","","","","","","","","","","","","","","","","","","","","","","","","","","","","","","","","",""
"595","<p style=""color:white; font-size: 35px;"">精干</p>","e","categorize-html","53","229811","0.0-6.0-0.0-4.0-1.9","3","3","3","3","3","3","4","2","4","4","3","3","4","4","3","5","4","3","4","5","2","2","3","3","3","2","2","1","2","1","0","1","1","0","0","1","1","0","1","1","0","1","0","1","4","3","2","2","3","1","2","3","4","1","3","796359969116135425","李","654","","","","","","","","","","","","","","","","","","","true","2","2","ability","595","positive","精干","","","","","","","","","","","","","","","","",""
"null","","null","html-keyboard-response","54","230062","0.0-6.0-0.0-4.0-0.10","3","3","3","3","3","3","4","2","4","4","3","3","4","4","3","5","4","3","4","5","2","2","3","3","3","2","2","1","2","1","0","1","1","0","0","1","1","0","1","1","0","1","0","1","4","3","2","2","3","1","2","3","4","1","3","796359969116135425","李","654","","","","","","","","","","","","","","","","","","","","","","","","","","","","","","","","","","","","","","","","","",""
"484","<p style=""color:white; font-size: 35px;"">全能</p>","e","categorize-html","55","230547","0.0-6.0-0.0-4.0-1.10","3","3","3","3","3","3","4","2","4","4","3","3","4","4","3","5","4","3","4","5","2","2","3","3","3","2","2","1","2","1","0","1","1","0","0","1","1","0","1","1","0","1","0","1","4","3","2","2","3","1","2","3","4","1","3","796359969116135425","李","654","","","","","","","","","","","","","","","","","","","true","2","2","ability","484","positive","全能","","","","","","","","","","","","","","","","",""
"null","","null","html-keyboard-response","56","230798","0.0-6.0-0.0-4.0-0.11","3","3","3","3","3","3","4","2","4","4","3","3","4","4","3","5","4","3","4","5","2","2","3","3","3","2","2","1","2","1","0","1","1","0","0","1","1","0","1","1","0","1","0","1","4","3","2","2","3","1","2","3","4","1","3","796359969116135425","李","654","","","","","","","","","","","","","","","","","","","","","","","","","","","","","","","","","","","","","","","","","",""
"573","<p style=""color:white; font-size: 35px;"">无能</p>","i","categorize-html","57","231372","0.0-6.0-0.0-4.0-1.11","3","3","3","3","3","3","4","2","4","4","3","3","4","4","3","5","4","3","4","5","2","2","3","3","3","2","2","1","2","1","0","1","1","0","0","1","1","0","1","1","0","1","0","1","4","3","2","2","3","1","2","3","4","1","3","796359969116135425","李","654","","","","","","","","","","","","","","","","","","","true","2","2","ability","573","negative","无能","","","","","","","","","","","","","","","","",""
"16258","
    <div class=""tag-bottom""><p>
    —— 任务3：对“他人/积极”词和“自我/消极”词分类 ——<p/>
    <span style=""color:#78DCE8""><b>注意上方，之前的四类词语将混合在一起交替呈现</b></span><p/>
    <span style=""color:#FFD866""><b>请根据上方标签的提示，尽可能正确并且快速地做出按键反应</b></span><p/>
    当按键错误时屏幕中会出现<span style=""color:red""> X </span>，需要按另一个键纠正才能继续<br/><p/>
    请把双手食指分别放在键盘的“E”键和“I”键上<p/>
    按<空格键>开始
    </p></div>"," ","html-keyboard-response","58","247631","0.0-6.0-0.0-5.0","3","3","3","3","3","3","4","2","4","4","3","3","4","4","3","5","4","3","4","5","2","2","3","3","3","2","2","1","2","1","0","1","1","0","0","1","1","0","1","1","0","1","0","1","4","3","2","2","3","1","2","3","4","1","3","796359969116135425","李","654","","","","","","","","","","","","","","","","","","","","","","","","","","","","","","","","","","","","","","","","","",""
"null","","null","html-keyboard-response","59","247882","0.0-6.0-0.0-6.0-0.0","3","3","3","3","3","3","4","2","4","4","3","3","4","4","3","5","4","3","4","5","2","2","3","3","3","2","2","1","2","1","0","1","1","0","0","1","1","0","1","1","0","1","0","1","4","3","2","2","3","1","2","3","4","1","3","796359969116135425","李","654","","","","","","","","","","","","","","","","","","","","","","","","","","","","","","","","","","","","","","","","","",""
"1273","<p style=""color:rgb(150, 250, 100); font-size: 35px;"">别人的</p>","e","categorize-html","60","249157","0.0-6.0-0.0-6.0-1.0","3","3","3","3","3","3","4","2","4","4","3","3","4","4","3","5","4","3","4","5","2","2","3","3","3","2","2","1","2","1","0","1","1","0","0","1","1","0","1","1","0","1","0","1","4","3","2","2","3","1","2","3","4","1","3","796359969116135425","李","654","","","","","","","","","","","","","","","","","","","true","3","3","ability","1273","other","别人的","","","","","","","","","","","","","","","","",""
"null","","null","html-keyboard-response","61","249407","0.0-6.0-0.0-6.0-0.1","3","3","3","3","3","3","4","2","4","4","3","3","4","4","3","5","4","3","4","5","2","2","3","3","3","2","2","1","2","1","0","1","1","0","0","1","1","0","1","1","0","1","0","1","4","3","2","2","3","1","2","3","4","1","3","796359969116135425","李","654","","","","","","","","","","","","","","","","","","","","","","","","","","","","","","","","","","","","","","","","","",""
"672","<p style=""color:white; font-size: 35px;"">精干</p>","e","categorize-html","62","250081","0.0-6.0-0.0-6.0-1.1","3","3","3","3","3","3","4","2","4","4","3","3","4","4","3","5","4","3","4","5","2","2","3","3","3","2","2","1","2","1","0","1","1","0","0","1","1","0","1","1","0","1","0","1","4","3","2","2","3","1","2","3","4","1","3","796359969116135425","李","654","","","","","","","","","","","","","","","","","","","true","3","3","ability","672","positive","精干","","","","","","","","","","","","","","","","",""
"null","","null","html-keyboard-response","63","250332","0.0-6.0-0.0-6.0-0.2","3","3","3","3","3","3","4","2","4","4","3","3","4","4","3","5","4","3","4","5","2","2","3","3","3","2","2","1","2","1","0","1","1","0","0","1","1","0","1","1","0","1","0","1","4","3","2","2","3","1","2","3","4","1","3","796359969116135425","李","654","","","","","","","","","","","","","","","","","","","","","","","","","","","","","","","","","","","","","","","","","",""
"550","<p style=""color:rgb(150, 250, 100); font-size: 35px;"">我</p>","i","categorize-html","64","250883","0.0-6.0-0.0-6.0-1.2","3","3","3","3","3","3","4","2","4","4","3","3","4","4","3","5","4","3","4","5","2","2","3","3","3","2","2","1","2","1","0","1","1","0","0","1","1","0","1","1","0","1","0","1","4","3","2","2","3","1","2","3","4","1","3","796359969116135425","李","654","","","","","","","","","","","","","","","","","","","true","3","3","ability","550","self","我","","","","","","","","","","","","","","","","",""
"null","","null","html-keyboard-response","65","251134","0.0-6.0-0.0-6.0-0.3","3","3","3","3","3","3","4","2","4","4","3","3","4","4","3","5","4","3","4","5","2","2","3","3","3","2","2","1","2","1","0","1","1","0","0","1","1","0","1","1","0","1","0","1","4","3","2","2","3","1","2","3","4","1","3","796359969116135425","李","654","","","","","","","","","","","","","","","","","","","","","","","","","","","","","","","","","","","","","","","","","",""
"523","<p style=""color:white; font-size: 35px;"">低能</p>","i","categorize-html","66","251658","0.0-6.0-0.0-6.0-1.3","3","3","3","3","3","3","4","2","4","4","3","3","4","4","3","5","4","3","4","5","2","2","3","3","3","2","2","1","2","1","0","1","1","0","0","1","1","0","1","1","0","1","0","1","4","3","2","2","3","1","2","3","4","1","3","796359969116135425","李","654","","","","","","","","","","","","","","","","","","","true","3","3","ability","523","negative","低能","","","","","","","","","","","","","","","","",""
"null","","null","html-keyboard-response","67","251910","0.0-6.0-0.0-6.0-0.4","3","3","3","3","3","3","4","2","4","4","3","3","4","4","3","5","4","3","4","5","2","2","3","3","3","2","2","1","2","1","0","1","1","0","0","1","1","0","1","1","0","1","0","1","4","3","2","2","3","1","2","3","4","1","3","796359969116135425","李","654","","","","","","","","","","","","","","","","","","","","","","","","","","","","","","","","","","","","","","","","","",""
"695","<p style=""color:rgb(150, 250, 100); font-size: 35px;"">本人</p>","i","categorize-html","68","252606","0.0-6.0-0.0-6.0-1.4","3","3","3","3","3","3","4","2","4","4","3","3","4","4","3","5","4","3","4","5","2","2","3","3","3","2","2","1","2","1","0","1","1","0","0","1","1","0","1","1","0","1","0","1","4","3","2","2","3","1","2","3","4","1","3","796359969116135425","李","654","","","","","","","","","","","","","","","","","","","true","3","3","ability","695","self","本人","","","","","","","","","","","","","","","","",""
"null","","null","html-keyboard-response","69","252857","0.0-6.0-0.0-6.0-0.5","3","3","3","3","3","3","4","2","4","4","3","3","4","4","3","5","4","3","4","5","2","2","3","3","3","2","2","1","2","1","0","1","1","0","0","1","1","0","1","1","0","1","0","1","4","3","2","2","3","1","2","3","4","1","3","796359969116135425","李","654","","","","","","","","","","","","","","","","","","","","","","","","","","","","","","","","","","","","","","","","","",""
"1249","<p style=""color:white; font-size: 35px;"">高效</p>","e","categorize-html","70","254107","0.0-6.0-0.0-6.0-1.5","3","3","3","3","3","3","4","2","4","4","3","3","4","4","3","5","4","3","4","5","2","2","3","3","3","2","2","1","2","1","0","1","1","0","0","1","1","0","1","1","0","1","0","1","4","3","2","2","3","1","2","3","4","1","3","796359969116135425","李","654","","","","","","","","","","","","","","","","","","","true","3","3","ability","1249","positive","高效","","","","","","","","","","","","","","","","",""
"null","","null","html-keyboard-response","71","254358","0.0-6.0-0.0-6.0-0.6","3","3","3","3","3","3","4","2","4","4","3","3","4","4","3","5","4","3","4","5","2","2","3","3","3","2","2","1","2","1","0","1","1","0","0","1","1","0","1","1","0","1","0","1","4","3","2","2","3","1","2","3","4","1","3","796359969116135425","李","654","","","","","","","","","","","","","","","","","","","","","","","","","","","","","","","","","","","","","","","","","",""
"403","<p style=""color:rgb(150, 250, 100); font-size: 35px;"">别人</p>","e","categorize-html","72","254762","0.0-6.0-0.0-6.0-1.6","3","3","3","3","3","3","4","2","4","4","3","3","4","4","3","5","4","3","4","5","2","2","3","3","3","2","2","1","2","1","0","1","1","0","0","1","1","0","1","1","0","1","0","1","4","3","2","2","3","1","2","3","4","1","3","796359969116135425","李","654","","","","","","","","","","","","","","","","","","","true","3","3","ability","403","other","别人","","","","","","","","","","","","","","","","",""
"null","","null","html-keyboard-response","73","255014","0.0-6.0-0.0-6.0-0.7","3","3","3","3","3","3","4","2","4","4","3","3","4","4","3","5","4","3","4","5","2","2","3","3","3","2","2","1","2","1","0","1","1","0","0","1","1","0","1","1","0","1","0","1","4","3","2","2","3","1","2","3","4","1","3","796359969116135425","李","654","","","","","","","","","","","","","","","","","","","","","","","","","","","","","","","","","","","","","","","","","",""
"528","<p style=""color:white; font-size: 35px;"">拙笨</p>","i","categorize-html","74","255542","0.0-6.0-0.0-6.0-1.7","3","3","3","3","3","3","4","2","4","4","3","3","4","4","3","5","4","3","4","5","2","2","3","3","3","2","2","1","2","1","0","1","1","0","0","1","1","0","1","1","0","1","0","1","4","3","2","2","3","1","2","3","4","1","3","796359969116135425","李","654","","","","","","","","","","","","","","","","","","","true","3","3","ability","528","negative","拙笨","","","","","","","","","","","","","","","","",""
"null","","null","html-keyboard-response","75","255793","0.0-6.0-0.0-6.0-0.8","3","3","3","3","3","3","4","2","4","4","3","3","4","4","3","5","4","3","4","5","2","2","3","3","3","2","2","1","2","1","0","1","1","0","0","1","1","0","1","1","0","1","0","1","4","3","2","2","3","1","2","3","4","1","3","796359969116135425","李","654","","","","","","","","","","","","","","","","","","","","","","","","","","","","","","","","","","","","","","","","","",""
"609","<p style=""color:rgb(150, 250, 100); font-size: 35px;"">自己</p>","i","categorize-html","76","256403","0.0-6.0-0.0-6.0-1.8","3","3","3","3","3","3","4","2","4","4","3","3","4","4","3","5","4","3","4","5","2","2","3","3","3","2","2","1","2","1","0","1","1","0","0","1","1","0","1","1","0","1","0","1","4","3","2","2","3","1","2","3","4","1","3","796359969116135425","李","654","","","","","","","","","","","","","","","","","","","true","3","3","ability","609","self","自己","","","","","","","","","","","","","","","","",""
"null","","null","html-keyboard-response","77","256655","0.0-6.0-0.0-6.0-0.9","3","3","3","3","3","3","4","2","4","4","3","3","4","4","3","5","4","3","4","5","2","2","3","3","3","2","2","1","2","1","0","1","1","0","0","1","1","0","1","1","0","1","0","1","4","3","2","2","3","1","2","3","4","1","3","796359969116135425","李","654","","","","","","","","","","","","","","","","","","","","","","","","","","","","","","","","","","","","","","","","","",""
"606","<p style=""color:white; font-size: 35px;"">全才</p>","e","categorize-html","78","257262","0.0-6.0-0.0-6.0-1.9","3","3","3","3","3","3","4","2","4","4","3","3","4","4","3","5","4","3","4","5","2","2","3","3","3","2","2","1","2","1","0","1","1","0","0","1","1","0","1","1","0","1","0","1","4","3","2","2","3","1","2","3","4","1","3","796359969116135425","李","654","","","","","","","","","","","","","","","","","","","true","3","3","ability","606","positive","全才","","","","","","","","","","","","","","","","",""
"null","","null","html-keyboard-response","79","257513","0.0-6.0-0.0-6.0-0.10","3","3","3","3","3","3","4","2","4","4","3","3","4","4","3","5","4","3","4","5","2","2","3","3","3","2","2","1","2","1","0","1","1","0","0","1","1","0","1","1","0","1","0","1","4","3","2","2","3","1","2","3","4","1","3","796359969116135425","李","654","","","","","","","","","","","","","","","","","","","","","","","","","","","","","","","","","","","","","","","","","",""
"368","<p style=""color:rgb(150, 250, 100); font-size: 35px;"">他人的</p>","e","categorize-html","80","257883","0.0-6.0-0.0-6.0-1.10","3","3","3","3","3","3","4","2","4","4","3","3","4","4","3","5","4","3","4","5","2","2","3","3","3","2","2","1","2","1","0","1","1","0","0","1","1","0","1","1","0","1","0","1","4","3","2","2","3","1","2","3","4","1","3","796359969116135425","李","654","","","","","","","","","","","","","","","","","","","true","3","3","ability","368","other","他人的","","","","","","","","","","","","","","","","",""
"null","","null","html-keyboard-response","81","258134","0.0-6.0-0.0-6.0-0.11","3","3","3","3","3","3","4","2","4","4","3","3","4","4","3","5","4","3","4","5","2","2","3","3","3","2","2","1","2","1","0","1","1","0","0","1","1","0","1","1","0","1","0","1","4","3","2","2","3","1","2","3","4","1","3","796359969116135425","李","654","","","","","","","","","","","","","","","","","","","","","","","","","","","","","","","","","","","","","","","","","",""
"580","<p style=""color:white; font-size: 35px;"">废物</p>","i","categorize-html","82","258715","0.0-6.0-0.0-6.0-1.11","3","3","3","3","3","3","4","2","4","4","3","3","4","4","3","5","4","3","4","5","2","2","3","3","3","2","2","1","2","1","0","1","1","0","0","1","1","0","1","1","0","1","0","1","4","3","2","2","3","1","2","3","4","1","3","796359969116135425","李","654","","","","","","","","","","","","","","","","","","","true","3","3","ability","580","negative","废物","","","","","","","","","","","","","","","","",""
"null","","null","html-keyboard-response","83","258966","0.0-6.0-0.0-6.0-0.12","3","3","3","3","3","3","4","2","4","4","3","3","4","4","3","5","4","3","4","5","2","2","3","3","3","2","2","1","2","1","0","1","1","0","0","1","1","0","1","1","0","1","0","1","4","3","2","2","3","1","2","3","4","1","3","796359969116135425","李","654","","","","","","","","","","","","","","","","","","","","","","","","","","","","","","","","","","","","","","","","","",""
"390","<p style=""color:rgb(150, 250, 100); font-size: 35px;"">他</p>","i","categorize-html","84","260390","0.0-6.0-0.0-6.0-1.12","3","3","3","3","3","3","4","2","4","4","3","3","4","4","3","5","4","3","4","5","2","2","3","3","3","2","2","1","2","1","0","1","1","0","0","1","1","0","1","1","0","1","0","1","4","3","2","2","3","1","2","3","4","1","3","796359969116135425","李","654","","","","","","","","","","","","","","","","","","","false","3","3","ability","1328.6363636363635","other","他","","","","","","","","","","","","","","","","",""
"null","","null","html-keyboard-response","85","260641","0.0-6.0-0.0-6.0-0.13","3","3","3","3","3","3","4","2","4","4","3","3","4","4","3","5","4","3","4","5","2","2","3","3","3","2","2","1","2","1","0","1","1","0","0","1","1","0","1","1","0","1","0","1","4","3","2","2","3","1","2","3","4","1","3","796359969116135425","李","654","","","","","","","","","","","","","","","","","","","","","","","","","","","","","","","","","","","","","","","","","",""
"1424","<p style=""color:white; font-size: 35px;"">蠢笨</p>","i","categorize-html","86","262067","0.0-6.0-0.0-6.0-1.13","3","3","3","3","3","3","4","2","4","4","3","3","4","4","3","5","4","3","4","5","2","2","3","3","3","2","2","1","2","1","0","1","1","0","0","1","1","0","1","1","0","1","0","1","4","3","2","2","3","1","2","3","4","1","3","796359969116135425","李","654","","","","","","","","","","","","","","","","","","","true","3","3","ability","1424","negative","蠢笨","","","","","","","","","","","","","","","","",""
"null","","null","html-keyboard-response","87","262318","0.0-6.0-0.0-6.0-0.14","3","3","3","3","3","3","4","2","4","4","3","3","4","4","3","5","4","3","4","5","2","2","3","3","3","2","2","1","2","1","0","1","1","0","0","1","1","0","1","1","0","1","0","1","4","3","2","2","3","1","2","3","4","1","3","796359969116135425","李","654","","","","","","","","","","","","","","","","","","","","","","","","","","","","","","","","","","","","","","","","","",""
"518","<p style=""color:rgb(150, 250, 100); font-size: 35px;"">本人的</p>","i","categorize-html","88","262837","0.0-6.0-0.0-6.0-1.14","3","3","3","3","3","3","4","2","4","4","3","3","4","4","3","5","4","3","4","5","2","2","3","3","3","2","2","1","2","1","0","1","1","0","0","1","1","0","1","1","0","1","0","1","4","3","2","2","3","1","2","3","4","1","3","796359969116135425","李","654","","","","","","","","","","","","","","","","","","","true","3","3","ability","518","self","本人的","","","","","","","","","","","","","","","","",""
"null","","null","html-keyboard-response","89","263089","0.0-6.0-0.0-6.0-0.15","3","3","3","3","3","3","4","2","4","4","3","3","4","4","3","5","4","3","4","5","2","2","3","3","3","2","2","1","2","1","0","1","1","0","0","1","1","0","1","1","0","1","0","1","4","3","2","2","3","1","2","3","4","1","3","796359969116135425","李","654","","","","","","","","","","","","","","","","","","","","","","","","","","","","","","","","","","","","","","","","","",""
"549","<p style=""color:white; font-size: 35px;"">天才</p>","e","categorize-html","90","263640","0.0-6.0-0.0-6.0-1.15","3","3","3","3","3","3","4","2","4","4","3","3","4","4","3","5","4","3","4","5","2","2","3","3","3","2","2","1","2","1","0","1","1","0","0","1","1","0","1","1","0","1","0","1","4","3","2","2","3","1","2","3","4","1","3","796359969116135425","李","654","","","","","","","","","","","","","","","","","","","true","3","3","ability","549","positive","天才","","","","","","","","","","","","","","","","",""
"null","","null","html-keyboard-response","91","263891","0.0-6.0-0.0-6.0-0.16","3","3","3","3","3","3","4","2","4","4","3","3","4","4","3","5","4","3","4","5","2","2","3","3","3","2","2","1","2","1","0","1","1","0","0","1","1","0","1","1","0","1","0","1","4","3","2","2","3","1","2","3","4","1","3","796359969116135425","李","654","","","","","","","","","","","","","","","","","","","","","","","","","","","","","","","","","","","","","","","","","",""
"912","<p style=""color:rgb(150, 250, 100); font-size: 35px;"">自己的</p>","i","categorize-html","92","264805","0.0-6.0-0.0-6.0-1.16","3","3","3","3","3","3","4","2","4","4","3","3","4","4","3","5","4","3","4","5","2","2","3","3","3","2","2","1","2","1","0","1","1","0","0","1","1","0","1","1","0","1","0","1","4","3","2","2","3","1","2","3","4","1","3","796359969116135425","李","654","","","","","","","","","","","","","","","","","","","true","3","3","ability","912","self","自己的","","","","","","","","","","","","","","","","",""
"null","","null","html-keyboard-response","93","265057","0.0-6.0-0.0-6.0-0.17","3","3","3","3","3","3","4","2","4","4","3","3","4","4","3","5","4","3","4","5","2","2","3","3","3","2","2","1","2","1","0","1","1","0","0","1","1","0","1","1","0","1","0","1","4","3","2","2","3","1","2","3","4","1","3","796359969116135425","李","654","","","","","","","","","","","","","","","","","","","","","","","","","","","","","","","","","","","","","","","","","",""
"740","<p style=""color:white; font-size: 35px;"">全能</p>","e","categorize-html","94","265798","0.0-6.0-0.0-6.0-1.17","3","3","3","3","3","3","4","2","4","4","3","3","4","4","3","5","4","3","4","5","2","2","3","3","3","2","2","1","2","1","0","1","1","0","0","1","1","0","1","1","0","1","0","1","4","3","2","2","3","1","2","3","4","1","3","796359969116135425","李","654","","","","","","","","","","","","","","","","","","","true","3","3","ability","740","positive","全能","","","","","","","","","","","","","","","","",""
"null","","null","html-keyboard-response","95","266048","0.0-6.0-0.0-6.0-0.18","3","3","3","3","3","3","4","2","4","4","3","3","4","4","3","5","4","3","4","5","2","2","3","3","3","2","2","1","2","1","0","1","1","0","0","1","1","0","1","1","0","1","0","1","4","3","2","2","3","1","2","3","4","1","3","796359969116135425","李","654","","","","","","","","","","","","","","","","","","","","","","","","","","","","","","","","","","","","","","","","","",""
"580","<p style=""color:rgb(150, 250, 100); font-size: 35px;"">他的</p>","e","categorize-html","96","266629","0.0-6.0-0.0-6.0-1.18","3","3","3","3","3","3","4","2","4","4","3","3","4","4","3","5","4","3","4","5","2","2","3","3","3","2","2","1","2","1","0","1","1","0","0","1","1","0","1","1","0","1","0","1","4","3","2","2","3","1","2","3","4","1","3","796359969116135425","李","654","","","","","","","","","","","","","","","","","","","true","3","3","ability","580","other","他的","","","","","","","","","","","","","","","","",""
"null","","null","html-keyboard-response","97","266880","0.0-6.0-0.0-6.0-0.19","3","3","3","3","3","3","4","2","4","4","3","3","4","4","3","5","4","3","4","5","2","2","3","3","3","2","2","1","2","1","0","1","1","0","0","1","1","0","1","1","0","1","0","1","4","3","2","2","3","1","2","3","4","1","3","796359969116135425","李","654","","","","","","","","","","","","","","","","","","","","","","","","","","","","","","","","","","","","","","","","","",""
"608","<p style=""color:white; font-size: 35px;"">无能</p>","i","categorize-html","98","267490","0.0-6.0-0.0-6.0-1.19","3","3","3","3","3","3","4","2","4","4","3","3","4","4","3","5","4","3","4","5","2","2","3","3","3","2","2","1","2","1","0","1","1","0","0","1","1","0","1","1","0","1","0","1","4","3","2","2","3","1","2","3","4","1","3","796359969116135425","李","654","","","","","","","","","","","","","","","","","","","true","3","3","ability","608","negative","无能","","","","","","","","","","","","","","","","",""
"null","","null","html-keyboard-response","99","267741","0.0-6.0-0.0-6.0-0.20","3","3","3","3","3","3","4","2","4","4","3","3","4","4","3","5","4","3","4","5","2","2","3","3","3","2","2","1","2","1","0","1","1","0","0","1","1","0","1","1","0","1","0","1","4","3","2","2","3","1","2","3","4","1","3","796359969116135425","李","654","","","","","","","","","","","","","","","","","","","","","","","","","","","","","","","","","","","","","","","","","",""
"372","<p style=""color:rgb(150, 250, 100); font-size: 35px;"">他人</p>","i","categorize-html","100","268788","0.0-6.0-0.0-6.0-1.20","3","3","3","3","3","3","4","2","4","4","3","3","4","4","3","5","4","3","4","5","2","2","3","3","3","2","2","1","2","1","0","1","1","0","0","1","1","0","1","1","0","1","0","1","4","3","2","2","3","1","2","3","4","1","3","796359969116135425","李","654","","","","","","","","","","","","","","","","","","","false","3","3","ability","1328.6363636363635","other","他人","","","","","","","","","","","","","","","","",""
"null","","null","html-keyboard-response","101","269040","0.0-6.0-0.0-6.0-0.21","3","3","3","3","3","3","4","2","4","4","3","3","4","4","3","5","4","3","4","5","2","2","3","3","3","2","2","1","2","1","0","1","1","0","0","1","1","0","1","1","0","1","0","1","4","3","2","2","3","1","2","3","4","1","3","796359969116135425","李","654","","","","","","","","","","","","","","","","","","","","","","","","","","","","","","","","","","","","","","","","","",""
"1513","<p style=""color:white; font-size: 35px;"">愚钝</p>","i","categorize-html","102","270555","0.0-6.0-0.0-6.0-1.21","3","3","3","3","3","3","4","2","4","4","3","3","4","4","3","5","4","3","4","5","2","2","3","3","3","2","2","1","2","1","0","1","1","0","0","1","1","0","1","1","0","1","0","1","4","3","2","2","3","1","2","3","4","1","3","796359969116135425","李","654","","","","","","","","","","","","","","","","","","","true","3","3","ability","1513","negative","愚钝","","","","","","","","","","","","","","","","",""
"null","","null","html-keyboard-response","103","270806","0.0-6.0-0.0-6.0-0.22","3","3","3","3","3","3","4","2","4","4","3","3","4","4","3","5","4","3","4","5","2","2","3","3","3","2","2","1","2","1","0","1","1","0","0","1","1","0","1","1","0","1","0","1","4","3","2","2","3","1","2","3","4","1","3","796359969116135425","李","654","","","","","","","","","","","","","","","","","","","","","","","","","","","","","","","","","","","","","","","","","",""
"522","<p style=""color:rgb(150, 250, 100); font-size: 35px;"">我的</p>","i","categorize-html","104","271330","0.0-6.0-0.0-6.0-1.22","3","3","3","3","3","3","4","2","4","4","3","3","4","4","3","5","4","3","4","5","2","2","3","3","3","2","2","1","2","1","0","1","1","0","0","1","1","0","1","1","0","1","0","1","4","3","2","2","3","1","2","3","4","1","3","796359969116135425","李","654","","","","","","","","","","","","","","","","","","","true","3","3","ability","522","self","我的","","","","","","","","","","","","","","","","",""
"null","","null","html-keyboard-response","105","271580","0.0-6.0-0.0-6.0-0.23","3","3","3","3","3","3","4","2","4","4","3","3","4","4","3","5","4","3","4","5","2","2","3","3","3","2","2","1","2","1","0","1","1","0","0","1","1","0","1","1","0","1","0","1","4","3","2","2","3","1","2","3","4","1","3","796359969116135425","李","654","","","","","","","","","","","","","","","","","","","","","","","","","","","","","","","","","","","","","","","","","",""
"608","<p style=""color:white; font-size: 35px;"">能干</p>","e","categorize-html","106","272190","0.0-6.0-0.0-6.0-1.23","3","3","3","3","3","3","4","2","4","4","3","3","4","4","3","5","4","3","4","5","2","2","3","3","3","2","2","1","2","1","0","1","1","0","0","1","1","0","1","1","0","1","0","1","4","3","2","2","3","1","2","3","4","1","3","796359969116135425","李","654","","","","","","","","","","","","","","","","","","","true","3","3","ability","608","positive","能干","","","","","","","","","","","","","","","","",""
"13224","
    <div class=""tag-bottom""><p>
    —— 任务4：对“他人/积极”词和“自我/消极”词分类 ——<p/>
    <span style=""color:#78DCE8""><b>与刚才的任务完全相同，请再次对这四类词语分类</b></span><p/>
    <span style=""color:#FFD866""><b>请根据上方标签的提示，尽可能正确并且快速地做出按键反应</b></span><p/>
    当按键错误时屏幕中会出现<span style=""color:red""> X </span>，需要按另一个键纠正才能继续<br/><p/>
    请把双手食指分别放在键盘的“E”键和“I”键上<p/>
    按<空格键>开始
    </p></div>"," ","html-keyboard-response","107","285414","0.0-6.0-0.0-7.0","3","3","3","3","3","3","4","2","4","4","3","3","4","4","3","5","4","3","4","5","2","2","3","3","3","2","2","1","2","1","0","1","1","0","0","1","1","0","1","1","0","1","0","1","4","3","2","2","3","1","2","3","4","1","3","796359969116135425","李","654","","","","","","","","","","","","","","","","","","","","","","","","","","","","","","","","","","","","","","","","","",""
"null","","null","html-keyboard-response","108","285664","0.0-6.0-0.0-8.0-0.0","3","3","3","3","3","3","4","2","4","4","3","3","4","4","3","5","4","3","4","5","2","2","3","3","3","2","2","1","2","1","0","1","1","0","0","1","1","0","1","1","0","1","0","1","4","3","2","2","3","1","2","3","4","1","3","796359969116135425","李","654","","","","","","","","","","","","","","","","","","","","","","","","","","","","","","","","","","","","","","","","","",""
"883","<p style=""color:rgb(150, 250, 100); font-size: 35px;"">他人的</p>","e","categorize-html","109","286549","0.0-6.0-0.0-8.0-1.0","3","3","3","3","3","3","4","2","4","4","3","3","4","4","3","5","4","3","4","5","2","2","3","3","3","2","2","1","2","1","0","1","1","0","0","1","1","0","1","1","0","1","0","1","4","3","2","2","3","1","2","3","4","1","3","796359969116135425","李","654","","","","","","","","","","","","","","","","","","","true","4","4","ability","883","other","他人的","","","","","","","","","","","","","","","","",""
"null","","null","html-keyboard-response","110","286800","0.0-6.0-0.0-8.0-0.1","3","3","3","3","3","3","4","2","4","4","3","3","4","4","3","5","4","3","4","5","2","2","3","3","3","2","2","1","2","1","0","1","1","0","0","1","1","0","1","1","0","1","0","1","4","3","2","2","3","1","2","3","4","1","3","796359969116135425","李","654","","","","","","","","","","","","","","","","","","","","","","","","","","","","","","","","","","","","","","","","","",""
"989","<p style=""color:white; font-size: 35px;"">低能</p>","i","categorize-html","111","287791","0.0-6.0-0.0-8.0-1.1","3","3","3","3","3","3","4","2","4","4","3","3","4","4","3","5","4","3","4","5","2","2","3","3","3","2","2","1","2","1","0","1","1","0","0","1","1","0","1","1","0","1","0","1","4","3","2","2","3","1","2","3","4","1","3","796359969116135425","李","654","","","","","","","","","","","","","","","","","","","true","4","4","ability","989","negative","低能","","","","","","","","","","","","","","","","",""
"null","","null","html-keyboard-response","112","288041","0.0-6.0-0.0-8.0-0.2","3","3","3","3","3","3","4","2","4","4","3","3","4","4","3","5","4","3","4","5","2","2","3","3","3","2","2","1","2","1","0","1","1","0","0","1","1","0","1","1","0","1","0","1","4","3","2","2","3","1","2","3","4","1","3","796359969116135425","李","654","","","","","","","","","","","","","","","","","","","","","","","","","","","","","","","","","","","","","","","","","",""
"552","<p style=""color:rgb(150, 250, 100); font-size: 35px;"">我的</p>","i","categorize-html","113","288594","0.0-6.0-0.0-8.0-1.2","3","3","3","3","3","3","4","2","4","4","3","3","4","4","3","5","4","3","4","5","2","2","3","3","3","2","2","1","2","1","0","1","1","0","0","1","1","0","1","1","0","1","0","1","4","3","2","2","3","1","2","3","4","1","3","796359969116135425","李","654","","","","","","","","","","","","","","","","","","","true","4","4","ability","552","self","我的","","","","","","","","","","","","","","","","",""
"null","","null","html-keyboard-response","114","288845","0.0-6.0-0.0-8.0-0.3","3","3","3","3","3","3","4","2","4","4","3","3","4","4","3","5","4","3","4","5","2","2","3","3","3","2","2","1","2","1","0","1","1","0","0","1","1","0","1","1","0","1","0","1","4","3","2","2","3","1","2","3","4","1","3","796359969116135425","李","654","","","","","","","","","","","","","","","","","","","","","","","","","","","","","","","","","","","","","","","","","",""
"573","<p style=""color:white; font-size: 35px;"">能干</p>","e","categorize-html","115","289419","0.0-6.0-0.0-8.0-1.3","3","3","3","3","3","3","4","2","4","4","3","3","4","4","3","5","4","3","4","5","2","2","3","3","3","2","2","1","2","1","0","1","1","0","0","1","1","0","1","1","0","1","0","1","4","3","2","2","3","1","2","3","4","1","3","796359969116135425","李","654","","","","","","","","","","","","","","","","","","","true","4","4","ability","573","positive","能干","","","","","","","","","","","","","","","","",""
"null","","null","html-keyboard-response","116","289670","0.0-6.0-0.0-8.0-0.4","3","3","3","3","3","3","4","2","4","4","3","3","4","4","3","5","4","3","4","5","2","2","3","3","3","2","2","1","2","1","0","1","1","0","0","1","1","0","1","1","0","1","0","1","4","3","2","2","3","1","2","3","4","1","3","796359969116135425","李","654","","","","","","","","","","","","","","","","","","","","","","","","","","","","","","","","","","","","","","","","","",""
"609","<p style=""color:rgb(150, 250, 100); font-size: 35px;"">他的</p>","e","categorize-html","117","290280","0.0-6.0-0.0-8.0-1.4","3","3","3","3","3","3","4","2","4","4","3","3","4","4","3","5","4","3","4","5","2","2","3","3","3","2","2","1","2","1","0","1","1","0","0","1","1","0","1","1","0","1","0","1","4","3","2","2","3","1","2","3","4","1","3","796359969116135425","李","654","","","","","","","","","","","","","","","","","","","true","4","4","ability","609","other","他的","","","","","","","","","","","","","","","","",""
"null","","null","html-keyboard-response","118","290532","0.0-6.0-0.0-8.0-0.5","3","3","3","3","3","3","4","2","4","4","3","3","4","4","3","5","4","3","4","5","2","2","3","3","3","2","2","1","2","1","0","1","1","0","0","1","1","0","1","1","0","1","0","1","4","3","2","2","3","1","2","3","4","1","3","796359969116135425","李","654","","","","","","","","","","","","","","","","","","","","","","","","","","","","","","","","","","","","","","","","","",""
"568","<p style=""color:white; font-size: 35px;"">高效</p>","e","categorize-html","119","291102","0.0-6.0-0.0-8.0-1.5","3","3","3","3","3","3","4","2","4","4","3","3","4","4","3","5","4","3","4","5","2","2","3","3","3","2","2","1","2","1","0","1","1","0","0","1","1","0","1","1","0","1","0","1","4","3","2","2","3","1","2","3","4","1","3","796359969116135425","李","654","","","","","","","","","","","","","","","","","","","true","4","4","ability","568","positive","高效","","","","","","","","","","","","","","","","",""
"null","","null","html-keyboard-response","120","291353","0.0-6.0-0.0-8.0-0.6","3","3","3","3","3","3","4","2","4","4","3","3","4","4","3","5","4","3","4","5","2","2","3","3","3","2","2","1","2","1","0","1","1","0","0","1","1","0","1","1","0","1","0","1","4","3","2","2","3","1","2","3","4","1","3","796359969116135425","李","654","","","","","","","","","","","","","","","","","","","","","","","","","","","","","","","","","","","","","","","","","",""
"813","<p style=""color:rgb(150, 250, 100); font-size: 35px;"">我</p>","i","categorize-html","121","292167","0.0-6.0-0.0-8.0-1.6","3","3","3","3","3","3","4","2","4","4","3","3","4","4","3","5","4","3","4","5","2","2","3","3","3","2","2","1","2","1","0","1","1","0","0","1","1","0","1","1","0","1","0","1","4","3","2","2","3","1","2","3","4","1","3","796359969116135425","李","654","","","","","","","","","","","","","","","","","","","true","4","4","ability","813","self","我","","","","","","","","","","","","","","","","",""
"null","","null","html-keyboard-response","122","292418","0.0-6.0-0.0-8.0-0.7","3","3","3","3","3","3","4","2","4","4","3","3","4","4","3","5","4","3","4","5","2","2","3","3","3","2","2","1","2","1","0","1","1","0","0","1","1","0","1","1","0","1","0","1","4","3","2","2","3","1","2","3","4","1","3","796359969116135425","李","654","","","","","","","","","","","","","","","","","","","","","","","","","","","","","","","","","","","","","","","","","",""
"496","<p style=""color:white; font-size: 35px;"">拙笨</p>","i","categorize-html","123","292915","0.0-6.0-0.0-8.0-1.7","3","3","3","3","3","3","4","2","4","4","3","3","4","4","3","5","4","3","4","5","2","2","3","3","3","2","2","1","2","1","0","1","1","0","0","1","1","0","1","1","0","1","0","1","4","3","2","2","3","1","2","3","4","1","3","796359969116135425","李","654","","","","","","","","","","","","","","","","","","","true","4","4","ability","496","negative","拙笨","","","","","","","","","","","","","","","","",""
"null","","null","html-keyboard-response","124","293165","0.0-6.0-0.0-8.0-0.8","3","3","3","3","3","3","4","2","4","4","3","3","4","4","3","5","4","3","4","5","2","2","3","3","3","2","2","1","2","1","0","1","1","0","0","1","1","0","1","1","0","1","0","1","4","3","2","2","3","1","2","3","4","1","3","796359969116135425","李","654","","","","","","","","","","","","","","","","","","","","","","","","","","","","","","","","","","","","","","","","","",""
"705","<p style=""color:rgb(150, 250, 100); font-size: 35px;"">本人的</p>","i","categorize-html","125","293871","0.0-6.0-0.0-8.0-1.8","3","3","3","3","3","3","4","2","4","4","3","3","4","4","3","5","4","3","4","5","2","2","3","3","3","2","2","1","2","1","0","1","1","0","0","1","1","0","1","1","0","1","0","1","4","3","2","2","3","1","2","3","4","1","3","796359969116135425","李","654","","","","","","","","","","","","","","","","","","","true","4","4","ability","705","self","本人的","","","","","","","","","","","","","","","","",""
"null","","null","html-keyboard-response","126","294122","0.0-6.0-0.0-8.0-0.9","3","3","3","3","3","3","4","2","4","4","3","3","4","4","3","5","4","3","4","5","2","2","3","3","3","2","2","1","2","1","0","1","1","0","0","1","1","0","1","1","0","1","0","1","4","3","2","2","3","1","2","3","4","1","3","796359969116135425","李","654","","","","","","","","","","","","","","","","","","","","","","","","","","","","","","","","","","","","","","","","","",""
"566","<p style=""color:white; font-size: 35px;"">蠢笨</p>","i","categorize-html","127","294690","0.0-6.0-0.0-8.0-1.9","3","3","3","3","3","3","4","2","4","4","3","3","4","4","3","5","4","3","4","5","2","2","3","3","3","2","2","1","2","1","0","1","1","0","0","1","1","0","1","1","0","1","0","1","4","3","2","2","3","1","2","3","4","1","3","796359969116135425","李","654","","","","","","","","","","","","","","","","","","","true","4","4","ability","566","negative","蠢笨","","","","","","","","","","","","","","","","",""
"null","","null","html-keyboard-response","128","294941","0.0-6.0-0.0-8.0-0.10","3","3","3","3","3","3","4","2","4","4","3","3","4","4","3","5","4","3","4","5","2","2","3","3","3","2","2","1","2","1","0","1","1","0","0","1","1","0","1","1","0","1","0","1","4","3","2","2","3","1","2","3","4","1","3","796359969116135425","李","654","","","","","","","","","","","","","","","","","","","","","","","","","","","","","","","","","","","","","","","","","",""
"616","<p style=""color:rgb(150, 250, 100); font-size: 35px;"">他人的</p>","e","categorize-html","129","295558","0.0-6.0-0.0-8.0-1.10","3","3","3","3","3","3","4","2","4","4","3","3","4","4","3","5","4","3","4","5","2","2","3","3","3","2","2","1","2","1","0","1","1","0","0","1","1","0","1","1","0","1","0","1","4","3","2","2","3","1","2","3","4","1","3","796359969116135425","李","654","","","","","","","","","","","","","","","","","","","true","4","4","ability","616","other","他人的","","","","","","","","","","","","","","","","",""
"null","","null","html-keyboard-response","130","295809","0.0-6.0-0.0-8.0-0.11","3","3","3","3","3","3","4","2","4","4","3","3","4","4","3","5","4","3","4","5","2","2","3","3","3","2","2","1","2","1","0","1","1","0","0","1","1","0","1","1","0","1","0","1","4","3","2","2","3","1","2","3","4","1","3","796359969116135425","李","654","","","","","","","","","","","","","","","","","","","","","","","","","","","","","","","","","","","","","","","","","",""
"572","<p style=""color:white; font-size: 35px;"">全能</p>","e","categorize-html","131","296382","0.0-6.0-0.0-8.0-1.11","3","3","3","3","3","3","4","2","4","4","3","3","4","4","3","5","4","3","4","5","2","2","3","3","3","2","2","1","2","1","0","1","1","0","0","1","1","0","1","1","0","1","0","1","4","3","2","2","3","1","2","3","4","1","3","796359969116135425","李","654","","","","","","","","","","","","","","","","","","","true","4","4","ability","572","positive","全能","","","","","","","","","","","","","","","","",""
"null","","null","html-keyboard-response","132","296633","0.0-6.0-0.0-8.0-0.12","3","3","3","3","3","3","4","2","4","4","3","3","4","4","3","5","4","3","4","5","2","2","3","3","3","2","2","1","2","1","0","1","1","0","0","1","1","0","1","1","0","1","0","1","4","3","2","2","3","1","2","3","4","1","3","796359969116135425","李","654","","","","","","","","","","","","","","","","","","","","","","","","","","","","","","","","","","","","","","","","","",""
"655","<p style=""color:rgb(150, 250, 100); font-size: 35px;"">本人</p>","i","categorize-html","133","297289","0.0-6.0-0.0-8.0-1.12","3","3","3","3","3","3","4","2","4","4","3","3","4","4","3","5","4","3","4","5","2","2","3","3","3","2","2","1","2","1","0","1","1","0","0","1","1","0","1","1","0","1","0","1","4","3","2","2","3","1","2","3","4","1","3","796359969116135425","李","654","","","","","","","","","","","","","","","","","","","true","4","4","ability","655","self","本人","","","","","","","","","","","","","","","","",""
"null","","null","html-keyboard-response","134","297540","0.0-6.0-0.0-8.0-0.13","3","3","3","3","3","3","4","2","4","4","3","3","4","4","3","5","4","3","4","5","2","2","3","3","3","2","2","1","2","1","0","1","1","0","0","1","1","0","1","1","0","1","0","1","4","3","2","2","3","1","2","3","4","1","3","796359969116135425","李","654","","","","","","","","","","","","","","","","","","","","","","","","","","","","","","","","","","","","","","","","","",""
"378","<p style=""color:white; font-size: 35px;"">蠢笨</p>","i","categorize-html","135","297920","0.0-6.0-0.0-8.0-1.13","3","3","3","3","3","3","4","2","4","4","3","3","4","4","3","5","4","3","4","5","2","2","3","3","3","2","2","1","2","1","0","1","1","0","0","1","1","0","1","1","0","1","0","1","4","3","2","2","3","1","2","3","4","1","3","796359969116135425","李","654","","","","","","","","","","","","","","","","","","","true","4","4","ability","378","negative","蠢笨","","","","","","","","","","","","","","","","",""
"null","","null","html-keyboard-response","136","298170","0.0-6.0-0.0-8.0-0.14","3","3","3","3","3","3","4","2","4","4","3","3","4","4","3","5","4","3","4","5","2","2","3","3","3","2","2","1","2","1","0","1","1","0","0","1","1","0","1","1","0","1","0","1","4","3","2","2","3","1","2","3","4","1","3","796359969116135425","李","654","","","","","","","","","","","","","","","","","","","","","","","","","","","","","","","","","","","","","","","","","",""
"804","<p style=""color:rgb(150, 250, 100); font-size: 35px;"">他</p>","e","categorize-html","137","298976","0.0-6.0-0.0-8.0-1.14","3","3","3","3","3","3","4","2","4","4","3","3","4","4","3","5","4","3","4","5","2","2","3","3","3","2","2","1","2","1","0","1","1","0","0","1","1","0","1","1","0","1","0","1","4","3","2","2","3","1","2","3","4","1","3","796359969116135425","李","654","","","","","","","","","","","","","","","","","","","true","4","4","ability","804","other","他","","","","","","","","","","","","","","","","",""
"null","","null","html-keyboard-response","138","299227","0.0-6.0-0.0-8.0-0.15","3","3","3","3","3","3","4","2","4","4","3","3","4","4","3","5","4","3","4","5","2","2","3","3","3","2","2","1","2","1","0","1","1","0","0","1","1","0","1","1","0","1","0","1","4","3","2","2","3","1","2","3","4","1","3","796359969116135425","李","654","","","","","","","","","","","","","","","","","","","","","","","","","","","","","","","","","","","","","","","","","",""
"520","<p style=""color:white; font-size: 35px;"">天才</p>","e","categorize-html","139","299749","0.0-6.0-0.0-8.0-1.15","3","3","3","3","3","3","4","2","4","4","3","3","4","4","3","5","4","3","4","5","2","2","3","3","3","2","2","1","2","1","0","1","1","0","0","1","1","0","1","1","0","1","0","1","4","3","2","2","3","1","2","3","4","1","3","796359969116135425","李","654","","","","","","","","","","","","","","","","","","","true","4","4","ability","520","positive","天才","","","","","","","","","","","","","","","","",""
"null","","null","html-keyboard-response","140","300000","0.0-6.0-0.0-8.0-0.16","3","3","3","3","3","3","4","2","4","4","3","3","4","4","3","5","4","3","4","5","2","2","3","3","3","2","2","1","2","1","0","1","1","0","0","1","1","0","1","1","0","1","0","1","4","3","2","2","3","1","2","3","4","1","3","796359969116135425","李","654","","","","","","","","","","","","","","","","","","","","","","","","","","","","","","","","","","","","","","","","","",""
"633","<p style=""color:rgb(150, 250, 100); font-size: 35px;"">他的</p>","e","categorize-html","141","300635","0.0-6.0-0.0-8.0-1.16","3","3","3","3","3","3","4","2","4","4","3","3","4","4","3","5","4","3","4","5","2","2","3","3","3","2","2","1","2","1","0","1","1","0","0","1","1","0","1","1","0","1","0","1","4","3","2","2","3","1","2","3","4","1","3","796359969116135425","李","654","","","","","","","","","","","","","","","","","","","true","4","4","ability","633","other","他的","","","","","","","","","","","","","","","","",""
"null","","null","html-keyboard-response","142","300885","0.0-6.0-0.0-8.0-0.17","3","3","3","3","3","3","4","2","4","4","3","3","4","4","3","5","4","3","4","5","2","2","3","3","3","2","2","1","2","1","0","1","1","0","0","1","1","0","1","1","0","1","0","1","4","3","2","2","3","1","2","3","4","1","3","796359969116135425","李","654","","","","","","","","","","","","","","","","","","","","","","","","","","","","","","","","","","","","","","","","","",""
"1411","<p style=""color:white; font-size: 35px;"">低能</p>","i","categorize-html","143","302298","0.0-6.0-0.0-8.0-1.17","3","3","3","3","3","3","4","2","4","4","3","3","4","4","3","5","4","3","4","5","2","2","3","3","3","2","2","1","2","1","0","1","1","0","0","1","1","0","1","1","0","1","0","1","4","3","2","2","3","1","2","3","4","1","3","796359969116135425","李","654","","","","","","","","","","","","","","","","","","","true","4","4","ability","1411","negative","低能","","","","","","","","","","","","","","","","",""
"null","","null","html-keyboard-response","144","302549","0.0-6.0-0.0-8.0-0.18","3","3","3","3","3","3","4","2","4","4","3","3","4","4","3","5","4","3","4","5","2","2","3","3","3","2","2","1","2","1","0","1","1","0","0","1","1","0","1","1","0","1","0","1","4","3","2","2","3","1","2","3","4","1","3","796359969116135425","李","654","","","","","","","","","","","","","","","","","","","","","","","","","","","","","","","","","","","","","","","","","",""
"1191","<p style=""color:rgb(150, 250, 100); font-size: 35px;"">自己</p>","i","categorize-html","145","303742","0.0-6.0-0.0-8.0-1.18","3","3","3","3","3","3","4","2","4","4","3","3","4","4","3","5","4","3","4","5","2","2","3","3","3","2","2","1","2","1","0","1","1","0","0","1","1","0","1","1","0","1","0","1","4","3","2","2","3","1","2","3","4","1","3","796359969116135425","李","654","","","","","","","","","","","","","","","","","","","true","4","4","ability","1191","self","自己","","","","","","","","","","","","","","","","",""
"null","","null","html-keyboard-response","146","303993","0.0-6.0-0.0-8.0-0.19","3","3","3","3","3","3","4","2","4","4","3","3","4","4","3","5","4","3","4","5","2","2","3","3","3","2","2","1","2","1","0","1","1","0","0","1","1","0","1","1","0","1","0","1","4","3","2","2","3","1","2","3","4","1","3","796359969116135425","李","654","","","","","","","","","","","","","","","","","","","","","","","","","","","","","","","","","","","","","","","","","",""
"832","<p style=""color:white; font-size: 35px;"">高效</p>","i","categorize-html","147","305381","0.0-6.0-0.0-8.0-1.19","3","3","3","3","3","3","4","2","4","4","3","3","4","4","3","5","4","3","4","5","2","2","3","3","3","2","2","1","2","1","0","1","1","0","0","1","1","0","1","1","0","1","0","1","4","3","2","2","3","1","2","3","4","1","3","796359969116135425","李","654","","","","","","","","","","","","","","","","","","","false","4","4","ability","1363.818181818182","positive","高效","","","","","","","","","","","","","","","","",""
"null","","null","html-keyboard-response","148","305632","0.0-6.0-0.0-8.0-0.20","3","3","3","3","3","3","4","2","4","4","3","3","4","4","3","5","4","3","4","5","2","2","3","3","3","2","2","1","2","1","0","1","1","0","0","1","1","0","1","1","0","1","0","1","4","3","2","2","3","1","2","3","4","1","3","796359969116135425","李","654","","","","","","","","","","","","","","","","","","","","","","","","","","","","","","","","","","","","","","","","","",""
"2053","<p style=""color:rgb(150, 250, 100); font-size: 35px;"">别人的</p>","e","categorize-html","149","307687","0.0-6.0-0.0-8.0-1.20","3","3","3","3","3","3","4","2","4","4","3","3","4","4","3","5","4","3","4","5","2","2","3","3","3","2","2","1","2","1","0","1","1","0","0","1","1","0","1","1","0","1","0","1","4","3","2","2","3","1","2","3","4","1","3","796359969116135425","李","654","","","","","","","","","","","","","","","","","","","true","4","4","ability","2053","other","别人的","","","","","","","","","","","","","","","","",""
"null","","null","html-keyboard-response","150","307938","0.0-6.0-0.0-8.0-0.21","3","3","3","3","3","3","4","2","4","4","3","3","4","4","3","5","4","3","4","5","2","2","3","3","3","2","2","1","2","1","0","1","1","0","0","1","1","0","1","1","0","1","0","1","4","3","2","2","3","1","2","3","4","1","3","796359969116135425","李","654","","","","","","","","","","","","","","","","","","","","","","","","","","","","","","","","","","","","","","","","","",""
"961","<p style=""color:white; font-size: 35px;"">无能</p>","i","categorize-html","151","308901","0.0-6.0-0.0-8.0-1.21","3","3","3","3","3","3","4","2","4","4","3","3","4","4","3","5","4","3","4","5","2","2","3","3","3","2","2","1","2","1","0","1","1","0","0","1","1","0","1","1","0","1","0","1","4","3","2","2","3","1","2","3","4","1","3","796359969116135425","李","654","","","","","","","","","","","","","","","","","","","true","4","4","ability","961","negative","无能","","","","","","","","","","","","","","","","",""
"null","","null","html-keyboard-response","152","309152","0.0-6.0-0.0-8.0-0.22","3","3","3","3","3","3","4","2","4","4","3","3","4","4","3","5","4","3","4","5","2","2","3","3","3","2","2","1","2","1","0","1","1","0","0","1","1","0","1","1","0","1","0","1","4","3","2","2","3","1","2","3","4","1","3","796359969116135425","李","654","","","","","","","","","","","","","","","","","","","","","","","","","","","","","","","","","","","","","","","","","",""
"544","<p style=""color:rgb(150, 250, 100); font-size: 35px;"">我</p>","i","categorize-html","153","309697","0.0-6.0-0.0-8.0-1.22","3","3","3","3","3","3","4","2","4","4","3","3","4","4","3","5","4","3","4","5","2","2","3","3","3","2","2","1","2","1","0","1","1","0","0","1","1","0","1","1","0","1","0","1","4","3","2","2","3","1","2","3","4","1","3","796359969116135425","李","654","","","","","","","","","","","","","","","","","","","true","4","4","ability","544","self","我","","","","","","","","","","","","","","","","",""
"null","","null","html-keyboard-response","154","309948","0.0-6.0-0.0-8.0-0.23","3","3","3","3","3","3","4","2","4","4","3","3","4","4","3","5","4","3","4","5","2","2","3","3","3","2","2","1","2","1","0","1","1","0","0","1","1","0","1","1","0","1","0","1","4","3","2","2","3","1","2","3","4","1","3","796359969116135425","李","654","","","","","","","","","","","","","","","","","","","","","","","","","","","","","","","","","","","","","","","","","",""
"1244","<p style=""color:white; font-size: 35px;"">精干</p>","e","categorize-html","155","311194","0.0-6.0-0.0-8.0-1.23","3","3","3","3","3","3","4","2","4","4","3","3","4","4","3","5","4","3","4","5","2","2","3","3","3","2","2","1","2","1","0","1","1","0","0","1","1","0","1","1","0","1","0","1","4","3","2","2","3","1","2","3","4","1","3","796359969116135425","李","654","","","","","","","","","","","","","","","","","","","true","4","4","ability","1244","positive","精干","","","","","","","","","","","","","","","","",""
"null","","null","html-keyboard-response","156","311445","0.0-6.0-0.0-8.0-0.24","3","3","3","3","3","3","4","2","4","4","3","3","4","4","3","5","4","3","4","5","2","2","3","3","3","2","2","1","2","1","0","1","1","0","0","1","1","0","1","1","0","1","0","1","4","3","2","2","3","1","2","3","4","1","3","796359969116135425","李","654","","","","","","","","","","","","","","","","","","","","","","","","","","","","","","","","","","","","","","","","","",""
"470","<p style=""color:rgb(150, 250, 100); font-size: 35px;"">别人</p>","e","categorize-html","157","311917","0.0-6.0-0.0-8.0-1.24","3","3","3","3","3","3","4","2","4","4","3","3","4","4","3","5","4","3","4","5","2","2","3","3","3","2","2","1","2","1","0","1","1","0","0","1","1","0","1","1","0","1","0","1","4","3","2","2","3","1","2","3","4","1","3","796359969116135425","李","654","","","","","","","","","","","","","","","","","","","true","4","4","ability","470","other","别人","","","","","","","","","","","","","","","","",""
"null","","null","html-keyboard-response","158","312168","0.0-6.0-0.0-8.0-0.25","3","3","3","3","3","3","4","2","4","4","3","3","4","4","3","5","4","3","4","5","2","2","3","3","3","2","2","1","2","1","0","1","1","0","0","1","1","0","1","1","0","1","0","1","4","3","2","2","3","1","2","3","4","1","3","796359969116135425","李","654","","","","","","","","","","","","","","","","","","","","","","","","","","","","","","","","","","","","","","","","","",""
"702","<p style=""color:white; font-size: 35px;"">愚钝</p>","i","categorize-html","159","312872","0.0-6.0-0.0-8.0-1.25","3","3","3","3","3","3","4","2","4","4","3","3","4","4","3","5","4","3","4","5","2","2","3","3","3","2","2","1","2","1","0","1","1","0","0","1","1","0","1","1","0","1","0","1","4","3","2","2","3","1","2","3","4","1","3","796359969116135425","李","654","","","","","","","","","","","","","","","","","","","true","4","4","ability","702","negative","愚钝","","","","","","","","","","","","","","","","",""
"null","","null","html-keyboard-response","160","313123","0.0-6.0-0.0-8.0-0.26","3","3","3","3","3","3","4","2","4","4","3","3","4","4","3","5","4","3","4","5","2","2","3","3","3","2","2","1","2","1","0","1","1","0","0","1","1","0","1","1","0","1","0","1","4","3","2","2","3","1","2","3","4","1","3","796359969116135425","李","654","","","","","","","","","","","","","","","","","","","","","","","","","","","","","","","","","","","","","","","","","",""
"693","<p style=""color:rgb(150, 250, 100); font-size: 35px;"">自己的</p>","i","categorize-html","161","313818","0.0-6.0-0.0-8.0-1.26","3","3","3","3","3","3","4","2","4","4","3","3","4","4","3","5","4","3","4","5","2","2","3","3","3","2","2","1","2","1","0","1","1","0","0","1","1","0","1","1","0","1","0","1","4","3","2","2","3","1","2","3","4","1","3","796359969116135425","李","654","","","","","","","","","","","","","","","","","","","true","4","4","ability","693","self","自己的","","","","","","","","","","","","","","","","",""
"null","","null","html-keyboard-response","162","314069","0.0-6.0-0.0-8.0-0.27","3","3","3","3","3","3","4","2","4","4","3","3","4","4","3","5","4","3","4","5","2","2","3","3","3","2","2","1","2","1","0","1","1","0","0","1","1","0","1","1","0","1","0","1","4","3","2","2","3","1","2","3","4","1","3","796359969116135425","李","654","","","","","","","","","","","","","","","","","","","","","","","","","","","","","","","","","","","","","","","","","",""
"665","<p style=""color:white; font-size: 35px;"">精干</p>","e","categorize-html","163","314735","0.0-6.0-0.0-8.0-1.27","3","3","3","3","3","3","4","2","4","4","3","3","4","4","3","5","4","3","4","5","2","2","3","3","3","2","2","1","2","1","0","1","1","0","0","1","1","0","1","1","0","1","0","1","4","3","2","2","3","1","2","3","4","1","3","796359969116135425","李","654","","","","","","","","","","","","","","","","","","","true","4","4","ability","665","positive","精干","","","","","","","","","","","","","","","","",""
"null","","null","html-keyboard-response","164","314986","0.0-6.0-0.0-8.0-0.28","3","3","3","3","3","3","4","2","4","4","3","3","4","4","3","5","4","3","4","5","2","2","3","3","3","2","2","1","2","1","0","1","1","0","0","1","1","0","1","1","0","1","0","1","4","3","2","2","3","1","2","3","4","1","3","796359969116135425","李","654","","","","","","","","","","","","","","","","","","","","","","","","","","","","","","","","","","","","","","","","","",""
"1407","<p style=""color:rgb(150, 250, 100); font-size: 35px;"">他人</p>","e","categorize-html","165","316394","0.0-6.0-0.0-8.0-1.28","3","3","3","3","3","3","4","2","4","4","3","3","4","4","3","5","4","3","4","5","2","2","3","3","3","2","2","1","2","1","0","1","1","0","0","1","1","0","1","1","0","1","0","1","4","3","2","2","3","1","2","3","4","1","3","796359969116135425","李","654","","","","","","","","","","","","","","","","","","","true","4","4","ability","1407","other","他人","","","","","","","","","","","","","","","","",""
"null","","null","html-keyboard-response","166","316645","0.0-6.0-0.0-8.0-0.29","3","3","3","3","3","3","4","2","4","4","3","3","4","4","3","5","4","3","4","5","2","2","3","3","3","2","2","1","2","1","0","1","1","0","0","1","1","0","1","1","0","1","0","1","4","3","2","2","3","1","2","3","4","1","3","796359969116135425","李","654","","","","","","","","","","","","","","","","","","","","","","","","","","","","","","","","","","","","","","","","","",""
"492","<p style=""color:white; font-size: 35px;"">废物</p>","i","categorize-html","167","317139","0.0-6.0-0.0-8.0-1.29","3","3","3","3","3","3","4","2","4","4","3","3","4","4","3","5","4","3","4","5","2","2","3","3","3","2","2","1","2","1","0","1","1","0","0","1","1","0","1","1","0","1","0","1","4","3","2","2","3","1","2","3","4","1","3","796359969116135425","李","654","","","","","","","","","","","","","","","","","","","true","4","4","ability","492","negative","废物","","","","","","","","","","","","","","","","",""
"null","","null","html-keyboard-response","168","317390","0.0-6.0-0.0-8.0-0.30","3","3","3","3","3","3","4","2","4","4","3","3","4","4","3","5","4","3","4","5","2","2","3","3","3","2","2","1","2","1","0","1","1","0","0","1","1","0","1","1","0","1","0","1","4","3","2","2","3","1","2","3","4","1","3","796359969116135425","李","654","","","","","","","","","","","","","","","","","","","","","","","","","","","","","","","","","","","","","","","","","",""
"683","<p style=""color:rgb(150, 250, 100); font-size: 35px;"">自己的</p>","i","categorize-html","169","318074","0.0-6.0-0.0-8.0-1.30","3","3","3","3","3","3","4","2","4","4","3","3","4","4","3","5","4","3","4","5","2","2","3","3","3","2","2","1","2","1","0","1","1","0","0","1","1","0","1","1","0","1","0","1","4","3","2","2","3","1","2","3","4","1","3","796359969116135425","李","654","","","","","","","","","","","","","","","","","","","true","4","4","ability","683","self","自己的","","","","","","","","","","","","","","","","",""
"null","","null","html-keyboard-response","170","318325","0.0-6.0-0.0-8.0-0.31","3","3","3","3","3","3","4","2","4","4","3","3","4","4","3","5","4","3","4","5","2","2","3","3","3","2","2","1","2","1","0","1","1","0","0","1","1","0","1","1","0","1","0","1","4","3","2","2","3","1","2","3","4","1","3","796359969116135425","李","654","","","","","","","","","","","","","","","","","","","","","","","","","","","","","","","","","","","","","","","","","",""
"608","<p style=""color:white; font-size: 35px;"">能干</p>","e","categorize-html","171","318934","0.0-6.0-0.0-8.0-1.31","3","3","3","3","3","3","4","2","4","4","3","3","4","4","3","5","4","3","4","5","2","2","3","3","3","2","2","1","2","1","0","1","1","0","0","1","1","0","1","1","0","1","0","1","4","3","2","2","3","1","2","3","4","1","3","796359969116135425","李","654","","","","","","","","","","","","","","","","","","","true","4","4","ability","608","positive","能干","","","","","","","","","","","","","","","","",""
"null","","null","html-keyboard-response","172","319185","0.0-6.0-0.0-8.0-0.32","3","3","3","3","3","3","4","2","4","4","3","3","4","4","3","5","4","3","4","5","2","2","3","3","3","2","2","1","2","1","0","1","1","0","0","1","1","0","1","1","0","1","0","1","4","3","2","2","3","1","2","3","4","1","3","796359969116135425","李","654","","","","","","","","","","","","","","","","","","","","","","","","","","","","","","","","","","","","","","","","","",""
"616","<p style=""color:rgb(150, 250, 100); font-size: 35px;"">本人的</p>","i","categorize-html","173","319802","0.0-6.0-0.0-8.0-1.32","3","3","3","3","3","3","4","2","4","4","3","3","4","4","3","5","4","3","4","5","2","2","3","3","3","2","2","1","2","1","0","1","1","0","0","1","1","0","1","1","0","1","0","1","4","3","2","2","3","1","2","3","4","1","3","796359969116135425","李","654","","","","","","","","","","","","","","","","","","","true","4","4","ability","616","self","本人的","","","","","","","","","","","","","","","","",""
"null","","null","html-keyboard-response","174","320053","0.0-6.0-0.0-8.0-0.33","3","3","3","3","3","3","4","2","4","4","3","3","4","4","3","5","4","3","4","5","2","2","3","3","3","2","2","1","2","1","0","1","1","0","0","1","1","0","1","1","0","1","0","1","4","3","2","2","3","1","2","3","4","1","3","796359969116135425","李","654","","","","","","","","","","","","","","","","","","","","","","","","","","","","","","","","","","","","","","","","","",""
"495","<p style=""color:white; font-size: 35px;"">拙笨</p>","i","categorize-html","175","320549","0.0-6.0-0.0-8.0-1.33","3","3","3","3","3","3","4","2","4","4","3","3","4","4","3","5","4","3","4","5","2","2","3","3","3","2","2","1","2","1","0","1","1","0","0","1","1","0","1","1","0","1","0","1","4","3","2","2","3","1","2","3","4","1","3","796359969116135425","李","654","","","","","","","","","","","","","","","","","","","true","4","4","ability","495","negative","拙笨","","","","","","","","","","","","","","","","",""
"null","","null","html-keyboard-response","176","320801","0.0-6.0-0.0-8.0-0.34","3","3","3","3","3","3","4","2","4","4","3","3","4","4","3","5","4","3","4","5","2","2","3","3","3","2","2","1","2","1","0","1","1","0","0","1","1","0","1","1","0","1","0","1","4","3","2","2","3","1","2","3","4","1","3","796359969116135425","李","654","","","","","","","","","","","","","","","","","","","","","","","","","","","","","","","","","","","","","","","","","",""
"781","<p style=""color:rgb(150, 250, 100); font-size: 35px;"">别人的</p>","i","categorize-html","177","322103","0.0-6.0-0.0-8.0-1.34","3","3","3","3","3","3","4","2","4","4","3","3","4","4","3","5","4","3","4","5","2","2","3","3","3","2","2","1","2","1","0","1","1","0","0","1","1","0","1","1","0","1","0","1","4","3","2","2","3","1","2","3","4","1","3","796359969116135425","李","654","","","","","","","","","","","","","","","","","","","false","4","4","ability","1363.818181818182","other","别人的","","","","","","","","","","","","","","","","",""
"null","","null","html-keyboard-response","178","322354","0.0-6.0-0.0-8.0-0.35","3","3","3","3","3","3","4","2","4","4","3","3","4","4","3","5","4","3","4","5","2","2","3","3","3","2","2","1","2","1","0","1","1","0","0","1","1","0","1","1","0","1","0","1","4","3","2","2","3","1","2","3","4","1","3","796359969116135425","李","654","","","","","","","","","","","","","","","","","","","","","","","","","","","","","","","","","","","","","","","","","",""
"684","<p style=""color:white; font-size: 35px;"">全才</p>","e","categorize-html","179","323039","0.0-6.0-0.0-8.0-1.35","3","3","3","3","3","3","4","2","4","4","3","3","4","4","3","5","4","3","4","5","2","2","3","3","3","2","2","1","2","1","0","1","1","0","0","1","1","0","1","1","0","1","0","1","4","3","2","2","3","1","2","3","4","1","3","796359969116135425","李","654","","","","","","","","","","","","","","","","","","","true","4","4","ability","684","positive","全才","","","","","","","","","","","","","","","","",""
"null","","null","html-keyboard-response","180","323291","0.0-6.0-0.0-8.0-0.36","3","3","3","3","3","3","4","2","4","4","3","3","4","4","3","5","4","3","4","5","2","2","3","3","3","2","2","1","2","1","0","1","1","0","0","1","1","0","1","1","0","1","0","1","4","3","2","2","3","1","2","3","4","1","3","796359969116135425","李","654","","","","","","","","","","","","","","","","","","","","","","","","","","","","","","","","","","","","","","","","","",""
"588","<p style=""color:rgb(150, 250, 100); font-size: 35px;"">别人</p>","e","categorize-html","181","323880","0.0-6.0-0.0-8.0-1.36","3","3","3","3","3","3","4","2","4","4","3","3","4","4","3","5","4","3","4","5","2","2","3","3","3","2","2","1","2","1","0","1","1","0","0","1","1","0","1","1","0","1","0","1","4","3","2","2","3","1","2","3","4","1","3","796359969116135425","李","654","","","","","","","","","","","","","","","","","","","true","4","4","ability","588","other","别人","","","","","","","","","","","","","","","","",""
"null","","null","html-keyboard-response","182","324131","0.0-6.0-0.0-8.0-0.37","3","3","3","3","3","3","4","2","4","4","3","3","4","4","3","5","4","3","4","5","2","2","3","3","3","2","2","1","2","1","0","1","1","0","0","1","1","0","1","1","0","1","0","1","4","3","2","2","3","1","2","3","4","1","3","796359969116135425","李","654","","","","","","","","","","","","","","","","","","","","","","","","","","","","","","","","","","","","","","","","","",""
"458","<p style=""color:white; font-size: 35px;"">废物</p>","i","categorize-html","183","324590","0.0-6.0-0.0-8.0-1.37","3","3","3","3","3","3","4","2","4","4","3","3","4","4","3","5","4","3","4","5","2","2","3","3","3","2","2","1","2","1","0","1","1","0","0","1","1","0","1","1","0","1","0","1","4","3","2","2","3","1","2","3","4","1","3","796359969116135425","李","654","","","","","","","","","","","","","","","","","","","true","4","4","ability","458","negative","废物","","","","","","","","","","","","","","","","",""
"null","","null","html-keyboard-response","184","324842","0.0-6.0-0.0-8.0-0.38","3","3","3","3","3","3","4","2","4","4","3","3","4","4","3","5","4","3","4","5","2","2","3","3","3","2","2","1","2","1","0","1","1","0","0","1","1","0","1","1","0","1","0","1","4","3","2","2","3","1","2","3","4","1","3","796359969116135425","李","654","","","","","","","","","","","","","","","","","","","","","","","","","","","","","","","","","","","","","","","","","",""
"480","<p style=""color:rgb(150, 250, 100); font-size: 35px;"">自己</p>","e","categorize-html","185","325920","0.0-6.0-0.0-8.0-1.38","3","3","3","3","3","3","4","2","4","4","3","3","4","4","3","5","4","3","4","5","2","2","3","3","3","2","2","1","2","1","0","1","1","0","0","1","1","0","1","1","0","1","0","1","4","3","2","2","3","1","2","3","4","1","3","796359969116135425","李","654","","","","","","","","","","","","","","","","","","","false","4","4","ability","1363.818181818182","self","自己","","","","","","","","","","","","","","","","",""
"null","","null","html-keyboard-response","186","326171","0.0-6.0-0.0-8.0-0.39","3","3","3","3","3","3","4","2","4","4","3","3","4","4","3","5","4","3","4","5","2","2","3","3","3","2","2","1","2","1","0","1","1","0","0","1","1","0","1","1","0","1","0","1","4","3","2","2","3","1","2","3","4","1","3","796359969116135425","李","654","","","","","","","","","","","","","","","","","","","","","","","","","","","","","","","","","","","","","","","","","",""
"1126","<p style=""color:white; font-size: 35px;"">全能</p>","e","categorize-html","187","327299","0.0-6.0-0.0-8.0-1.39","3","3","3","3","3","3","4","2","4","4","3","3","4","4","3","5","4","3","4","5","2","2","3","3","3","2","2","1","2","1","0","1","1","0","0","1","1","0","1","1","0","1","0","1","4","3","2","2","3","1","2","3","4","1","3","796359969116135425","李","654","","","","","","","","","","","","","","","","","","","true","4","4","ability","1126","positive","全能","","","","","","","","","","","","","","","","",""
"null","","null","html-keyboard-response","188","327550","0.0-6.0-0.0-8.0-0.40","3","3","3","3","3","3","4","2","4","4","3","3","4","4","3","5","4","3","4","5","2","2","3","3","3","2","2","1","2","1","0","1","1","0","0","1","1","0","1","1","0","1","0","1","4","3","2","2","3","1","2","3","4","1","3","796359969116135425","李","654","","","","","","","","","","","","","","","","","","","","","","","","","","","","","","","","","","","","","","","","","",""
"597","<p style=""color:rgb(150, 250, 100); font-size: 35px;"">他</p>","e","categorize-html","189","328148","0.0-6.0-0.0-8.0-1.40","3","3","3","3","3","3","4","2","4","4","3","3","4","4","3","5","4","3","4","5","2","2","3","3","3","2","2","1","2","1","0","1","1","0","0","1","1","0","1","1","0","1","0","1","4","3","2","2","3","1","2","3","4","1","3","796359969116135425","李","654","","","","","","","","","","","","","","","","","","","true","4","4","ability","597","other","他","","","","","","","","","","","","","","","","",""
"null","","null","html-keyboard-response","190","328399","0.0-6.0-0.0-8.0-0.41","3","3","3","3","3","3","4","2","4","4","3","3","4","4","3","5","4","3","4","5","2","2","3","3","3","2","2","1","2","1","0","1","1","0","0","1","1","0","1","1","0","1","0","1","4","3","2","2","3","1","2","3","4","1","3","796359969116135425","李","654","","","","","","","","","","","","","","","","","","","","","","","","","","","","","","","","","","","","","","","","","",""
"805","<p style=""color:white; font-size: 35px;"">无能</p>","i","categorize-html","191","329205","0.0-6.0-0.0-8.0-1.41","3","3","3","3","3","3","4","2","4","4","3","3","4","4","3","5","4","3","4","5","2","2","3","3","3","2","2","1","2","1","0","1","1","0","0","1","1","0","1","1","0","1","0","1","4","3","2","2","3","1","2","3","4","1","3","796359969116135425","李","654","","","","","","","","","","","","","","","","","","","true","4","4","ability","805","negative","无能","","","","","","","","","","","","","","","","",""
"null","","null","html-keyboard-response","192","329457","0.0-6.0-0.0-8.0-0.42","3","3","3","3","3","3","4","2","4","4","3","3","4","4","3","5","4","3","4","5","2","2","3","3","3","2","2","1","2","1","0","1","1","0","0","1","1","0","1","1","0","1","0","1","4","3","2","2","3","1","2","3","4","1","3","796359969116135425","李","654","","","","","","","","","","","","","","","","","","","","","","","","","","","","","","","","","","","","","","","","","",""
