"rt","stimulus","response","trial_type","trial_index","time_elapsed","internal_node_id","ses_1","ses_2","ses_3","ses_4","ses_5","ses_6","ses_7","ses_8","ses_9","ses_10","coreself_1","coreself_2","coreself_3","coreself_4","coreself_5","coreself_6","coreself_7","coreself_8","coreself_9","coreself_10","SGPS_1","SGPS_2","SGPS_3","SGPS_4","SGPS_5","SGPS_6","SGPS_7","SGPS_8","SGPS_9","NPI1","NPI2","NPI3","NPI4","NPI5","NPI6","NPI7","NPI8","NPI9","NPI10","NPI11","NPI12","NPI13","NPI14","NPI15","hsns_1","hsns_2","hsns_3","hsns_4","hsns_5","trap1","hsns_6","hsns_7","hsns_8","hsns_9","hsns_10","subj_idx","friend_name","ParticipantID","value","success","user_agent","responses","item_order","radio_event_ids","radio_event_times","key_event_times","mouse_event_times","straightlining","zigzagging","honeypot","timeout","failed_images","failed_audio","failed_video","version_attrib","version_target","correct","IAT","screen_id","task_id","RT","condition","word","varname","summary","version_attrib2","version_target2","time_stamp","view_history","response_type","key_press","avg_frame_time","center_x","center_y","correct_response","identity","Image","question_order","correct_answer","trap1_item"
"2552","
   <p><div style = ""color: white;font-size:25px;"">您好，欢迎参加本次实验。</div> </p>
   <p><div style = ""color: white;font-size:25px;"">为充分保障您的权利，请确保您已经知晓并同意《参与实验同意书》以及《数据公开知情同意书》。</div></p>
   <p><div style = ""color: white;font-size:25px;"">如果您未见过上述内容，请咨询实验员。</div></p>
   <p><div style = ""color: white;font-size:25px;"">如果您选择继续实验，则表示您已经清楚两份知情同意书的内容并同意。</div></p>
   <p><div style = ""color: pink;font-size:30px;"">请确保您记得day0的实验编号，您将在本次实验输入该编号，若您忘记，请咨询实验员后作答。</div></p>
   <p><div style = ""color: lightblue;font-size:25px;"">请您尽可能认真地作答，我们将依据您在各问卷和按键任务中的作答质量发放报酬。</div></p>
   <p> <div style = ""color: green;font-size:25px;""><按空格键至下页></div> </p>
   "," ","html-keyboard-response","0","2561","0.0-0.0","3","3","3","4","4","3","3","4","4","3","4","1","2","5","2","4","3","2","4","5","2","2","2","2","2","1","1","2","1","1","0","1","1","0","0","0","1","0","1","1","0","1","0","1","4","4","5","2","4","2","5","4","5","4","2","790214171080925186","李","430","","","","","","","","","","","","","","","","","","","","","","","","","","","","","","","","","","","","","","","","","",""
"","","","call-function","1","2564","0.0-1.0-0.0","3","3","3","4","4","3","3","4","4","3","4","1","2","5","2","4","3","2","4","5","2","2","2","2","2","1","1","2","1","1","0","1","1","0","0","0","1","0","1","1","0","1","0","1","4","4","5","2","4","2","5","4","5","4","2","790214171080925186","李","430","","","","","","","","","","","","","","","","","","","","","","","","","","","","","","","","","","","","","","","","","",""
"14923","","{""friend_name"":""李"",""ParticipantID"":""430""}","survey-html-form","2","17491","0.0-1.0-1.0","3","3","3","4","4","3","3","4","4","3","4","1","2","5","2","4","3","2","4","5","2","2","2","2","2","1","1","2","1","1","0","1","1","0","0","0","1","0","1","1","0","1","0","1","4","4","5","2","4","2","5","4","5","4","2","790214171080925186","李","430","","","","","","","","","","","","","","","","","","","","","","","","","","","","","","","","","","","","","","","","","",""
"","","","fullscreen","3","18553","0.0-2.0","3","3","3","4","4","3","3","4","4","3","4","1","2","5","2","4","3","2","4","5","2","2","2","2","2","1","1","2","1","1","0","1","1","0","0","0","1","0","1","1","0","1","0","1","4","4","5","2","4","2","5","4","5","4","2","790214171080925186","李","430","","true","{}","","","","","","","","","","","","","","","","","","","","","","","","","","","","","","","","","","","","","","",""
"26559.599999997765","","{""Q01"":""3"",""Q02"":""3"",""Q03"":""3"",""Q04"":""4"",""Q05"":""4"",""Q06"":""3"",""Q07"":""3"",""Q08"":""4"",""Q09"":""4"",""Q10"":""3""}","survey-template","4","45119","0.0-3.0","3","3","3","4","4","3","3","4","4","3","4","1","2","5","2","4","3","2","4","5","2","2","2","2","2","1","1","2","1","1","0","1","1","0","0","0","1","0","1","1","0","1","0","1","4","4","5","2","4","2","5","4","5","4","2","790214171080925186","李","430","","","","{""Q01"":""3"",""Q02"":""3"",""Q03"":""3"",""Q04"":""4"",""Q05"":""4"",""Q06"":""3"",""Q07"":""3"",""Q08"":""4"",""Q09"":""4"",""Q10"":""3""}","[0,1,2,3,4,5,6,7,8,9]","[""Q01"",""Q02"",""Q03"",""Q04"",""Q05"",""Q06"",""Q07"",""Q08"",""Q08"",""Q09"",""Q10""]","[8117,8828.199999999255,10124.300000000745,11332.5,12612.199999999255,13732,14532.099999997765,15500,16300,17995.89999999851,18988]","[]","[8117,8828.199999999255,10124.300000000745,11332.5,12612.199999999255,13732,14532.099999997765,15500,16300,17995.89999999851,18988,26556.099999997765]","0.4","0.3333333333333333","0","","","","","","","","","","","","","","","","","","","","","","","","","","","","","",""
"17678.70000000298","","{""Q01"":""4"",""Q02"":""1"",""Q03"":""2"",""Q04"":""5"",""Q05"":""2"",""Q06"":""4"",""Q07"":""3"",""Q08"":""2"",""Q09"":""4"",""Q10"":""5""}","survey-template","5","62822","0.0-4.0","3","3","3","4","4","3","3","4","4","3","4","1","2","5","2","4","3","2","4","5","2","2","2","2","2","1","1","2","1","1","0","1","1","0","0","0","1","0","1","1","0","1","0","1","4","4","5","2","4","2","5","4","5","4","2","790214171080925186","李","430","","","","{""Q01"":""4"",""Q02"":""1"",""Q03"":""2"",""Q04"":""5"",""Q05"":""2"",""Q06"":""4"",""Q07"":""3"",""Q08"":""2"",""Q09"":""4"",""Q10"":""5""}","[0,1,2,3,4,5,6,7,8,9]","[""Q01"",""Q02"",""Q03"",""Q04"",""Q05"",""Q06"",""Q07"",""Q08"",""Q09"",""Q10"",""Q10""]","[2099.5,3411.60000000149,4275.300000000745,5739.300000000745,6923.10000000149,7731.10000000149,9003.20000000298,10107.20000000298,11091.20000000298,12699.10000000149,13491.10000000149]","[]","[2099.5,3411.60000000149,4275.300000000745,5739.300000000745,6923.10000000149,7731.10000000149,9003.20000000298,10107.20000000298,11091.20000000298,12699.10000000149,13491.10000000149,17675.300000000745]","0.6","0.6666666666666666","0","","","","","","","","","","","","","","","","","","","","","","","","","","","","","",""
"","","","preload","6","62866","0.0-5.0","3","3","3","4","4","3","3","4","4","3","4","1","2","5","2","4","3","2","4","5","2","2","2","2","2","1","1","2","1","1","0","1","1","0","0","0","1","0","1","1","0","1","0","1","4","4","5","2","4","2","5","4","5","4","2","790214171080925186","李","430","","true","","","","","","","","","","","false","[]","[]","[]","","","","","","","","","","","","","","","","","","","","","","","","","",""
"18957","
    <h3>词语分类任务</h3>
    <p>在接下来的任务中，你需要对一系列词语进行分类。</p>
    <p>请先熟悉这些词语，这有利于你完成接下来的任务。</p>
    <table align=""center"" border=1 cellpadding=3 cellspacing=0>
    <tr> <th>类别</th> <th>词语</th> </tr>
    <tr> <td>&emsp;积极&emsp;</td> <td>&emsp;能干、全能、全才、高效、精干、天才&emsp;</td> </tr>
    <tr> <td>&emsp;消极&emsp;</td> <td>&emsp;无能、低能、废物、拙笨、愚钝、蠢笨&emsp;</td> </tr>
    <tr> <td>&emsp;自我&emsp;</td> <td>&emsp;我、我的、自己、自己的、本人、本人的&emsp;</td> </tr>
    <tr> <td>&emsp;他人&emsp;</td> <td>&emsp;他、他的、别人、别人的、他人、他人的&emsp;</td> </tr>
    </table><br/>","0","html-button-response","7","81826","0.0-6.0-0.0-0.0","3","3","3","4","4","3","3","4","4","3","4","1","2","5","2","4","3","2","4","5","2","2","2","2","2","1","1","2","1","1","0","1","1","0","0","0","1","0","1","1","0","1","0","1","4","4","5","2","4","2","5","4","5","4","2","790214171080925186","李","430","","","","","","","","","","","","","","","","","2","1","","","","","","","","","","","","","","","","","","","","","","","",""
"820","
    <div class=""tag-bottom"">
    <p> —— 任务1：对“自我”词和“他人”词分类 ——<p/>
    不同词语会出现在屏幕中央，类别标签将始终显示在屏幕上方<p/>   
    <span style=""color:#FFD866""><b>请根据上方标签的提示，尽可能正确并且快速地做出按键反应</b></span><p/>
    当按键错误时屏幕中会出现<span style=""color:red""> X </span>，需要按另一个键纠正才能继续<br/><p/>
    请把双手食指分别放在键盘的“E”键和“I”键上<p/>
    按<空格键>开始
    </p></div>"," ","html-keyboard-response","8","82658","0.0-6.0-0.0-1.0","3","3","3","4","4","3","3","4","4","3","4","1","2","5","2","4","3","2","4","5","2","2","2","2","2","1","1","2","1","1","0","1","1","0","0","0","1","0","1","1","0","1","0","1","4","4","5","2","4","2","5","4","5","4","2","790214171080925186","李","430","","","","","","","","","","","","","","","","","","","","","","","","","","","","","","","","","","","","","","","","","",""
"null","","null","html-keyboard-response","9","82915","0.0-6.0-0.0-2.0-0.0","3","3","3","4","4","3","3","4","4","3","4","1","2","5","2","4","3","2","4","5","2","2","2","2","2","1","1","2","1","1","0","1","1","0","0","0","1","0","1","1","0","1","0","1","4","4","5","2","4","2","5","4","5","4","2","790214171080925186","李","430","","","","","","","","","","","","","","","","","","","","","","","","","","","","","","","","","","","","","","","","","",""
"769","<p style=""color:rgb(150, 250, 100); font-size: 35px;"">别人</p>","i","categorize-html","10","83693","0.0-6.0-0.0-2.0-1.0","3","3","3","4","4","3","3","4","4","3","4","1","2","5","2","4","3","2","4","5","2","2","2","2","2","1","1","2","1","1","0","1","1","0","0","0","1","0","1","1","0","1","0","1","4","4","5","2","4","2","5","4","5","4","2","790214171080925186","李","430","","","","","","","","","","","","","","","","","","","true","1","1","ability","769","other","别人","","","","","","","","","","","","","","","","",""
"null","","null","html-keyboard-response","11","83947","0.0-6.0-0.0-2.0-0.1","3","3","3","4","4","3","3","4","4","3","4","1","2","5","2","4","3","2","4","5","2","2","2","2","2","1","1","2","1","1","0","1","1","0","0","0","1","0","1","1","0","1","0","1","4","4","5","2","4","2","5","4","5","4","2","790214171080925186","李","430","","","","","","","","","","","","","","","","","","","","","","","","","","","","","","","","","","","","","","","","","",""
"628","<p style=""color:rgb(150, 250, 100); font-size: 35px;"">我的</p>","e","categorize-html","12","84580","0.0-6.0-0.0-2.0-1.1","3","3","3","4","4","3","3","4","4","3","4","1","2","5","2","4","3","2","4","5","2","2","2","2","2","1","1","2","1","1","0","1","1","0","0","0","1","0","1","1","0","1","0","1","4","4","5","2","4","2","5","4","5","4","2","790214171080925186","李","430","","","","","","","","","","","","","","","","","","","true","1","1","ability","628","self","我的","","","","","","","","","","","","","","","","",""
"null","","null","html-keyboard-response","13","84835","0.0-6.0-0.0-2.0-0.2","3","3","3","4","4","3","3","4","4","3","4","1","2","5","2","4","3","2","4","5","2","2","2","2","2","1","1","2","1","1","0","1","1","0","0","0","1","0","1","1","0","1","0","1","4","4","5","2","4","2","5","4","5","4","2","790214171080925186","李","430","","","","","","","","","","","","","","","","","","","","","","","","","","","","","","","","","","","","","","","","","",""
"644","<p style=""color:rgb(150, 250, 100); font-size: 35px;"">本人</p>","e","categorize-html","14","85484","0.0-6.0-0.0-2.0-1.2","3","3","3","4","4","3","3","4","4","3","4","1","2","5","2","4","3","2","4","5","2","2","2","2","2","1","1","2","1","1","0","1","1","0","0","0","1","0","1","1","0","1","0","1","4","4","5","2","4","2","5","4","5","4","2","790214171080925186","李","430","","","","","","","","","","","","","","","","","","","true","1","1","ability","644","self","本人","","","","","","","","","","","","","","","","",""
"null","","null","html-keyboard-response","15","85739","0.0-6.0-0.0-2.0-0.3","3","3","3","4","4","3","3","4","4","3","4","1","2","5","2","4","3","2","4","5","2","2","2","2","2","1","1","2","1","1","0","1","1","0","0","0","1","0","1","1","0","1","0","1","4","4","5","2","4","2","5","4","5","4","2","790214171080925186","李","430","","","","","","","","","","","","","","","","","","","","","","","","","","","","","","","","","","","","","","","","","",""
"460","<p style=""color:rgb(150, 250, 100); font-size: 35px;"">自己</p>","e","categorize-html","16","86207","0.0-6.0-0.0-2.0-1.3","3","3","3","4","4","3","3","4","4","3","4","1","2","5","2","4","3","2","4","5","2","2","2","2","2","1","1","2","1","1","0","1","1","0","0","0","1","0","1","1","0","1","0","1","4","4","5","2","4","2","5","4","5","4","2","790214171080925186","李","430","","","","","","","","","","","","","","","","","","","true","1","1","ability","460","self","自己","","","","","","","","","","","","","","","","",""
"null","","null","html-keyboard-response","17","86467","0.0-6.0-0.0-2.0-0.4","3","3","3","4","4","3","3","4","4","3","4","1","2","5","2","4","3","2","4","5","2","2","2","2","2","1","1","2","1","1","0","1","1","0","0","0","1","0","1","1","0","1","0","1","4","4","5","2","4","2","5","4","5","4","2","790214171080925186","李","430","","","","","","","","","","","","","","","","","","","","","","","","","","","","","","","","","","","","","","","","","",""
"836","<p style=""color:rgb(150, 250, 100); font-size: 35px;"">他</p>","i","categorize-html","18","87310","0.0-6.0-0.0-2.0-1.4","3","3","3","4","4","3","3","4","4","3","4","1","2","5","2","4","3","2","4","5","2","2","2","2","2","1","1","2","1","1","0","1","1","0","0","0","1","0","1","1","0","1","0","1","4","4","5","2","4","2","5","4","5","4","2","790214171080925186","李","430","","","","","","","","","","","","","","","","","","","true","1","1","ability","836","other","他","","","","","","","","","","","","","","","","",""
"null","","null","html-keyboard-response","19","87564","0.0-6.0-0.0-2.0-0.5","3","3","3","4","4","3","3","4","4","3","4","1","2","5","2","4","3","2","4","5","2","2","2","2","2","1","1","2","1","1","0","1","1","0","0","0","1","0","1","1","0","1","0","1","4","4","5","2","4","2","5","4","5","4","2","790214171080925186","李","430","","","","","","","","","","","","","","","","","","","","","","","","","","","","","","","","","","","","","","","","","",""
"788","<p style=""color:rgb(150, 250, 100); font-size: 35px;"">他的</p>","i","categorize-html","20","88356","0.0-6.0-0.0-2.0-1.5","3","3","3","4","4","3","3","4","4","3","4","1","2","5","2","4","3","2","4","5","2","2","2","2","2","1","1","2","1","1","0","1","1","0","0","0","1","0","1","1","0","1","0","1","4","4","5","2","4","2","5","4","5","4","2","790214171080925186","李","430","","","","","","","","","","","","","","","","","","","true","1","1","ability","788","other","他的","","","","","","","","","","","","","","","","",""
"null","","null","html-keyboard-response","21","88612","0.0-6.0-0.0-2.0-0.6","3","3","3","4","4","3","3","4","4","3","4","1","2","5","2","4","3","2","4","5","2","2","2","2","2","1","1","2","1","1","0","1","1","0","0","0","1","0","1","1","0","1","0","1","4","4","5","2","4","2","5","4","5","4","2","790214171080925186","李","430","","","","","","","","","","","","","","","","","","","","","","","","","","","","","","","","","","","","","","","","","",""
"676","<p style=""color:rgb(150, 250, 100); font-size: 35px;"">他人</p>","i","categorize-html","22","89292","0.0-6.0-0.0-2.0-1.6","3","3","3","4","4","3","3","4","4","3","4","1","2","5","2","4","3","2","4","5","2","2","2","2","2","1","1","2","1","1","0","1","1","0","0","0","1","0","1","1","0","1","0","1","4","4","5","2","4","2","5","4","5","4","2","790214171080925186","李","430","","","","","","","","","","","","","","","","","","","true","1","1","ability","676","other","他人","","","","","","","","","","","","","","","","",""
"null","","null","html-keyboard-response","23","89548","0.0-6.0-0.0-2.0-0.7","3","3","3","4","4","3","3","4","4","3","4","1","2","5","2","4","3","2","4","5","2","2","2","2","2","1","1","2","1","1","0","1","1","0","0","0","1","0","1","1","0","1","0","1","4","4","5","2","4","2","5","4","5","4","2","790214171080925186","李","430","","","","","","","","","","","","","","","","","","","","","","","","","","","","","","","","","","","","","","","","","",""
"916","<p style=""color:rgb(150, 250, 100); font-size: 35px;"">我</p>","e","categorize-html","24","90468","0.0-6.0-0.0-2.0-1.7","3","3","3","4","4","3","3","4","4","3","4","1","2","5","2","4","3","2","4","5","2","2","2","2","2","1","1","2","1","1","0","1","1","0","0","0","1","0","1","1","0","1","0","1","4","4","5","2","4","2","5","4","5","4","2","790214171080925186","李","430","","","","","","","","","","","","","","","","","","","true","1","1","ability","916","self","我","","","","","","","","","","","","","","","","",""
"null","","null","html-keyboard-response","25","90724","0.0-6.0-0.0-2.0-0.8","3","3","3","4","4","3","3","4","4","3","4","1","2","5","2","4","3","2","4","5","2","2","2","2","2","1","1","2","1","1","0","1","1","0","0","0","1","0","1","1","0","1","0","1","4","4","5","2","4","2","5","4","5","4","2","790214171080925186","李","430","","","","","","","","","","","","","","","","","","","","","","","","","","","","","","","","","","","","","","","","","",""
"707","<p style=""color:rgb(150, 250, 100); font-size: 35px;"">他人的</p>","i","categorize-html","26","91436","0.0-6.0-0.0-2.0-1.8","3","3","3","4","4","3","3","4","4","3","4","1","2","5","2","4","3","2","4","5","2","2","2","2","2","1","1","2","1","1","0","1","1","0","0","0","1","0","1","1","0","1","0","1","4","4","5","2","4","2","5","4","5","4","2","790214171080925186","李","430","","","","","","","","","","","","","","","","","","","true","1","1","ability","707","other","他人的","","","","","","","","","","","","","","","","",""
"null","","null","html-keyboard-response","27","91692","0.0-6.0-0.0-2.0-0.9","3","3","3","4","4","3","3","4","4","3","4","1","2","5","2","4","3","2","4","5","2","2","2","2","2","1","1","2","1","1","0","1","1","0","0","0","1","0","1","1","0","1","0","1","4","4","5","2","4","2","5","4","5","4","2","790214171080925186","李","430","","","","","","","","","","","","","","","","","","","","","","","","","","","","","","","","","","","","","","","","","",""
"772","<p style=""color:rgb(150, 250, 100); font-size: 35px;"">自己的</p>","e","categorize-html","28","92468","0.0-6.0-0.0-2.0-1.9","3","3","3","4","4","3","3","4","4","3","4","1","2","5","2","4","3","2","4","5","2","2","2","2","2","1","1","2","1","1","0","1","1","0","0","0","1","0","1","1","0","1","0","1","4","4","5","2","4","2","5","4","5","4","2","790214171080925186","李","430","","","","","","","","","","","","","","","","","","","true","1","1","ability","772","self","自己的","","","","","","","","","","","","","","","","",""
"null","","null","html-keyboard-response","29","92724","0.0-6.0-0.0-2.0-0.10","3","3","3","4","4","3","3","4","4","3","4","1","2","5","2","4","3","2","4","5","2","2","2","2","2","1","1","2","1","1","0","1","1","0","0","0","1","0","1","1","0","1","0","1","4","4","5","2","4","2","5","4","5","4","2","790214171080925186","李","430","","","","","","","","","","","","","","","","","","","","","","","","","","","","","","","","","","","","","","","","","",""
"1475","<p style=""color:rgb(150, 250, 100); font-size: 35px;"">别人的</p>","i","categorize-html","30","94204","0.0-6.0-0.0-2.0-1.10","3","3","3","4","4","3","3","4","4","3","4","1","2","5","2","4","3","2","4","5","2","2","2","2","2","1","1","2","1","1","0","1","1","0","0","0","1","0","1","1","0","1","0","1","4","4","5","2","4","2","5","4","5","4","2","790214171080925186","李","430","","","","","","","","","","","","","","","","","","","true","1","1","ability","1475","other","别人的","","","","","","","","","","","","","","","","",""
"null","","null","html-keyboard-response","31","94460","0.0-6.0-0.0-2.0-0.11","3","3","3","4","4","3","3","4","4","3","4","1","2","5","2","4","3","2","4","5","2","2","2","2","2","1","1","2","1","1","0","1","1","0","0","0","1","0","1","1","0","1","0","1","4","4","5","2","4","2","5","4","5","4","2","790214171080925186","李","430","","","","","","","","","","","","","","","","","","","","","","","","","","","","","","","","","","","","","","","","","",""
"1004","<p style=""color:rgb(150, 250, 100); font-size: 35px;"">本人的</p>","e","categorize-html","32","95466","0.0-6.0-0.0-2.0-1.11","3","3","3","4","4","3","3","4","4","3","4","1","2","5","2","4","3","2","4","5","2","2","2","2","2","1","1","2","1","1","0","1","1","0","0","0","1","0","1","1","0","1","0","1","4","4","5","2","4","2","5","4","5","4","2","790214171080925186","李","430","","","","","","","","","","","","","","","","","","","true","1","1","ability","1004","self","本人的","","","","","","","","","","","","","","","","",""
"837","
    <div class=""tag-bottom""><p>
    —— 任务2：对“消极”词和“积极”词分类 ——<p/>   
    <span style=""color:#78DCE8""><b>注意上方，类别标签和需要分类的词语都已经改变</b></span><p/>
    <span style=""color:#FFD866""><b>请根据上方标签的提示，尽可能正确并且快速地做出按键反应</b></span><p/>
    当按键错误时屏幕中会出现<span style=""color:red""> X </span>，需要按另一个键纠正才能继续<br/><p/>
    请把双手食指分别放在键盘的“E”键和“I”键上<p/>
    按<空格键>开始
    </p></div>"," ","html-keyboard-response","33","96305","0.0-6.0-0.0-3.0","3","3","3","4","4","3","3","4","4","3","4","1","2","5","2","4","3","2","4","5","2","2","2","2","2","1","1","2","1","1","0","1","1","0","0","0","1","0","1","1","0","1","0","1","4","4","5","2","4","2","5","4","5","4","2","790214171080925186","李","430","","","","","","","","","","","","","","","","","","","","","","","","","","","","","","","","","","","","","","","","","",""
"null","","null","html-keyboard-response","34","96563","0.0-6.0-0.0-4.0-0.0","3","3","3","4","4","3","3","4","4","3","4","1","2","5","2","4","3","2","4","5","2","2","2","2","2","1","1","2","1","1","0","1","1","0","0","0","1","0","1","1","0","1","0","1","4","4","5","2","4","2","5","4","5","4","2","790214171080925186","李","430","","","","","","","","","","","","","","","","","","","","","","","","","","","","","","","","","","","","","","","","","",""
"2203","<p style=""color:white; font-size: 35px;"">低能</p>","e","categorize-html","35","98772","0.0-6.0-0.0-4.0-1.0","3","3","3","4","4","3","3","4","4","3","4","1","2","5","2","4","3","2","4","5","2","2","2","2","2","1","1","2","1","1","0","1","1","0","0","0","1","0","1","1","0","1","0","1","4","4","5","2","4","2","5","4","5","4","2","790214171080925186","李","430","","","","","","","","","","","","","","","","","","","true","2","2","ability","2203","negative","低能","","","","","","","","","","","","","","","","",""
"null","","null","html-keyboard-response","36","99027","0.0-6.0-0.0-4.0-0.1","3","3","3","4","4","3","3","4","4","3","4","1","2","5","2","4","3","2","4","5","2","2","2","2","2","1","1","2","1","1","0","1","1","0","0","0","1","0","1","1","0","1","0","1","4","4","5","2","4","2","5","4","5","4","2","790214171080925186","李","430","","","","","","","","","","","","","","","","","","","","","","","","","","","","","","","","","","","","","","","","","",""
"2276","<p style=""color:white; font-size: 35px;"">废物</p>","e","categorize-html","37","101308","0.0-6.0-0.0-4.0-1.1","3","3","3","4","4","3","3","4","4","3","4","1","2","5","2","4","3","2","4","5","2","2","2","2","2","1","1","2","1","1","0","1","1","0","0","0","1","0","1","1","0","1","0","1","4","4","5","2","4","2","5","4","5","4","2","790214171080925186","李","430","","","","","","","","","","","","","","","","","","","true","2","2","ability","2276","negative","废物","","","","","","","","","","","","","","","","",""
"null","","null","html-keyboard-response","38","101563","0.0-6.0-0.0-4.0-0.2","3","3","3","4","4","3","3","4","4","3","4","1","2","5","2","4","3","2","4","5","2","2","2","2","2","1","1","2","1","1","0","1","1","0","0","0","1","0","1","1","0","1","0","1","4","4","5","2","4","2","5","4","5","4","2","790214171080925186","李","430","","","","","","","","","","","","","","","","","","","","","","","","","","","","","","","","","","","","","","","","","",""
"748","<p style=""color:white; font-size: 35px;"">拙笨</p>","e","categorize-html","39","102316","0.0-6.0-0.0-4.0-1.2","3","3","3","4","4","3","3","4","4","3","4","1","2","5","2","4","3","2","4","5","2","2","2","2","2","1","1","2","1","1","0","1","1","0","0","0","1","0","1","1","0","1","0","1","4","4","5","2","4","2","5","4","5","4","2","790214171080925186","李","430","","","","","","","","","","","","","","","","","","","true","2","2","ability","748","negative","拙笨","","","","","","","","","","","","","","","","",""
"null","","null","html-keyboard-response","40","102571","0.0-6.0-0.0-4.0-0.3","3","3","3","4","4","3","3","4","4","3","4","1","2","5","2","4","3","2","4","5","2","2","2","2","2","1","1","2","1","1","0","1","1","0","0","0","1","0","1","1","0","1","0","1","4","4","5","2","4","2","5","4","5","4","2","790214171080925186","李","430","","","","","","","","","","","","","","","","","","","","","","","","","","","","","","","","","","","","","","","","","",""
"932","<p style=""color:white; font-size: 35px;"">精干</p>","i","categorize-html","41","103508","0.0-6.0-0.0-4.0-1.3","3","3","3","4","4","3","3","4","4","3","4","1","2","5","2","4","3","2","4","5","2","2","2","2","2","1","1","2","1","1","0","1","1","0","0","0","1","0","1","1","0","1","0","1","4","4","5","2","4","2","5","4","5","4","2","790214171080925186","李","430","","","","","","","","","","","","","","","","","","","true","2","2","ability","932","positive","精干","","","","","","","","","","","","","","","","",""
"null","","null","html-keyboard-response","42","103763","0.0-6.0-0.0-4.0-0.4","3","3","3","4","4","3","3","4","4","3","4","1","2","5","2","4","3","2","4","5","2","2","2","2","2","1","1","2","1","1","0","1","1","0","0","0","1","0","1","1","0","1","0","1","4","4","5","2","4","2","5","4","5","4","2","790214171080925186","李","430","","","","","","","","","","","","","","","","","","","","","","","","","","","","","","","","","","","","","","","","","",""
"860","<p style=""color:white; font-size: 35px;"">高效</p>","i","categorize-html","43","104628","0.0-6.0-0.0-4.0-1.4","3","3","3","4","4","3","3","4","4","3","4","1","2","5","2","4","3","2","4","5","2","2","2","2","2","1","1","2","1","1","0","1","1","0","0","0","1","0","1","1","0","1","0","1","4","4","5","2","4","2","5","4","5","4","2","790214171080925186","李","430","","","","","","","","","","","","","","","","","","","true","2","2","ability","860","positive","高效","","","","","","","","","","","","","","","","",""
"null","","null","html-keyboard-response","44","104883","0.0-6.0-0.0-4.0-0.5","3","3","3","4","4","3","3","4","4","3","4","1","2","5","2","4","3","2","4","5","2","2","2","2","2","1","1","2","1","1","0","1","1","0","0","0","1","0","1","1","0","1","0","1","4","4","5","2","4","2","5","4","5","4","2","790214171080925186","李","430","","","","","","","","","","","","","","","","","","","","","","","","","","","","","","","","","","","","","","","","","",""
"876","<p style=""color:white; font-size: 35px;"">能干</p>","i","categorize-html","45","105764","0.0-6.0-0.0-4.0-1.5","3","3","3","4","4","3","3","4","4","3","4","1","2","5","2","4","3","2","4","5","2","2","2","2","2","1","1","2","1","1","0","1","1","0","0","0","1","0","1","1","0","1","0","1","4","4","5","2","4","2","5","4","5","4","2","790214171080925186","李","430","","","","","","","","","","","","","","","","","","","true","2","2","ability","876","positive","能干","","","","","","","","","","","","","","","","",""
"null","","null","html-keyboard-response","46","106019","0.0-6.0-0.0-4.0-0.6","3","3","3","4","4","3","3","4","4","3","4","1","2","5","2","4","3","2","4","5","2","2","2","2","2","1","1","2","1","1","0","1","1","0","0","0","1","0","1","1","0","1","0","1","4","4","5","2","4","2","5","4","5","4","2","790214171080925186","李","430","","","","","","","","","","","","","","","","","","","","","","","","","","","","","","","","","","","","","","","","","",""
"764","<p style=""color:white; font-size: 35px;"">蠢笨</p>","e","categorize-html","47","106788","0.0-6.0-0.0-4.0-1.6","3","3","3","4","4","3","3","4","4","3","4","1","2","5","2","4","3","2","4","5","2","2","2","2","2","1","1","2","1","1","0","1","1","0","0","0","1","0","1","1","0","1","0","1","4","4","5","2","4","2","5","4","5","4","2","790214171080925186","李","430","","","","","","","","","","","","","","","","","","","true","2","2","ability","764","negative","蠢笨","","","","","","","","","","","","","","","","",""
"null","","null","html-keyboard-response","48","107043","0.0-6.0-0.0-4.0-0.7","3","3","3","4","4","3","3","4","4","3","4","1","2","5","2","4","3","2","4","5","2","2","2","2","2","1","1","2","1","1","0","1","1","0","0","0","1","0","1","1","0","1","0","1","4","4","5","2","4","2","5","4","5","4","2","790214171080925186","李","430","","","","","","","","","","","","","","","","","","","","","","","","","","","","","","","","","","","","","","","","","",""
"1444","<p style=""color:white; font-size: 35px;"">愚钝</p>","e","categorize-html","49","108492","0.0-6.0-0.0-4.0-1.7","3","3","3","4","4","3","3","4","4","3","4","1","2","5","2","4","3","2","4","5","2","2","2","2","2","1","1","2","1","1","0","1","1","0","0","0","1","0","1","1","0","1","0","1","4","4","5","2","4","2","5","4","5","4","2","790214171080925186","李","430","","","","","","","","","","","","","","","","","","","true","2","2","ability","1444","negative","愚钝","","","","","","","","","","","","","","","","",""
"null","","null","html-keyboard-response","50","108748","0.0-6.0-0.0-4.0-0.8","3","3","3","4","4","3","3","4","4","3","4","1","2","5","2","4","3","2","4","5","2","2","2","2","2","1","1","2","1","1","0","1","1","0","0","0","1","0","1","1","0","1","0","1","4","4","5","2","4","2","5","4","5","4","2","790214171080925186","李","430","","","","","","","","","","","","","","","","","","","","","","","","","","","","","","","","","","","","","","","","","",""
"836","<p style=""color:white; font-size: 35px;"">全能</p>","i","categorize-html","51","109588","0.0-6.0-0.0-4.0-1.8","3","3","3","4","4","3","3","4","4","3","4","1","2","5","2","4","3","2","4","5","2","2","2","2","2","1","1","2","1","1","0","1","1","0","0","0","1","0","1","1","0","1","0","1","4","4","5","2","4","2","5","4","5","4","2","790214171080925186","李","430","","","","","","","","","","","","","","","","","","","true","2","2","ability","836","positive","全能","","","","","","","","","","","","","","","","",""
"null","","null","html-keyboard-response","52","109844","0.0-6.0-0.0-4.0-0.9","3","3","3","4","4","3","3","4","4","3","4","1","2","5","2","4","3","2","4","5","2","2","2","2","2","1","1","2","1","1","0","1","1","0","0","0","1","0","1","1","0","1","0","1","4","4","5","2","4","2","5","4","5","4","2","790214171080925186","李","430","","","","","","","","","","","","","","","","","","","","","","","","","","","","","","","","","","","","","","","","","",""
"1204","<p style=""color:white; font-size: 35px;"">无能</p>","e","categorize-html","53","111052","0.0-6.0-0.0-4.0-1.9","3","3","3","4","4","3","3","4","4","3","4","1","2","5","2","4","3","2","4","5","2","2","2","2","2","1","1","2","1","1","0","1","1","0","0","0","1","0","1","1","0","1","0","1","4","4","5","2","4","2","5","4","5","4","2","790214171080925186","李","430","","","","","","","","","","","","","","","","","","","true","2","2","ability","1204","negative","无能","","","","","","","","","","","","","","","","",""
"null","","null","html-keyboard-response","54","111308","0.0-6.0-0.0-4.0-0.10","3","3","3","4","4","3","3","4","4","3","4","1","2","5","2","4","3","2","4","5","2","2","2","2","2","1","1","2","1","1","0","1","1","0","0","0","1","0","1","1","0","1","0","1","4","4","5","2","4","2","5","4","5","4","2","790214171080925186","李","430","","","","","","","","","","","","","","","","","","","","","","","","","","","","","","","","","","","","","","","","","",""
"692","<p style=""color:white; font-size: 35px;"">天才</p>","i","categorize-html","55","112004","0.0-6.0-0.0-4.0-1.10","3","3","3","4","4","3","3","4","4","3","4","1","2","5","2","4","3","2","4","5","2","2","2","2","2","1","1","2","1","1","0","1","1","0","0","0","1","0","1","1","0","1","0","1","4","4","5","2","4","2","5","4","5","4","2","790214171080925186","李","430","","","","","","","","","","","","","","","","","","","true","2","2","ability","692","positive","天才","","","","","","","","","","","","","","","","",""
"null","","null","html-keyboard-response","56","112260","0.0-6.0-0.0-4.0-0.11","3","3","3","4","4","3","3","4","4","3","4","1","2","5","2","4","3","2","4","5","2","2","2","2","2","1","1","2","1","1","0","1","1","0","0","0","1","0","1","1","0","1","0","1","4","4","5","2","4","2","5","4","5","4","2","790214171080925186","李","430","","","","","","","","","","","","","","","","","","","","","","","","","","","","","","","","","","","","","","","","","",""
"667","<p style=""color:white; font-size: 35px;"">全才</p>","i","categorize-html","57","112932","0.0-6.0-0.0-4.0-1.11","3","3","3","4","4","3","3","4","4","3","4","1","2","5","2","4","3","2","4","5","2","2","2","2","2","1","1","2","1","1","0","1","1","0","0","0","1","0","1","1","0","1","0","1","4","4","5","2","4","2","5","4","5","4","2","790214171080925186","李","430","","","","","","","","","","","","","","","","","","","true","2","2","ability","667","positive","全才","","","","","","","","","","","","","","","","",""
"778","
    <div class=""tag-bottom""><p>
    —— 任务3：对“自我/消极”词和“他人/积极”词分类 ——<p/>
    <span style=""color:#78DCE8""><b>注意上方，之前的四类词语将混合在一起交替呈现</b></span><p/>
    <span style=""color:#FFD866""><b>请根据上方标签的提示，尽可能正确并且快速地做出按键反应</b></span><p/>
    当按键错误时屏幕中会出现<span style=""color:red""> X </span>，需要按另一个键纠正才能继续<br/><p/>
    请把双手食指分别放在键盘的“E”键和“I”键上<p/>
    按<空格键>开始
    </p></div>"," ","html-keyboard-response","58","113713","0.0-6.0-0.0-5.0","3","3","3","4","4","3","3","4","4","3","4","1","2","5","2","4","3","2","4","5","2","2","2","2","2","1","1","2","1","1","0","1","1","0","0","0","1","0","1","1","0","1","0","1","4","4","5","2","4","2","5","4","5","4","2","790214171080925186","李","430","","","","","","","","","","","","","","","","","","","","","","","","","","","","","","","","","","","","","","","","","",""
"null","","null","html-keyboard-response","59","113972","0.0-6.0-0.0-6.0-0.0","3","3","3","4","4","3","3","4","4","3","4","1","2","5","2","4","3","2","4","5","2","2","2","2","2","1","1","2","1","1","0","1","1","0","0","0","1","0","1","1","0","1","0","1","4","4","5","2","4","2","5","4","5","4","2","790214171080925186","李","430","","","","","","","","","","","","","","","","","","","","","","","","","","","","","","","","","","","","","","","","","",""
"930","<p style=""color:rgb(150, 250, 100); font-size: 35px;"">他人的</p>","i","categorize-html","60","114908","0.0-6.0-0.0-6.0-1.0","3","3","3","4","4","3","3","4","4","3","4","1","2","5","2","4","3","2","4","5","2","2","2","2","2","1","1","2","1","1","0","1","1","0","0","0","1","0","1","1","0","1","0","1","4","4","5","2","4","2","5","4","5","4","2","790214171080925186","李","430","","","","","","","","","","","","","","","","","","","true","3","3","ability","930","other","他人的","","","","","","","","","","","","","","","","",""
"null","","null","html-keyboard-response","61","115164","0.0-6.0-0.0-6.0-0.1","3","3","3","4","4","3","3","4","4","3","4","1","2","5","2","4","3","2","4","5","2","2","2","2","2","1","1","2","1","1","0","1","1","0","0","0","1","0","1","1","0","1","0","1","4","4","5","2","4","2","5","4","5","4","2","790214171080925186","李","430","","","","","","","","","","","","","","","","","","","","","","","","","","","","","","","","","","","","","","","","","",""
"1155","<p style=""color:white; font-size: 35px;"">能干</p>","i","categorize-html","62","116324","0.0-6.0-0.0-6.0-1.1","3","3","3","4","4","3","3","4","4","3","4","1","2","5","2","4","3","2","4","5","2","2","2","2","2","1","1","2","1","1","0","1","1","0","0","0","1","0","1","1","0","1","0","1","4","4","5","2","4","2","5","4","5","4","2","790214171080925186","李","430","","","","","","","","","","","","","","","","","","","true","3","3","ability","1155","positive","能干","","","","","","","","","","","","","","","","",""
"null","","null","html-keyboard-response","63","116580","0.0-6.0-0.0-6.0-0.2","3","3","3","4","4","3","3","4","4","3","4","1","2","5","2","4","3","2","4","5","2","2","2","2","2","1","1","2","1","1","0","1","1","0","0","0","1","0","1","1","0","1","0","1","4","4","5","2","4","2","5","4","5","4","2","790214171080925186","李","430","","","","","","","","","","","","","","","","","","","","","","","","","","","","","","","","","","","","","","","","","",""
"812","<p style=""color:rgb(150, 250, 100); font-size: 35px;"">自己</p>","e","categorize-html","64","117396","0.0-6.0-0.0-6.0-1.2","3","3","3","4","4","3","3","4","4","3","4","1","2","5","2","4","3","2","4","5","2","2","2","2","2","1","1","2","1","1","0","1","1","0","0","0","1","0","1","1","0","1","0","1","4","4","5","2","4","2","5","4","5","4","2","790214171080925186","李","430","","","","","","","","","","","","","","","","","","","true","3","3","ability","812","self","自己","","","","","","","","","","","","","","","","",""
"null","","null","html-keyboard-response","65","117651","0.0-6.0-0.0-6.0-0.3","3","3","3","4","4","3","3","4","4","3","4","1","2","5","2","4","3","2","4","5","2","2","2","2","2","1","1","2","1","1","0","1","1","0","0","0","1","0","1","1","0","1","0","1","4","4","5","2","4","2","5","4","5","4","2","790214171080925186","李","430","","","","","","","","","","","","","","","","","","","","","","","","","","","","","","","","","","","","","","","","","",""
"2796","<p style=""color:white; font-size: 35px;"">低能</p>","e","categorize-html","66","120452","0.0-6.0-0.0-6.0-1.3","3","3","3","4","4","3","3","4","4","3","4","1","2","5","2","4","3","2","4","5","2","2","2","2","2","1","1","2","1","1","0","1","1","0","0","0","1","0","1","1","0","1","0","1","4","4","5","2","4","2","5","4","5","4","2","790214171080925186","李","430","","","","","","","","","","","","","","","","","","","true","3","3","ability","2796","negative","低能","","","","","","","","","","","","","","","","",""
"null","","null","html-keyboard-response","67","120707","0.0-6.0-0.0-6.0-0.4","3","3","3","4","4","3","3","4","4","3","4","1","2","5","2","4","3","2","4","5","2","2","2","2","2","1","1","2","1","1","0","1","1","0","0","0","1","0","1","1","0","1","0","1","4","4","5","2","4","2","5","4","5","4","2","790214171080925186","李","430","","","","","","","","","","","","","","","","","","","","","","","","","","","","","","","","","","","","","","","","","",""
"644","<p style=""color:rgb(150, 250, 100); font-size: 35px;"">我的</p>","e","categorize-html","68","121356","0.0-6.0-0.0-6.0-1.4","3","3","3","4","4","3","3","4","4","3","4","1","2","5","2","4","3","2","4","5","2","2","2","2","2","1","1","2","1","1","0","1","1","0","0","0","1","0","1","1","0","1","0","1","4","4","5","2","4","2","5","4","5","4","2","790214171080925186","李","430","","","","","","","","","","","","","","","","","","","true","3","3","ability","644","self","我的","","","","","","","","","","","","","","","","",""
"null","","null","html-keyboard-response","69","121611","0.0-6.0-0.0-6.0-0.5","3","3","3","4","4","3","3","4","4","3","4","1","2","5","2","4","3","2","4","5","2","2","2","2","2","1","1","2","1","1","0","1","1","0","0","0","1","0","1","1","0","1","0","1","4","4","5","2","4","2","5","4","5","4","2","790214171080925186","李","430","","","","","","","","","","","","","","","","","","","","","","","","","","","","","","","","","","","","","","","","","",""
"716","<p style=""color:white; font-size: 35px;"">全才</p>","i","categorize-html","70","122332","0.0-6.0-0.0-6.0-1.5","3","3","3","4","4","3","3","4","4","3","4","1","2","5","2","4","3","2","4","5","2","2","2","2","2","1","1","2","1","1","0","1","1","0","0","0","1","0","1","1","0","1","0","1","4","4","5","2","4","2","5","4","5","4","2","790214171080925186","李","430","","","","","","","","","","","","","","","","","","","true","3","3","ability","716","positive","全才","","","","","","","","","","","","","","","","",""
"null","","null","html-keyboard-response","71","122587","0.0-6.0-0.0-6.0-0.6","3","3","3","4","4","3","3","4","4","3","4","1","2","5","2","4","3","2","4","5","2","2","2","2","2","1","1","2","1","1","0","1","1","0","0","0","1","0","1","1","0","1","0","1","4","4","5","2","4","2","5","4","5","4","2","790214171080925186","李","430","","","","","","","","","","","","","","","","","","","","","","","","","","","","","","","","","","","","","","","","","",""
"612","<p style=""color:rgb(150, 250, 100); font-size: 35px;"">别人</p>","i","categorize-html","72","123204","0.0-6.0-0.0-6.0-1.6","3","3","3","4","4","3","3","4","4","3","4","1","2","5","2","4","3","2","4","5","2","2","2","2","2","1","1","2","1","1","0","1","1","0","0","0","1","0","1","1","0","1","0","1","4","4","5","2","4","2","5","4","5","4","2","790214171080925186","李","430","","","","","","","","","","","","","","","","","","","true","3","3","ability","612","other","别人","","","","","","","","","","","","","","","","",""
"null","","null","html-keyboard-response","73","123459","0.0-6.0-0.0-6.0-0.7","3","3","3","4","4","3","3","4","4","3","4","1","2","5","2","4","3","2","4","5","2","2","2","2","2","1","1","2","1","1","0","1","1","0","0","0","1","0","1","1","0","1","0","1","4","4","5","2","4","2","5","4","5","4","2","790214171080925186","李","430","","","","","","","","","","","","","","","","","","","","","","","","","","","","","","","","","","","","","","","","","",""
"844","<p style=""color:white; font-size: 35px;"">无能</p>","e","categorize-html","74","124308","0.0-6.0-0.0-6.0-1.7","3","3","3","4","4","3","3","4","4","3","4","1","2","5","2","4","3","2","4","5","2","2","2","2","2","1","1","2","1","1","0","1","1","0","0","0","1","0","1","1","0","1","0","1","4","4","5","2","4","2","5","4","5","4","2","790214171080925186","李","430","","","","","","","","","","","","","","","","","","","true","3","3","ability","844","negative","无能","","","","","","","","","","","","","","","","",""
"null","","null","html-keyboard-response","75","124563","0.0-6.0-0.0-6.0-0.8","3","3","3","4","4","3","3","4","4","3","4","1","2","5","2","4","3","2","4","5","2","2","2","2","2","1","1","2","1","1","0","1","1","0","0","0","1","0","1","1","0","1","0","1","4","4","5","2","4","2","5","4","5","4","2","790214171080925186","李","430","","","","","","","","","","","","","","","","","","","","","","","","","","","","","","","","","","","","","","","","","",""
"748","<p style=""color:rgb(150, 250, 100); font-size: 35px;"">他的</p>","i","categorize-html","76","125316","0.0-6.0-0.0-6.0-1.8","3","3","3","4","4","3","3","4","4","3","4","1","2","5","2","4","3","2","4","5","2","2","2","2","2","1","1","2","1","1","0","1","1","0","0","0","1","0","1","1","0","1","0","1","4","4","5","2","4","2","5","4","5","4","2","790214171080925186","李","430","","","","","","","","","","","","","","","","","","","true","3","3","ability","748","other","他的","","","","","","","","","","","","","","","","",""
"null","","null","html-keyboard-response","77","125571","0.0-6.0-0.0-6.0-0.9","3","3","3","4","4","3","3","4","4","3","4","1","2","5","2","4","3","2","4","5","2","2","2","2","2","1","1","2","1","1","0","1","1","0","0","0","1","0","1","1","0","1","0","1","4","4","5","2","4","2","5","4","5","4","2","790214171080925186","李","430","","","","","","","","","","","","","","","","","","","","","","","","","","","","","","","","","","","","","","","","","",""
"596","<p style=""color:white; font-size: 35px;"">废物</p>","e","categorize-html","78","126172","0.0-6.0-0.0-6.0-1.9","3","3","3","4","4","3","3","4","4","3","4","1","2","5","2","4","3","2","4","5","2","2","2","2","2","1","1","2","1","1","0","1","1","0","0","0","1","0","1","1","0","1","0","1","4","4","5","2","4","2","5","4","5","4","2","790214171080925186","李","430","","","","","","","","","","","","","","","","","","","true","3","3","ability","596","negative","废物","","","","","","","","","","","","","","","","",""
"null","","null","html-keyboard-response","79","126427","0.0-6.0-0.0-6.0-0.10","3","3","3","4","4","3","3","4","4","3","4","1","2","5","2","4","3","2","4","5","2","2","2","2","2","1","1","2","1","1","0","1","1","0","0","0","1","0","1","1","0","1","0","1","4","4","5","2","4","2","5","4","5","4","2","790214171080925186","李","430","","","","","","","","","","","","","","","","","","","","","","","","","","","","","","","","","","","","","","","","","",""
"1468","<p style=""color:rgb(150, 250, 100); font-size: 35px;"">自己的</p>","e","categorize-html","80","127900","0.0-6.0-0.0-6.0-1.10","3","3","3","4","4","3","3","4","4","3","4","1","2","5","2","4","3","2","4","5","2","2","2","2","2","1","1","2","1","1","0","1","1","0","0","0","1","0","1","1","0","1","0","1","4","4","5","2","4","2","5","4","5","4","2","790214171080925186","李","430","","","","","","","","","","","","","","","","","","","true","3","3","ability","1468","self","自己的","","","","","","","","","","","","","","","","",""
"null","","null","html-keyboard-response","81","128155","0.0-6.0-0.0-6.0-0.11","3","3","3","4","4","3","3","4","4","3","4","1","2","5","2","4","3","2","4","5","2","2","2","2","2","1","1","2","1","1","0","1","1","0","0","0","1","0","1","1","0","1","0","1","4","4","5","2","4","2","5","4","5","4","2","790214171080925186","李","430","","","","","","","","","","","","","","","","","","","","","","","","","","","","","","","","","","","","","","","","","",""
"963","<p style=""color:white; font-size: 35px;"">天才</p>","i","categorize-html","82","129124","0.0-6.0-0.0-6.0-1.11","3","3","3","4","4","3","3","4","4","3","4","1","2","5","2","4","3","2","4","5","2","2","2","2","2","1","1","2","1","1","0","1","1","0","0","0","1","0","1","1","0","1","0","1","4","4","5","2","4","2","5","4","5","4","2","790214171080925186","李","430","","","","","","","","","","","","","","","","","","","true","3","3","ability","963","positive","天才","","","","","","","","","","","","","","","","",""
"null","","null","html-keyboard-response","83","129380","0.0-6.0-0.0-6.0-0.12","3","3","3","4","4","3","3","4","4","3","4","1","2","5","2","4","3","2","4","5","2","2","2","2","2","1","1","2","1","1","0","1","1","0","0","0","1","0","1","1","0","1","0","1","4","4","5","2","4","2","5","4","5","4","2","790214171080925186","李","430","","","","","","","","","","","","","","","","","","","","","","","","","","","","","","","","","","","","","","","","","",""
"683","<p style=""color:rgb(150, 250, 100); font-size: 35px;"">本人</p>","i","categorize-html","84","130753","0.0-6.0-0.0-6.0-1.12","3","3","3","4","4","3","3","4","4","3","4","1","2","5","2","4","3","2","4","5","2","2","2","2","2","1","1","2","1","1","0","1","1","0","0","0","1","0","1","1","0","1","0","1","4","4","5","2","4","2","5","4","5","4","2","790214171080925186","李","430","","","","","","","","","","","","","","","","","","","false","3","3","ability","1763.8695652173913","self","本人","","","","","","","","","","","","","","","","",""
"null","","null","html-keyboard-response","85","131012","0.0-6.0-0.0-6.0-0.13","3","3","3","4","4","3","3","4","4","3","4","1","2","5","2","4","3","2","4","5","2","2","2","2","2","1","1","2","1","1","0","1","1","0","0","0","1","0","1","1","0","1","0","1","4","4","5","2","4","2","5","4","5","4","2","790214171080925186","李","430","","","","","","","","","","","","","","","","","","","","","","","","","","","","","","","","","","","","","","","","","",""
"1259","<p style=""color:white; font-size: 35px;"">精干</p>","i","categorize-html","86","132276","0.0-6.0-0.0-6.0-1.13","3","3","3","4","4","3","3","4","4","3","4","1","2","5","2","4","3","2","4","5","2","2","2","2","2","1","1","2","1","1","0","1","1","0","0","0","1","0","1","1","0","1","0","1","4","4","5","2","4","2","5","4","5","4","2","790214171080925186","李","430","","","","","","","","","","","","","","","","","","","true","3","3","ability","1259","positive","精干","","","","","","","","","","","","","","","","",""
"null","","null","html-keyboard-response","87","132532","0.0-6.0-0.0-6.0-0.14","3","3","3","4","4","3","3","4","4","3","4","1","2","5","2","4","3","2","4","5","2","2","2","2","2","1","1","2","1","1","0","1","1","0","0","0","1","0","1","1","0","1","0","1","4","4","5","2","4","2","5","4","5","4","2","790214171080925186","李","430","","","","","","","","","","","","","","","","","","","","","","","","","","","","","","","","","","","","","","","","","",""
"795","<p style=""color:rgb(150, 250, 100); font-size: 35px;"">他</p>","i","categorize-html","88","133332","0.0-6.0-0.0-6.0-1.14","3","3","3","4","4","3","3","4","4","3","4","1","2","5","2","4","3","2","4","5","2","2","2","2","2","1","1","2","1","1","0","1","1","0","0","0","1","0","1","1","0","1","0","1","4","4","5","2","4","2","5","4","5","4","2","790214171080925186","李","430","","","","","","","","","","","","","","","","","","","true","3","3","ability","795","other","他","","","","","","","","","","","","","","","","",""
"null","","null","html-keyboard-response","89","133588","0.0-6.0-0.0-6.0-0.15","3","3","3","4","4","3","3","4","4","3","4","1","2","5","2","4","3","2","4","5","2","2","2","2","2","1","1","2","1","1","0","1","1","0","0","0","1","0","1","1","0","1","0","1","4","4","5","2","4","2","5","4","5","4","2","790214171080925186","李","430","","","","","","","","","","","","","","","","","","","","","","","","","","","","","","","","","","","","","","","","","",""
"1484","<p style=""color:white; font-size: 35px;"">拙笨</p>","e","categorize-html","90","135077","0.0-6.0-0.0-6.0-1.15","3","3","3","4","4","3","3","4","4","3","4","1","2","5","2","4","3","2","4","5","2","2","2","2","2","1","1","2","1","1","0","1","1","0","0","0","1","0","1","1","0","1","0","1","4","4","5","2","4","2","5","4","5","4","2","790214171080925186","李","430","","","","","","","","","","","","","","","","","","","true","3","3","ability","1484","negative","拙笨","","","","","","","","","","","","","","","","",""
"null","","null","html-keyboard-response","91","135332","0.0-6.0-0.0-6.0-0.16","3","3","3","4","4","3","3","4","4","3","4","1","2","5","2","4","3","2","4","5","2","2","2","2","2","1","1","2","1","1","0","1","1","0","0","0","1","0","1","1","0","1","0","1","4","4","5","2","4","2","5","4","5","4","2","790214171080925186","李","430","","","","","","","","","","","","","","","","","","","","","","","","","","","","","","","","","","","","","","","","","",""
"1347","<p style=""color:rgb(150, 250, 100); font-size: 35px;"">本人的</p>","e","categorize-html","92","136684","0.0-6.0-0.0-6.0-1.16","3","3","3","4","4","3","3","4","4","3","4","1","2","5","2","4","3","2","4","5","2","2","2","2","2","1","1","2","1","1","0","1","1","0","0","0","1","0","1","1","0","1","0","1","4","4","5","2","4","2","5","4","5","4","2","790214171080925186","李","430","","","","","","","","","","","","","","","","","","","true","3","3","ability","1347","self","本人的","","","","","","","","","","","","","","","","",""
"null","","null","html-keyboard-response","93","136940","0.0-6.0-0.0-6.0-0.17","3","3","3","4","4","3","3","4","4","3","4","1","2","5","2","4","3","2","4","5","2","2","2","2","2","1","1","2","1","1","0","1","1","0","0","0","1","0","1","1","0","1","0","1","4","4","5","2","4","2","5","4","5","4","2","790214171080925186","李","430","","","","","","","","","","","","","","","","","","","","","","","","","","","","","","","","","","","","","","","","","",""
"3675","<p style=""color:white; font-size: 35px;"">全能</p>","i","categorize-html","94","140621","0.0-6.0-0.0-6.0-1.17","3","3","3","4","4","3","3","4","4","3","4","1","2","5","2","4","3","2","4","5","2","2","2","2","2","1","1","2","1","1","0","1","1","0","0","0","1","0","1","1","0","1","0","1","4","4","5","2","4","2","5","4","5","4","2","790214171080925186","李","430","","","","","","","","","","","","","","","","","","","true","3","3","ability","3675","positive","全能","","","","","","","","","","","","","","","","",""
"null","","null","html-keyboard-response","95","140876","0.0-6.0-0.0-6.0-0.18","3","3","3","4","4","3","3","4","4","3","4","1","2","5","2","4","3","2","4","5","2","2","2","2","2","1","1","2","1","1","0","1","1","0","0","0","1","0","1","1","0","1","0","1","4","4","5","2","4","2","5","4","5","4","2","790214171080925186","李","430","","","","","","","","","","","","","","","","","","","","","","","","","","","","","","","","","","","","","","","","","",""
"996","<p style=""color:rgb(150, 250, 100); font-size: 35px;"">他人</p>","i","categorize-html","96","141878","0.0-6.0-0.0-6.0-1.18","3","3","3","4","4","3","3","4","4","3","4","1","2","5","2","4","3","2","4","5","2","2","2","2","2","1","1","2","1","1","0","1","1","0","0","0","1","0","1","1","0","1","0","1","4","4","5","2","4","2","5","4","5","4","2","790214171080925186","李","430","","","","","","","","","","","","","","","","","","","true","3","3","ability","996","other","他人","","","","","","","","","","","","","","","","",""
"null","","null","html-keyboard-response","97","142132","0.0-6.0-0.0-6.0-0.19","3","3","3","4","4","3","3","4","4","3","4","1","2","5","2","4","3","2","4","5","2","2","2","2","2","1","1","2","1","1","0","1","1","0","0","0","1","0","1","1","0","1","0","1","4","4","5","2","4","2","5","4","5","4","2","790214171080925186","李","430","","","","","","","","","","","","","","","","","","","","","","","","","","","","","","","","","","","","","","","","","",""
"772","<p style=""color:white; font-size: 35px;"">愚钝</p>","e","categorize-html","98","142908","0.0-6.0-0.0-6.0-1.19","3","3","3","4","4","3","3","4","4","3","4","1","2","5","2","4","3","2","4","5","2","2","2","2","2","1","1","2","1","1","0","1","1","0","0","0","1","0","1","1","0","1","0","1","4","4","5","2","4","2","5","4","5","4","2","790214171080925186","李","430","","","","","","","","","","","","","","","","","","","true","3","3","ability","772","negative","愚钝","","","","","","","","","","","","","","","","",""
"null","","null","html-keyboard-response","99","143164","0.0-6.0-0.0-6.0-0.20","3","3","3","4","4","3","3","4","4","3","4","1","2","5","2","4","3","2","4","5","2","2","2","2","2","1","1","2","1","1","0","1","1","0","0","0","1","0","1","1","0","1","0","1","4","4","5","2","4","2","5","4","5","4","2","790214171080925186","李","430","","","","","","","","","","","","","","","","","","","","","","","","","","","","","","","","","","","","","","","","","",""
"779","<p style=""color:rgb(150, 250, 100); font-size: 35px;"">别人的</p>","i","categorize-html","100","143948","0.0-6.0-0.0-6.0-1.20","3","3","3","4","4","3","3","4","4","3","4","1","2","5","2","4","3","2","4","5","2","2","2","2","2","1","1","2","1","1","0","1","1","0","0","0","1","0","1","1","0","1","0","1","4","4","5","2","4","2","5","4","5","4","2","790214171080925186","李","430","","","","","","","","","","","","","","","","","","","true","3","3","ability","779","other","别人的","","","","","","","","","","","","","","","","",""
"null","","null","html-keyboard-response","101","144204","0.0-6.0-0.0-6.0-0.21","3","3","3","4","4","3","3","4","4","3","4","1","2","5","2","4","3","2","4","5","2","2","2","2","2","1","1","2","1","1","0","1","1","0","0","0","1","0","1","1","0","1","0","1","4","4","5","2","4","2","5","4","5","4","2","790214171080925186","李","430","","","","","","","","","","","","","","","","","","","","","","","","","","","","","","","","","","","","","","","","","",""
"1660","<p style=""color:white; font-size: 35px;"">高效</p>","i","categorize-html","102","145869","0.0-6.0-0.0-6.0-1.21","3","3","3","4","4","3","3","4","4","3","4","1","2","5","2","4","3","2","4","5","2","2","2","2","2","1","1","2","1","1","0","1","1","0","0","0","1","0","1","1","0","1","0","1","4","4","5","2","4","2","5","4","5","4","2","790214171080925186","李","430","","","","","","","","","","","","","","","","","","","true","3","3","ability","1660","positive","高效","","","","","","","","","","","","","","","","",""
"null","","null","html-keyboard-response","103","146124","0.0-6.0-0.0-6.0-0.22","3","3","3","4","4","3","3","4","4","3","4","1","2","5","2","4","3","2","4","5","2","2","2","2","2","1","1","2","1","1","0","1","1","0","0","0","1","0","1","1","0","1","0","1","4","4","5","2","4","2","5","4","5","4","2","790214171080925186","李","430","","","","","","","","","","","","","","","","","","","","","","","","","","","","","","","","","","","","","","","","","",""
"923","<p style=""color:rgb(150, 250, 100); font-size: 35px;"">我</p>","e","categorize-html","104","147052","0.0-6.0-0.0-6.0-1.22","3","3","3","4","4","3","3","4","4","3","4","1","2","5","2","4","3","2","4","5","2","2","2","2","2","1","1","2","1","1","0","1","1","0","0","0","1","0","1","1","0","1","0","1","4","4","5","2","4","2","5","4","5","4","2","790214171080925186","李","430","","","","","","","","","","","","","","","","","","","true","3","3","ability","923","self","我","","","","","","","","","","","","","","","","",""
"null","","null","html-keyboard-response","105","147308","0.0-6.0-0.0-6.0-0.23","3","3","3","4","4","3","3","4","4","3","4","1","2","5","2","4","3","2","4","5","2","2","2","2","2","1","1","2","1","1","0","1","1","0","0","0","1","0","1","1","0","1","0","1","4","4","5","2","4","2","5","4","5","4","2","790214171080925186","李","430","","","","","","","","","","","","","","","","","","","","","","","","","","","","","","","","","","","","","","","","","",""
"795","<p style=""color:white; font-size: 35px;"">蠢笨</p>","e","categorize-html","106","148108","0.0-6.0-0.0-6.0-1.23","3","3","3","4","4","3","3","4","4","3","4","1","2","5","2","4","3","2","4","5","2","2","2","2","2","1","1","2","1","1","0","1","1","0","0","0","1","0","1","1","0","1","0","1","4","4","5","2","4","2","5","4","5","4","2","790214171080925186","李","430","","","","","","","","","","","","","","","","","","","true","3","3","ability","795","negative","蠢笨","","","","","","","","","","","","","","","","",""
"753","
    <div class=""tag-bottom""><p>
    —— 任务4：对“自我/消极”词和“他人/积极”词分类 ——<p/>
    <span style=""color:#78DCE8""><b>与刚才的任务完全相同，请再次对这四类词语分类</b></span><p/>
    <span style=""color:#FFD866""><b>请根据上方标签的提示，尽可能正确并且快速地做出按键反应</b></span><p/>
    当按键错误时屏幕中会出现<span style=""color:red""> X </span>，需要按另一个键纠正才能继续<br/><p/>
    请把双手食指分别放在键盘的“E”键和“I”键上<p/>
    按<空格键>开始
    </p></div>"," ","html-keyboard-response","107","148865","0.0-6.0-0.0-7.0","3","3","3","4","4","3","3","4","4","3","4","1","2","5","2","4","3","2","4","5","2","2","2","2","2","1","1","2","1","1","0","1","1","0","0","0","1","0","1","1","0","1","0","1","4","4","5","2","4","2","5","4","5","4","2","790214171080925186","李","430","","","","","","","","","","","","","","","","","","","","","","","","","","","","","","","","","","","","","","","","","",""
"null","","null","html-keyboard-response","108","149124","0.0-6.0-0.0-8.0-0.0","3","3","3","4","4","3","3","4","4","3","4","1","2","5","2","4","3","2","4","5","2","2","2","2","2","1","1","2","1","1","0","1","1","0","0","0","1","0","1","1","0","1","0","1","4","4","5","2","4","2","5","4","5","4","2","790214171080925186","李","430","","","","","","","","","","","","","","","","","","","","","","","","","","","","","","","","","","","","","","","","","",""
"882","<p style=""color:rgb(150, 250, 100); font-size: 35px;"">本人的</p>","e","categorize-html","109","150012","0.0-6.0-0.0-8.0-1.0","3","3","3","4","4","3","3","4","4","3","4","1","2","5","2","4","3","2","4","5","2","2","2","2","2","1","1","2","1","1","0","1","1","0","0","0","1","0","1","1","0","1","0","1","4","4","5","2","4","2","5","4","5","4","2","790214171080925186","李","430","","","","","","","","","","","","","","","","","","","true","4","4","ability","882","self","本人的","","","","","","","","","","","","","","","","",""
"null","","null","html-keyboard-response","110","150268","0.0-6.0-0.0-8.0-0.1","3","3","3","4","4","3","3","4","4","3","4","1","2","5","2","4","3","2","4","5","2","2","2","2","2","1","1","2","1","1","0","1","1","0","0","0","1","0","1","1","0","1","0","1","4","4","5","2","4","2","5","4","5","4","2","790214171080925186","李","430","","","","","","","","","","","","","","","","","","","","","","","","","","","","","","","","","","","","","","","","","",""
"571","<p style=""color:white; font-size: 35px;"">废物</p>","e","categorize-html","111","150844","0.0-6.0-0.0-8.0-1.1","3","3","3","4","4","3","3","4","4","3","4","1","2","5","2","4","3","2","4","5","2","2","2","2","2","1","1","2","1","1","0","1","1","0","0","0","1","0","1","1","0","1","0","1","4","4","5","2","4","2","5","4","5","4","2","790214171080925186","李","430","","","","","","","","","","","","","","","","","","","true","4","4","ability","571","negative","废物","","","","","","","","","","","","","","","","",""
"null","","null","html-keyboard-response","112","151100","0.0-6.0-0.0-8.0-0.2","3","3","3","4","4","3","3","4","4","3","4","1","2","5","2","4","3","2","4","5","2","2","2","2","2","1","1","2","1","1","0","1","1","0","0","0","1","0","1","1","0","1","0","1","4","4","5","2","4","2","5","4","5","4","2","790214171080925186","李","430","","","","","","","","","","","","","","","","","","","","","","","","","","","","","","","","","","","","","","","","","",""
"611","<p style=""color:rgb(150, 250, 100); font-size: 35px;"">他</p>","i","categorize-html","113","151716","0.0-6.0-0.0-8.0-1.2","3","3","3","4","4","3","3","4","4","3","4","1","2","5","2","4","3","2","4","5","2","2","2","2","2","1","1","2","1","1","0","1","1","0","0","0","1","0","1","1","0","1","0","1","4","4","5","2","4","2","5","4","5","4","2","790214171080925186","李","430","","","","","","","","","","","","","","","","","","","true","4","4","ability","611","other","他","","","","","","","","","","","","","","","","",""
"null","","null","html-keyboard-response","114","151972","0.0-6.0-0.0-8.0-0.3","3","3","3","4","4","3","3","4","4","3","4","1","2","5","2","4","3","2","4","5","2","2","2","2","2","1","1","2","1","1","0","1","1","0","0","0","1","0","1","1","0","1","0","1","4","4","5","2","4","2","5","4","5","4","2","790214171080925186","李","430","","","","","","","","","","","","","","","","","","","","","","","","","","","","","","","","","","","","","","","","","",""
"563","<p style=""color:white; font-size: 35px;"">全才</p>","i","categorize-html","115","152540","0.0-6.0-0.0-8.0-1.3","3","3","3","4","4","3","3","4","4","3","4","1","2","5","2","4","3","2","4","5","2","2","2","2","2","1","1","2","1","1","0","1","1","0","0","0","1","0","1","1","0","1","0","1","4","4","5","2","4","2","5","4","5","4","2","790214171080925186","李","430","","","","","","","","","","","","","","","","","","","true","4","4","ability","563","positive","全才","","","","","","","","","","","","","","","","",""
"null","","null","html-keyboard-response","116","152796","0.0-6.0-0.0-8.0-0.4","3","3","3","4","4","3","3","4","4","3","4","1","2","5","2","4","3","2","4","5","2","2","2","2","2","1","1","2","1","1","0","1","1","0","0","0","1","0","1","1","0","1","0","1","4","4","5","2","4","2","5","4","5","4","2","790214171080925186","李","430","","","","","","","","","","","","","","","","","","","","","","","","","","","","","","","","","","","","","","","","","",""
"579","<p style=""color:rgb(150, 250, 100); font-size: 35px;"">我的</p>","e","categorize-html","117","153380","0.0-6.0-0.0-8.0-1.4","3","3","3","4","4","3","3","4","4","3","4","1","2","5","2","4","3","2","4","5","2","2","2","2","2","1","1","2","1","1","0","1","1","0","0","0","1","0","1","1","0","1","0","1","4","4","5","2","4","2","5","4","5","4","2","790214171080925186","李","430","","","","","","","","","","","","","","","","","","","true","4","4","ability","579","self","我的","","","","","","","","","","","","","","","","",""
"null","","null","html-keyboard-response","118","153636","0.0-6.0-0.0-8.0-0.5","3","3","3","4","4","3","3","4","4","3","4","1","2","5","2","4","3","2","4","5","2","2","2","2","2","1","1","2","1","1","0","1","1","0","0","0","1","0","1","1","0","1","0","1","4","4","5","2","4","2","5","4","5","4","2","790214171080925186","李","430","","","","","","","","","","","","","","","","","","","","","","","","","","","","","","","","","","","","","","","","","",""
"595","<p style=""color:white; font-size: 35px;"">蠢笨</p>","e","categorize-html","119","154238","0.0-6.0-0.0-8.0-1.5","3","3","3","4","4","3","3","4","4","3","4","1","2","5","2","4","3","2","4","5","2","2","2","2","2","1","1","2","1","1","0","1","1","0","0","0","1","0","1","1","0","1","0","1","4","4","5","2","4","2","5","4","5","4","2","790214171080925186","李","430","","","","","","","","","","","","","","","","","","","true","4","4","ability","595","negative","蠢笨","","","","","","","","","","","","","","","","",""
"null","","null","html-keyboard-response","120","154492","0.0-6.0-0.0-8.0-0.6","3","3","3","4","4","3","3","4","4","3","4","1","2","5","2","4","3","2","4","5","2","2","2","2","2","1","1","2","1","1","0","1","1","0","0","0","1","0","1","1","0","1","0","1","4","4","5","2","4","2","5","4","5","4","2","790214171080925186","李","430","","","","","","","","","","","","","","","","","","","","","","","","","","","","","","","","","","","","","","","","","",""
"611","<p style=""color:rgb(150, 250, 100); font-size: 35px;"">别人</p>","i","categorize-html","121","155108","0.0-6.0-0.0-8.0-1.6","3","3","3","4","4","3","3","4","4","3","4","1","2","5","2","4","3","2","4","5","2","2","2","2","2","1","1","2","1","1","0","1","1","0","0","0","1","0","1","1","0","1","0","1","4","4","5","2","4","2","5","4","5","4","2","790214171080925186","李","430","","","","","","","","","","","","","","","","","","","true","4","4","ability","611","other","别人","","","","","","","","","","","","","","","","",""
"null","","null","html-keyboard-response","122","155364","0.0-6.0-0.0-8.0-0.7","3","3","3","4","4","3","3","4","4","3","4","1","2","5","2","4","3","2","4","5","2","2","2","2","2","1","1","2","1","1","0","1","1","0","0","0","1","0","1","1","0","1","0","1","4","4","5","2","4","2","5","4","5","4","2","790214171080925186","李","430","","","","","","","","","","","","","","","","","","","","","","","","","","","","","","","","","","","","","","","","","",""
"636","<p style=""color:white; font-size: 35px;"">能干</p>","i","categorize-html","123","156005","0.0-6.0-0.0-8.0-1.7","3","3","3","4","4","3","3","4","4","3","4","1","2","5","2","4","3","2","4","5","2","2","2","2","2","1","1","2","1","1","0","1","1","0","0","0","1","0","1","1","0","1","0","1","4","4","5","2","4","2","5","4","5","4","2","790214171080925186","李","430","","","","","","","","","","","","","","","","","","","true","4","4","ability","636","positive","能干","","","","","","","","","","","","","","","","",""
"null","","null","html-keyboard-response","124","156268","0.0-6.0-0.0-8.0-0.8","3","3","3","4","4","3","3","4","4","3","4","1","2","5","2","4","3","2","4","5","2","2","2","2","2","1","1","2","1","1","0","1","1","0","0","0","1","0","1","1","0","1","0","1","4","4","5","2","4","2","5","4","5","4","2","790214171080925186","李","430","","","","","","","","","","","","","","","","","","","","","","","","","","","","","","","","","","","","","","","","","",""
"587","<p style=""color:rgb(150, 250, 100); font-size: 35px;"">自己的</p>","e","categorize-html","125","156860","0.0-6.0-0.0-8.0-1.8","3","3","3","4","4","3","3","4","4","3","4","1","2","5","2","4","3","2","4","5","2","2","2","2","2","1","1","2","1","1","0","1","1","0","0","0","1","0","1","1","0","1","0","1","4","4","5","2","4","2","5","4","5","4","2","790214171080925186","李","430","","","","","","","","","","","","","","","","","","","true","4","4","ability","587","self","自己的","","","","","","","","","","","","","","","","",""
"null","","null","html-keyboard-response","126","157117","0.0-6.0-0.0-8.0-0.9","3","3","3","4","4","3","3","4","4","3","4","1","2","5","2","4","3","2","4","5","2","2","2","2","2","1","1","2","1","1","0","1","1","0","0","0","1","0","1","1","0","1","0","1","4","4","5","2","4","2","5","4","5","4","2","790214171080925186","李","430","","","","","","","","","","","","","","","","","","","","","","","","","","","","","","","","","","","","","","","","","",""
"594","<p style=""color:white; font-size: 35px;"">高效</p>","e","categorize-html","127","158312","0.0-6.0-0.0-8.0-1.9","3","3","3","4","4","3","3","4","4","3","4","1","2","5","2","4","3","2","4","5","2","2","2","2","2","1","1","2","1","1","0","1","1","0","0","0","1","0","1","1","0","1","0","1","4","4","5","2","4","2","5","4","5","4","2","790214171080925186","李","430","","","","","","","","","","","","","","","","","","","false","4","4","ability","1394.093023255814","positive","高效","","","","","","","","","","","","","","","","",""
"null","","null","html-keyboard-response","128","158571","0.0-6.0-0.0-8.0-0.10","3","3","3","4","4","3","3","4","4","3","4","1","2","5","2","4","3","2","4","5","2","2","2","2","2","1","1","2","1","1","0","1","1","0","0","0","1","0","1","1","0","1","0","1","4","4","5","2","4","2","5","4","5","4","2","790214171080925186","李","430","","","","","","","","","","","","","","","","","","","","","","","","","","","","","","","","","","","","","","","","","",""
"972","<p style=""color:rgb(150, 250, 100); font-size: 35px;"">别人的</p>","i","categorize-html","129","159548","0.0-6.0-0.0-8.0-1.10","3","3","3","4","4","3","3","4","4","3","4","1","2","5","2","4","3","2","4","5","2","2","2","2","2","1","1","2","1","1","0","1","1","0","0","0","1","0","1","1","0","1","0","1","4","4","5","2","4","2","5","4","5","4","2","790214171080925186","李","430","","","","","","","","","","","","","","","","","","","true","4","4","ability","972","other","别人的","","","","","","","","","","","","","","","","",""
"null","","null","html-keyboard-response","130","159803","0.0-6.0-0.0-8.0-0.11","3","3","3","4","4","3","3","4","4","3","4","1","2","5","2","4","3","2","4","5","2","2","2","2","2","1","1","2","1","1","0","1","1","0","0","0","1","0","1","1","0","1","0","1","4","4","5","2","4","2","5","4","5","4","2","790214171080925186","李","430","","","","","","","","","","","","","","","","","","","","","","","","","","","","","","","","","","","","","","","","","",""
"580","<p style=""color:white; font-size: 35px;"">愚钝</p>","e","categorize-html","131","160388","0.0-6.0-0.0-8.0-1.11","3","3","3","4","4","3","3","4","4","3","4","1","2","5","2","4","3","2","4","5","2","2","2","2","2","1","1","2","1","1","0","1","1","0","0","0","1","0","1","1","0","1","0","1","4","4","5","2","4","2","5","4","5","4","2","790214171080925186","李","430","","","","","","","","","","","","","","","","","","","true","4","4","ability","580","negative","愚钝","","","","","","","","","","","","","","","","",""
"null","","null","html-keyboard-response","132","160643","0.0-6.0-0.0-8.0-0.12","3","3","3","4","4","3","3","4","4","3","4","1","2","5","2","4","3","2","4","5","2","2","2","2","2","1","1","2","1","1","0","1","1","0","0","0","1","0","1","1","0","1","0","1","4","4","5","2","4","2","5","4","5","4","2","790214171080925186","李","430","","","","","","","","","","","","","","","","","","","","","","","","","","","","","","","","","","","","","","","","","",""
"563","<p style=""color:rgb(150, 250, 100); font-size: 35px;"">他人</p>","e","categorize-html","133","161632","0.0-6.0-0.0-8.0-1.12","3","3","3","4","4","3","3","4","4","3","4","1","2","5","2","4","3","2","4","5","2","2","2","2","2","1","1","2","1","1","0","1","1","0","0","0","1","0","1","1","0","1","0","1","4","4","5","2","4","2","5","4","5","4","2","790214171080925186","李","430","","","","","","","","","","","","","","","","","","","false","4","4","ability","1394.093023255814","other","他人","","","","","","","","","","","","","","","","",""
"null","","null","html-keyboard-response","134","161891","0.0-6.0-0.0-8.0-0.13","3","3","3","4","4","3","3","4","4","3","4","1","2","5","2","4","3","2","4","5","2","2","2","2","2","1","1","2","1","1","0","1","1","0","0","0","1","0","1","1","0","1","0","1","4","4","5","2","4","2","5","4","5","4","2","790214171080925186","李","430","","","","","","","","","","","","","","","","","","","","","","","","","","","","","","","","","","","","","","","","","",""
"883","<p style=""color:white; font-size: 35px;"">愚钝</p>","e","categorize-html","135","162780","0.0-6.0-0.0-8.0-1.13","3","3","3","4","4","3","3","4","4","3","4","1","2","5","2","4","3","2","4","5","2","2","2","2","2","1","1","2","1","1","0","1","1","0","0","0","1","0","1","1","0","1","0","1","4","4","5","2","4","2","5","4","5","4","2","790214171080925186","李","430","","","","","","","","","","","","","","","","","","","true","4","4","ability","883","negative","愚钝","","","","","","","","","","","","","","","","",""
"null","","null","html-keyboard-response","136","163036","0.0-6.0-0.0-8.0-0.14","3","3","3","4","4","3","3","4","4","3","4","1","2","5","2","4","3","2","4","5","2","2","2","2","2","1","1","2","1","1","0","1","1","0","0","0","1","0","1","1","0","1","0","1","4","4","5","2","4","2","5","4","5","4","2","790214171080925186","李","430","","","","","","","","","","","","","","","","","","","","","","","","","","","","","","","","","","","","","","","","","",""
"1155","<p style=""color:rgb(150, 250, 100); font-size: 35px;"">本人的</p>","e","categorize-html","137","164196","0.0-6.0-0.0-8.0-1.14","3","3","3","4","4","3","3","4","4","3","4","1","2","5","2","4","3","2","4","5","2","2","2","2","2","1","1","2","1","1","0","1","1","0","0","0","1","0","1","1","0","1","0","1","4","4","5","2","4","2","5","4","5","4","2","790214171080925186","李","430","","","","","","","","","","","","","","","","","","","true","4","4","ability","1155","self","本人的","","","","","","","","","","","","","","","","",""
"null","","null","html-keyboard-response","138","164452","0.0-6.0-0.0-8.0-0.15","3","3","3","4","4","3","3","4","4","3","4","1","2","5","2","4","3","2","4","5","2","2","2","2","2","1","1","2","1","1","0","1","1","0","0","0","1","0","1","1","0","1","0","1","4","4","5","2","4","2","5","4","5","4","2","790214171080925186","李","430","","","","","","","","","","","","","","","","","","","","","","","","","","","","","","","","","","","","","","","","","",""
"811","<p style=""color:white; font-size: 35px;"">天才</p>","i","categorize-html","139","165268","0.0-6.0-0.0-8.0-1.15","3","3","3","4","4","3","3","4","4","3","4","1","2","5","2","4","3","2","4","5","2","2","2","2","2","1","1","2","1","1","0","1","1","0","0","0","1","0","1","1","0","1","0","1","4","4","5","2","4","2","5","4","5","4","2","790214171080925186","李","430","","","","","","","","","","","","","","","","","","","true","4","4","ability","811","positive","天才","","","","","","","","","","","","","","","","",""
"null","","null","html-keyboard-response","140","165524","0.0-6.0-0.0-8.0-0.16","3","3","3","4","4","3","3","4","4","3","4","1","2","5","2","4","3","2","4","5","2","2","2","2","2","1","1","2","1","1","0","1","1","0","0","0","1","0","1","1","0","1","0","1","4","4","5","2","4","2","5","4","5","4","2","790214171080925186","李","430","","","","","","","","","","","","","","","","","","","","","","","","","","","","","","","","","","","","","","","","","",""
"603","<p style=""color:rgb(150, 250, 100); font-size: 35px;"">他人的</p>","i","categorize-html","141","166130","0.0-6.0-0.0-8.0-1.16","3","3","3","4","4","3","3","4","4","3","4","1","2","5","2","4","3","2","4","5","2","2","2","2","2","1","1","2","1","1","0","1","1","0","0","0","1","0","1","1","0","1","0","1","4","4","5","2","4","2","5","4","5","4","2","790214171080925186","李","430","","","","","","","","","","","","","","","","","","","true","4","4","ability","603","other","他人的","","","","","","","","","","","","","","","","",""
"null","","null","html-keyboard-response","142","166388","0.0-6.0-0.0-8.0-0.17","3","3","3","4","4","3","3","4","4","3","4","1","2","5","2","4","3","2","4","5","2","2","2","2","2","1","1","2","1","1","0","1","1","0","0","0","1","0","1","1","0","1","0","1","4","4","5","2","4","2","5","4","5","4","2","790214171080925186","李","430","","","","","","","","","","","","","","","","","","","","","","","","","","","","","","","","","","","","","","","","","",""
"779","<p style=""color:white; font-size: 35px;"">低能</p>","e","categorize-html","143","167172","0.0-6.0-0.0-8.0-1.17","3","3","3","4","4","3","3","4","4","3","4","1","2","5","2","4","3","2","4","5","2","2","2","2","2","1","1","2","1","1","0","1","1","0","0","0","1","0","1","1","0","1","0","1","4","4","5","2","4","2","5","4","5","4","2","790214171080925186","李","430","","","","","","","","","","","","","","","","","","","true","4","4","ability","779","negative","低能","","","","","","","","","","","","","","","","",""
"null","","null","html-keyboard-response","144","167428","0.0-6.0-0.0-8.0-0.18","3","3","3","4","4","3","3","4","4","3","4","1","2","5","2","4","3","2","4","5","2","2","2","2","2","1","1","2","1","1","0","1","1","0","0","0","1","0","1","1","0","1","0","1","4","4","5","2","4","2","5","4","5","4","2","790214171080925186","李","430","","","","","","","","","","","","","","","","","","","","","","","","","","","","","","","","","","","","","","","","","",""
"947","<p style=""color:rgb(150, 250, 100); font-size: 35px;"">我</p>","e","categorize-html","145","168380","0.0-6.0-0.0-8.0-1.18","3","3","3","4","4","3","3","4","4","3","4","1","2","5","2","4","3","2","4","5","2","2","2","2","2","1","1","2","1","1","0","1","1","0","0","0","1","0","1","1","0","1","0","1","4","4","5","2","4","2","5","4","5","4","2","790214171080925186","李","430","","","","","","","","","","","","","","","","","","","true","4","4","ability","947","self","我","","","","","","","","","","","","","","","","",""
"null","","null","html-keyboard-response","146","168636","0.0-6.0-0.0-8.0-0.19","3","3","3","4","4","3","3","4","4","3","4","1","2","5","2","4","3","2","4","5","2","2","2","2","2","1","1","2","1","1","0","1","1","0","0","0","1","0","1","1","0","1","0","1","4","4","5","2","4","2","5","4","5","4","2","790214171080925186","李","430","","","","","","","","","","","","","","","","","","","","","","","","","","","","","","","","","","","","","","","","","",""
"1091","<p style=""color:white; font-size: 35px;"">全才</p>","i","categorize-html","147","169732","0.0-6.0-0.0-8.0-1.19","3","3","3","4","4","3","3","4","4","3","4","1","2","5","2","4","3","2","4","5","2","2","2","2","2","1","1","2","1","1","0","1","1","0","0","0","1","0","1","1","0","1","0","1","4","4","5","2","4","2","5","4","5","4","2","790214171080925186","李","430","","","","","","","","","","","","","","","","","","","true","4","4","ability","1091","positive","全才","","","","","","","","","","","","","","","","",""
"null","","null","html-keyboard-response","148","169988","0.0-6.0-0.0-8.0-0.20","3","3","3","4","4","3","3","4","4","3","4","1","2","5","2","4","3","2","4","5","2","2","2","2","2","1","1","2","1","1","0","1","1","0","0","0","1","0","1","1","0","1","0","1","4","4","5","2","4","2","5","4","5","4","2","790214171080925186","李","430","","","","","","","","","","","","","","","","","","","","","","","","","","","","","","","","","","","","","","","","","",""
"659","<p style=""color:rgb(150, 250, 100); font-size: 35px;"">他的</p>","e","categorize-html","149","172297","0.0-6.0-0.0-8.0-1.20","3","3","3","4","4","3","3","4","4","3","4","1","2","5","2","4","3","2","4","5","2","2","2","2","2","1","1","2","1","1","0","1","1","0","0","0","1","0","1","1","0","1","0","1","4","4","5","2","4","2","5","4","5","4","2","790214171080925186","李","430","","","","","","","","","","","","","","","","","","","false","4","4","ability","1394.093023255814","other","他的","","","","","","","","","","","","","","","","",""
"null","","null","html-keyboard-response","150","172556","0.0-6.0-0.0-8.0-0.21","3","3","3","4","4","3","3","4","4","3","4","1","2","5","2","4","3","2","4","5","2","2","2","2","2","1","1","2","1","1","0","1","1","0","0","0","1","0","1","1","0","1","0","1","4","4","5","2","4","2","5","4","5","4","2","790214171080925186","李","430","","","","","","","","","","","","","","","","","","","","","","","","","","","","","","","","","","","","","","","","","",""
"691","<p style=""color:white; font-size: 35px;"">废物</p>","e","categorize-html","151","173252","0.0-6.0-0.0-8.0-1.21","3","3","3","4","4","3","3","4","4","3","4","1","2","5","2","4","3","2","4","5","2","2","2","2","2","1","1","2","1","1","0","1","1","0","0","0","1","0","1","1","0","1","0","1","4","4","5","2","4","2","5","4","5","4","2","790214171080925186","李","430","","","","","","","","","","","","","","","","","","","true","4","4","ability","691","negative","废物","","","","","","","","","","","","","","","","",""
"null","","null","html-keyboard-response","152","173508","0.0-6.0-0.0-8.0-0.22","3","3","3","4","4","3","3","4","4","3","4","1","2","5","2","4","3","2","4","5","2","2","2","2","2","1","1","2","1","1","0","1","1","0","0","0","1","0","1","1","0","1","0","1","4","4","5","2","4","2","5","4","5","4","2","790214171080925186","李","430","","","","","","","","","","","","","","","","","","","","","","","","","","","","","","","","","","","","","","","","","",""
"819","<p style=""color:rgb(150, 250, 100); font-size: 35px;"">自己</p>","e","categorize-html","153","174332","0.0-6.0-0.0-8.0-1.22","3","3","3","4","4","3","3","4","4","3","4","1","2","5","2","4","3","2","4","5","2","2","2","2","2","1","1","2","1","1","0","1","1","0","0","0","1","0","1","1","0","1","0","1","4","4","5","2","4","2","5","4","5","4","2","790214171080925186","李","430","","","","","","","","","","","","","","","","","","","true","4","4","ability","819","self","自己","","","","","","","","","","","","","","","","",""
"null","","null","html-keyboard-response","154","174588","0.0-6.0-0.0-8.0-0.23","3","3","3","4","4","3","3","4","4","3","4","1","2","5","2","4","3","2","4","5","2","2","2","2","2","1","1","2","1","1","0","1","1","0","0","0","1","0","1","1","0","1","0","1","4","4","5","2","4","2","5","4","5","4","2","790214171080925186","李","430","","","","","","","","","","","","","","","","","","","","","","","","","","","","","","","","","","","","","","","","","",""
"1875","<p style=""color:white; font-size: 35px;"">精干</p>","i","categorize-html","155","176469","0.0-6.0-0.0-8.0-1.23","3","3","3","4","4","3","3","4","4","3","4","1","2","5","2","4","3","2","4","5","2","2","2","2","2","1","1","2","1","1","0","1","1","0","0","0","1","0","1","1","0","1","0","1","4","4","5","2","4","2","5","4","5","4","2","790214171080925186","李","430","","","","","","","","","","","","","","","","","","","true","4","4","ability","1875","positive","精干","","","","","","","","","","","","","","","","",""
"null","","null","html-keyboard-response","156","176724","0.0-6.0-0.0-8.0-0.24","3","3","3","4","4","3","3","4","4","3","4","1","2","5","2","4","3","2","4","5","2","2","2","2","2","1","1","2","1","1","0","1","1","0","0","0","1","0","1","1","0","1","0","1","4","4","5","2","4","2","5","4","5","4","2","790214171080925186","李","430","","","","","","","","","","","","","","","","","","","","","","","","","","","","","","","","","","","","","","","","","",""
"1147","<p style=""color:rgb(150, 250, 100); font-size: 35px;"">本人</p>","e","categorize-html","157","177876","0.0-6.0-0.0-8.0-1.24","3","3","3","4","4","3","3","4","4","3","4","1","2","5","2","4","3","2","4","5","2","2","2","2","2","1","1","2","1","1","0","1","1","0","0","0","1","0","1","1","0","1","0","1","4","4","5","2","4","2","5","4","5","4","2","790214171080925186","李","430","","","","","","","","","","","","","","","","","","","true","4","4","ability","1147","self","本人","","","","","","","","","","","","","","","","",""
"null","","null","html-keyboard-response","158","178132","0.0-6.0-0.0-8.0-0.25","3","3","3","4","4","3","3","4","4","3","4","1","2","5","2","4","3","2","4","5","2","2","2","2","2","1","1","2","1","1","0","1","1","0","0","0","1","0","1","1","0","1","0","1","4","4","5","2","4","2","5","4","5","4","2","790214171080925186","李","430","","","","","","","","","","","","","","","","","","","","","","","","","","","","","","","","","","","","","","","","","",""
"610","<p style=""color:white; font-size: 35px;"">低能</p>","e","categorize-html","159","178748","0.0-6.0-0.0-8.0-1.25","3","3","3","4","4","3","3","4","4","3","4","1","2","5","2","4","3","2","4","5","2","2","2","2","2","1","1","2","1","1","0","1","1","0","0","0","1","0","1","1","0","1","0","1","4","4","5","2","4","2","5","4","5","4","2","790214171080925186","李","430","","","","","","","","","","","","","","","","","","","true","4","4","ability","610","negative","低能","","","","","","","","","","","","","","","","",""
"null","","null","html-keyboard-response","160","179003","0.0-6.0-0.0-8.0-0.26","3","3","3","4","4","3","3","4","4","3","4","1","2","5","2","4","3","2","4","5","2","2","2","2","2","1","1","2","1","1","0","1","1","0","0","0","1","0","1","1","0","1","0","1","4","4","5","2","4","2","5","4","5","4","2","790214171080925186","李","430","","","","","","","","","","","","","","","","","","","","","","","","","","","","","","","","","","","","","","","","","",""
"723","<p style=""color:rgb(150, 250, 100); font-size: 35px;"">他人的</p>","i","categorize-html","161","179732","0.0-6.0-0.0-8.0-1.26","3","3","3","4","4","3","3","4","4","3","4","1","2","5","2","4","3","2","4","5","2","2","2","2","2","1","1","2","1","1","0","1","1","0","0","0","1","0","1","1","0","1","0","1","4","4","5","2","4","2","5","4","5","4","2","790214171080925186","李","430","","","","","","","","","","","","","","","","","","","true","4","4","ability","723","other","他人的","","","","","","","","","","","","","","","","",""
"null","","null","html-keyboard-response","162","179987","0.0-6.0-0.0-8.0-0.27","3","3","3","4","4","3","3","4","4","3","4","1","2","5","2","4","3","2","4","5","2","2","2","2","2","1","1","2","1","1","0","1","1","0","0","0","1","0","1","1","0","1","0","1","4","4","5","2","4","2","5","4","5","4","2","790214171080925186","李","430","","","","","","","","","","","","","","","","","","","","","","","","","","","","","","","","","","","","","","","","","",""
"724","<p style=""color:white; font-size: 35px;"">高效</p>","i","categorize-html","163","180716","0.0-6.0-0.0-8.0-1.27","3","3","3","4","4","3","3","4","4","3","4","1","2","5","2","4","3","2","4","5","2","2","2","2","2","1","1","2","1","1","0","1","1","0","0","0","1","0","1","1","0","1","0","1","4","4","5","2","4","2","5","4","5","4","2","790214171080925186","李","430","","","","","","","","","","","","","","","","","","","true","4","4","ability","724","positive","高效","","","","","","","","","","","","","","","","",""
"null","","null","html-keyboard-response","164","180971","0.0-6.0-0.0-8.0-0.28","3","3","3","4","4","3","3","4","4","3","4","1","2","5","2","4","3","2","4","5","2","2","2","2","2","1","1","2","1","1","0","1","1","0","0","0","1","0","1","1","0","1","0","1","4","4","5","2","4","2","5","4","5","4","2","790214171080925186","李","430","","","","","","","","","","","","","","","","","","","","","","","","","","","","","","","","","","","","","","","","","",""
"611","<p style=""color:rgb(150, 250, 100); font-size: 35px;"">别人</p>","i","categorize-html","165","181588","0.0-6.0-0.0-8.0-1.28","3","3","3","4","4","3","3","4","4","3","4","1","2","5","2","4","3","2","4","5","2","2","2","2","2","1","1","2","1","1","0","1","1","0","0","0","1","0","1","1","0","1","0","1","4","4","5","2","4","2","5","4","5","4","2","790214171080925186","李","430","","","","","","","","","","","","","","","","","","","true","4","4","ability","611","other","别人","","","","","","","","","","","","","","","","",""
"null","","null","html-keyboard-response","166","181843","0.0-6.0-0.0-8.0-0.29","3","3","3","4","4","3","3","4","4","3","4","1","2","5","2","4","3","2","4","5","2","2","2","2","2","1","1","2","1","1","0","1","1","0","0","0","1","0","1","1","0","1","0","1","4","4","5","2","4","2","5","4","5","4","2","790214171080925186","李","430","","","","","","","","","","","","","","","","","","","","","","","","","","","","","","","","","","","","","","","","","",""
"1019","<p style=""color:white; font-size: 35px;"">全能</p>","i","categorize-html","167","182868","0.0-6.0-0.0-8.0-1.29","3","3","3","4","4","3","3","4","4","3","4","1","2","5","2","4","3","2","4","5","2","2","2","2","2","1","1","2","1","1","0","1","1","0","0","0","1","0","1","1","0","1","0","1","4","4","5","2","4","2","5","4","5","4","2","790214171080925186","李","430","","","","","","","","","","","","","","","","","","","true","4","4","ability","1019","positive","全能","","","","","","","","","","","","","","","","",""
"null","","null","html-keyboard-response","168","183124","0.0-6.0-0.0-8.0-0.30","3","3","3","4","4","3","3","4","4","3","4","1","2","5","2","4","3","2","4","5","2","2","2","2","2","1","1","2","1","1","0","1","1","0","0","0","1","0","1","1","0","1","0","1","4","4","5","2","4","2","5","4","5","4","2","790214171080925186","李","430","","","","","","","","","","","","","","","","","","","","","","","","","","","","","","","","","","","","","","","","","",""
"595","<p style=""color:rgb(150, 250, 100); font-size: 35px;"">我的</p>","e","categorize-html","169","183724","0.0-6.0-0.0-8.0-1.30","3","3","3","4","4","3","3","4","4","3","4","1","2","5","2","4","3","2","4","5","2","2","2","2","2","1","1","2","1","1","0","1","1","0","0","0","1","0","1","1","0","1","0","1","4","4","5","2","4","2","5","4","5","4","2","790214171080925186","李","430","","","","","","","","","","","","","","","","","","","true","4","4","ability","595","self","我的","","","","","","","","","","","","","","","","",""
"null","","null","html-keyboard-response","170","183980","0.0-6.0-0.0-8.0-0.31","3","3","3","4","4","3","3","4","4","3","4","1","2","5","2","4","3","2","4","5","2","2","2","2","2","1","1","2","1","1","0","1","1","0","0","0","1","0","1","1","0","1","0","1","4","4","5","2","4","2","5","4","5","4","2","790214171080925186","李","430","","","","","","","","","","","","","","","","","","","","","","","","","","","","","","","","","","","","","","","","","",""
"835","<p style=""color:white; font-size: 35px;"">无能</p>","e","categorize-html","171","184820","0.0-6.0-0.0-8.0-1.31","3","3","3","4","4","3","3","4","4","3","4","1","2","5","2","4","3","2","4","5","2","2","2","2","2","1","1","2","1","1","0","1","1","0","0","0","1","0","1","1","0","1","0","1","4","4","5","2","4","2","5","4","5","4","2","790214171080925186","李","430","","","","","","","","","","","","","","","","","","","true","4","4","ability","835","negative","无能","","","","","","","","","","","","","","","","",""
"null","","null","html-keyboard-response","172","185076","0.0-6.0-0.0-8.0-0.32","3","3","3","4","4","3","3","4","4","3","4","1","2","5","2","4","3","2","4","5","2","2","2","2","2","1","1","2","1","1","0","1","1","0","0","0","1","0","1","1","0","1","0","1","4","4","5","2","4","2","5","4","5","4","2","790214171080925186","李","430","","","","","","","","","","","","","","","","","","","","","","","","","","","","","","","","","","","","","","","","","",""
"955","<p style=""color:rgb(150, 250, 100); font-size: 35px;"">别人的</p>","i","categorize-html","173","186036","0.0-6.0-0.0-8.0-1.32","3","3","3","4","4","3","3","4","4","3","4","1","2","5","2","4","3","2","4","5","2","2","2","2","2","1","1","2","1","1","0","1","1","0","0","0","1","0","1","1","0","1","0","1","4","4","5","2","4","2","5","4","5","4","2","790214171080925186","李","430","","","","","","","","","","","","","","","","","","","true","4","4","ability","955","other","别人的","","","","","","","","","","","","","","","","",""
"null","","null","html-keyboard-response","174","186292","0.0-6.0-0.0-8.0-0.33","3","3","3","4","4","3","3","4","4","3","4","1","2","5","2","4","3","2","4","5","2","2","2","2","2","1","1","2","1","1","0","1","1","0","0","0","1","0","1","1","0","1","0","1","4","4","5","2","4","2","5","4","5","4","2","790214171080925186","李","430","","","","","","","","","","","","","","","","","","","","","","","","","","","","","","","","","","","","","","","","","",""
"652","<p style=""color:white; font-size: 35px;"">拙笨</p>","e","categorize-html","175","186948","0.0-6.0-0.0-8.0-1.33","3","3","3","4","4","3","3","4","4","3","4","1","2","5","2","4","3","2","4","5","2","2","2","2","2","1","1","2","1","1","0","1","1","0","0","0","1","0","1","1","0","1","0","1","4","4","5","2","4","2","5","4","5","4","2","790214171080925186","李","430","","","","","","","","","","","","","","","","","","","true","4","4","ability","652","negative","拙笨","","","","","","","","","","","","","","","","",""
"null","","null","html-keyboard-response","176","187204","0.0-6.0-0.0-8.0-0.34","3","3","3","4","4","3","3","4","4","3","4","1","2","5","2","4","3","2","4","5","2","2","2","2","2","1","1","2","1","1","0","1","1","0","0","0","1","0","1","1","0","1","0","1","4","4","5","2","4","2","5","4","5","4","2","790214171080925186","李","430","","","","","","","","","","","","","","","","","","","","","","","","","","","","","","","","","","","","","","","","","",""
"651","<p style=""color:rgb(150, 250, 100); font-size: 35px;"">本人</p>","i","categorize-html","177","188368","0.0-6.0-0.0-8.0-1.34","3","3","3","4","4","3","3","4","4","3","4","1","2","5","2","4","3","2","4","5","2","2","2","2","2","1","1","2","1","1","0","1","1","0","0","0","1","0","1","1","0","1","0","1","4","4","5","2","4","2","5","4","5","4","2","790214171080925186","李","430","","","","","","","","","","","","","","","","","","","false","4","4","ability","1394.093023255814","self","本人","","","","","","","","","","","","","","","","",""
"null","","null","html-keyboard-response","178","188620","0.0-6.0-0.0-8.0-0.35","3","3","3","4","4","3","3","4","4","3","4","1","2","5","2","4","3","2","4","5","2","2","2","2","2","1","1","2","1","1","0","1","1","0","0","0","1","0","1","1","0","1","0","1","4","4","5","2","4","2","5","4","5","4","2","790214171080925186","李","430","","","","","","","","","","","","","","","","","","","","","","","","","","","","","","","","","","","","","","","","","",""
"1075","<p style=""color:white; font-size: 35px;"">天才</p>","i","categorize-html","179","189700","0.0-6.0-0.0-8.0-1.35","3","3","3","4","4","3","3","4","4","3","4","1","2","5","2","4","3","2","4","5","2","2","2","2","2","1","1","2","1","1","0","1","1","0","0","0","1","0","1","1","0","1","0","1","4","4","5","2","4","2","5","4","5","4","2","790214171080925186","李","430","","","","","","","","","","","","","","","","","","","true","4","4","ability","1075","positive","天才","","","","","","","","","","","","","","","","",""
"null","","null","html-keyboard-response","180","189956","0.0-6.0-0.0-8.0-0.36","3","3","3","4","4","3","3","4","4","3","4","1","2","5","2","4","3","2","4","5","2","2","2","2","2","1","1","2","1","1","0","1","1","0","0","0","1","0","1","1","0","1","0","1","4","4","5","2","4","2","5","4","5","4","2","790214171080925186","李","430","","","","","","","","","","","","","","","","","","","","","","","","","","","","","","","","","","","","","","","","","",""
"691","<p style=""color:rgb(150, 250, 100); font-size: 35px;"">他人</p>","i","categorize-html","181","190652","0.0-6.0-0.0-8.0-1.36","3","3","3","4","4","3","3","4","4","3","4","1","2","5","2","4","3","2","4","5","2","2","2","2","2","1","1","2","1","1","0","1","1","0","0","0","1","0","1","1","0","1","0","1","4","4","5","2","4","2","5","4","5","4","2","790214171080925186","李","430","","","","","","","","","","","","","","","","","","","true","4","4","ability","691","other","他人","","","","","","","","","","","","","","","","",""
"null","","null","html-keyboard-response","182","190908","0.0-6.0-0.0-8.0-0.37","3","3","3","4","4","3","3","4","4","3","4","1","2","5","2","4","3","2","4","5","2","2","2","2","2","1","1","2","1","1","0","1","1","0","0","0","1","0","1","1","0","1","0","1","4","4","5","2","4","2","5","4","5","4","2","790214171080925186","李","430","","","","","","","","","","","","","","","","","","","","","","","","","","","","","","","","","","","","","","","","","",""
"635","<p style=""color:white; font-size: 35px;"">拙笨</p>","e","categorize-html","183","191548","0.0-6.0-0.0-8.0-1.37","3","3","3","4","4","3","3","4","4","3","4","1","2","5","2","4","3","2","4","5","2","2","2","2","2","1","1","2","1","1","0","1","1","0","0","0","1","0","1","1","0","1","0","1","4","4","5","2","4","2","5","4","5","4","2","790214171080925186","李","430","","","","","","","","","","","","","","","","","","","true","4","4","ability","635","negative","拙笨","","","","","","","","","","","","","","","","",""
"null","","null","html-keyboard-response","184","191804","0.0-6.0-0.0-8.0-0.38","3","3","3","4","4","3","3","4","4","3","4","1","2","5","2","4","3","2","4","5","2","2","2","2","2","1","1","2","1","1","0","1","1","0","0","0","1","0","1","1","0","1","0","1","4","4","5","2","4","2","5","4","5","4","2","790214171080925186","李","430","","","","","","","","","","","","","","","","","","","","","","","","","","","","","","","","","","","","","","","","","",""
"715","<p style=""color:rgb(150, 250, 100); font-size: 35px;"">我</p>","e","categorize-html","185","192524","0.0-6.0-0.0-8.0-1.38","3","3","3","4","4","3","3","4","4","3","4","1","2","5","2","4","3","2","4","5","2","2","2","2","2","1","1","2","1","1","0","1","1","0","0","0","1","0","1","1","0","1","0","1","4","4","5","2","4","2","5","4","5","4","2","790214171080925186","李","430","","","","","","","","","","","","","","","","","","","true","4","4","ability","715","self","我","","","","","","","","","","","","","","","","",""
"null","","null","html-keyboard-response","186","192781","0.0-6.0-0.0-8.0-0.39","3","3","3","4","4","3","3","4","4","3","4","1","2","5","2","4","3","2","4","5","2","2","2","2","2","1","1","2","1","1","0","1","1","0","0","0","1","0","1","1","0","1","0","1","4","4","5","2","4","2","5","4","5","4","2","790214171080925186","李","430","","","","","","","","","","","","","","","","","","","","","","","","","","","","","","","","","","","","","","","","","",""
"1051","<p style=""color:white; font-size: 35px;"">全能</p>","i","categorize-html","187","193836","0.0-6.0-0.0-8.0-1.39","3","3","3","4","4","3","3","4","4","3","4","1","2","5","2","4","3","2","4","5","2","2","2","2","2","1","1","2","1","1","0","1","1","0","0","0","1","0","1","1","0","1","0","1","4","4","5","2","4","2","5","4","5","4","2","790214171080925186","李","430","","","","","","","","","","","","","","","","","","","true","4","4","ability","1051","positive","全能","","","","","","","","","","","","","","","","",""
"null","","null","html-keyboard-response","188","194093","0.0-6.0-0.0-8.0-0.40","3","3","3","4","4","3","3","4","4","3","4","1","2","5","2","4","3","2","4","5","2","2","2","2","2","1","1","2","1","1","0","1","1","0","0","0","1","0","1","1","0","1","0","1","4","4","5","2","4","2","5","4","5","4","2","790214171080925186","李","430","","","","","","","","","","","","","","","","","","","","","","","","","","","","","","","","","","","","","","","","","",""
"651","<p style=""color:rgb(150, 250, 100); font-size: 35px;"">他</p>","i","categorize-html","189","194748","0.0-6.0-0.0-8.0-1.40","3","3","3","4","4","3","3","4","4","3","4","1","2","5","2","4","3","2","4","5","2","2","2","2","2","1","1","2","1","1","0","1","1","0","0","0","1","0","1","1","0","1","0","1","4","4","5","2","4","2","5","4","5","4","2","790214171080925186","李","430","","","","","","","","","","","","","","","","","","","true","4","4","ability","651","other","他","","","","","","","","","","","","","","","","",""
"null","","null","html-keyboard-response","190","195005","0.0-6.0-0.0-8.0-0.41","3","3","3","4","4","3","3","4","4","3","4","1","2","5","2","4","3","2","4","5","2","2","2","2","2","1","1","2","1","1","0","1","1","0","0","0","1","0","1","1","0","1","0","1","4","4","5","2","4","2","5","4","5","4","2","790214171080925186","李","430","","","","","","","","","","","","","","","","","","","","","","","","","","","","","","","","","","","","","","","","","",""
"811","<p style=""color:white; font-size: 35px;"">能干</p>","e","categorize-html","191","196737","0.0-6.0-0.0-8.0-1.41","3","3","3","4","4","3","3","4","4","3","4","1","2","5","2","4","3","2","4","5","2","2","2","2","2","1","1","2","1","1","0","1","1","0","0","0","1","0","1","1","0","1","0","1","4","4","5","2","4","2","5","4","5","4","2","790214171080925186","李","430","","","","","","","","","","","","","","","","","","","false","4","4","ability","1394.093023255814","positive","能干","","","","","","","","","","","","","","","","",""
"null","","null","html-keyboard-response","192","196989","0.0-6.0-0.0-8.0-0.42","3","3","3","4","4","3","3","4","4","3","4","1","2","5","2","4","3","2","4","5","2","2","2","2","2","1","1","2","1","1","0","1","1","0","0","0","1","0","1","1","0","1","0","1","4","4","5","2","4","2","5","4","5","4","2","790214171080925186","李","430","","","","","","","","","","","","","","","","","","","","","","","","","","","","","","","","","","","","","","","","","",""
"515","<p style=""color:rgb(150, 250, 100); font-size: 35px;"">自己的</p>","e","categorize-html","193","197509","0.0-6.0-0.0-8.0-1.42","3","3","3","4","4","3","3","4","4","3","4","1","2","5","2","4","3","2","4","5","2","2","2","2","2","1","1","2","1","1","0","1","1","0","0","0","1","0","1","1","0","1","0","1","4","4","5","2","4","2","5","4","5","4","2","790214171080925186","李","430","","","","","","","","","","","","","","","","","","","true","4","4","ability","515","self","自己的","","","","","","","","","","","","","","","","",""
