"rt","stimulus","response","trial_type","trial_index","time_elapsed","internal_node_id","ses_1","ses_2","ses_3","ses_4","ses_5","ses_6","ses_7","ses_8","ses_9","ses_10","coreself_1","coreself_2","coreself_3","coreself_4","coreself_5","coreself_6","coreself_7","coreself_8","coreself_9","coreself_10","SGPS_1","SGPS_2","SGPS_3","SGPS_4","SGPS_5","SGPS_6","SGPS_7","SGPS_8","SGPS_9","NPI1","NPI2","NPI3","NPI4","NPI5","NPI6","NPI7","NPI8","NPI9","NPI10","NPI11","NPI12","NPI13","NPI14","NPI15","hsns_1","hsns_2","hsns_3","hsns_4","hsns_5","trap1","hsns_6","hsns_7","hsns_8","hsns_9","hsns_10","subj_idx","friend_name","ParticipantID","value","success","user_agent","responses","item_order","radio_event_ids","radio_event_times","key_event_times","mouse_event_times","straightlining","zigzagging","honeypot","timeout","failed_images","failed_audio","failed_video","view_history","response_type","key_press","avg_frame_time","center_x","center_y","correct_response","correct","identity","Image","word","condition","task_id","screen_id","time_stamp","version_attrib","version_target","IAT","RT","varname","summary","version_attrib2","version_target2","question_order","correct_answer","trap1_item"
"27351","
   <p><div style = ""color: white;font-size:25px;"">您好，欢迎参加本次实验。</div> </p>
   <p><div style = ""color: white;font-size:25px;"">为充分保障您的权利，请确保您已经知晓并同意《参与实验同意书》以及《数据公开知情同意书》。</div></p>
   <p><div style = ""color: white;font-size:25px;"">如果您未见过上述内容，请咨询实验员。</div></p>
   <p><div style = ""color: white;font-size:25px;"">如果您选择继续实验，则表示您已经清楚两份知情同意书的内容并同意。</div></p>
   <p><div style = ""color: pink;font-size:30px;"">请确保您记得day0的实验编号，您将在本次实验输入该编号，若您忘记，请咨询实验员后作答。</div></p>
   <p><div style = ""color: lightblue;font-size:25px;"">请您尽可能认真地作答，我们将依据您在各问卷和按键任务中的作答质量发放报酬。</div></p>
   <p> <div style = ""color: green;font-size:25px;""><按空格键至下页></div> </p>
   "," ","html-keyboard-response","0","27354","0.0-0.0","3","3","3","3","3","3","3","2","3","3","4","4","2","4","3","4","3","3","4","4","3","4","1","4","3","3","2","2","2","1","0","0","1","0","1","0","1","0","0","1","0","1","0","1","4","4","4","3","4","5","2","4","4","2","2","803250783939338242","顾","526","","","","","","","","","","","","","","","","","","","","","","","","","","","","","","","","","","","","","","","","","",""
"","","","call-function","1","27355","0.0-1.0-0.0","3","3","3","3","3","3","3","2","3","3","4","4","2","4","3","4","3","3","4","4","3","4","1","4","3","3","2","2","2","1","0","0","1","0","1","0","1","0","0","1","0","1","0","1","4","4","4","3","4","5","2","4","4","2","2","803250783939338242","顾","526","","","","","","","","","","","","","","","","","","","","","","","","","","","","","","","","","","","","","","","","","",""
"17718","","{""friend_name"":""顾"",""ParticipantID"":""526""}","survey-html-form","2","45074","0.0-1.0-1.0","3","3","3","3","3","3","3","2","3","3","4","4","2","4","3","4","3","3","4","4","3","4","1","4","3","3","2","2","2","1","0","0","1","0","1","0","1","0","0","1","0","1","0","1","4","4","4","3","4","5","2","4","4","2","2","803250783939338242","顾","526","","","","","","","","","","","","","","","","","","","","","","","","","","","","","","","","","","","","","","","","","",""
"","","","fullscreen","3","70562","0.0-2.0","3","3","3","3","3","3","3","2","3","3","4","4","2","4","3","4","3","3","4","4","3","4","1","4","3","3","2","2","2","1","0","0","1","0","1","0","1","0","0","1","0","1","0","1","4","4","4","3","4","5","2","4","4","2","2","803250783939338242","顾","526","","true","{}","","","","","","","","","","","","","","","","","","","","","","","","","","","","","","","","","","","","","","",""
"21707.5","","{""Q01"":""3"",""Q02"":""3"",""Q03"":""3"",""Q04"":""3"",""Q05"":""3"",""Q06"":""3"",""Q07"":""3"",""Q08"":""2"",""Q09"":""3"",""Q10"":""3""}","survey-template","4","92272","0.0-3.0","3","3","3","3","3","3","3","2","3","3","4","4","2","4","3","4","3","3","4","4","3","4","1","4","3","3","2","2","2","1","0","0","1","0","1","0","1","0","0","1","0","1","0","1","4","4","4","3","4","5","2","4","4","2","2","803250783939338242","顾","526","","","","{""Q01"":""3"",""Q02"":""3"",""Q03"":""3"",""Q04"":""3"",""Q05"":""3"",""Q06"":""3"",""Q07"":""3"",""Q08"":""2"",""Q09"":""3"",""Q10"":""3""}","[0,1,2,3,4,5,6,7,8,9]","[""Q01"",""Q02"",""Q03"",""Q04"",""Q05"",""Q06"",""Q07"",""Q08"",""Q09"",""Q10""]","[5693,7426,9496,11497.19999999972,13387,14955.799999999814,16336.299999999814,17956.5,19486.100000000093,21068]","[]","[5693,7426,9496,11497.19999999972,13387,14955.799999999814,16336.299999999814,17956.5,19486.100000000093,20130.299999999814,21068,21706.5]","0.6","0.5555555555555556","0","","","","","","","","","","","","","","","","","","","","","","","","","","","","","",""
"27798.899999999907","","{""Q01"":""4"",""Q02"":""4"",""Q03"":""2"",""Q04"":""4"",""Q05"":""3"",""Q06"":""4"",""Q07"":""3"",""Q08"":""3"",""Q09"":""4"",""Q10"":""4""}","survey-template","5","120076","0.0-4.0","3","3","3","3","3","3","3","2","3","3","4","4","2","4","3","4","3","3","4","4","3","4","1","4","3","3","2","2","2","1","0","0","1","0","1","0","1","0","0","1","0","1","0","1","4","4","4","3","4","5","2","4","4","2","2","803250783939338242","顾","526","","","","{""Q01"":""4"",""Q02"":""4"",""Q03"":""2"",""Q04"":""4"",""Q05"":""3"",""Q06"":""4"",""Q07"":""3"",""Q08"":""3"",""Q09"":""4"",""Q10"":""4""}","[0,1,2,3,4,5,6,7,8,9]","[""Q01"",""Q02"",""Q03"",""Q03"",""Q04"",""Q05"",""Q06"",""Q07"",""Q08"",""Q09"",""Q10"",""Q10""]","[1869.5,4869.299999999814,5790.899999999907,6810.5,9931.69999999972,12984.19999999972,14603.899999999907,16718.69999999972,23738.899999999907,24916.799999999814,26490.599999999627,27189.899999999907]","[]","[1869.5,4869.299999999814,5790.899999999907,6810.5,9931.69999999972,11116.799999999814,12984.19999999972,14603.899999999907,16718.69999999972,23738.899999999907,24916.799999999814,26490.599999999627,27189.899999999907,27797.799999999814]","0.5","0.4444444444444444","0","","","","","","","","","","","","","","","","","","","","","","","","","","","","","",""
"","","","preload","6","120962","0.0-5.0","3","3","3","3","3","3","3","2","3","3","4","4","2","4","3","4","3","3","4","4","3","4","1","4","3","3","2","2","2","1","0","0","1","0","1","0","1","0","0","1","0","1","0","1","4","4","4","3","4","5","2","4","4","2","2","803250783939338242","顾","526","","true","","","","","","","","","","","false","[]","[]","[]","","","","","","","","","","","","","","","","","","","","","","","","","",""
"9849","","","instructions","7","130813","0.0-6.0","3","3","3","3","3","3","3","2","3","3","4","4","2","4","3","4","3","3","4","4","3","4","1","4","3","3","2","2","2","1","0","0","1","0","1","0","1","0","0","1","0","1","0","1","4","4","4","3","4","5","2","4","4","2","2","803250783939338242","顾","526","","","","","","","","","","","","","","","","","[{""page_index"":0,""viewing_time"":9849}]","","","","","","","","","","","","","","","","","","","","","","","","",""
"24464","","","instructions","8","155277","0.0-7.0-1.0-0.0","3","3","3","3","3","3","3","2","3","3","4","4","2","4","3","4","3","3","4","4","3","4","1","4","3","3","2","2","2","1","0","0","1","0","1","0","1","0","0","1","0","1","0","1","4","4","4","3","4","5","2","4","4","2","2","803250783939338242","顾","526","","","","","","","","","","","","","","","","","[{""page_index"":0,""viewing_time"":16034},{""page_index"":1,""viewing_time"":5454},{""page_index"":2,""viewing_time"":2976}]","","","","","","","","","","","","","","","","","","","","","","","","",""
"null","","null","psychophysics","9","157491","0.0-7.0-1.0-1.0-0.0-0.0","3","3","3","3","3","3","3","2","3","3","4","4","2","4","3","4","3","3","4","4","3","4","1","4","3","3","2","2","2","1","0","0","1","0","1","0","1","0","0","1","0","1","0","1","4","4","4","3","4","5","2","4","4","2","2","803250783939338242","顾","526","","","","null","","","","","","","","","","","","","","key","null","16.665909090909047","720.2857142857143","476.2857142857143","f","false","match","img/circle.png","圆形","圆形","ALT1_2","prac_ALT1_2","","","","","","","","","","","",""
"null","<span class='add_' style='color:yellow; font-size: 70px;'> 太慢! </span>","null","html-keyboard-response","10","157994","0.0-7.0-1.0-1.0-0.0-1.0","3","3","3","3","3","3","3","2","3","3","4","4","2","4","3","4","3","3","4","4","3","4","1","4","3","3","2","2","2","1","0","0","1","0","1","0","1","0","0","1","0","1","0","1","4","4","4","3","4","5","2","4","4","2","2","803250783939338242","顾","526","","","","","","","","","","","","","","","","","","","","","","","","","","","","","","feedback_test","","","","","","","","","","","",""
"null","","null","psychophysics","11","160198","0.0-7.0-1.0-1.0-0.0-0.1","3","3","3","3","3","3","3","2","3","3","4","4","2","4","3","4","3","3","4","4","3","4","1","4","3","3","2","2","2","1","0","0","1","0","1","0","1","0","0","1","0","1","0","1","4","4","4","3","4","5","2","4","4","2","2","803250783939338242","顾","526","","","","null","","","","","","","","","","","","","","key","null","16.730303030303208","720.2857142857143","476.2857142857143","j","false","nonmatch","img/diamond.png","三角","菱形","ALT1_2","prac_ALT1_2","","","","","","","","","","","",""
"null","<span class='add_' style='color:yellow; font-size: 70px;'> 太慢! </span>","null","html-keyboard-response","12","160700","0.0-7.0-1.0-1.0-0.0-1.1","3","3","3","3","3","3","3","2","3","3","4","4","2","4","3","4","3","3","4","4","3","4","1","4","3","3","2","2","2","1","0","0","1","0","1","0","1","0","0","1","0","1","0","1","4","4","4","3","4","5","2","4","4","2","2","803250783939338242","顾","526","","","","","","","","","","","","","","","","","","","","","","","","","","","","","","feedback_test","","","","","","","","","","","",""
"387","","f","psychophysics","13","162091","0.0-7.0-1.0-1.0-0.0-0.2","3","3","3","3","3","3","3","2","3","3","4","4","2","4","3","4","3","3","4","4","3","4","1","4","3","3","2","2","2","1","0","0","1","0","1","0","1","0","0","1","0","1","0","1","4","4","4","3","4","5","2","4","4","2","2","803250783939338242","顾","526","","","","match","","","","","","","","","","","","","","key","f","16.76746987951786","720.2857142857143","476.2857142857143","j","false","nonmatch","img/diamond.png","圆形","菱形","ALT1_2","prac_ALT1_2","","","","","","","","","","","",""
"null","<span style='color:red; font-size: 70px;'>错误! </span>","null","html-keyboard-response","14","162593","0.0-7.0-1.0-1.0-0.0-1.2","3","3","3","3","3","3","3","2","3","3","4","4","2","4","3","4","3","3","4","4","3","4","1","4","3","3","2","2","2","1","0","0","1","0","1","0","1","0","0","1","0","1","0","1","4","4","4","3","4","5","2","4","4","2","2","803250783939338242","顾","526","","","","","","","","","","","","","","","","","","","","","","","","","","","","","","feedback_test","","","","","","","","","","","",""
"1022","","f","psychophysics","15","164618","0.0-7.0-1.0-1.0-0.0-0.3","3","3","3","3","3","3","3","2","3","3","4","4","2","4","3","4","3","3","4","4","3","4","1","4","3","3","2","2","2","1","0","0","1","0","1","0","1","0","0","1","0","1","0","1","4","4","4","3","4","5","2","4","4","2","2","803250783939338242","顾","526","","","","match","","","","","","","","","","","","","","key","f","16.666666666666668","720.2857142857143","476.2857142857143","f","true","match","img/hexagon.png","六边","六边","ALT1_2","prac_ALT1_2","","","","","","","","","","","",""
"null","<span style='color:GreenYellow; font-size: 70px;'>正确! </span>","null","html-keyboard-response","16","165120","0.0-7.0-1.0-1.0-0.0-1.3","3","3","3","3","3","3","3","2","3","3","4","4","2","4","3","4","3","3","4","4","3","4","1","4","3","3","2","2","2","1","0","0","1","0","1","0","1","0","0","1","0","1","0","1","4","4","4","3","4","5","2","4","4","2","2","803250783939338242","顾","526","","","","","","","","","","","","","","","","","","","","","","","","","","","","","","feedback_test","","","","","","","","","","","",""
"null","","null","psychophysics","17","167325","0.0-7.0-1.0-1.0-0.0-0.4","3","3","3","3","3","3","3","2","3","3","4","4","2","4","3","4","3","3","4","4","3","4","1","4","3","3","2","2","2","1","0","0","1","0","1","0","1","0","0","1","0","1","0","1","4","4","4","3","4","5","2","4","4","2","2","803250783939338242","顾","526","","","","null","","","","","","","","","","","","","","key","null","16.603030303030348","720.2857142857143","476.2857142857143","f","false","match","img/hexagon.png","六边","六边","ALT1_2","prac_ALT1_2","","","","","","","","","","","",""
"null","<span class='add_' style='color:yellow; font-size: 70px;'> 太慢! </span>","null","html-keyboard-response","18","167827","0.0-7.0-1.0-1.0-0.0-1.4","3","3","3","3","3","3","3","2","3","3","4","4","2","4","3","4","3","3","4","4","3","4","1","4","3","3","2","2","2","1","0","0","1","0","1","0","1","0","0","1","0","1","0","1","4","4","4","3","4","5","2","4","4","2","2","803250783939338242","顾","526","","","","","","","","","","","","","","","","","","","","","","","","","","","","","","feedback_test","","","","","","","","","","","",""
"679","","f","psychophysics","19","169508","0.0-7.0-1.0-1.0-0.0-0.5","3","3","3","3","3","3","3","2","3","3","4","4","2","4","3","4","3","3","4","4","3","4","1","4","3","3","2","2","2","1","0","0","1","0","1","0","1","0","0","1","0","1","0","1","4","4","4","3","4","5","2","4","4","2","2","803250783939338242","顾","526","","","","match","","","","","","","","","","","","","","key","f","16.666000000000057","720.2857142857143","476.2857142857143","j","false","nonmatch","img/circle.png","六边","圆形","ALT1_2","prac_ALT1_2","","","","","","","","","","","",""
"null","<span style='color:red; font-size: 70px;'>错误! </span>","null","html-keyboard-response","20","170009","0.0-7.0-1.0-1.0-0.0-1.5","3","3","3","3","3","3","3","2","3","3","4","4","2","4","3","4","3","3","4","4","3","4","1","4","3","3","2","2","2","1","0","0","1","0","1","0","1","0","0","1","0","1","0","1","4","4","4","3","4","5","2","4","4","2","2","803250783939338242","顾","526","","","","","","","","","","","","","","","","","","","","","","","","","","","","","","feedback_test","","","","","","","","","","","",""
"771","","j","psychophysics","21","171783","0.0-7.0-1.0-1.0-0.0-0.6","3","3","3","3","3","3","3","2","3","3","4","4","2","4","3","4","3","3","4","4","3","4","1","4","3","3","2","2","2","1","0","0","1","0","1","0","1","0","0","1","0","1","0","1","4","4","4","3","4","5","2","4","4","2","2","803250783939338242","顾","526","","","","nonmatch","","","","","","","","","","","","","","key","j","16.54999999999989","720.2857142857143","476.2857142857143","j","true","nonmatch","img/hexagon.png","菱形","六边","ALT1_2","prac_ALT1_2","","","","","","","","","","","",""
"null","<span style='color:GreenYellow; font-size: 70px;'>正确! </span>","null","html-keyboard-response","22","172286","0.0-7.0-1.0-1.0-0.0-1.6","3","3","3","3","3","3","3","2","3","3","4","4","2","4","3","4","3","3","4","4","3","4","1","4","3","3","2","2","2","1","0","0","1","0","1","0","1","0","0","1","0","1","0","1","4","4","4","3","4","5","2","4","4","2","2","803250783939338242","顾","526","","","","","","","","","","","","","","","","","","","","","","","","","","","","","","feedback_test","","","","","","","","","","","",""
"700","","f","psychophysics","23","173988","0.0-7.0-1.0-1.0-0.0-0.7","3","3","3","3","3","3","3","2","3","3","4","4","2","4","3","4","3","3","4","4","3","4","1","4","3","3","2","2","2","1","0","0","1","0","1","0","1","0","0","1","0","1","0","1","4","4","4","3","4","5","2","4","4","2","2","803250783939338242","顾","526","","","","match","","","","","","","","","","","","","","key","f","16.620792079208037","720.2857142857143","476.2857142857143","j","false","nonmatch","img/diamond.png","六边","菱形","ALT1_2","prac_ALT1_2","","","","","","","","","","","",""
"null","<span style='color:red; font-size: 70px;'>错误! </span>","null","html-keyboard-response","24","174490","0.0-7.0-1.0-1.0-0.0-1.7","3","3","3","3","3","3","3","2","3","3","4","4","2","4","3","4","3","3","4","4","3","4","1","4","3","3","2","2","2","1","0","0","1","0","1","0","1","0","0","1","0","1","0","1","4","4","4","3","4","5","2","4","4","2","2","803250783939338242","顾","526","","","","","","","","","","","","","","","","","","","","","","","","","","","","","","feedback_test","","","","","","","","","","","",""
"789","","j","psychophysics","25","176281","0.0-7.0-1.0-1.0-0.0-0.8","3","3","3","3","3","3","3","2","3","3","4","4","2","4","3","4","3","3","4","4","3","4","1","4","3","3","2","2","2","1","0","0","1","0","1","0","1","0","0","1","0","1","0","1","4","4","4","3","4","5","2","4","4","2","2","803250783939338242","顾","526","","","","nonmatch","","","","","","","","","","","","","","key","j","16.650943396226417","720.2857142857143","476.2857142857143","f","false","match","img/diamond.png","菱形","菱形","ALT1_2","prac_ALT1_2","","","","","","","","","","","",""
"null","<span style='color:red; font-size: 70px;'>错误! </span>","null","html-keyboard-response","26","176783","0.0-7.0-1.0-1.0-0.0-1.8","3","3","3","3","3","3","3","2","3","3","4","4","2","4","3","4","3","3","4","4","3","4","1","4","3","3","2","2","2","1","0","0","1","0","1","0","1","0","0","1","0","1","0","1","4","4","4","3","4","5","2","4","4","2","2","803250783939338242","顾","526","","","","","","","","","","","","","","","","","","","","","","","","","","","","","","feedback_test","","","","","","","","","","","",""
"494","","f","psychophysics","27","178279","0.0-7.0-1.0-1.0-0.0-0.9","3","3","3","3","3","3","3","2","3","3","4","4","2","4","3","4","3","3","4","4","3","4","1","4","3","3","2","2","2","1","0","0","1","0","1","0","1","0","0","1","0","1","0","1","4","4","4","3","4","5","2","4","4","2","2","803250783939338242","顾","526","","","","match","","","","","","","","","","","","","","key","f","16.75955056179782","720.2857142857143","476.2857142857143","f","true","match","img/triangle.png","三角","三角","ALT1_2","prac_ALT1_2","","","","","","","","","","","",""
"null","<span style='color:GreenYellow; font-size: 70px;'>正确! </span>","null","html-keyboard-response","28","178782","0.0-7.0-1.0-1.0-0.0-1.9","3","3","3","3","3","3","3","2","3","3","4","4","2","4","3","4","3","3","4","4","3","4","1","4","3","3","2","2","2","1","0","0","1","0","1","0","1","0","0","1","0","1","0","1","4","4","4","3","4","5","2","4","4","2","2","803250783939338242","顾","526","","","","","","","","","","","","","","","","","","","","","","","","","","","","","","feedback_test","","","","","","","","","","","",""
"778","","f","psychophysics","29","180563","0.0-7.0-1.0-1.0-0.0-0.10","3","3","3","3","3","3","3","2","3","3","4","4","2","4","3","4","3","3","4","4","3","4","1","4","3","3","2","2","2","1","0","0","1","0","1","0","1","0","0","1","0","1","0","1","4","4","4","3","4","5","2","4","4","2","2","803250783939338242","顾","526","","","","match","","","","","","","","","","","","","","key","f","16.66698113207558","720.2857142857143","476.2857142857143","f","true","match","img/hexagon.png","六边","六边","ALT1_2","prac_ALT1_2","","","","","","","","","","","",""
"null","<span style='color:GreenYellow; font-size: 70px;'>正确! </span>","null","html-keyboard-response","30","181065","0.0-7.0-1.0-1.0-0.0-1.10","3","3","3","3","3","3","3","2","3","3","4","4","2","4","3","4","3","3","4","4","3","4","1","4","3","3","2","2","2","1","0","0","1","0","1","0","1","0","0","1","0","1","0","1","4","4","4","3","4","5","2","4","4","2","2","803250783939338242","顾","526","","","","","","","","","","","","","","","","","","","","","","","","","","","","","","feedback_test","","","","","","","","","","","",""
"636","","j","psychophysics","31","182704","0.0-7.0-1.0-1.0-0.0-0.11","3","3","3","3","3","3","3","2","3","3","4","4","2","4","3","4","3","3","4","4","3","4","1","4","3","3","2","2","2","1","0","0","1","0","1","0","1","0","0","1","0","1","0","1","4","4","4","3","4","5","2","4","4","2","2","803250783939338242","顾","526","","","","nonmatch","","","","","","","","","","","","","","key","j","16.535714285714285","720.2857142857143","476.2857142857143","j","true","nonmatch","img/hexagon.png","圆形","六边","ALT1_2","prac_ALT1_2","","","","","","","","","","","",""
"null","<span style='color:GreenYellow; font-size: 70px;'>正确! </span>","null","html-keyboard-response","32","183206","0.0-7.0-1.0-1.0-0.0-1.11","3","3","3","3","3","3","3","2","3","3","4","4","2","4","3","4","3","3","4","4","3","4","1","4","3","3","2","2","2","1","0","0","1","0","1","0","1","0","0","1","0","1","0","1","4","4","4","3","4","5","2","4","4","2","2","803250783939338242","顾","526","","","","","","","","","","","","","","","","","","","","","","","","","","","","","","feedback_test","","","","","","","","","","","",""
"819","","f","psychophysics","33","185028","0.0-7.0-1.0-1.0-0.0-0.12","3","3","3","3","3","3","3","2","3","3","4","4","2","4","3","4","3","3","4","4","3","4","1","4","3","3","2","2","2","1","0","0","1","0","1","0","1","0","0","1","0","1","0","1","4","4","4","3","4","5","2","4","4","2","2","803250783939338242","顾","526","","","","match","","","","","","","","","","","","","","key","f","16.662037037037038","720.2857142857143","476.2857142857143","j","false","nonmatch","img/circle.png","三角","圆形","ALT1_2","prac_ALT1_2","","","","","","","","","","","",""
"null","<span style='color:red; font-size: 70px;'>错误! </span>","null","html-keyboard-response","34","185529","0.0-7.0-1.0-1.0-0.0-1.12","3","3","3","3","3","3","3","2","3","3","4","4","2","4","3","4","3","3","4","4","3","4","1","4","3","3","2","2","2","1","0","0","1","0","1","0","1","0","0","1","0","1","0","1","4","4","4","3","4","5","2","4","4","2","2","803250783939338242","顾","526","","","","","","","","","","","","","","","","","","","","","","","","","","","","","","feedback_test","","","","","","","","","","","",""
"721","","f","psychophysics","35","187252","0.0-7.0-1.0-1.0-0.0-0.13","3","3","3","3","3","3","3","2","3","3","4","4","2","4","3","4","3","3","4","4","3","4","1","4","3","3","2","2","2","1","0","0","1","0","1","0","1","0","0","1","0","1","0","1","4","4","4","3","4","5","2","4","4","2","2","803250783939338242","顾","526","","","","match","","","","","","","","","","","","","","key","f","16.6549019607842","720.2857142857143","476.2857142857143","f","true","match","img/triangle.png","三角","三角","ALT1_2","prac_ALT1_2","","","","","","","","","","","",""
"null","<span style='color:GreenYellow; font-size: 70px;'>正确! </span>","null","html-keyboard-response","36","187754","0.0-7.0-1.0-1.0-0.0-1.13","3","3","3","3","3","3","3","2","3","3","4","4","2","4","3","4","3","3","4","4","3","4","1","4","3","3","2","2","2","1","0","0","1","0","1","0","1","0","0","1","0","1","0","1","4","4","4","3","4","5","2","4","4","2","2","803250783939338242","顾","526","","","","","","","","","","","","","","","","","","","","","","","","","","","","","","feedback_test","","","","","","","","","","","",""
"633","","f","psychophysics","37","189389","0.0-7.0-1.0-1.0-0.0-0.14","3","3","3","3","3","3","3","2","3","3","4","4","2","4","3","4","3","3","4","4","3","4","1","4","3","3","2","2","2","1","0","0","1","0","1","0","1","0","0","1","0","1","0","1","4","4","4","3","4","5","2","4","4","2","2","803250783939338242","顾","526","","","","match","","","","","","","","","","","","","","key","f","16.66597938144336","720.2857142857143","476.2857142857143","f","true","match","img/circle.png","圆形","圆形","ALT1_2","prac_ALT1_2","","","","","","","","","","","",""
"null","<span style='color:GreenYellow; font-size: 70px;'>正确! </span>","null","html-keyboard-response","38","189891","0.0-7.0-1.0-1.0-0.0-1.14","3","3","3","3","3","3","3","2","3","3","4","4","2","4","3","4","3","3","4","4","3","4","1","4","3","3","2","2","2","1","0","0","1","0","1","0","1","0","0","1","0","1","0","1","4","4","4","3","4","5","2","4","4","2","2","803250783939338242","顾","526","","","","","","","","","","","","","","","","","","","","","","","","","","","","","","feedback_test","","","","","","","","","","","",""
"683","","f","psychophysics","39","191576","0.0-7.0-1.0-1.0-0.0-0.15","3","3","3","3","3","3","3","2","3","3","4","4","2","4","3","4","3","3","4","4","3","4","1","4","3","3","2","2","2","1","0","0","1","0","1","0","1","0","0","1","0","1","0","1","4","4","4","3","4","5","2","4","4","2","2","803250783939338242","顾","526","","","","match","","","","","","","","","","","","","","key","f","16.524752475247524","720.2857142857143","476.2857142857143","f","true","match","img/circle.png","圆形","圆形","ALT1_2","prac_ALT1_2","","","","","","","","","","","",""
"null","<span style='color:GreenYellow; font-size: 70px;'>正确! </span>","null","html-keyboard-response","40","192077","0.0-7.0-1.0-1.0-0.0-1.15","3","3","3","3","3","3","3","2","3","3","4","4","2","4","3","4","3","3","4","4","3","4","1","4","3","3","2","2","2","1","0","0","1","0","1","0","1","0","0","1","0","1","0","1","4","4","4","3","4","5","2","4","4","2","2","803250783939338242","顾","526","","","","","","","","","","","","","","","","","","","","","","","","","","","","","","feedback_test","","","","","","","","","","","",""
"739","","f","psychophysics","41","193817","0.0-7.0-1.0-1.0-0.0-0.16","3","3","3","3","3","3","3","2","3","3","4","4","2","4","3","4","3","3","4","4","3","4","1","4","3","3","2","2","2","1","0","0","1","0","1","0","1","0","0","1","0","1","0","1","4","4","4","3","4","5","2","4","4","2","2","803250783939338242","顾","526","","","","match","","","","","","","","","","","","","","key","f","16.665686274509746","720.2857142857143","476.2857142857143","f","true","match","img/triangle.png","三角","三角","ALT1_2","prac_ALT1_2","","","","","","","","","","","",""
"null","<span style='color:GreenYellow; font-size: 70px;'>正确! </span>","null","html-keyboard-response","42","194319","0.0-7.0-1.0-1.0-0.0-1.16","3","3","3","3","3","3","3","2","3","3","4","4","2","4","3","4","3","3","4","4","3","4","1","4","3","3","2","2","2","1","0","0","1","0","1","0","1","0","0","1","0","1","0","1","4","4","4","3","4","5","2","4","4","2","2","803250783939338242","顾","526","","","","","","","","","","","","","","","","","","","","","","","","","","","","","","feedback_test","","","","","","","","","","","",""
"716","","j","psychophysics","43","196038","0.0-7.0-1.0-1.0-0.0-0.17","3","3","3","3","3","3","3","2","3","3","4","4","2","4","3","4","3","3","4","4","3","4","1","4","3","3","2","2","2","1","0","0","1","0","1","0","1","0","0","1","0","1","0","1","4","4","4","3","4","5","2","4","4","2","2","803250783939338242","顾","526","","","","nonmatch","","","","","","","","","","","","","","key","j","16.652941176470645","720.2857142857143","476.2857142857143","j","true","nonmatch","img/triangle.png","六边","三角","ALT1_2","prac_ALT1_2","","","","","","","","","","","",""
"null","<span style='color:GreenYellow; font-size: 70px;'>正确! </span>","null","html-keyboard-response","44","196539","0.0-7.0-1.0-1.0-0.0-1.17","3","3","3","3","3","3","3","2","3","3","4","4","2","4","3","4","3","3","4","4","3","4","1","4","3","3","2","2","2","1","0","0","1","0","1","0","1","0","0","1","0","1","0","1","4","4","4","3","4","5","2","4","4","2","2","803250783939338242","顾","526","","","","","","","","","","","","","","","","","","","","","","","","","","","","","","feedback_test","","","","","","","","","","","",""
"941","","j","psychophysics","45","198483","0.0-7.0-1.0-1.0-0.0-0.18","3","3","3","3","3","3","3","2","3","3","4","4","2","4","3","4","3","3","4","4","3","4","1","4","3","3","2","2","2","1","0","0","1","0","1","0","1","0","0","1","0","1","0","1","4","4","4","3","4","5","2","4","4","2","2","803250783939338242","顾","526","","","","nonmatch","","","","","","","","","","","","","","key","j","16.66782608695642","720.2857142857143","476.2857142857143","f","false","match","img/diamond.png","菱形","菱形","ALT1_2","prac_ALT1_2","","","","","","","","","","","",""
"null","<span style='color:red; font-size: 70px;'>错误! </span>","null","html-keyboard-response","46","198984","0.0-7.0-1.0-1.0-0.0-1.18","3","3","3","3","3","3","3","2","3","3","4","4","2","4","3","4","3","3","4","4","3","4","1","4","3","3","2","2","2","1","0","0","1","0","1","0","1","0","0","1","0","1","0","1","4","4","4","3","4","5","2","4","4","2","2","803250783939338242","顾","526","","","","","","","","","","","","","","","","","","","","","","","","","","","","","","feedback_test","","","","","","","","","","","",""
"665","","j","psychophysics","47","200651","0.0-7.0-1.0-1.0-0.0-0.19","3","3","3","3","3","3","3","2","3","3","4","4","2","4","3","4","3","3","4","4","3","4","1","4","3","3","2","2","2","1","0","0","1","0","1","0","1","0","0","1","0","1","0","1","4","4","4","3","4","5","2","4","4","2","2","803250783939338242","顾","526","","","","nonmatch","","","","","","","","","","","","","","key","j","16.66565656565651","720.2857142857143","476.2857142857143","j","true","nonmatch","img/triangle.png","圆形","三角","ALT1_2","prac_ALT1_2","","","","","","","","","","","",""
"null","<span style='color:GreenYellow; font-size: 70px;'>正确! </span>","null","html-keyboard-response","48","201153","0.0-7.0-1.0-1.0-0.0-1.19","3","3","3","3","3","3","3","2","3","3","4","4","2","4","3","4","3","3","4","4","3","4","1","4","3","3","2","2","2","1","0","0","1","0","1","0","1","0","0","1","0","1","0","1","4","4","4","3","4","5","2","4","4","2","2","803250783939338242","顾","526","","","","","","","","","","","","","","","","","","","","","","","","","","","","","","feedback_test","","","","","","","","","","","",""
"616","","f","psychophysics","49","202770","0.0-7.0-1.0-1.0-0.0-0.20","3","3","3","3","3","3","3","2","3","3","4","4","2","4","3","4","3","3","4","4","3","4","1","4","3","3","2","2","2","1","0","0","1","0","1","0","1","0","0","1","0","1","0","1","4","4","4","3","4","5","2","4","4","2","2","803250783939338242","顾","526","","","","match","","","","","","","","","","","","","","key","f","16.667708333333394","720.2857142857143","476.2857142857143","f","true","match","img/diamond.png","菱形","菱形","ALT1_2","prac_ALT1_2","","","","","","","","","","","",""
"null","<span style='color:GreenYellow; font-size: 70px;'>正确! </span>","null","html-keyboard-response","50","203271","0.0-7.0-1.0-1.0-0.0-1.20","3","3","3","3","3","3","3","2","3","3","4","4","2","4","3","4","3","3","4","4","3","4","1","4","3","3","2","2","2","1","0","0","1","0","1","0","1","0","0","1","0","1","0","1","4","4","4","3","4","5","2","4","4","2","2","803250783939338242","顾","526","","","","","","","","","","","","","","","","","","","","","","","","","","","","","","feedback_test","","","","","","","","","","","",""
"722","","j","psychophysics","51","204995","0.0-7.0-1.0-1.0-0.0-0.21","3","3","3","3","3","3","3","2","3","3","4","4","2","4","3","4","3","3","4","4","3","4","1","4","3","3","2","2","2","1","0","0","1","0","1","0","1","0","0","1","0","1","0","1","4","4","4","3","4","5","2","4","4","2","2","803250783939338242","顾","526","","","","nonmatch","","","","","","","","","","","","","","key","j","16.652941176470645","720.2857142857143","476.2857142857143","j","true","nonmatch","img/circle.png","菱形","圆形","ALT1_2","prac_ALT1_2","","","","","","","","","","","",""
"null","<span style='color:GreenYellow; font-size: 70px;'>正确! </span>","null","html-keyboard-response","52","205497","0.0-7.0-1.0-1.0-0.0-1.21","3","3","3","3","3","3","3","2","3","3","4","4","2","4","3","4","3","3","4","4","3","4","1","4","3","3","2","2","2","1","0","0","1","0","1","0","1","0","0","1","0","1","0","1","4","4","4","3","4","5","2","4","4","2","2","803250783939338242","顾","526","","","","","","","","","","","","","","","","","","","","","","","","","","","","","","feedback_test","","","","","","","","","","","",""
"608","","j","psychophysics","53","207106","0.0-7.0-1.0-1.0-0.0-0.22","3","3","3","3","3","3","3","2","3","3","4","4","2","4","3","4","3","3","4","4","3","4","1","4","3","3","2","2","2","1","0","0","1","0","1","0","1","0","0","1","0","1","0","1","4","4","4","3","4","5","2","4","4","2","2","803250783939338242","顾","526","","","","nonmatch","","","","","","","","","","","","","","key","j","16.664893617021278","720.2857142857143","476.2857142857143","j","true","nonmatch","img/triangle.png","菱形","三角","ALT1_2","prac_ALT1_2","","","","","","","","","","","",""
"null","<span style='color:GreenYellow; font-size: 70px;'>正确! </span>","null","html-keyboard-response","54","207609","0.0-7.0-1.0-1.0-0.0-1.22","3","3","3","3","3","3","3","2","3","3","4","4","2","4","3","4","3","3","4","4","3","4","1","4","3","3","2","2","2","1","0","0","1","0","1","0","1","0","0","1","0","1","0","1","4","4","4","3","4","5","2","4","4","2","2","803250783939338242","顾","526","","","","","","","","","","","","","","","","","","","","","","","","","","","","","","feedback_test","","","","","","","","","","","",""
"702","","j","psychophysics","55","209314","0.0-7.0-1.0-1.0-0.0-0.23","3","3","3","3","3","3","3","2","3","3","4","4","2","4","3","4","3","3","4","4","3","4","1","4","3","3","2","2","2","1","0","0","1","0","1","0","1","0","0","1","0","1","0","1","4","4","4","3","4","5","2","4","4","2","2","803250783939338242","顾","526","","","","nonmatch","","","","","","","","","","","","","","key","j","16.601980198019977","720.2857142857143","476.2857142857143","j","true","nonmatch","img/hexagon.png","三角","六边","ALT1_2","prac_ALT1_2","","","","","","","","","","","",""
"null","<span style='color:GreenYellow; font-size: 70px;'>正确! </span>","null","html-keyboard-response","56","209816","0.0-7.0-1.0-1.0-0.0-1.23","3","3","3","3","3","3","3","2","3","3","4","4","2","4","3","4","3","3","4","4","3","4","1","4","3","3","2","2","2","1","0","0","1","0","1","0","1","0","0","1","0","1","0","1","4","4","4","3","4","5","2","4","4","2","2","803250783939338242","顾","526","","","","","","","","","","","","","","","","","","","","","","","","","","","","","","feedback_test","","","","","","","","","","","",""
"807","","f","psychophysics","57","211627","0.0-7.0-1.0-1.0-0.0-0.24","3","3","3","3","3","3","3","2","3","3","4","4","2","4","3","4","3","3","4","4","3","4","1","4","3","3","2","2","2","1","0","0","1","0","1","0","1","0","0","1","0","1","0","1","4","4","4","3","4","5","2","4","4","2","2","803250783939338242","顾","526","","","","match","","","","","","","","","","","","","","key","f","16.62990654205602","720.2857142857143","476.2857142857143","f","true","match","img/hexagon.png","六边","六边","ALT1_2","prac_ALT1_2","","","","","","","","","","","",""
"null","<span style='color:GreenYellow; font-size: 70px;'>正确! </span>","null","html-keyboard-response","58","212129","0.0-7.0-1.0-1.0-0.0-1.24","3","3","3","3","3","3","3","2","3","3","4","4","2","4","3","4","3","3","4","4","3","4","1","4","3","3","2","2","2","1","0","0","1","0","1","0","1","0","0","1","0","1","0","1","4","4","4","3","4","5","2","4","4","2","2","803250783939338242","顾","526","","","","","","","","","","","","","","","","","","","","","","","","","","","","","","feedback_test","","","","","","","","","","","",""
"700","","j","psychophysics","59","213830","0.0-7.0-1.0-1.0-0.0-0.25","3","3","3","3","3","3","3","2","3","3","4","4","2","4","3","4","3","3","4","4","3","4","1","4","3","3","2","2","2","1","0","0","1","0","1","0","1","0","0","1","0","1","0","1","4","4","4","3","4","5","2","4","4","2","2","803250783939338242","顾","526","","","","nonmatch","","","","","","","","","","","","","","key","j","16.662999999999883","720.2857142857143","476.2857142857143","j","true","nonmatch","img/triangle.png","圆形","三角","ALT1_2","prac_ALT1_2","","","","","","","","","","","",""
"null","<span style='color:GreenYellow; font-size: 70px;'>正确! </span>","null","html-keyboard-response","60","214333","0.0-7.0-1.0-1.0-0.0-1.25","3","3","3","3","3","3","3","2","3","3","4","4","2","4","3","4","3","3","4","4","3","4","1","4","3","3","2","2","2","1","0","0","1","0","1","0","1","0","0","1","0","1","0","1","4","4","4","3","4","5","2","4","4","2","2","803250783939338242","顾","526","","","","","","","","","","","","","","","","","","","","","","","","","","","","","","feedback_test","","","","","","","","","","","",""
"708","","f","psychophysics","61","216044","0.0-7.0-1.0-1.0-0.0-0.26","3","3","3","3","3","3","3","2","3","3","4","4","2","4","3","4","3","3","4","4","3","4","1","4","3","3","2","2","2","1","0","0","1","0","1","0","1","0","0","1","0","1","0","1","4","4","4","3","4","5","2","4","4","2","2","803250783939338242","顾","526","","","","match","","","","","","","","","","","","","","key","f","16.667000000000115","720.2857142857143","476.2857142857143","f","true","match","img/hexagon.png","六边","六边","ALT1_2","prac_ALT1_2","","","","","","","","","","","",""
"null","<span style='color:GreenYellow; font-size: 70px;'>正确! </span>","null","html-keyboard-response","62","216546","0.0-7.0-1.0-1.0-0.0-1.26","3","3","3","3","3","3","3","2","3","3","4","4","2","4","3","4","3","3","4","4","3","4","1","4","3","3","2","2","2","1","0","0","1","0","1","0","1","0","0","1","0","1","0","1","4","4","4","3","4","5","2","4","4","2","2","803250783939338242","顾","526","","","","","","","","","","","","","","","","","","","","","","","","","","","","","","feedback_test","","","","","","","","","","","",""
"928","","j","psychophysics","63","218476","0.0-7.0-1.0-1.0-0.0-0.27","3","3","3","3","3","3","3","2","3","3","4","4","2","4","3","4","3","3","4","4","3","4","1","4","3","3","2","2","2","1","0","0","1","0","1","0","1","0","0","1","0","1","0","1","4","4","4","3","4","5","2","4","4","2","2","803250783939338242","顾","526","","","","nonmatch","","","","","","","","","","","","","","key","j","16.6640350877194","720.2857142857143","476.2857142857143","f","false","match","img/diamond.png","菱形","菱形","ALT1_2","prac_ALT1_2","","","","","","","","","","","",""
"null","<span style='color:red; font-size: 70px;'>错误! </span>","null","html-keyboard-response","64","218977","0.0-7.0-1.0-1.0-0.0-1.27","3","3","3","3","3","3","3","2","3","3","4","4","2","4","3","4","3","3","4","4","3","4","1","4","3","3","2","2","2","1","0","0","1","0","1","0","1","0","0","1","0","1","0","1","4","4","4","3","4","5","2","4","4","2","2","803250783939338242","顾","526","","","","","","","","","","","","","","","","","","","","","","","","","","","","","","feedback_test","","","","","","","","","","","",""
"716","","f","psychophysics","65","220694","0.0-7.0-1.0-1.0-0.0-0.28","3","3","3","3","3","3","3","2","3","3","4","4","2","4","3","4","3","3","4","4","3","4","1","4","3","3","2","2","2","1","0","0","1","0","1","0","1","0","0","1","0","1","0","1","4","4","4","3","4","5","2","4","4","2","2","803250783939338242","顾","526","","","","match","","","","","","","","","","","","","","key","f","16.662376237623704","720.2857142857143","476.2857142857143","f","true","match","img/triangle.png","三角","三角","ALT1_2","prac_ALT1_2","","","","","","","","","","","",""
"null","<span style='color:GreenYellow; font-size: 70px;'>正确! </span>","null","html-keyboard-response","66","221197","0.0-7.0-1.0-1.0-0.0-1.28","3","3","3","3","3","3","3","2","3","3","4","4","2","4","3","4","3","3","4","4","3","4","1","4","3","3","2","2","2","1","0","0","1","0","1","0","1","0","0","1","0","1","0","1","4","4","4","3","4","5","2","4","4","2","2","803250783939338242","顾","526","","","","","","","","","","","","","","","","","","","","","","","","","","","","","","feedback_test","","","","","","","","","","","",""
"750","","j","psychophysics","67","222951","0.0-7.0-1.0-1.0-0.0-0.29","3","3","3","3","3","3","3","2","3","3","4","4","2","4","3","4","3","3","4","4","3","4","1","4","3","3","2","2","2","1","0","0","1","0","1","0","1","0","0","1","0","1","0","1","4","4","4","3","4","5","2","4","4","2","2","803250783939338242","顾","526","","","","nonmatch","","","","","","","","","","","","","","key","j","16.66504854368932","720.2857142857143","476.2857142857143","j","true","nonmatch","img/triangle.png","六边","三角","ALT1_2","prac_ALT1_2","","","","","","","","","","","",""
"null","<span style='color:GreenYellow; font-size: 70px;'>正确! </span>","null","html-keyboard-response","68","223452","0.0-7.0-1.0-1.0-0.0-1.29","3","3","3","3","3","3","3","2","3","3","4","4","2","4","3","4","3","3","4","4","3","4","1","4","3","3","2","2","2","1","0","0","1","0","1","0","1","0","0","1","0","1","0","1","4","4","4","3","4","5","2","4","4","2","2","803250783939338242","顾","526","","","","","","","","","","","","","","","","","","","","","","","","","","","","","","feedback_test","","","","","","","","","","","",""
"770","","j","psychophysics","69","225226","0.0-7.0-1.0-1.0-0.0-0.30","3","3","3","3","3","3","3","2","3","3","4","4","2","4","3","4","3","3","4","4","3","4","1","4","3","3","2","2","2","1","0","0","1","0","1","0","1","0","0","1","0","1","0","1","4","4","4","3","4","5","2","4","4","2","2","803250783939338242","顾","526","","","","nonmatch","","","","","","","","","","","","","","key","j","16.664423076923132","720.2857142857143","476.2857142857143","j","true","nonmatch","img/circle.png","六边","圆形","ALT1_2","prac_ALT1_2","","","","","","","","","","","",""
"null","<span style='color:GreenYellow; font-size: 70px;'>正确! </span>","null","html-keyboard-response","70","225727","0.0-7.0-1.0-1.0-0.0-1.30","3","3","3","3","3","3","3","2","3","3","4","4","2","4","3","4","3","3","4","4","3","4","1","4","3","3","2","2","2","1","0","0","1","0","1","0","1","0","0","1","0","1","0","1","4","4","4","3","4","5","2","4","4","2","2","803250783939338242","顾","526","","","","","","","","","","","","","","","","","","","","","","","","","","","","","","feedback_test","","","","","","","","","","","",""
"971","","j","psychophysics","71","227701","0.0-7.0-1.0-1.0-0.0-0.31","3","3","3","3","3","3","3","2","3","3","4","4","2","4","3","4","3","3","4","4","3","4","1","4","3","3","2","2","2","1","0","0","1","0","1","0","1","0","0","1","0","1","0","1","4","4","4","3","4","5","2","4","4","2","2","803250783939338242","顾","526","","","","nonmatch","","","","","","","","","","","","","","key","j","16.616239316239366","720.2857142857143","476.2857142857143","j","true","nonmatch","img/circle.png","菱形","圆形","ALT1_2","prac_ALT1_2","","","","","","","","","","","",""
"null","<span style='color:GreenYellow; font-size: 70px;'>正确! </span>","null","html-keyboard-response","72","228202","0.0-7.0-1.0-1.0-0.0-1.31","3","3","3","3","3","3","3","2","3","3","4","4","2","4","3","4","3","3","4","4","3","4","1","4","3","3","2","2","2","1","0","0","1","0","1","0","1","0","0","1","0","1","0","1","4","4","4","3","4","5","2","4","4","2","2","803250783939338242","顾","526","","","","","","","","","","","","","","","","","","","","","","","","","","","","","","feedback_test","","","","","","","","","","","",""
"829","","f","psychophysics","73","230034","0.0-7.0-1.0-1.0-0.0-0.32","3","3","3","3","3","3","3","2","3","3","4","4","2","4","3","4","3","3","4","4","3","4","1","4","3","3","2","2","2","1","0","0","1","0","1","0","1","0","0","1","0","1","0","1","4","4","4","3","4","5","2","4","4","2","2","803250783939338242","顾","526","","","","match","","","","","","","","","","","","","","key","f","16.556880733944794","720.2857142857143","476.2857142857143","j","false","nonmatch","img/hexagon.png","菱形","六边","ALT1_2","prac_ALT1_2","","","","","","","","","","","",""
"null","<span style='color:red; font-size: 70px;'>错误! </span>","null","html-keyboard-response","74","230535","0.0-7.0-1.0-1.0-0.0-1.32","3","3","3","3","3","3","3","2","3","3","4","4","2","4","3","4","3","3","4","4","3","4","1","4","3","3","2","2","2","1","0","0","1","0","1","0","1","0","0","1","0","1","0","1","4","4","4","3","4","5","2","4","4","2","2","803250783939338242","顾","526","","","","","","","","","","","","","","","","","","","","","","","","","","","","","","feedback_test","","","","","","","","","","","",""
"798","","j","psychophysics","75","232334","0.0-7.0-1.0-1.0-0.0-0.33","3","3","3","3","3","3","3","2","3","3","4","4","2","4","3","4","3","3","4","4","3","4","1","4","3","3","2","2","2","1","0","0","1","0","1","0","1","0","0","1","0","1","0","1","4","4","4","3","4","5","2","4","4","2","2","803250783939338242","顾","526","","","","nonmatch","","","","","","","","","","","","","","key","j","16.662264150943507","720.2857142857143","476.2857142857143","j","true","nonmatch","img/circle.png","三角","圆形","ALT1_2","prac_ALT1_2","","","","","","","","","","","",""
"null","<span style='color:GreenYellow; font-size: 70px;'>正确! </span>","null","html-keyboard-response","76","232835","0.0-7.0-1.0-1.0-0.0-1.33","3","3","3","3","3","3","3","2","3","3","4","4","2","4","3","4","3","3","4","4","3","4","1","4","3","3","2","2","2","1","0","0","1","0","1","0","1","0","0","1","0","1","0","1","4","4","4","3","4","5","2","4","4","2","2","803250783939338242","顾","526","","","","","","","","","","","","","","","","","","","","","","","","","","","","","","feedback_test","","","","","","","","","","","",""
"843","","j","psychophysics","77","234680","0.0-7.0-1.0-1.0-0.0-0.34","3","3","3","3","3","3","3","2","3","3","4","4","2","4","3","4","3","3","4","4","3","4","1","4","3","3","2","2","2","1","0","0","1","0","1","0","1","0","0","1","0","1","0","1","4","4","4","3","4","5","2","4","4","2","2","803250783939338242","顾","526","","","","nonmatch","","","","","","","","","","","","","","key","j","16.66697247706406","720.2857142857143","476.2857142857143","j","true","nonmatch","img/diamond.png","六边","菱形","ALT1_2","prac_ALT1_2","","","","","","","","","","","",""
"null","<span style='color:GreenYellow; font-size: 70px;'>正确! </span>","null","html-keyboard-response","78","235181","0.0-7.0-1.0-1.0-0.0-1.34","3","3","3","3","3","3","3","2","3","3","4","4","2","4","3","4","3","3","4","4","3","4","1","4","3","3","2","2","2","1","0","0","1","0","1","0","1","0","0","1","0","1","0","1","4","4","4","3","4","5","2","4","4","2","2","803250783939338242","顾","526","","","","","","","","","","","","","","","","","","","","","","","","","","","","","","feedback_test","","","","","","","","","","","",""
"634","","j","psychophysics","79","236818","0.0-7.0-1.0-1.0-0.0-0.35","3","3","3","3","3","3","3","2","3","3","4","4","2","4","3","4","3","3","4","4","3","4","1","4","3","3","2","2","2","1","0","0","1","0","1","0","1","0","0","1","0","1","0","1","4","4","4","3","4","5","2","4","4","2","2","803250783939338242","顾","526","","","","nonmatch","","","","","","","","","","","","","","key","j","16.66804123711358","720.2857142857143","476.2857142857143","f","false","match","img/circle.png","圆形","圆形","ALT1_2","prac_ALT1_2","","","","","","","","","","","",""
"null","<span style='color:red; font-size: 70px;'>错误! </span>","null","html-keyboard-response","80","237319","0.0-7.0-1.0-1.0-0.0-1.35","3","3","3","3","3","3","3","2","3","3","4","4","2","4","3","4","3","3","4","4","3","4","1","4","3","3","2","2","2","1","0","0","1","0","1","0","1","0","0","1","0","1","0","1","4","4","4","3","4","5","2","4","4","2","2","803250783939338242","顾","526","","","","","","","","","","","","","","","","","","","","","","","","","","","","","","feedback_test","","","","","","","","","","","",""
"1111","","j","psychophysics","81","239433","0.0-7.0-1.0-1.0-0.0-0.36","3","3","3","3","3","3","3","2","3","3","4","4","2","4","3","4","3","3","4","4","3","4","1","4","3","3","2","2","2","1","0","0","1","0","1","0","1","0","0","1","0","1","0","1","4","4","4","3","4","5","2","4","4","2","2","803250783939338242","顾","526","","","","nonmatch","","","","","","","","","","","","","","key","j","16.65440000000014","720.2857142857143","476.2857142857143","j","true","nonmatch","img/diamond.png","三角","菱形","ALT1_2","prac_ALT1_2","","","","","","","","","","","",""
"null","<span style='color:GreenYellow; font-size: 70px;'>正确! </span>","null","html-keyboard-response","82","239935","0.0-7.0-1.0-1.0-0.0-1.36","3","3","3","3","3","3","3","2","3","3","4","4","2","4","3","4","3","3","4","4","3","4","1","4","3","3","2","2","2","1","0","0","1","0","1","0","1","0","0","1","0","1","0","1","4","4","4","3","4","5","2","4","4","2","2","803250783939338242","顾","526","","","","","","","","","","","","","","","","","","","","","","","","","","","","","","feedback_test","","","","","","","","","","","",""
"695","","j","psychophysics","83","241632","0.0-7.0-1.0-1.0-0.0-0.37","3","3","3","3","3","3","3","2","3","3","4","4","2","4","3","4","3","3","4","4","3","4","1","4","3","3","2","2","2","1","0","0","1","0","1","0","1","0","0","1","0","1","0","1","4","4","4","3","4","5","2","4","4","2","2","803250783939338242","顾","526","","","","nonmatch","","","","","","","","","","","","","","key","j","16.584158415841586","720.2857142857143","476.2857142857143","j","true","nonmatch","img/hexagon.png","圆形","六边","ALT1_2","prac_ALT1_2","","","","","","","","","","","",""
"null","<span style='color:GreenYellow; font-size: 70px;'>正确! </span>","null","html-keyboard-response","84","242135","0.0-7.0-1.0-1.0-0.0-1.37","3","3","3","3","3","3","3","2","3","3","4","4","2","4","3","4","3","3","4","4","3","4","1","4","3","3","2","2","2","1","0","0","1","0","1","0","1","0","0","1","0","1","0","1","4","4","4","3","4","5","2","4","4","2","2","803250783939338242","顾","526","","","","","","","","","","","","","","","","","","","","","","","","","","","","","","feedback_test","","","","","","","","","","","",""
"636","","j","psychophysics","85","243772","0.0-7.0-1.0-1.0-0.0-0.38","3","3","3","3","3","3","3","2","3","3","4","4","2","4","3","4","3","3","4","4","3","4","1","4","3","3","2","2","2","1","0","0","1","0","1","0","1","0","0","1","0","1","0","1","4","4","4","3","4","5","2","4","4","2","2","803250783939338242","顾","526","","","","nonmatch","","","","","","","","","","","","","","key","j","16.731632653061343","720.2857142857143","476.2857142857143","j","true","nonmatch","img/hexagon.png","三角","六边","ALT1_2","prac_ALT1_2","","","","","","","","","","","",""
"null","<span style='color:GreenYellow; font-size: 70px;'>正确! </span>","null","html-keyboard-response","86","244274","0.0-7.0-1.0-1.0-0.0-1.38","3","3","3","3","3","3","3","2","3","3","4","4","2","4","3","4","3","3","4","4","3","4","1","4","3","3","2","2","2","1","0","0","1","0","1","0","1","0","0","1","0","1","0","1","4","4","4","3","4","5","2","4","4","2","2","803250783939338242","顾","526","","","","","","","","","","","","","","","","","","","","","","","","","","","","","","feedback_test","","","","","","","","","","","",""
"1002","","f","psychophysics","87","246279","0.0-7.0-1.0-1.0-0.0-0.39","3","3","3","3","3","3","3","2","3","3","4","4","2","4","3","4","3","3","4","4","3","4","1","4","3","3","2","2","2","1","0","0","1","0","1","0","1","0","0","1","0","1","0","1","4","4","4","3","4","5","2","4","4","2","2","803250783939338242","顾","526","","","","match","","","","","","","","","","","","","","key","f","16.663559322033798","720.2857142857143","476.2857142857143","f","true","match","img/diamond.png","菱形","菱形","ALT1_2","prac_ALT1_2","","","","","","","","","","","",""
"null","<span style='color:GreenYellow; font-size: 70px;'>正确! </span>","null","html-keyboard-response","88","246782","0.0-7.0-1.0-1.0-0.0-1.39","3","3","3","3","3","3","3","2","3","3","4","4","2","4","3","4","3","3","4","4","3","4","1","4","3","3","2","2","2","1","0","0","1","0","1","0","1","0","0","1","0","1","0","1","4","4","4","3","4","5","2","4","4","2","2","803250783939338242","顾","526","","","","","","","","","","","","","","","","","","","","","","","","","","","","","","feedback_test","","","","","","","","","","","",""
"686","","f","psychophysics","89","248470","0.0-7.0-1.0-1.0-0.0-0.40","3","3","3","3","3","3","3","2","3","3","4","4","2","4","3","4","3","3","4","4","3","4","1","4","3","3","2","2","2","1","0","0","1","0","1","0","1","0","0","1","0","1","0","1","4","4","4","3","4","5","2","4","4","2","2","803250783939338242","顾","526","","","","match","","","","","","","","","","","","","","key","f","16.65","720.2857142857143","476.2857142857143","f","true","match","img/triangle.png","三角","三角","ALT1_2","prac_ALT1_2","","","","","","","","","","","",""
"null","<span style='color:GreenYellow; font-size: 70px;'>正确! </span>","null","html-keyboard-response","90","248972","0.0-7.0-1.0-1.0-0.0-1.40","3","3","3","3","3","3","3","2","3","3","4","4","2","4","3","4","3","3","4","4","3","4","1","4","3","3","2","2","2","1","0","0","1","0","1","0","1","0","0","1","0","1","0","1","4","4","4","3","4","5","2","4","4","2","2","803250783939338242","顾","526","","","","","","","","","","","","","","","","","","","","","","","","","","","","","","feedback_test","","","","","","","","","","","",""
"646","","j","psychophysics","91","250620","0.0-7.0-1.0-1.0-0.0-0.41","3","3","3","3","3","3","3","2","3","3","4","4","2","4","3","4","3","3","4","4","3","4","1","4","3","3","2","2","2","1","0","0","1","0","1","0","1","0","0","1","0","1","0","1","4","4","4","3","4","5","2","4","4","2","2","803250783939338242","顾","526","","","","nonmatch","","","","","","","","","","","","","","key","j","16.66701030927817","720.2857142857143","476.2857142857143","j","true","nonmatch","img/triangle.png","菱形","三角","ALT1_2","prac_ALT1_2","","","","","","","","","","","",""
"null","<span style='color:GreenYellow; font-size: 70px;'>正确! </span>","null","html-keyboard-response","92","251123","0.0-7.0-1.0-1.0-0.0-1.41","3","3","3","3","3","3","3","2","3","3","4","4","2","4","3","4","3","3","4","4","3","4","1","4","3","3","2","2","2","1","0","0","1","0","1","0","1","0","0","1","0","1","0","1","4","4","4","3","4","5","2","4","4","2","2","803250783939338242","顾","526","","","","","","","","","","","","","","","","","","","","","","","","","","","","","","feedback_test","","","","","","","","","","","",""
"736","","f","psychophysics","93","252862","0.0-7.0-1.0-1.0-0.0-0.42","3","3","3","3","3","3","3","2","3","3","4","4","2","4","3","4","3","3","4","4","3","4","1","4","3","3","2","2","2","1","0","0","1","0","1","0","1","0","0","1","0","1","0","1","4","4","4","3","4","5","2","4","4","2","2","803250783939338242","顾","526","","","","match","","","","","","","","","","","","","","key","f","16.58653846153846","720.2857142857143","476.2857142857143","f","true","match","img/hexagon.png","六边","六边","ALT1_2","prac_ALT1_2","","","","","","","","","","","",""
"null","<span style='color:GreenYellow; font-size: 70px;'>正确! </span>","null","html-keyboard-response","94","253364","0.0-7.0-1.0-1.0-0.0-1.42","3","3","3","3","3","3","3","2","3","3","4","4","2","4","3","4","3","3","4","4","3","4","1","4","3","3","2","2","2","1","0","0","1","0","1","0","1","0","0","1","0","1","0","1","4","4","4","3","4","5","2","4","4","2","2","803250783939338242","顾","526","","","","","","","","","","","","","","","","","","","","","","","","","","","","","","feedback_test","","","","","","","","","","","",""
"1017","","j","psychophysics","95","255384","0.0-7.0-1.0-1.0-0.0-0.43","3","3","3","3","3","3","3","2","3","3","4","4","2","4","3","4","3","3","4","4","3","4","1","4","3","3","2","2","2","1","0","0","1","0","1","0","1","0","0","1","0","1","0","1","4","4","4","3","4","5","2","4","4","2","2","803250783939338242","顾","526","","","","nonmatch","","","","","","","","","","","","","","key","j","16.56475409836061","720.2857142857143","476.2857142857143","j","true","nonmatch","img/diamond.png","圆形","菱形","ALT1_2","prac_ALT1_2","","","","","","","","","","","",""
"null","<span style='color:GreenYellow; font-size: 70px;'>正确! </span>","null","html-keyboard-response","96","255887","0.0-7.0-1.0-1.0-0.0-1.43","3","3","3","3","3","3","3","2","3","3","4","4","2","4","3","4","3","3","4","4","3","4","1","4","3","3","2","2","2","1","0","0","1","0","1","0","1","0","0","1","0","1","0","1","4","4","4","3","4","5","2","4","4","2","2","803250783939338242","顾","526","","","","","","","","","","","","","","","","","","","","","","","","","","","","","","feedback_test","","","","","","","","","","","",""
"589","","f","psychophysics","97","257478","0.0-7.0-1.0-1.0-0.0-0.44","3","3","3","3","3","3","3","2","3","3","4","4","2","4","3","4","3","3","4","4","3","4","1","4","3","3","2","2","2","1","0","0","1","0","1","0","1","0","0","1","0","1","0","1","4","4","4","3","4","5","2","4","4","2","2","803250783939338242","顾","526","","","","match","","","","","","","","","","","","","","key","f","16.71263157894749","720.2857142857143","476.2857142857143","f","true","match","img/circle.png","圆形","圆形","ALT1_2","prac_ALT1_2","","","","","","","","","","","",""
"null","<span style='color:GreenYellow; font-size: 70px;'>正确! </span>","null","html-keyboard-response","98","257981","0.0-7.0-1.0-1.0-0.0-1.44","3","3","3","3","3","3","3","2","3","3","4","4","2","4","3","4","3","3","4","4","3","4","1","4","3","3","2","2","2","1","0","0","1","0","1","0","1","0","0","1","0","1","0","1","4","4","4","3","4","5","2","4","4","2","2","803250783939338242","顾","526","","","","","","","","","","","","","","","","","","","","","","","","","","","","","","feedback_test","","","","","","","","","","","",""
"632","","f","psychophysics","99","259615","0.0-7.0-1.0-1.0-0.0-0.45","3","3","3","3","3","3","3","2","3","3","4","4","2","4","3","4","3","3","4","4","3","4","1","4","3","3","2","2","2","1","0","0","1","0","1","0","1","0","0","1","0","1","0","1","4","4","4","3","4","5","2","4","4","2","2","803250783939338242","顾","526","","","","match","","","","","","","","","","","","","","key","f","16.66701030927787","720.2857142857143","476.2857142857143","f","true","match","img/circle.png","圆形","圆形","ALT1_2","prac_ALT1_2","","","","","","","","","","","",""
"null","<span style='color:GreenYellow; font-size: 70px;'>正确! </span>","null","html-keyboard-response","100","260118","0.0-7.0-1.0-1.0-0.0-1.45","3","3","3","3","3","3","3","2","3","3","4","4","2","4","3","4","3","3","4","4","3","4","1","4","3","3","2","2","2","1","0","0","1","0","1","0","1","0","0","1","0","1","0","1","4","4","4","3","4","5","2","4","4","2","2","803250783939338242","顾","526","","","","","","","","","","","","","","","","","","","","","","","","","","","","","","feedback_test","","","","","","","","","","","",""
"758","","f","psychophysics","101","261877","0.0-7.0-1.0-1.0-0.0-0.46","3","3","3","3","3","3","3","2","3","3","4","4","2","4","3","4","3","3","4","4","3","4","1","4","3","3","2","2","2","1","0","0","1","0","1","0","1","0","0","1","0","1","0","1","4","4","4","3","4","5","2","4","4","2","2","803250783939338242","顾","526","","","","match","","","","","","","","","","","","","","key","f","16.666346153846042","720.2857142857143","476.2857142857143","f","true","match","img/triangle.png","三角","三角","ALT1_2","prac_ALT1_2","","","","","","","","","","","",""
"null","<span style='color:GreenYellow; font-size: 70px;'>正确! </span>","null","html-keyboard-response","102","262380","0.0-7.0-1.0-1.0-0.0-1.46","3","3","3","3","3","3","3","2","3","3","4","4","2","4","3","4","3","3","4","4","3","4","1","4","3","3","2","2","2","1","0","0","1","0","1","0","1","0","0","1","0","1","0","1","4","4","4","3","4","5","2","4","4","2","2","803250783939338242","顾","526","","","","","","","","","","","","","","","","","","","","","","","","","","","","","","feedback_test","","","","","","","","","","","",""
"889","","f","psychophysics","103","264273","0.0-7.0-1.0-1.0-0.0-0.47","3","3","3","3","3","3","3","2","3","3","4","4","2","4","3","4","3","3","4","4","3","4","1","4","3","3","2","2","2","1","0","0","1","0","1","0","1","0","0","1","0","1","0","1","4","4","4","3","4","5","2","4","4","2","2","803250783939338242","顾","526","","","","match","","","","","","","","","","","","","","key","f","16.562831858406874","720.2857142857143","476.2857142857143","f","true","match","img/diamond.png","菱形","菱形","ALT1_2","prac_ALT1_2","","","","","","","","","","","",""
"null","<span style='color:GreenYellow; font-size: 70px;'>正确! </span>","null","html-keyboard-response","104","264774","0.0-7.0-1.0-1.0-0.0-1.47","3","3","3","3","3","3","3","2","3","3","4","4","2","4","3","4","3","3","4","4","3","4","1","4","3","3","2","2","2","1","0","0","1","0","1","0","1","0","0","1","0","1","0","1","4","4","4","3","4","5","2","4","4","2","2","803250783939338242","顾","526","","","","","","","","","","","","","","","","","","","","","","","","","","","","","","feedback_test","","","","","","","","","","","",""
"16160","<style>.context{color:white; font-size: 35px; line-height:40px}</style>                          <div><p class='context'>您正确回答了75% 的试次。</p><p class='context'>您的平均反应时为749毫秒。</p><p class='context'>恭喜您完成练习。按空格键进入正式实验。</p><p class='footer' style='font-size: 35px; line-height:40px;'>请在进入正式实验实验之前将您的<span style='color: lightgreen;'>食指</span>放在电脑键盘的相应键位上进行按键。</p>"," ","html-keyboard-response","105","280939","0.0-7.0-1.0-2.0","3","3","3","3","3","3","3","2","3","3","4","4","2","4","3","4","3","3","4","4","3","4","1","4","3","3","2","2","2","1","0","0","1","0","1","0","1","0","0","1","0","1","0","1","4","4","4","3","4","5","2","4","4","2","2","803250783939338242","顾","526","","","","","","","","","","","","","","","","","","","","","","","","","","","","","","","","","","","","","","","","","",""
"2600","
  <p style='color: white; font-size: 22px'>请您将手指放在按键上，准备进入正式的匹配任务。</p>
  <p> <div style = ""color: green""><按空格键进入下一阶段的匹配任务></div></p>
  "," ","html-keyboard-response","106","283544","0.0-7.0-1.0-3.0","3","3","3","3","3","3","3","2","3","3","4","4","2","4","3","4","3","3","4","4","3","4","1","4","3","3","2","2","2","1","0","0","1","0","1","0","1","0","0","1","0","1","0","1","4","4","4","3","4","5","2","4","4","2","2","803250783939338242","顾","526","","","","","","","","","","","","","","","","","","","","","","","","","","","","","","","","","","","","","","","","","",""
"684","","j","psychophysics","107","285230","0.0-7.0-1.0-4.0-0.0-0.0","3","3","3","3","3","3","3","2","3","3","4","4","2","4","3","4","3","3","4","4","3","4","1","4","3","3","2","2","2","1","0","0","1","0","1","0","1","0","0","1","0","1","0","1","4","4","4","3","4","5","2","4","4","2","2","803250783939338242","顾","526","","","","nonmatch","","","","","","","","","","","","","","key","j","16.666999999999533","720.2857142857143","476.2857142857143","j","true","nonmatch","img/diamond.png","六边","菱形","ALT1","formal_ALT1_2","","","","","","","","","","","",""
"null","<span style='color:GreenYellow; font-size: 70px;'>正确! </span>","null","html-keyboard-response","108","285731","0.0-7.0-1.0-4.0-0.0-1.0","3","3","3","3","3","3","3","2","3","3","4","4","2","4","3","4","3","3","4","4","3","4","1","4","3","3","2","2","2","1","0","0","1","0","1","0","1","0","0","1","0","1","0","1","4","4","4","3","4","5","2","4","4","2","2","803250783939338242","顾","526","","","","","","","","","","","","","","","","","","","","","","","","","","","","","","feedback_test","","","","","","","","","","","",""
"644","","f","psychophysics","109","287379","0.0-7.0-1.0-4.0-0.0-0.1","3","3","3","3","3","3","3","2","3","3","4","4","2","4","3","4","3","3","4","4","3","4","1","4","3","3","2","2","2","1","0","0","1","0","1","0","1","0","0","1","0","1","0","1","4","4","4","3","4","5","2","4","4","2","2","803250783939338242","顾","526","","","","match","","","","","","","","","","","","","","key","f","16.668041237113282","720.2857142857143","476.2857142857143","j","false","nonmatch","img/circle.png","三角","圆形","ALT1","formal_ALT1_2","","","","","","","","","","","",""
"null","<span style='color:red; font-size: 70px;'>错误! </span>","null","html-keyboard-response","110","287880","0.0-7.0-1.0-4.0-0.0-1.1","3","3","3","3","3","3","3","2","3","3","4","4","2","4","3","4","3","3","4","4","3","4","1","4","3","3","2","2","2","1","0","0","1","0","1","0","1","0","0","1","0","1","0","1","4","4","4","3","4","5","2","4","4","2","2","803250783939338242","顾","526","","","","","","","","","","","","","","","","","","","","","","","","","","","","","","feedback_test","","","","","","","","","","","",""
"882","","j","psychophysics","111","289765","0.0-7.0-1.0-4.0-0.0-0.2","3","3","3","3","3","3","3","2","3","3","4","4","2","4","3","4","3","3","4","4","3","4","1","4","3","3","2","2","2","1","0","0","1","0","1","0","1","0","0","1","0","1","0","1","4","4","4","3","4","5","2","4","4","2","2","803250783939338242","顾","526","","","","nonmatch","","","","","","","","","","","","","","key","j","16.640178571428674","720.2857142857143","476.2857142857143","j","true","nonmatch","img/triangle.png","圆形","三角","ALT1","formal_ALT1_2","","","","","","","","","","","",""
"null","<span style='color:GreenYellow; font-size: 70px;'>正确! </span>","null","html-keyboard-response","112","290267","0.0-7.0-1.0-4.0-0.0-1.2","3","3","3","3","3","3","3","2","3","3","4","4","2","4","3","4","3","3","4","4","3","4","1","4","3","3","2","2","2","1","0","0","1","0","1","0","1","0","0","1","0","1","0","1","4","4","4","3","4","5","2","4","4","2","2","803250783939338242","顾","526","","","","","","","","","","","","","","","","","","","","","","","","","","","","","","feedback_test","","","","","","","","","","","",""
"732","","f","psychophysics","113","292002","0.0-7.0-1.0-4.0-0.0-0.3","3","3","3","3","3","3","3","2","3","3","4","4","2","4","3","4","3","3","4","4","3","4","1","4","3","3","2","2","2","1","0","0","1","0","1","0","1","0","0","1","0","1","0","1","4","4","4","3","4","5","2","4","4","2","2","803250783939338242","顾","526","","","","match","","","","","","","","","","","","","","key","f","16.666990291261683","720.2857142857143","476.2857142857143","f","true","match","img/hexagon.png","六边","六边","ALT1","formal_ALT1_2","","","","","","","","","","","",""
"null","<span style='color:GreenYellow; font-size: 70px;'>正确! </span>","null","html-keyboard-response","114","292503","0.0-7.0-1.0-4.0-0.0-1.3","3","3","3","3","3","3","3","2","3","3","4","4","2","4","3","4","3","3","4","4","3","4","1","4","3","3","2","2","2","1","0","0","1","0","1","0","1","0","0","1","0","1","0","1","4","4","4","3","4","5","2","4","4","2","2","803250783939338242","顾","526","","","","","","","","","","","","","","","","","","","","","","","","","","","","","","feedback_test","","","","","","","","","","","",""
"749","","f","psychophysics","115","294255","0.0-7.0-1.0-4.0-0.0-0.4","3","3","3","3","3","3","3","2","3","3","4","4","2","4","3","4","3","3","4","4","3","4","1","4","3","3","2","2","2","1","0","0","1","0","1","0","1","0","0","1","0","1","0","1","4","4","4","3","4","5","2","4","4","2","2","803250783939338242","顾","526","","","","match","","","","","","","","","","","","","","key","f","16.66346153846154","720.2857142857143","476.2857142857143","f","true","match","img/diamond.png","菱形","菱形","ALT1","formal_ALT1_2","","","","","","","","","","","",""
"null","<span style='color:GreenYellow; font-size: 70px;'>正确! </span>","null","html-keyboard-response","116","294757","0.0-7.0-1.0-4.0-0.0-1.4","3","3","3","3","3","3","3","2","3","3","4","4","2","4","3","4","3","3","4","4","3","4","1","4","3","3","2","2","2","1","0","0","1","0","1","0","1","0","0","1","0","1","0","1","4","4","4","3","4","5","2","4","4","2","2","803250783939338242","顾","526","","","","","","","","","","","","","","","","","","","","","","","","","","","","","","feedback_test","","","","","","","","","","","",""
"749","","j","psychophysics","117","296510","0.0-7.0-1.0-4.0-0.0-0.5","3","3","3","3","3","3","3","2","3","3","4","4","2","4","3","4","3","3","4","4","3","4","1","4","3","3","2","2","2","1","0","0","1","0","1","0","1","0","0","1","0","1","0","1","4","4","4","3","4","5","2","4","4","2","2","803250783939338242","顾","526","","","","nonmatch","","","","","","","","","","","","","","key","j","16.662499999999664","720.2857142857143","476.2857142857143","j","true","nonmatch","img/hexagon.png","圆形","六边","ALT1","formal_ALT1_2","","","","","","","","","","","",""
"null","<span style='color:GreenYellow; font-size: 70px;'>正确! </span>","null","html-keyboard-response","118","297013","0.0-7.0-1.0-4.0-0.0-1.5","3","3","3","3","3","3","3","2","3","3","4","4","2","4","3","4","3","3","4","4","3","4","1","4","3","3","2","2","2","1","0","0","1","0","1","0","1","0","0","1","0","1","0","1","4","4","4","3","4","5","2","4","4","2","2","803250783939338242","顾","526","","","","","","","","","","","","","","","","","","","","","","","","","","","","","","feedback_test","","","","","","","","","","","",""
"628","","f","psychophysics","119","298643","0.0-7.0-1.0-4.0-0.0-0.6","3","3","3","3","3","3","3","2","3","3","4","4","2","4","3","4","3","3","4","4","3","4","1","4","3","3","2","2","2","1","0","0","1","0","1","0","1","0","0","1","0","1","0","1","4","4","4","3","4","5","2","4","4","2","2","803250783939338242","顾","526","","","","match","","","","","","","","","","","","","","key","f","16.666666666666668","720.2857142857143","476.2857142857143","f","true","match","img/circle.png","圆形","圆形","ALT1","formal_ALT1_2","","","","","","","","","","","",""
"null","<span style='color:GreenYellow; font-size: 70px;'>正确! </span>","null","html-keyboard-response","120","299145","0.0-7.0-1.0-4.0-0.0-1.6","3","3","3","3","3","3","3","2","3","3","4","4","2","4","3","4","3","3","4","4","3","4","1","4","3","3","2","2","2","1","0","0","1","0","1","0","1","0","0","1","0","1","0","1","4","4","4","3","4","5","2","4","4","2","2","803250783939338242","顾","526","","","","","","","","","","","","","","","","","","","","","","","","","","","","","","feedback_test","","","","","","","","","","","",""
"639","","f","psychophysics","121","300786","0.0-7.0-1.0-4.0-0.0-0.7","3","3","3","3","3","3","3","2","3","3","4","4","2","4","3","4","3","3","4","4","3","4","1","4","3","3","2","2","2","1","0","0","1","0","1","0","1","0","0","1","0","1","0","1","4","4","4","3","4","5","2","4","4","2","2","803250783939338242","顾","526","","","","match","","","","","","","","","","","","","","key","f","16.665625000000244","720.2857142857143","476.2857142857143","f","true","match","img/circle.png","圆形","圆形","ALT1","formal_ALT1_2","","","","","","","","","","","",""
"null","<span style='color:GreenYellow; font-size: 70px;'>正确! </span>","null","html-keyboard-response","122","301289","0.0-7.0-1.0-4.0-0.0-1.7","3","3","3","3","3","3","3","2","3","3","4","4","2","4","3","4","3","3","4","4","3","4","1","4","3","3","2","2","2","1","0","0","1","0","1","0","1","0","0","1","0","1","0","1","4","4","4","3","4","5","2","4","4","2","2","803250783939338242","顾","526","","","","","","","","","","","","","","","","","","","","","","","","","","","","","","feedback_test","","","","","","","","","","","",""
"729","","j","psychophysics","123","303020","0.0-7.0-1.0-4.0-0.0-0.8","3","3","3","3","3","3","3","2","3","3","4","4","2","4","3","4","3","3","4","4","3","4","1","4","3","3","2","2","2","1","0","0","1","0","1","0","1","0","0","1","0","1","0","1","4","4","4","3","4","5","2","4","4","2","2","803250783939338242","顾","526","","","","nonmatch","","","","","","","","","","","","","","key","j","16.667961165048432","720.2857142857143","476.2857142857143","j","true","nonmatch","img/hexagon.png","三角","六边","ALT1","formal_ALT1_2","","","","","","","","","","","",""
"null","<span style='color:GreenYellow; font-size: 70px;'>正确! </span>","null","html-keyboard-response","124","303522","0.0-7.0-1.0-4.0-0.0-1.8","3","3","3","3","3","3","3","2","3","3","4","4","2","4","3","4","3","3","4","4","3","4","1","4","3","3","2","2","2","1","0","0","1","0","1","0","1","0","0","1","0","1","0","1","4","4","4","3","4","5","2","4","4","2","2","803250783939338242","顾","526","","","","","","","","","","","","","","","","","","","","","","","","","","","","","","feedback_test","","","","","","","","","","","",""
"638","","f","psychophysics","125","305174","0.0-7.0-1.0-4.0-0.0-0.9","3","3","3","3","3","3","3","2","3","3","4","4","2","4","3","4","3","3","4","4","3","4","1","4","3","3","2","2","2","1","0","0","1","0","1","0","1","0","0","1","0","1","0","1","4","4","4","3","4","5","2","4","4","2","2","803250783939338242","顾","526","","","","match","","","","","","","","","","","","","","key","f","16.663917525773435","720.2857142857143","476.2857142857143","f","true","match","img/triangle.png","三角","三角","ALT1","formal_ALT1_2","","","","","","","","","","","",""
"null","<span style='color:GreenYellow; font-size: 70px;'>正确! </span>","null","html-keyboard-response","126","305675","0.0-7.0-1.0-4.0-0.0-1.9","3","3","3","3","3","3","3","2","3","3","4","4","2","4","3","4","3","3","4","4","3","4","1","4","3","3","2","2","2","1","0","0","1","0","1","0","1","0","0","1","0","1","0","1","4","4","4","3","4","5","2","4","4","2","2","803250783939338242","顾","526","","","","","","","","","","","","","","","","","","","","","","","","","","","","","","feedback_test","","","","","","","","","","","",""
"636","","j","psychophysics","127","307313","0.0-7.0-1.0-4.0-0.0-0.10","3","3","3","3","3","3","3","2","3","3","4","4","2","4","3","4","3","3","4","4","3","4","1","4","3","3","2","2","2","1","0","0","1","0","1","0","1","0","0","1","0","1","0","1","4","4","4","3","4","5","2","4","4","2","2","803250783939338242","顾","526","","","","nonmatch","","","","","","","","","","","","","","key","j","16.710204081632416","720.2857142857143","476.2857142857143","j","true","nonmatch","img/triangle.png","六边","三角","ALT1","formal_ALT1_2","","","","","","","","","","","",""
"null","<span style='color:GreenYellow; font-size: 70px;'>正确! </span>","null","html-keyboard-response","128","307814","0.0-7.0-1.0-4.0-0.0-1.10","3","3","3","3","3","3","3","2","3","3","4","4","2","4","3","4","3","3","4","4","3","4","1","4","3","3","2","2","2","1","0","0","1","0","1","0","1","0","0","1","0","1","0","1","4","4","4","3","4","5","2","4","4","2","2","803250783939338242","顾","526","","","","","","","","","","","","","","","","","","","","","","","","","","","","","","feedback_test","","","","","","","","","","","",""
"588","","f","psychophysics","129","309405","0.0-7.0-1.0-4.0-0.0-0.11","3","3","3","3","3","3","3","2","3","3","4","4","2","4","3","4","3","3","4","4","3","4","1","4","3","3","2","2","2","1","0","0","1","0","1","0","1","0","0","1","0","1","0","1","4","4","4","3","4","5","2","4","4","2","2","803250783939338242","顾","526","","","","match","","","","","","","","","","","","","","key","f","16.580208333333456","720.2857142857143","476.2857142857143","f","true","match","img/circle.png","圆形","圆形","ALT1","formal_ALT1_2","","","","","","","","","","","",""
"null","<span style='color:GreenYellow; font-size: 70px;'>正确! </span>","null","html-keyboard-response","130","309908","0.0-7.0-1.0-4.0-0.0-1.11","3","3","3","3","3","3","3","2","3","3","4","4","2","4","3","4","3","3","4","4","3","4","1","4","3","3","2","2","2","1","0","0","1","0","1","0","1","0","0","1","0","1","0","1","4","4","4","3","4","5","2","4","4","2","2","803250783939338242","顾","526","","","","","","","","","","","","","","","","","","","","","","","","","","","","","","feedback_test","","","","","","","","","","","",""
"578","","f","psychophysics","131","311489","0.0-7.0-1.0-4.0-0.0-0.12","3","3","3","3","3","3","3","2","3","3","4","4","2","4","3","4","3","3","4","4","3","4","1","4","3","3","2","2","2","1","0","0","1","0","1","0","1","0","0","1","0","1","0","1","4","4","4","3","4","5","2","4","4","2","2","803250783939338242","顾","526","","","","match","","","","","","","","","","","","","","key","f","16.5914893617025","720.2857142857143","476.2857142857143","f","true","match","img/diamond.png","菱形","菱形","ALT1","formal_ALT1_2","","","","","","","","","","","",""
"null","<span style='color:GreenYellow; font-size: 70px;'>正确! </span>","null","html-keyboard-response","132","311992","0.0-7.0-1.0-4.0-0.0-1.12","3","3","3","3","3","3","3","2","3","3","4","4","2","4","3","4","3","3","4","4","3","4","1","4","3","3","2","2","2","1","0","0","1","0","1","0","1","0","0","1","0","1","0","1","4","4","4","3","4","5","2","4","4","2","2","803250783939338242","顾","526","","","","","","","","","","","","","","","","","","","","","","","","","","","","","","feedback_test","","","","","","","","","","","",""
"638","","f","psychophysics","133","313633","0.0-7.0-1.0-4.0-0.0-0.13","3","3","3","3","3","3","3","2","3","3","4","4","2","4","3","4","3","3","4","4","3","4","1","4","3","3","2","2","2","1","0","0","1","0","1","0","1","0","0","1","0","1","0","1","4","4","4","3","4","5","2","4","4","2","2","803250783939338242","顾","526","","","","match","","","","","","","","","","","","","","key","f","16.640206185566772","720.2857142857143","476.2857142857143","f","true","match","img/diamond.png","菱形","菱形","ALT1","formal_ALT1_2","","","","","","","","","","","",""
"null","<span style='color:GreenYellow; font-size: 70px;'>正确! </span>","null","html-keyboard-response","134","314133","0.0-7.0-1.0-4.0-0.0-1.13","3","3","3","3","3","3","3","2","3","3","4","4","2","4","3","4","3","3","4","4","3","4","1","4","3","3","2","2","2","1","0","0","1","0","1","0","1","0","0","1","0","1","0","1","4","4","4","3","4","5","2","4","4","2","2","803250783939338242","顾","526","","","","","","","","","","","","","","","","","","","","","","","","","","","","","","feedback_test","","","","","","","","","","","",""
"757","","f","psychophysics","135","315895","0.0-7.0-1.0-4.0-0.0-0.14","3","3","3","3","3","3","3","2","3","3","4","4","2","4","3","4","3","3","4","4","3","4","1","4","3","3","2","2","2","1","0","0","1","0","1","0","1","0","0","1","0","1","0","1","4","4","4","3","4","5","2","4","4","2","2","803250783939338242","顾","526","","","","match","","","","","","","","","","","","","","key","f","16.586666666666446","720.2857142857143","476.2857142857143","f","true","match","img/triangle.png","三角","三角","ALT1","formal_ALT1_2","","","","","","","","","","","",""
"null","<span style='color:GreenYellow; font-size: 70px;'>正确! </span>","null","html-keyboard-response","136","316395","0.0-7.0-1.0-4.0-0.0-1.14","3","3","3","3","3","3","3","2","3","3","4","4","2","4","3","4","3","3","4","4","3","4","1","4","3","3","2","2","2","1","0","0","1","0","1","0","1","0","0","1","0","1","0","1","4","4","4","3","4","5","2","4","4","2","2","803250783939338242","顾","526","","","","","","","","","","","","","","","","","","","","","","","","","","","","","","feedback_test","","","","","","","","","","","",""
"785","","j","psychophysics","137","318181","0.0-7.0-1.0-4.0-0.0-0.15","3","3","3","3","3","3","3","2","3","3","4","4","2","4","3","4","3","3","4","4","3","4","1","4","3","3","2","2","2","1","0","0","1","0","1","0","1","0","0","1","0","1","0","1","4","4","4","3","4","5","2","4","4","2","2","803250783939338242","顾","526","","","","nonmatch","","","","","","","","","","","","","","key","j","16.66698113207558","720.2857142857143","476.2857142857143","j","true","nonmatch","img/circle.png","六边","圆形","ALT1","formal_ALT1_2","","","","","","","","","","","",""
"null","<span style='color:GreenYellow; font-size: 70px;'>正确! </span>","null","html-keyboard-response","138","318684","0.0-7.0-1.0-4.0-0.0-1.15","3","3","3","3","3","3","3","2","3","3","4","4","2","4","3","4","3","3","4","4","3","4","1","4","3","3","2","2","2","1","0","0","1","0","1","0","1","0","0","1","0","1","0","1","4","4","4","3","4","5","2","4","4","2","2","803250783939338242","顾","526","","","","","","","","","","","","","","","","","","","","","","","","","","","","","","feedback_test","","","","","","","","","","","",""
"648","","f","psychophysics","139","320333","0.0-7.0-1.0-4.0-0.0-0.16","3","3","3","3","3","3","3","2","3","3","4","4","2","4","3","4","3","3","4","4","3","4","1","4","3","3","2","2","2","1","0","0","1","0","1","0","1","0","0","1","0","1","0","1","4","4","4","3","4","5","2","4","4","2","2","803250783939338242","顾","526","","","","match","","","","","","","","","","","","","","key","f","16.613265306122805","720.2857142857143","476.2857142857143","f","true","match","img/triangle.png","三角","三角","ALT1","formal_ALT1_2","","","","","","","","","","","",""
"null","<span style='color:GreenYellow; font-size: 70px;'>正确! </span>","null","html-keyboard-response","140","320835","0.0-7.0-1.0-4.0-0.0-1.16","3","3","3","3","3","3","3","2","3","3","4","4","2","4","3","4","3","3","4","4","3","4","1","4","3","3","2","2","2","1","0","0","1","0","1","0","1","0","0","1","0","1","0","1","4","4","4","3","4","5","2","4","4","2","2","803250783939338242","顾","526","","","","","","","","","","","","","","","","","","","","","","","","","","","","","","feedback_test","","","","","","","","","","","",""
"607","","f","psychophysics","141","322444","0.0-7.0-1.0-4.0-0.0-0.17","3","3","3","3","3","3","3","2","3","3","4","4","2","4","3","4","3","3","4","4","3","4","1","4","3","3","2","2","2","1","0","0","1","0","1","0","1","0","0","1","0","1","0","1","4","4","4","3","4","5","2","4","4","2","2","803250783939338242","顾","526","","","","match","","","","","","","","","","","","","","key","f","16.666666666666668","720.2857142857143","476.2857142857143","f","true","match","img/hexagon.png","六边","六边","ALT1","formal_ALT1_2","","","","","","","","","","","",""
"null","<span style='color:GreenYellow; font-size: 70px;'>正确! </span>","null","html-keyboard-response","142","322945","0.0-7.0-1.0-4.0-0.0-1.17","3","3","3","3","3","3","3","2","3","3","4","4","2","4","3","4","3","3","4","4","3","4","1","4","3","3","2","2","2","1","0","0","1","0","1","0","1","0","0","1","0","1","0","1","4","4","4","3","4","5","2","4","4","2","2","803250783939338242","顾","526","","","","","","","","","","","","","","","","","","","","","","","","","","","","","","feedback_test","","","","","","","","","","","",""
"736","","j","psychophysics","143","324683","0.0-7.0-1.0-4.0-0.0-0.18","3","3","3","3","3","3","3","2","3","3","4","4","2","4","3","4","3","3","4","4","3","4","1","4","3","3","2","2","2","1","0","0","1","0","1","0","1","0","0","1","0","1","0","1","4","4","4","3","4","5","2","4","4","2","2","803250783939338242","顾","526","","","","nonmatch","","","","","","","","","","","","","","key","j","16.60192307692285","720.2857142857143","476.2857142857143","j","true","nonmatch","img/circle.png","菱形","圆形","ALT1","formal_ALT1_2","","","","","","","","","","","",""
"null","<span style='color:GreenYellow; font-size: 70px;'>正确! </span>","null","html-keyboard-response","144","325185","0.0-7.0-1.0-4.0-0.0-1.18","3","3","3","3","3","3","3","2","3","3","4","4","2","4","3","4","3","3","4","4","3","4","1","4","3","3","2","2","2","1","0","0","1","0","1","0","1","0","0","1","0","1","0","1","4","4","4","3","4","5","2","4","4","2","2","803250783939338242","顾","526","","","","","","","","","","","","","","","","","","","","","","","","","","","","","","feedback_test","","","","","","","","","","","",""
"635","","f","psychophysics","145","326822","0.0-7.0-1.0-4.0-0.0-0.19","3","3","3","3","3","3","3","2","3","3","4","4","2","4","3","4","3","3","4","4","3","4","1","4","3","3","2","2","2","1","0","0","1","0","1","0","1","0","0","1","0","1","0","1","4","4","4","3","4","5","2","4","4","2","2","803250783939338242","顾","526","","","","match","","","","","","","","","","","","","","key","f","16.66701030927847","720.2857142857143","476.2857142857143","f","true","match","img/hexagon.png","六边","六边","ALT1","formal_ALT1_2","","","","","","","","","","","",""
"null","<span style='color:GreenYellow; font-size: 70px;'>正确! </span>","null","html-keyboard-response","146","327323","0.0-7.0-1.0-4.0-0.0-1.19","3","3","3","3","3","3","3","2","3","3","4","4","2","4","3","4","3","3","4","4","3","4","1","4","3","3","2","2","2","1","0","0","1","0","1","0","1","0","0","1","0","1","0","1","4","4","4","3","4","5","2","4","4","2","2","803250783939338242","顾","526","","","","","","","","","","","","","","","","","","","","","","","","","","","","","","feedback_test","","","","","","","","","","","",""
"700","","j","psychophysics","147","329026","0.0-7.0-1.0-4.0-0.0-0.20","3","3","3","3","3","3","3","2","3","3","4","4","2","4","3","4","3","3","4","4","3","4","1","4","3","3","2","2","2","1","0","0","1","0","1","0","1","0","0","1","0","1","0","1","4","4","4","3","4","5","2","4","4","2","2","803250783939338242","顾","526","","","","nonmatch","","","","","","","","","","","","","","key","j","16.666336633663253","720.2857142857143","476.2857142857143","j","true","nonmatch","img/triangle.png","菱形","三角","ALT1","formal_ALT1_2","","","","","","","","","","","",""
"null","<span style='color:GreenYellow; font-size: 70px;'>正确! </span>","null","html-keyboard-response","148","329527","0.0-7.0-1.0-4.0-0.0-1.20","3","3","3","3","3","3","3","2","3","3","4","4","2","4","3","4","3","3","4","4","3","4","1","4","3","3","2","2","2","1","0","0","1","0","1","0","1","0","0","1","0","1","0","1","4","4","4","3","4","5","2","4","4","2","2","803250783939338242","顾","526","","","","","","","","","","","","","","","","","","","","","","","","","","","","","","feedback_test","","","","","","","","","","","",""
"681","","j","psychophysics","149","331211","0.0-7.0-1.0-4.0-0.0-0.21","3","3","3","3","3","3","3","2","3","3","4","4","2","4","3","4","3","3","4","4","3","4","1","4","3","3","2","2","2","1","0","0","1","0","1","0","1","0","0","1","0","1","0","1","4","4","4","3","4","5","2","4","4","2","2","803250783939338242","顾","526","","","","nonmatch","","","","","","","","","","","","","","key","j","16.552000000000117","720.2857142857143","476.2857142857143","j","true","nonmatch","img/diamond.png","圆形","菱形","ALT1","formal_ALT1_2","","","","","","","","","","","",""
"null","<span style='color:GreenYellow; font-size: 70px;'>正确! </span>","null","html-keyboard-response","150","331712","0.0-7.0-1.0-4.0-0.0-1.21","3","3","3","3","3","3","3","2","3","3","4","4","2","4","3","4","3","3","4","4","3","4","1","4","3","3","2","2","2","1","0","0","1","0","1","0","1","0","0","1","0","1","0","1","4","4","4","3","4","5","2","4","4","2","2","803250783939338242","顾","526","","","","","","","","","","","","","","","","","","","","","","","","","","","","","","feedback_test","","","","","","","","","","","",""
"806","","j","psychophysics","151","333522","0.0-7.0-1.0-4.0-0.0-0.22","3","3","3","3","3","3","3","2","3","3","4","4","2","4","3","4","3","3","4","4","3","4","1","4","3","3","2","2","2","1","0","0","1","0","1","0","1","0","0","1","0","1","0","1","4","4","4","3","4","5","2","4","4","2","2","803250783939338242","顾","526","","","","nonmatch","","","","","","","","","","","","","","key","j","16.666666666666668","720.2857142857143","476.2857142857143","j","true","nonmatch","img/diamond.png","三角","菱形","ALT1","formal_ALT1_2","","","","","","","","","","","",""
"null","<span style='color:GreenYellow; font-size: 70px;'>正确! </span>","null","html-keyboard-response","152","334025","0.0-7.0-1.0-4.0-0.0-1.22","3","3","3","3","3","3","3","2","3","3","4","4","2","4","3","4","3","3","4","4","3","4","1","4","3","3","2","2","2","1","0","0","1","0","1","0","1","0","0","1","0","1","0","1","4","4","4","3","4","5","2","4","4","2","2","803250783939338242","顾","526","","","","","","","","","","","","","","","","","","","","","","","","","","","","","","feedback_test","","","","","","","","","","","",""
"843","","j","psychophysics","153","335869","0.0-7.0-1.0-4.0-0.0-0.23","3","3","3","3","3","3","3","2","3","3","4","4","2","4","3","4","3","3","4","4","3","4","1","4","3","3","2","2","2","1","0","0","1","0","1","0","1","0","0","1","0","1","0","1","4","4","4","3","4","5","2","4","4","2","2","803250783939338242","顾","526","","","","nonmatch","","","","","","","","","","","","","","key","j","16.666055045871346","720.2857142857143","476.2857142857143","j","true","nonmatch","img/hexagon.png","菱形","六边","ALT1","formal_ALT1_2","","","","","","","","","","","",""
"null","<span style='color:GreenYellow; font-size: 70px;'>正确! </span>","null","html-keyboard-response","154","336383","0.0-7.0-1.0-4.0-0.0-1.23","3","3","3","3","3","3","3","2","3","3","4","4","2","4","3","4","3","3","4","4","3","4","1","4","3","3","2","2","2","1","0","0","1","0","1","0","1","0","0","1","0","1","0","1","4","4","4","3","4","5","2","4","4","2","2","803250783939338242","顾","526","","","","","","","","","","","","","","","","","","","","","","","","","","","","","","feedback_test","","","","","","","","","","","",""
"737","","j","psychophysics","155","338124","0.0-7.0-1.0-4.0-0.0-0.24","3","3","3","3","3","3","3","2","3","3","4","4","2","4","3","4","3","3","4","4","3","4","1","4","3","3","2","2","2","1","0","0","1","0","1","0","1","0","0","1","0","1","0","1","4","4","4","3","4","5","2","4","4","2","2","803250783939338242","顾","526","","","","nonmatch","","","","","","","","","","","","","","key","j","16.666346153846042","720.2857142857143","476.2857142857143","j","true","nonmatch","img/circle.png","菱形","圆形","ALT1","formal_ALT1_2","","","","","","","","","","","",""
"null","<span style='color:GreenYellow; font-size: 70px;'>正确! </span>","null","html-keyboard-response","156","338625","0.0-7.0-1.0-4.0-0.0-1.24","3","3","3","3","3","3","3","2","3","3","4","4","2","4","3","4","3","3","4","4","3","4","1","4","3","3","2","2","2","1","0","0","1","0","1","0","1","0","0","1","0","1","0","1","4","4","4","3","4","5","2","4","4","2","2","803250783939338242","顾","526","","","","","","","","","","","","","","","","","","","","","","","","","","","","","","feedback_test","","","","","","","","","","","",""
"637","","f","psychophysics","157","340264","0.0-7.0-1.0-4.0-0.0-0.25","3","3","3","3","3","3","3","2","3","3","4","4","2","4","3","4","3","3","4","4","3","4","1","4","3","3","2","2","2","1","0","0","1","0","1","0","1","0","0","1","0","1","0","1","4","4","4","3","4","5","2","4","4","2","2","803250783939338242","顾","526","","","","match","","","","","","","","","","","","","","key","f","16.66701030927787","720.2857142857143","476.2857142857143","f","true","match","img/circle.png","圆形","圆形","ALT1","formal_ALT1_2","","","","","","","","","","","",""
"null","<span style='color:GreenYellow; font-size: 70px;'>正确! </span>","null","html-keyboard-response","158","340766","0.0-7.0-1.0-4.0-0.0-1.25","3","3","3","3","3","3","3","2","3","3","4","4","2","4","3","4","3","3","4","4","3","4","1","4","3","3","2","2","2","1","0","0","1","0","1","0","1","0","0","1","0","1","0","1","4","4","4","3","4","5","2","4","4","2","2","803250783939338242","顾","526","","","","","","","","","","","","","","","","","","","","","","","","","","","","","","feedback_test","","","","","","","","","","","",""
"723","","j","psychophysics","159","342492","0.0-7.0-1.0-4.0-0.0-0.26","3","3","3","3","3","3","3","2","3","3","4","4","2","4","3","4","3","3","4","4","3","4","1","4","3","3","2","2","2","1","0","0","1","0","1","0","1","0","0","1","0","1","0","1","4","4","4","3","4","5","2","4","4","2","2","803250783939338242","顾","526","","","","nonmatch","","","","","","","","","","","","","","key","j","16.613592233009257","720.2857142857143","476.2857142857143","j","true","nonmatch","img/diamond.png","六边","菱形","ALT1","formal_ALT1_2","","","","","","","","","","","",""
"null","<span style='color:GreenYellow; font-size: 70px;'>正确! </span>","null","html-keyboard-response","160","342994","0.0-7.0-1.0-4.0-0.0-1.26","3","3","3","3","3","3","3","2","3","3","4","4","2","4","3","4","3","3","4","4","3","4","1","4","3","3","2","2","2","1","0","0","1","0","1","0","1","0","0","1","0","1","0","1","4","4","4","3","4","5","2","4","4","2","2","803250783939338242","顾","526","","","","","","","","","","","","","","","","","","","","","","","","","","","","","","feedback_test","","","","","","","","","","","",""
"712","","f","psychophysics","161","344709","0.0-7.0-1.0-4.0-0.0-0.27","3","3","3","3","3","3","3","2","3","3","4","4","2","4","3","4","3","3","4","4","3","4","1","4","3","3","2","2","2","1","0","0","1","0","1","0","1","0","0","1","0","1","0","1","4","4","4","3","4","5","2","4","4","2","2","803250783939338242","顾","526","","","","match","","","","","","","","","","","","","","key","f","16.665346534653004","720.2857142857143","476.2857142857143","f","true","match","img/triangle.png","三角","三角","ALT1","formal_ALT1_2","","","","","","","","","","","",""
"null","<span style='color:GreenYellow; font-size: 70px;'>正确! </span>","null","html-keyboard-response","162","345211","0.0-7.0-1.0-4.0-0.0-1.27","3","3","3","3","3","3","3","2","3","3","4","4","2","4","3","4","3","3","4","4","3","4","1","4","3","3","2","2","2","1","0","0","1","0","1","0","1","0","0","1","0","1","0","1","4","4","4","3","4","5","2","4","4","2","2","803250783939338242","顾","526","","","","","","","","","","","","","","","","","","","","","","","","","","","","","","feedback_test","","","","","","","","","","","",""
"1111","","f","psychophysics","163","347324","0.0-7.0-1.0-4.0-0.0-0.28","3","3","3","3","3","3","3","2","3","3","4","4","2","4","3","4","3","3","4","4","3","4","1","4","3","3","2","2","2","1","0","0","1","0","1","0","1","0","0","1","0","1","0","1","4","4","4","3","4","5","2","4","4","2","2","803250783939338242","顾","526","","","","match","","","","","","","","","","","","","","key","f","16.667460317460595","720.2857142857143","476.2857142857143","j","false","nonmatch","img/diamond.png","三角","菱形","ALT1","formal_ALT1_2","","","","","","","","","","","",""
"null","<span style='color:red; font-size: 70px;'>错误! </span>","null","html-keyboard-response","164","347826","0.0-7.0-1.0-4.0-0.0-1.28","3","3","3","3","3","3","3","2","3","3","4","4","2","4","3","4","3","3","4","4","3","4","1","4","3","3","2","2","2","1","0","0","1","0","1","0","1","0","0","1","0","1","0","1","4","4","4","3","4","5","2","4","4","2","2","803250783939338242","顾","526","","","","","","","","","","","","","","","","","","","","","","","","","","","","","","feedback_test","","","","","","","","","","","",""
"621","","j","psychophysics","165","349448","0.0-7.0-1.0-4.0-0.0-0.29","3","3","3","3","3","3","3","2","3","3","4","4","2","4","3","4","3","3","4","4","3","4","1","4","3","3","2","2","2","1","0","0","1","0","1","0","1","0","0","1","0","1","0","1","4","4","4","3","4","5","2","4","4","2","2","803250783939338242","顾","526","","","","nonmatch","","","","","","","","","","","","","","key","j","16.665625000000244","720.2857142857143","476.2857142857143","j","true","nonmatch","img/triangle.png","圆形","三角","ALT1","formal_ALT1_2","","","","","","","","","","","",""
"null","<span style='color:GreenYellow; font-size: 70px;'>正确! </span>","null","html-keyboard-response","166","349949","0.0-7.0-1.0-4.0-0.0-1.29","3","3","3","3","3","3","3","2","3","3","4","4","2","4","3","4","3","3","4","4","3","4","1","4","3","3","2","2","2","1","0","0","1","0","1","0","1","0","0","1","0","1","0","1","4","4","4","3","4","5","2","4","4","2","2","803250783939338242","顾","526","","","","","","","","","","","","","","","","","","","","","","","","","","","","","","feedback_test","","","","","","","","","","","",""
"null","","null","psychophysics","167","352152","0.0-7.0-1.0-4.0-0.0-0.30","3","3","3","3","3","3","3","2","3","3","4","4","2","4","3","4","3","3","4","4","3","4","1","4","3","3","2","2","2","1","0","0","1","0","1","0","1","0","0","1","0","1","0","1","4","4","4","3","4","5","2","4","4","2","2","803250783939338242","顾","526","","","","null","","","","","","","","","","","","","","key","null","16.635606060606236","720.2857142857143","476.2857142857143","f","false","match","img/diamond.png","菱形","菱形","ALT1","formal_ALT1_2","","","","","","","","","","","",""
"null","<span class='add_' style='color:yellow; font-size: 70px;'> 太慢! </span>","null","html-keyboard-response","168","352655","0.0-7.0-1.0-4.0-0.0-1.30","3","3","3","3","3","3","3","2","3","3","4","4","2","4","3","4","3","3","4","4","3","4","1","4","3","3","2","2","2","1","0","0","1","0","1","0","1","0","0","1","0","1","0","1","4","4","4","3","4","5","2","4","4","2","2","803250783939338242","顾","526","","","","","","","","","","","","","","","","","","","","","","","","","","","","","","feedback_test","","","","","","","","","","","",""
"675","","f","psychophysics","169","354332","0.0-7.0-1.0-4.0-0.0-0.31","3","3","3","3","3","3","3","2","3","3","4","4","2","4","3","4","3","3","4","4","3","4","1","4","3","3","2","2","2","1","0","0","1","0","1","0","1","0","0","1","0","1","0","1","4","4","4","3","4","5","2","4","4","2","2","803250783939338242","顾","526","","","","match","","","","","","","","","","","","","","key","f","16.61400000000023","720.2857142857143","476.2857142857143","f","true","match","img/triangle.png","三角","三角","ALT1","formal_ALT1_2","","","","","","","","","","","",""
"null","<span style='color:GreenYellow; font-size: 70px;'>正确! </span>","null","html-keyboard-response","170","354834","0.0-7.0-1.0-4.0-0.0-1.31","3","3","3","3","3","3","3","2","3","3","4","4","2","4","3","4","3","3","4","4","3","4","1","4","3","3","2","2","2","1","0","0","1","0","1","0","1","0","0","1","0","1","0","1","4","4","4","3","4","5","2","4","4","2","2","803250783939338242","顾","526","","","","","","","","","","","","","","","","","","","","","","","","","","","","","","feedback_test","","","","","","","","","","","",""
"663","","j","psychophysics","171","356501","0.0-7.0-1.0-4.0-0.0-0.32","3","3","3","3","3","3","3","2","3","3","4","4","2","4","3","4","3","3","4","4","3","4","1","4","3","3","2","2","2","1","0","0","1","0","1","0","1","0","0","1","0","1","0","1","4","4","4","3","4","5","2","4","4","2","2","803250783939338242","顾","526","","","","nonmatch","","","","","","","","","","","","","","key","j","16.667676767676532","720.2857142857143","476.2857142857143","j","true","nonmatch","img/hexagon.png","圆形","六边","ALT1","formal_ALT1_2","","","","","","","","","","","",""
"null","<span style='color:GreenYellow; font-size: 70px;'>正确! </span>","null","html-keyboard-response","172","357002","0.0-7.0-1.0-4.0-0.0-1.32","3","3","3","3","3","3","3","2","3","3","4","4","2","4","3","4","3","3","4","4","3","4","1","4","3","3","2","2","2","1","0","0","1","0","1","0","1","0","0","1","0","1","0","1","4","4","4","3","4","5","2","4","4","2","2","803250783939338242","顾","526","","","","","","","","","","","","","","","","","","","","","","","","","","","","","","feedback_test","","","","","","","","","","","",""
"700","","j","psychophysics","173","358703","0.0-7.0-1.0-4.0-0.0-0.33","3","3","3","3","3","3","3","2","3","3","4","4","2","4","3","4","3","3","4","4","3","4","1","4","3","3","2","2","2","1","0","0","1","0","1","0","1","0","0","1","0","1","0","1","4","4","4","3","4","5","2","4","4","2","2","803250783939338242","顾","526","","","","nonmatch","","","","","","","","","","","","","","key","j","16.668316831683168","720.2857142857143","476.2857142857143","j","true","nonmatch","img/hexagon.png","三角","六边","ALT1","formal_ALT1_2","","","","","","","","","","","",""
"null","<span style='color:GreenYellow; font-size: 70px;'>正确! </span>","null","html-keyboard-response","174","359205","0.0-7.0-1.0-4.0-0.0-1.33","3","3","3","3","3","3","3","2","3","3","4","4","2","4","3","4","3","3","4","4","3","4","1","4","3","3","2","2","2","1","0","0","1","0","1","0","1","0","0","1","0","1","0","1","4","4","4","3","4","5","2","4","4","2","2","803250783939338242","顾","526","","","","","","","","","","","","","","","","","","","","","","","","","","","","","","feedback_test","","","","","","","","","","","",""
"747","","f","psychophysics","175","360958","0.0-7.0-1.0-4.0-0.0-0.34","3","3","3","3","3","3","3","2","3","3","4","4","2","4","3","4","3","3","4","4","3","4","1","4","3","3","2","2","2","1","0","0","1","0","1","0","1","0","0","1","0","1","0","1","4","4","4","3","4","5","2","4","4","2","2","803250783939338242","顾","526","","","","match","","","","","","","","","","","","","","key","f","16.65728155339817","720.2857142857143","476.2857142857143","f","true","match","img/triangle.png","三角","三角","ALT1","formal_ALT1_2","","","","","","","","","","","",""
"null","<span style='color:GreenYellow; font-size: 70px;'>正确! </span>","null","html-keyboard-response","176","361461","0.0-7.0-1.0-4.0-0.0-1.34","3","3","3","3","3","3","3","2","3","3","4","4","2","4","3","4","3","3","4","4","3","4","1","4","3","3","2","2","2","1","0","0","1","0","1","0","1","0","0","1","0","1","0","1","4","4","4","3","4","5","2","4","4","2","2","803250783939338242","顾","526","","","","","","","","","","","","","","","","","","","","","","","","","","","","","","feedback_test","","","","","","","","","","","",""
"675","","f","psychophysics","177","363138","0.0-7.0-1.0-4.0-0.0-0.35","3","3","3","3","3","3","3","2","3","3","4","4","2","4","3","4","3","3","4","4","3","4","1","4","3","3","2","2","2","1","0","0","1","0","1","0","1","0","0","1","0","1","0","1","4","4","4","3","4","5","2","4","4","2","2","803250783939338242","顾","526","","","","match","","","","","","","","","","","","","","key","f","16.668686868686986","720.2857142857143","476.2857142857143","f","true","match","img/hexagon.png","六边","六边","ALT1","formal_ALT1_2","","","","","","","","","","","",""
