"rt","stimulus","response","trial_type","trial_index","time_elapsed","internal_node_id","ses_1","ses_2","ses_3","ses_4","ses_5","ses_6","ses_7","ses_8","ses_9","ses_10","coreself_1","coreself_2","coreself_3","coreself_4","coreself_5","coreself_6","coreself_7","coreself_8","coreself_9","coreself_10","SGPS_1","SGPS_2","SGPS_3","SGPS_4","SGPS_5","SGPS_6","SGPS_7","SGPS_8","SGPS_9","NPI1","NPI2","NPI3","NPI4","NPI5","NPI6","NPI7","NPI8","NPI9","NPI10","NPI11","NPI12","NPI13","NPI14","NPI15","hsns_1","hsns_2","hsns_3","hsns_4","hsns_5","trap1","hsns_6","hsns_7","hsns_8","hsns_9","hsns_10","subj_idx","friend_name","ParticipantID","value","success","user_agent","responses","item_order","radio_event_ids","radio_event_times","key_event_times","mouse_event_times","straightlining","zigzagging","honeypot","timeout","failed_images","failed_audio","failed_video","version_attrib","version_target","correct","IAT","screen_id","task_id","RT","condition","word","varname","summary","version_attrib2","version_target2","time_stamp","view_history","response_type","key_press","avg_frame_time","center_x","center_y","correct_response","identity","Image","question_order","correct_answer","trap1_item"
"9508","
   <p><div style = ""color: white;font-size:25px;"">您好，欢迎参加本次实验。</div> </p>
   <p><div style = ""color: white;font-size:25px;"">为充分保障您的权利，请确保您已经知晓并同意《参与实验同意书》以及《数据公开知情同意书》。</div></p>
   <p><div style = ""color: white;font-size:25px;"">如果您未见过上述内容，请咨询实验员。</div></p>
   <p><div style = ""color: white;font-size:25px;"">如果您选择继续实验，则表示您已经清楚两份知情同意书的内容并同意。</div></p>
   <p><div style = ""color: pink;font-size:30px;"">请确保您记得day0的实验编号，您将在本次实验输入该编号，若您忘记，请咨询实验员后作答。</div></p>
   <p><div style = ""color: lightblue;font-size:25px;"">请您尽可能认真地作答，我们将依据您在各问卷和按键任务中的作答质量发放报酬。</div></p>
   <p> <div style = ""color: green;font-size:25px;""><按空格键至下页></div> </p>
   "," ","html-keyboard-response","0","9512","0.0-0.0","4","4","4","4","3","4","4","4","1","4","5","4","3","4","4","5","5","4","4","4","2","2","2","2","2","2","2","2","2","1","0","1","0","0","0","0","1","0","1","1","0","1","0","1","4","2","3","4","2","2","4","4","4","2","2","799015908117979137","亓","513","","","","","","","","","","","","","","","","","","","","","","","","","","","","","","","","","","","","","","","","","",""
"","","","call-function","1","9513","0.0-1.0-0.0","4","4","4","4","3","4","4","4","1","4","5","4","3","4","4","5","5","4","4","4","2","2","2","2","2","2","2","2","2","1","0","1","0","0","0","0","1","0","1","1","0","1","0","1","4","2","3","4","2","2","4","4","4","2","2","799015908117979137","亓","513","","","","","","","","","","","","","","","","","","","","","","","","","","","","","","","","","","","","","","","","","",""
"16313","","{""friend_name"":""亓"",""ParticipantID"":""513""}","survey-html-form","2","25828","0.0-1.0-1.0","4","4","4","4","3","4","4","4","1","4","5","4","3","4","4","5","5","4","4","4","2","2","2","2","2","2","2","2","2","1","0","1","0","0","0","0","1","0","1","1","0","1","0","1","4","2","3","4","2","2","4","4","4","2","2","799015908117979137","亓","513","","","","","","","","","","","","","","","","","","","","","","","","","","","","","","","","","","","","","","","","","",""
"","","","fullscreen","3","119909","0.0-2.0","4","4","4","4","3","4","4","4","1","4","5","4","3","4","4","5","5","4","4","4","2","2","2","2","2","2","2","2","2","1","0","1","0","0","0","0","1","0","1","1","0","1","0","1","4","2","3","4","2","2","4","4","4","2","2","799015908117979137","亓","513","","true","{}","","","","","","","","","","","","","","","","","","","","","","","","","","","","","","","","","","","","","","",""
"37084.200000047684","","{""Q01"":""4"",""Q02"":""4"",""Q03"":""4"",""Q04"":""4"",""Q05"":""3"",""Q06"":""4"",""Q07"":""4"",""Q08"":""4"",""Q09"":""1"",""Q10"":""4""}","survey-template","4","156997","0.0-3.0","4","4","4","4","3","4","4","4","1","4","5","4","3","4","4","5","5","4","4","4","2","2","2","2","2","2","2","2","2","1","0","1","0","0","0","0","1","0","1","1","0","1","0","1","4","2","3","4","2","2","4","4","4","2","2","799015908117979137","亓","513","","","","{""Q01"":""4"",""Q02"":""4"",""Q03"":""4"",""Q04"":""4"",""Q05"":""3"",""Q06"":""4"",""Q07"":""4"",""Q08"":""4"",""Q09"":""1"",""Q10"":""4""}","[0,1,2,3,4,5,6,7,8,9]","[""Q01"",""Q02"",""Q03"",""Q04"",""Q05"",""Q06"",""Q07"",""Q08"",""Q09"",""Q10""]","[8916.599999904633,10850.399999856949,16216.200000047684,17490.200000047684,20076.299999952316,22292.099999904633,23918,31762,34809.700000047684,36113.59999990463]","[]","[8916.599999904633,10850.399999856949,13726.299999952316,16216.200000047684,17490.200000047684,20076.299999952316,22292.099999904633,23918,31030.5,31762,34809.700000047684,36113.59999990463,37082.09999990463]","0.6","0.5555555555555556","0","","","","","","","","","","","","","","","","","","","","","","","","","","","","","",""
"36469.799999952316","","{""Q01"":""5"",""Q02"":""4"",""Q03"":""3"",""Q04"":""4"",""Q05"":""4"",""Q06"":""5"",""Q07"":""5"",""Q08"":""4"",""Q09"":""4"",""Q10"":""4""}","survey-template","5","193477","0.0-4.0","4","4","4","4","3","4","4","4","1","4","5","4","3","4","4","5","5","4","4","4","2","2","2","2","2","2","2","2","2","1","0","1","0","0","0","0","1","0","1","1","0","1","0","1","4","2","3","4","2","2","4","4","4","2","2","799015908117979137","亓","513","","","","{""Q01"":""5"",""Q02"":""4"",""Q03"":""3"",""Q04"":""4"",""Q05"":""4"",""Q06"":""5"",""Q07"":""5"",""Q08"":""4"",""Q09"":""4"",""Q10"":""4""}","[0,1,2,3,4,5,6,7,8,9]","[""Q01"",""Q02"",""Q03"",""Q04"",""Q05"",""Q06"",""Q07"",""Q08"",""Q09"",""Q10""]","[6880.099999904633,9849.599999904633,12231.900000095367,14171.900000095367,16309.700000047684,17725.900000095367,20609.299999952316,27453.799999952316,29575.599999904633,34361.59999990463]","[]","[6880.099999904633,9849.599999904633,12231.900000095367,14171.900000095367,16309.700000047684,17725.900000095367,20609.299999952316,27453.799999952316,29575.599999904633,32631.799999952316,34361.59999990463,36467.799999952316]","0.4","0.4444444444444444","0","","","","","","","","","","","","","","","","","","","","","","","","","","","","","",""
"","","","preload","6","194457","0.0-5.0","4","4","4","4","3","4","4","4","1","4","5","4","3","4","4","5","5","4","4","4","2","2","2","2","2","2","2","2","2","1","0","1","0","0","0","0","1","0","1","1","0","1","0","1","4","2","3","4","2","2","4","4","4","2","2","799015908117979137","亓","513","","true","","","","","","","","","","","false","[]","[]","[]","","","","","","","","","","","","","","","","","","","","","","","","","",""
"16648","
    <h3>词语分类任务</h3>
    <p>在接下来的任务中，你需要对一系列词语进行分类。</p>
    <p>请先熟悉这些词语，这有利于你完成接下来的任务。</p>
    <table align=""center"" border=1 cellpadding=3 cellspacing=0>
    <tr> <th>类别</th> <th>词语</th> </tr>
    <tr> <td>&emsp;积极&emsp;</td> <td>&emsp;能干、全能、全才、高效、精干、天才&emsp;</td> </tr>
    <tr> <td>&emsp;消极&emsp;</td> <td>&emsp;无能、低能、废物、拙笨、愚钝、蠢笨&emsp;</td> </tr>
    <tr> <td>&emsp;自我&emsp;</td> <td>&emsp;我、我的、自己、自己的、本人、本人的&emsp;</td> </tr>
    <tr> <td>&emsp;他人&emsp;</td> <td>&emsp;他、他的、别人、别人的、他人、他人的&emsp;</td> </tr>
    </table><br/>","0","html-button-response","7","211111","0.0-6.0-0.0-0.0","4","4","4","4","3","4","4","4","1","4","5","4","3","4","4","5","5","4","4","4","2","2","2","2","2","2","2","2","2","1","0","1","0","0","0","0","1","0","1","1","0","1","0","1","4","2","3","4","2","2","4","4","4","2","2","799015908117979137","亓","513","","","","","","","","","","","","","","","","","2","1","","","","","","","","","","","","","","","","","","","","","","","",""
"36076","
    <div class=""tag-bottom"">
    <p> —— 任务1：对“自我”词和“他人”词分类 ——<p/>
    不同词语会出现在屏幕中央，类别标签将始终显示在屏幕上方<p/>   
    <span style=""color:#FFD866""><b>请根据上方标签的提示，尽可能正确并且快速地做出按键反应</b></span><p/>
    当按键错误时屏幕中会出现<span style=""color:red""> X </span>，需要按另一个键纠正才能继续<br/><p/>
    请把双手食指分别放在键盘的“E”键和“I”键上<p/>
    按<空格键>开始
    </p></div>"," ","html-keyboard-response","8","247192","0.0-6.0-0.0-1.0","4","4","4","4","3","4","4","4","1","4","5","4","3","4","4","5","5","4","4","4","2","2","2","2","2","2","2","2","2","1","0","1","0","0","0","0","1","0","1","1","0","1","0","1","4","2","3","4","2","2","4","4","4","2","2","799015908117979137","亓","513","","","","","","","","","","","","","","","","","","","","","","","","","","","","","","","","","","","","","","","","","",""
"null","","null","html-keyboard-response","9","247450","0.0-6.0-0.0-2.0-0.0","4","4","4","4","3","4","4","4","1","4","5","4","3","4","4","5","5","4","4","4","2","2","2","2","2","2","2","2","2","1","0","1","0","0","0","0","1","0","1","1","0","1","0","1","4","2","3","4","2","2","4","4","4","2","2","799015908117979137","亓","513","","","","","","","","","","","","","","","","","","","","","","","","","","","","","","","","","","","","","","","","","",""
"1097","<p style=""color:rgb(150, 250, 100); font-size: 35px;"">自己</p>","e","categorize-html","10","248556","0.0-6.0-0.0-2.0-1.0","4","4","4","4","3","4","4","4","1","4","5","4","3","4","4","5","5","4","4","4","2","2","2","2","2","2","2","2","2","1","0","1","0","0","0","0","1","0","1","1","0","1","0","1","4","2","3","4","2","2","4","4","4","2","2","799015908117979137","亓","513","","","","","","","","","","","","","","","","","","","true","1","1","ability","1097","self","自己","","","","","","","","","","","","","","","","",""
"null","","null","html-keyboard-response","11","248813","0.0-6.0-0.0-2.0-0.1","4","4","4","4","3","4","4","4","1","4","5","4","3","4","4","5","5","4","4","4","2","2","2","2","2","2","2","2","2","1","0","1","0","0","0","0","1","0","1","1","0","1","0","1","4","2","3","4","2","2","4","4","4","2","2","799015908117979137","亓","513","","","","","","","","","","","","","","","","","","","","","","","","","","","","","","","","","","","","","","","","","",""
"784","<p style=""color:rgb(150, 250, 100); font-size: 35px;"">本人</p>","e","categorize-html","12","249599","0.0-6.0-0.0-2.0-1.1","4","4","4","4","3","4","4","4","1","4","5","4","3","4","4","5","5","4","4","4","2","2","2","2","2","2","2","2","2","1","0","1","0","0","0","0","1","0","1","1","0","1","0","1","4","2","3","4","2","2","4","4","4","2","2","799015908117979137","亓","513","","","","","","","","","","","","","","","","","","","true","1","1","ability","784","self","本人","","","","","","","","","","","","","","","","",""
"null","","null","html-keyboard-response","13","249856","0.0-6.0-0.0-2.0-0.2","4","4","4","4","3","4","4","4","1","4","5","4","3","4","4","5","5","4","4","4","2","2","2","2","2","2","2","2","2","1","0","1","0","0","0","0","1","0","1","1","0","1","0","1","4","2","3","4","2","2","4","4","4","2","2","799015908117979137","亓","513","","","","","","","","","","","","","","","","","","","","","","","","","","","","","","","","","","","","","","","","","",""
"597","<p style=""color:rgb(150, 250, 100); font-size: 35px;"">我</p>","e","categorize-html","14","250457","0.0-6.0-0.0-2.0-1.2","4","4","4","4","3","4","4","4","1","4","5","4","3","4","4","5","5","4","4","4","2","2","2","2","2","2","2","2","2","1","0","1","0","0","0","0","1","0","1","1","0","1","0","1","4","2","3","4","2","2","4","4","4","2","2","799015908117979137","亓","513","","","","","","","","","","","","","","","","","","","true","1","1","ability","597","self","我","","","","","","","","","","","","","","","","",""
"null","","null","html-keyboard-response","15","250723","0.0-6.0-0.0-2.0-0.3","4","4","4","4","3","4","4","4","1","4","5","4","3","4","4","5","5","4","4","4","2","2","2","2","2","2","2","2","2","1","0","1","0","0","0","0","1","0","1","1","0","1","0","1","4","2","3","4","2","2","4","4","4","2","2","799015908117979137","亓","513","","","","","","","","","","","","","","","","","","","","","","","","","","","","","","","","","","","","","","","","","",""
"557","<p style=""color:rgb(150, 250, 100); font-size: 35px;"">别人</p>","i","categorize-html","16","251285","0.0-6.0-0.0-2.0-1.3","4","4","4","4","3","4","4","4","1","4","5","4","3","4","4","5","5","4","4","4","2","2","2","2","2","2","2","2","2","1","0","1","0","0","0","0","1","0","1","1","0","1","0","1","4","2","3","4","2","2","4","4","4","2","2","799015908117979137","亓","513","","","","","","","","","","","","","","","","","","","true","1","1","ability","557","other","别人","","","","","","","","","","","","","","","","",""
"null","","null","html-keyboard-response","17","251544","0.0-6.0-0.0-2.0-0.4","4","4","4","4","3","4","4","4","1","4","5","4","3","4","4","5","5","4","4","4","2","2","2","2","2","2","2","2","2","1","0","1","0","0","0","0","1","0","1","1","0","1","0","1","4","2","3","4","2","2","4","4","4","2","2","799015908117979137","亓","513","","","","","","","","","","","","","","","","","","","","","","","","","","","","","","","","","","","","","","","","","",""
"541","<p style=""color:rgb(150, 250, 100); font-size: 35px;"">自己的</p>","e","categorize-html","18","252086","0.0-6.0-0.0-2.0-1.4","4","4","4","4","3","4","4","4","1","4","5","4","3","4","4","5","5","4","4","4","2","2","2","2","2","2","2","2","2","1","0","1","0","0","0","0","1","0","1","1","0","1","0","1","4","2","3","4","2","2","4","4","4","2","2","799015908117979137","亓","513","","","","","","","","","","","","","","","","","","","true","1","1","ability","541","self","自己的","","","","","","","","","","","","","","","","",""
"null","","null","html-keyboard-response","19","252340","0.0-6.0-0.0-2.0-0.5","4","4","4","4","3","4","4","4","1","4","5","4","3","4","4","5","5","4","4","4","2","2","2","2","2","2","2","2","2","1","0","1","0","0","0","0","1","0","1","1","0","1","0","1","4","2","3","4","2","2","4","4","4","2","2","799015908117979137","亓","513","","","","","","","","","","","","","","","","","","","","","","","","","","","","","","","","","","","","","","","","","",""
"570","<p style=""color:rgb(150, 250, 100); font-size: 35px;"">我的</p>","e","categorize-html","20","252912","0.0-6.0-0.0-2.0-1.5","4","4","4","4","3","4","4","4","1","4","5","4","3","4","4","5","5","4","4","4","2","2","2","2","2","2","2","2","2","1","0","1","0","0","0","0","1","0","1","1","0","1","0","1","4","2","3","4","2","2","4","4","4","2","2","799015908117979137","亓","513","","","","","","","","","","","","","","","","","","","true","1","1","ability","570","self","我的","","","","","","","","","","","","","","","","",""
"null","","null","html-keyboard-response","21","253163","0.0-6.0-0.0-2.0-0.6","4","4","4","4","3","4","4","4","1","4","5","4","3","4","4","5","5","4","4","4","2","2","2","2","2","2","2","2","2","1","0","1","0","0","0","0","1","0","1","1","0","1","0","1","4","2","3","4","2","2","4","4","4","2","2","799015908117979137","亓","513","","","","","","","","","","","","","","","","","","","","","","","","","","","","","","","","","","","","","","","","","",""
"480","<p style=""color:rgb(150, 250, 100); font-size: 35px;"">本人的</p>","e","categorize-html","22","253647","0.0-6.0-0.0-2.0-1.6","4","4","4","4","3","4","4","4","1","4","5","4","3","4","4","5","5","4","4","4","2","2","2","2","2","2","2","2","2","1","0","1","0","0","0","0","1","0","1","1","0","1","0","1","4","2","3","4","2","2","4","4","4","2","2","799015908117979137","亓","513","","","","","","","","","","","","","","","","","","","true","1","1","ability","480","self","本人的","","","","","","","","","","","","","","","","",""
"null","","null","html-keyboard-response","23","253898","0.0-6.0-0.0-2.0-0.7","4","4","4","4","3","4","4","4","1","4","5","4","3","4","4","5","5","4","4","4","2","2","2","2","2","2","2","2","2","1","0","1","0","0","0","0","1","0","1","1","0","1","0","1","4","2","3","4","2","2","4","4","4","2","2","799015908117979137","亓","513","","","","","","","","","","","","","","","","","","","","","","","","","","","","","","","","","","","","","","","","","",""
"543","<p style=""color:rgb(150, 250, 100); font-size: 35px;"">他</p>","i","categorize-html","24","254442","0.0-6.0-0.0-2.0-1.7","4","4","4","4","3","4","4","4","1","4","5","4","3","4","4","5","5","4","4","4","2","2","2","2","2","2","2","2","2","1","0","1","0","0","0","0","1","0","1","1","0","1","0","1","4","2","3","4","2","2","4","4","4","2","2","799015908117979137","亓","513","","","","","","","","","","","","","","","","","","","true","1","1","ability","543","other","他","","","","","","","","","","","","","","","","",""
"null","","null","html-keyboard-response","25","254698","0.0-6.0-0.0-2.0-0.8","4","4","4","4","3","4","4","4","1","4","5","4","3","4","4","5","5","4","4","4","2","2","2","2","2","2","2","2","2","1","0","1","0","0","0","0","1","0","1","1","0","1","0","1","4","2","3","4","2","2","4","4","4","2","2","799015908117979137","亓","513","","","","","","","","","","","","","","","","","","","","","","","","","","","","","","","","","","","","","","","","","",""
"497","<p style=""color:rgb(150, 250, 100); font-size: 35px;"">别人的</p>","i","categorize-html","26","255196","0.0-6.0-0.0-2.0-1.8","4","4","4","4","3","4","4","4","1","4","5","4","3","4","4","5","5","4","4","4","2","2","2","2","2","2","2","2","2","1","0","1","0","0","0","0","1","0","1","1","0","1","0","1","4","2","3","4","2","2","4","4","4","2","2","799015908117979137","亓","513","","","","","","","","","","","","","","","","","","","true","1","1","ability","497","other","别人的","","","","","","","","","","","","","","","","",""
"null","","null","html-keyboard-response","27","255450","0.0-6.0-0.0-2.0-0.9","4","4","4","4","3","4","4","4","1","4","5","4","3","4","4","5","5","4","4","4","2","2","2","2","2","2","2","2","2","1","0","1","0","0","0","0","1","0","1","1","0","1","0","1","4","2","3","4","2","2","4","4","4","2","2","799015908117979137","亓","513","","","","","","","","","","","","","","","","","","","","","","","","","","","","","","","","","","","","","","","","","",""
"430","<p style=""color:rgb(150, 250, 100); font-size: 35px;"">他人</p>","i","categorize-html","28","255883","0.0-6.0-0.0-2.0-1.9","4","4","4","4","3","4","4","4","1","4","5","4","3","4","4","5","5","4","4","4","2","2","2","2","2","2","2","2","2","1","0","1","0","0","0","0","1","0","1","1","0","1","0","1","4","2","3","4","2","2","4","4","4","2","2","799015908117979137","亓","513","","","","","","","","","","","","","","","","","","","true","1","1","ability","430","other","他人","","","","","","","","","","","","","","","","",""
"null","","null","html-keyboard-response","29","256146","0.0-6.0-0.0-2.0-0.10","4","4","4","4","3","4","4","4","1","4","5","4","3","4","4","5","5","4","4","4","2","2","2","2","2","2","2","2","2","1","0","1","0","0","0","0","1","0","1","1","0","1","0","1","4","2","3","4","2","2","4","4","4","2","2","799015908117979137","亓","513","","","","","","","","","","","","","","","","","","","","","","","","","","","","","","","","","","","","","","","","","",""
"438","<p style=""color:rgb(150, 250, 100); font-size: 35px;"">他人的</p>","i","categorize-html","30","256586","0.0-6.0-0.0-2.0-1.10","4","4","4","4","3","4","4","4","1","4","5","4","3","4","4","5","5","4","4","4","2","2","2","2","2","2","2","2","2","1","0","1","0","0","0","0","1","0","1","1","0","1","0","1","4","2","3","4","2","2","4","4","4","2","2","799015908117979137","亓","513","","","","","","","","","","","","","","","","","","","true","1","1","ability","438","other","他人的","","","","","","","","","","","","","","","","",""
"null","","null","html-keyboard-response","31","256844","0.0-6.0-0.0-2.0-0.11","4","4","4","4","3","4","4","4","1","4","5","4","3","4","4","5","5","4","4","4","2","2","2","2","2","2","2","2","2","1","0","1","0","0","0","0","1","0","1","1","0","1","0","1","4","2","3","4","2","2","4","4","4","2","2","799015908117979137","亓","513","","","","","","","","","","","","","","","","","","","","","","","","","","","","","","","","","","","","","","","","","",""
"405","<p style=""color:rgb(150, 250, 100); font-size: 35px;"">他的</p>","i","categorize-html","32","257250","0.0-6.0-0.0-2.0-1.11","4","4","4","4","3","4","4","4","1","4","5","4","3","4","4","5","5","4","4","4","2","2","2","2","2","2","2","2","2","1","0","1","0","0","0","0","1","0","1","1","0","1","0","1","4","2","3","4","2","2","4","4","4","2","2","799015908117979137","亓","513","","","","","","","","","","","","","","","","","","","true","1","1","ability","405","other","他的","","","","","","","","","","","","","","","","",""
"8282","
    <div class=""tag-bottom""><p>
    —— 任务2：对“消极”词和“积极”词分类 ——<p/>   
    <span style=""color:#78DCE8""><b>注意上方，类别标签和需要分类的词语都已经改变</b></span><p/>
    <span style=""color:#FFD866""><b>请根据上方标签的提示，尽可能正确并且快速地做出按键反应</b></span><p/>
    当按键错误时屏幕中会出现<span style=""color:red""> X </span>，需要按另一个键纠正才能继续<br/><p/>
    请把双手食指分别放在键盘的“E”键和“I”键上<p/>
    按<空格键>开始
    </p></div>"," ","html-keyboard-response","33","265533","0.0-6.0-0.0-3.0","4","4","4","4","3","4","4","4","1","4","5","4","3","4","4","5","5","4","4","4","2","2","2","2","2","2","2","2","2","1","0","1","0","0","0","0","1","0","1","1","0","1","0","1","4","2","3","4","2","2","4","4","4","2","2","799015908117979137","亓","513","","","","","","","","","","","","","","","","","","","","","","","","","","","","","","","","","","","","","","","","","",""
"null","","null","html-keyboard-response","34","265788","0.0-6.0-0.0-4.0-0.0","4","4","4","4","3","4","4","4","1","4","5","4","3","4","4","5","5","4","4","4","2","2","2","2","2","2","2","2","2","1","0","1","0","0","0","0","1","0","1","1","0","1","0","1","4","2","3","4","2","2","4","4","4","2","2","799015908117979137","亓","513","","","","","","","","","","","","","","","","","","","","","","","","","","","","","","","","","","","","","","","","","",""
"843","<p style=""color:white; font-size: 35px;"">全能</p>","i","categorize-html","35","266634","0.0-6.0-0.0-4.0-1.0","4","4","4","4","3","4","4","4","1","4","5","4","3","4","4","5","5","4","4","4","2","2","2","2","2","2","2","2","2","1","0","1","0","0","0","0","1","0","1","1","0","1","0","1","4","2","3","4","2","2","4","4","4","2","2","799015908117979137","亓","513","","","","","","","","","","","","","","","","","","","true","2","2","ability","843","positive","全能","","","","","","","","","","","","","","","","",""
"null","","null","html-keyboard-response","36","266892","0.0-6.0-0.0-4.0-0.1","4","4","4","4","3","4","4","4","1","4","5","4","3","4","4","5","5","4","4","4","2","2","2","2","2","2","2","2","2","1","0","1","0","0","0","0","1","0","1","1","0","1","0","1","4","2","3","4","2","2","4","4","4","2","2","799015908117979137","亓","513","","","","","","","","","","","","","","","","","","","","","","","","","","","","","","","","","","","","","","","","","",""
"567","<p style=""color:white; font-size: 35px;"">低能</p>","e","categorize-html","37","267462","0.0-6.0-0.0-4.0-1.1","4","4","4","4","3","4","4","4","1","4","5","4","3","4","4","5","5","4","4","4","2","2","2","2","2","2","2","2","2","1","0","1","0","0","0","0","1","0","1","1","0","1","0","1","4","2","3","4","2","2","4","4","4","2","2","799015908117979137","亓","513","","","","","","","","","","","","","","","","","","","true","2","2","ability","567","negative","低能","","","","","","","","","","","","","","","","",""
"null","","null","html-keyboard-response","38","267714","0.0-6.0-0.0-4.0-0.2","4","4","4","4","3","4","4","4","1","4","5","4","3","4","4","5","5","4","4","4","2","2","2","2","2","2","2","2","2","1","0","1","0","0","0","0","1","0","1","1","0","1","0","1","4","2","3","4","2","2","4","4","4","2","2","799015908117979137","亓","513","","","","","","","","","","","","","","","","","","","","","","","","","","","","","","","","","","","","","","","","","",""
"1872","<p style=""color:white; font-size: 35px;"">高效</p>","i","categorize-html","39","269586","0.0-6.0-0.0-4.0-1.2","4","4","4","4","3","4","4","4","1","4","5","4","3","4","4","5","5","4","4","4","2","2","2","2","2","2","2","2","2","1","0","1","0","0","0","0","1","0","1","1","0","1","0","1","4","2","3","4","2","2","4","4","4","2","2","799015908117979137","亓","513","","","","","","","","","","","","","","","","","","","true","2","2","ability","1872","positive","高效","","","","","","","","","","","","","","","","",""
"null","","null","html-keyboard-response","40","269838","0.0-6.0-0.0-4.0-0.3","4","4","4","4","3","4","4","4","1","4","5","4","3","4","4","5","5","4","4","4","2","2","2","2","2","2","2","2","2","1","0","1","0","0","0","0","1","0","1","1","0","1","0","1","4","2","3","4","2","2","4","4","4","2","2","799015908117979137","亓","513","","","","","","","","","","","","","","","","","","","","","","","","","","","","","","","","","","","","","","","","","",""
"1360","<p style=""color:white; font-size: 35px;"">全才</p>","i","categorize-html","41","271201","0.0-6.0-0.0-4.0-1.3","4","4","4","4","3","4","4","4","1","4","5","4","3","4","4","5","5","4","4","4","2","2","2","2","2","2","2","2","2","1","0","1","0","0","0","0","1","0","1","1","0","1","0","1","4","2","3","4","2","2","4","4","4","2","2","799015908117979137","亓","513","","","","","","","","","","","","","","","","","","","true","2","2","ability","1360","positive","全才","","","","","","","","","","","","","","","","",""
"null","","null","html-keyboard-response","42","271457","0.0-6.0-0.0-4.0-0.4","4","4","4","4","3","4","4","4","1","4","5","4","3","4","4","5","5","4","4","4","2","2","2","2","2","2","2","2","2","1","0","1","0","0","0","0","1","0","1","1","0","1","0","1","4","2","3","4","2","2","4","4","4","2","2","799015908117979137","亓","513","","","","","","","","","","","","","","","","","","","","","","","","","","","","","","","","","","","","","","","","","",""
"861","<p style=""color:white; font-size: 35px;"">拙笨</p>","e","categorize-html","43","272321","0.0-6.0-0.0-4.0-1.4","4","4","4","4","3","4","4","4","1","4","5","4","3","4","4","5","5","4","4","4","2","2","2","2","2","2","2","2","2","1","0","1","0","0","0","0","1","0","1","1","0","1","0","1","4","2","3","4","2","2","4","4","4","2","2","799015908117979137","亓","513","","","","","","","","","","","","","","","","","","","true","2","2","ability","861","negative","拙笨","","","","","","","","","","","","","","","","",""
"null","","null","html-keyboard-response","44","272580","0.0-6.0-0.0-4.0-0.5","4","4","4","4","3","4","4","4","1","4","5","4","3","4","4","5","5","4","4","4","2","2","2","2","2","2","2","2","2","1","0","1","0","0","0","0","1","0","1","1","0","1","0","1","4","2","3","4","2","2","4","4","4","2","2","799015908117979137","亓","513","","","","","","","","","","","","","","","","","","","","","","","","","","","","","","","","","","","","","","","","","",""
"570","<p style=""color:white; font-size: 35px;"">无能</p>","e","categorize-html","45","273153","0.0-6.0-0.0-4.0-1.5","4","4","4","4","3","4","4","4","1","4","5","4","3","4","4","5","5","4","4","4","2","2","2","2","2","2","2","2","2","1","0","1","0","0","0","0","1","0","1","1","0","1","0","1","4","2","3","4","2","2","4","4","4","2","2","799015908117979137","亓","513","","","","","","","","","","","","","","","","","","","true","2","2","ability","570","negative","无能","","","","","","","","","","","","","","","","",""
"null","","null","html-keyboard-response","46","273405","0.0-6.0-0.0-4.0-0.6","4","4","4","4","3","4","4","4","1","4","5","4","3","4","4","5","5","4","4","4","2","2","2","2","2","2","2","2","2","1","0","1","0","0","0","0","1","0","1","1","0","1","0","1","4","2","3","4","2","2","4","4","4","2","2","799015908117979137","亓","513","","","","","","","","","","","","","","","","","","","","","","","","","","","","","","","","","","","","","","","","","",""
"1000","<p style=""color:white; font-size: 35px;"">精干</p>","i","categorize-html","47","274408","0.0-6.0-0.0-4.0-1.6","4","4","4","4","3","4","4","4","1","4","5","4","3","4","4","5","5","4","4","4","2","2","2","2","2","2","2","2","2","1","0","1","0","0","0","0","1","0","1","1","0","1","0","1","4","2","3","4","2","2","4","4","4","2","2","799015908117979137","亓","513","","","","","","","","","","","","","","","","","","","true","2","2","ability","1000","positive","精干","","","","","","","","","","","","","","","","",""
"null","","null","html-keyboard-response","48","274664","0.0-6.0-0.0-4.0-0.7","4","4","4","4","3","4","4","4","1","4","5","4","3","4","4","5","5","4","4","4","2","2","2","2","2","2","2","2","2","1","0","1","0","0","0","0","1","0","1","1","0","1","0","1","4","2","3","4","2","2","4","4","4","2","2","799015908117979137","亓","513","","","","","","","","","","","","","","","","","","","","","","","","","","","","","","","","","","","","","","","","","",""
"579","<p style=""color:white; font-size: 35px;"">废物</p>","e","categorize-html","49","275245","0.0-6.0-0.0-4.0-1.7","4","4","4","4","3","4","4","4","1","4","5","4","3","4","4","5","5","4","4","4","2","2","2","2","2","2","2","2","2","1","0","1","0","0","0","0","1","0","1","1","0","1","0","1","4","2","3","4","2","2","4","4","4","2","2","799015908117979137","亓","513","","","","","","","","","","","","","","","","","","","true","2","2","ability","579","negative","废物","","","","","","","","","","","","","","","","",""
"null","","null","html-keyboard-response","50","275498","0.0-6.0-0.0-4.0-0.8","4","4","4","4","3","4","4","4","1","4","5","4","3","4","4","5","5","4","4","4","2","2","2","2","2","2","2","2","2","1","0","1","0","0","0","0","1","0","1","1","0","1","0","1","4","2","3","4","2","2","4","4","4","2","2","799015908117979137","亓","513","","","","","","","","","","","","","","","","","","","","","","","","","","","","","","","","","","","","","","","","","",""
"1428","<p style=""color:white; font-size: 35px;"">天才</p>","i","categorize-html","51","276928","0.0-6.0-0.0-4.0-1.8","4","4","4","4","3","4","4","4","1","4","5","4","3","4","4","5","5","4","4","4","2","2","2","2","2","2","2","2","2","1","0","1","0","0","0","0","1","0","1","1","0","1","0","1","4","2","3","4","2","2","4","4","4","2","2","799015908117979137","亓","513","","","","","","","","","","","","","","","","","","","true","2","2","ability","1428","positive","天才","","","","","","","","","","","","","","","","",""
"null","","null","html-keyboard-response","52","277182","0.0-6.0-0.0-4.0-0.9","4","4","4","4","3","4","4","4","1","4","5","4","3","4","4","5","5","4","4","4","2","2","2","2","2","2","2","2","2","1","0","1","0","0","0","0","1","0","1","1","0","1","0","1","4","2","3","4","2","2","4","4","4","2","2","799015908117979137","亓","513","","","","","","","","","","","","","","","","","","","","","","","","","","","","","","","","","","","","","","","","","",""
"791","<p style=""color:white; font-size: 35px;"">蠢笨</p>","e","categorize-html","53","277973","0.0-6.0-0.0-4.0-1.9","4","4","4","4","3","4","4","4","1","4","5","4","3","4","4","5","5","4","4","4","2","2","2","2","2","2","2","2","2","1","0","1","0","0","0","0","1","0","1","1","0","1","0","1","4","2","3","4","2","2","4","4","4","2","2","799015908117979137","亓","513","","","","","","","","","","","","","","","","","","","true","2","2","ability","791","negative","蠢笨","","","","","","","","","","","","","","","","",""
"null","","null","html-keyboard-response","54","278225","0.0-6.0-0.0-4.0-0.10","4","4","4","4","3","4","4","4","1","4","5","4","3","4","4","5","5","4","4","4","2","2","2","2","2","2","2","2","2","1","0","1","0","0","0","0","1","0","1","1","0","1","0","1","4","2","3","4","2","2","4","4","4","2","2","799015908117979137","亓","513","","","","","","","","","","","","","","","","","","","","","","","","","","","","","","","","","","","","","","","","","",""
"568","<p style=""color:white; font-size: 35px;"">愚钝</p>","e","categorize-html","55","278795","0.0-6.0-0.0-4.0-1.10","4","4","4","4","3","4","4","4","1","4","5","4","3","4","4","5","5","4","4","4","2","2","2","2","2","2","2","2","2","1","0","1","0","0","0","0","1","0","1","1","0","1","0","1","4","2","3","4","2","2","4","4","4","2","2","799015908117979137","亓","513","","","","","","","","","","","","","","","","","","","true","2","2","ability","568","negative","愚钝","","","","","","","","","","","","","","","","",""
"null","","null","html-keyboard-response","56","279061","0.0-6.0-0.0-4.0-0.11","4","4","4","4","3","4","4","4","1","4","5","4","3","4","4","5","5","4","4","4","2","2","2","2","2","2","2","2","2","1","0","1","0","0","0","0","1","0","1","1","0","1","0","1","4","2","3","4","2","2","4","4","4","2","2","799015908117979137","亓","513","","","","","","","","","","","","","","","","","","","","","","","","","","","","","","","","","","","","","","","","","",""
"534","<p style=""color:white; font-size: 35px;"">能干</p>","i","categorize-html","57","279596","0.0-6.0-0.0-4.0-1.11","4","4","4","4","3","4","4","4","1","4","5","4","3","4","4","5","5","4","4","4","2","2","2","2","2","2","2","2","2","1","0","1","0","0","0","0","1","0","1","1","0","1","0","1","4","2","3","4","2","2","4","4","4","2","2","799015908117979137","亓","513","","","","","","","","","","","","","","","","","","","true","2","2","ability","534","positive","能干","","","","","","","","","","","","","","","","",""
"21255","
    <div class=""tag-bottom""><p>
    —— 任务3：对“自我/消极”词和“他人/积极”词分类 ——<p/>
    <span style=""color:#78DCE8""><b>注意上方，之前的四类词语将混合在一起交替呈现</b></span><p/>
    <span style=""color:#FFD866""><b>请根据上方标签的提示，尽可能正确并且快速地做出按键反应</b></span><p/>
    当按键错误时屏幕中会出现<span style=""color:red""> X </span>，需要按另一个键纠正才能继续<br/><p/>
    请把双手食指分别放在键盘的“E”键和“I”键上<p/>
    按<空格键>开始
    </p></div>"," ","html-keyboard-response","58","300851","0.0-6.0-0.0-5.0","4","4","4","4","3","4","4","4","1","4","5","4","3","4","4","5","5","4","4","4","2","2","2","2","2","2","2","2","2","1","0","1","0","0","0","0","1","0","1","1","0","1","0","1","4","2","3","4","2","2","4","4","4","2","2","799015908117979137","亓","513","","","","","","","","","","","","","","","","","","","","","","","","","","","","","","","","","","","","","","","","","",""
"null","","null","html-keyboard-response","59","301110","0.0-6.0-0.0-6.0-0.0","4","4","4","4","3","4","4","4","1","4","5","4","3","4","4","5","5","4","4","4","2","2","2","2","2","2","2","2","2","1","0","1","0","0","0","0","1","0","1","1","0","1","0","1","4","2","3","4","2","2","4","4","4","2","2","799015908117979137","亓","513","","","","","","","","","","","","","","","","","","","","","","","","","","","","","","","","","","","","","","","","","",""
"1036","<p style=""color:rgb(150, 250, 100); font-size: 35px;"">他</p>","e","categorize-html","60","303005","0.0-6.0-0.0-6.0-1.0","4","4","4","4","3","4","4","4","1","4","5","4","3","4","4","5","5","4","4","4","2","2","2","2","2","2","2","2","2","1","0","1","0","0","0","0","1","0","1","1","0","1","0","1","4","2","3","4","2","2","4","4","4","2","2","799015908117979137","亓","513","","","","","","","","","","","","","","","","","","","false","3","3","ability","2380.333333333333","other","他","","","","","","","","","","","","","","","","",""
"null","","null","html-keyboard-response","61","303259","0.0-6.0-0.0-6.0-0.1","4","4","4","4","3","4","4","4","1","4","5","4","3","4","4","5","5","4","4","4","2","2","2","2","2","2","2","2","2","1","0","1","0","0","0","0","1","0","1","1","0","1","0","1","4","2","3","4","2","2","4","4","4","2","2","799015908117979137","亓","513","","","","","","","","","","","","","","","","","","","","","","","","","","","","","","","","","","","","","","","","","",""
"6009","<p style=""color:white; font-size: 35px;"">无能</p>","e","categorize-html","62","309270","0.0-6.0-0.0-6.0-1.1","4","4","4","4","3","4","4","4","1","4","5","4","3","4","4","5","5","4","4","4","2","2","2","2","2","2","2","2","2","1","0","1","0","0","0","0","1","0","1","1","0","1","0","1","4","2","3","4","2","2","4","4","4","2","2","799015908117979137","亓","513","","","","","","","","","","","","","","","","","","","true","3","3","ability","6009","negative","无能","","","","","","","","","","","","","","","","",""
"null","","null","html-keyboard-response","63","309524","0.0-6.0-0.0-6.0-0.2","4","4","4","4","3","4","4","4","1","4","5","4","3","4","4","5","5","4","4","4","2","2","2","2","2","2","2","2","2","1","0","1","0","0","0","0","1","0","1","1","0","1","0","1","4","2","3","4","2","2","4","4","4","2","2","799015908117979137","亓","513","","","","","","","","","","","","","","","","","","","","","","","","","","","","","","","","","","","","","","","","","",""
"1823","<p style=""color:rgb(150, 250, 100); font-size: 35px;"">我</p>","e","categorize-html","64","311349","0.0-6.0-0.0-6.0-1.2","4","4","4","4","3","4","4","4","1","4","5","4","3","4","4","5","5","4","4","4","2","2","2","2","2","2","2","2","2","1","0","1","0","0","0","0","1","0","1","1","0","1","0","1","4","2","3","4","2","2","4","4","4","2","2","799015908117979137","亓","513","","","","","","","","","","","","","","","","","","","true","3","3","ability","1823","self","我","","","","","","","","","","","","","","","","",""
"null","","null","html-keyboard-response","65","311601","0.0-6.0-0.0-6.0-0.3","4","4","4","4","3","4","4","4","1","4","5","4","3","4","4","5","5","4","4","4","2","2","2","2","2","2","2","2","2","1","0","1","0","0","0","0","1","0","1","1","0","1","0","1","4","2","3","4","2","2","4","4","4","2","2","799015908117979137","亓","513","","","","","","","","","","","","","","","","","","","","","","","","","","","","","","","","","","","","","","","","","",""
"1452","<p style=""color:white; font-size: 35px;"">全才</p>","e","categorize-html","66","313537","0.0-6.0-0.0-6.0-1.3","4","4","4","4","3","4","4","4","1","4","5","4","3","4","4","5","5","4","4","4","2","2","2","2","2","2","2","2","2","1","0","1","0","0","0","0","1","0","1","1","0","1","0","1","4","2","3","4","2","2","4","4","4","2","2","799015908117979137","亓","513","","","","","","","","","","","","","","","","","","","false","3","3","ability","2380.333333333333","positive","全才","","","","","","","","","","","","","","","","",""
"null","","null","html-keyboard-response","67","313789","0.0-6.0-0.0-6.0-0.4","4","4","4","4","3","4","4","4","1","4","5","4","3","4","4","5","5","4","4","4","2","2","2","2","2","2","2","2","2","1","0","1","0","0","0","0","1","0","1","1","0","1","0","1","4","2","3","4","2","2","4","4","4","2","2","799015908117979137","亓","513","","","","","","","","","","","","","","","","","","","","","","","","","","","","","","","","","","","","","","","","","",""
"1710","<p style=""color:rgb(150, 250, 100); font-size: 35px;"">本人的</p>","e","categorize-html","68","315501","0.0-6.0-0.0-6.0-1.4","4","4","4","4","3","4","4","4","1","4","5","4","3","4","4","5","5","4","4","4","2","2","2","2","2","2","2","2","2","1","0","1","0","0","0","0","1","0","1","1","0","1","0","1","4","2","3","4","2","2","4","4","4","2","2","799015908117979137","亓","513","","","","","","","","","","","","","","","","","","","true","3","3","ability","1710","self","本人的","","","","","","","","","","","","","","","","",""
"null","","null","html-keyboard-response","69","315761","0.0-6.0-0.0-6.0-0.5","4","4","4","4","3","4","4","4","1","4","5","4","3","4","4","5","5","4","4","4","2","2","2","2","2","2","2","2","2","1","0","1","0","0","0","0","1","0","1","1","0","1","0","1","4","2","3","4","2","2","4","4","4","2","2","799015908117979137","亓","513","","","","","","","","","","","","","","","","","","","","","","","","","","","","","","","","","","","","","","","","","",""
"1494","<p style=""color:white; font-size: 35px;"">废物</p>","e","categorize-html","70","317256","0.0-6.0-0.0-6.0-1.5","4","4","4","4","3","4","4","4","1","4","5","4","3","4","4","5","5","4","4","4","2","2","2","2","2","2","2","2","2","1","0","1","0","0","0","0","1","0","1","1","0","1","0","1","4","2","3","4","2","2","4","4","4","2","2","799015908117979137","亓","513","","","","","","","","","","","","","","","","","","","true","3","3","ability","1494","negative","废物","","","","","","","","","","","","","","","","",""
"null","","null","html-keyboard-response","71","317512","0.0-6.0-0.0-6.0-0.6","4","4","4","4","3","4","4","4","1","4","5","4","3","4","4","5","5","4","4","4","2","2","2","2","2","2","2","2","2","1","0","1","0","0","0","0","1","0","1","1","0","1","0","1","4","2","3","4","2","2","4","4","4","2","2","799015908117979137","亓","513","","","","","","","","","","","","","","","","","","","","","","","","","","","","","","","","","","","","","","","","","",""
"1367","<p style=""color:rgb(150, 250, 100); font-size: 35px;"">别人的</p>","i","categorize-html","72","318881","0.0-6.0-0.0-6.0-1.6","4","4","4","4","3","4","4","4","1","4","5","4","3","4","4","5","5","4","4","4","2","2","2","2","2","2","2","2","2","1","0","1","0","0","0","0","1","0","1","1","0","1","0","1","4","2","3","4","2","2","4","4","4","2","2","799015908117979137","亓","513","","","","","","","","","","","","","","","","","","","true","3","3","ability","1367","other","别人的","","","","","","","","","","","","","","","","",""
"null","","null","html-keyboard-response","73","319138","0.0-6.0-0.0-6.0-0.7","4","4","4","4","3","4","4","4","1","4","5","4","3","4","4","5","5","4","4","4","2","2","2","2","2","2","2","2","2","1","0","1","0","0","0","0","1","0","1","1","0","1","0","1","4","2","3","4","2","2","4","4","4","2","2","799015908117979137","亓","513","","","","","","","","","","","","","","","","","","","","","","","","","","","","","","","","","","","","","","","","","",""
"1765","<p style=""color:white; font-size: 35px;"">天才</p>","e","categorize-html","74","323155","0.0-6.0-0.0-6.0-1.7","4","4","4","4","3","4","4","4","1","4","5","4","3","4","4","5","5","4","4","4","2","2","2","2","2","2","2","2","2","1","0","1","0","0","0","0","1","0","1","1","0","1","0","1","4","2","3","4","2","2","4","4","4","2","2","799015908117979137","亓","513","","","","","","","","","","","","","","","","","","","false","3","3","ability","2380.333333333333","positive","天才","","","","","","","","","","","","","","","","",""
"null","","null","html-keyboard-response","75","323411","0.0-6.0-0.0-6.0-0.8","4","4","4","4","3","4","4","4","1","4","5","4","3","4","4","5","5","4","4","4","2","2","2","2","2","2","2","2","2","1","0","1","0","0","0","0","1","0","1","1","0","1","0","1","4","2","3","4","2","2","4","4","4","2","2","799015908117979137","亓","513","","","","","","","","","","","","","","","","","","","","","","","","","","","","","","","","","","","","","","","","","",""
"2802","<p style=""color:rgb(150, 250, 100); font-size: 35px;"">本人</p>","e","categorize-html","76","326215","0.0-6.0-0.0-6.0-1.8","4","4","4","4","3","4","4","4","1","4","5","4","3","4","4","5","5","4","4","4","2","2","2","2","2","2","2","2","2","1","0","1","0","0","0","0","1","0","1","1","0","1","0","1","4","2","3","4","2","2","4","4","4","2","2","799015908117979137","亓","513","","","","","","","","","","","","","","","","","","","true","3","3","ability","2802","self","本人","","","","","","","","","","","","","","","","",""
"null","","null","html-keyboard-response","77","326471","0.0-6.0-0.0-6.0-0.9","4","4","4","4","3","4","4","4","1","4","5","4","3","4","4","5","5","4","4","4","2","2","2","2","2","2","2","2","2","1","0","1","0","0","0","0","1","0","1","1","0","1","0","1","4","2","3","4","2","2","4","4","4","2","2","799015908117979137","亓","513","","","","","","","","","","","","","","","","","","","","","","","","","","","","","","","","","","","","","","","","","",""
"1179","<p style=""color:white; font-size: 35px;"">精干</p>","i","categorize-html","78","327652","0.0-6.0-0.0-6.0-1.9","4","4","4","4","3","4","4","4","1","4","5","4","3","4","4","5","5","4","4","4","2","2","2","2","2","2","2","2","2","1","0","1","0","0","0","0","1","0","1","1","0","1","0","1","4","2","3","4","2","2","4","4","4","2","2","799015908117979137","亓","513","","","","","","","","","","","","","","","","","","","true","3","3","ability","1179","positive","精干","","","","","","","","","","","","","","","","",""
"null","","null","html-keyboard-response","79","327907","0.0-6.0-0.0-6.0-0.10","4","4","4","4","3","4","4","4","1","4","5","4","3","4","4","5","5","4","4","4","2","2","2","2","2","2","2","2","2","1","0","1","0","0","0","0","1","0","1","1","0","1","0","1","4","2","3","4","2","2","4","4","4","2","2","799015908117979137","亓","513","","","","","","","","","","","","","","","","","","","","","","","","","","","","","","","","","","","","","","","","","",""
"1647","<p style=""color:rgb(150, 250, 100); font-size: 35px;"">他人</p>","i","categorize-html","80","329556","0.0-6.0-0.0-6.0-1.10","4","4","4","4","3","4","4","4","1","4","5","4","3","4","4","5","5","4","4","4","2","2","2","2","2","2","2","2","2","1","0","1","0","0","0","0","1","0","1","1","0","1","0","1","4","2","3","4","2","2","4","4","4","2","2","799015908117979137","亓","513","","","","","","","","","","","","","","","","","","","true","3","3","ability","1647","other","他人","","","","","","","","","","","","","","","","",""
"null","","null","html-keyboard-response","81","329811","0.0-6.0-0.0-6.0-0.11","4","4","4","4","3","4","4","4","1","4","5","4","3","4","4","5","5","4","4","4","2","2","2","2","2","2","2","2","2","1","0","1","0","0","0","0","1","0","1","1","0","1","0","1","4","2","3","4","2","2","4","4","4","2","2","799015908117979137","亓","513","","","","","","","","","","","","","","","","","","","","","","","","","","","","","","","","","","","","","","","","","",""
"1299","<p style=""color:white; font-size: 35px;"">低能</p>","e","categorize-html","82","331115","0.0-6.0-0.0-6.0-1.11","4","4","4","4","3","4","4","4","1","4","5","4","3","4","4","5","5","4","4","4","2","2","2","2","2","2","2","2","2","1","0","1","0","0","0","0","1","0","1","1","0","1","0","1","4","2","3","4","2","2","4","4","4","2","2","799015908117979137","亓","513","","","","","","","","","","","","","","","","","","","true","3","3","ability","1299","negative","低能","","","","","","","","","","","","","","","","",""
"null","","null","html-keyboard-response","83","331370","0.0-6.0-0.0-6.0-0.12","4","4","4","4","3","4","4","4","1","4","5","4","3","4","4","5","5","4","4","4","2","2","2","2","2","2","2","2","2","1","0","1","0","0","0","0","1","0","1","1","0","1","0","1","4","2","3","4","2","2","4","4","4","2","2","799015908117979137","亓","513","","","","","","","","","","","","","","","","","","","","","","","","","","","","","","","","","","","","","","","","","",""
"1466","<p style=""color:rgb(150, 250, 100); font-size: 35px;"">自己</p>","e","categorize-html","84","332838","0.0-6.0-0.0-6.0-1.12","4","4","4","4","3","4","4","4","1","4","5","4","3","4","4","5","5","4","4","4","2","2","2","2","2","2","2","2","2","1","0","1","0","0","0","0","1","0","1","1","0","1","0","1","4","2","3","4","2","2","4","4","4","2","2","799015908117979137","亓","513","","","","","","","","","","","","","","","","","","","true","3","3","ability","1466","self","自己","","","","","","","","","","","","","","","","",""
"null","","null","html-keyboard-response","85","333093","0.0-6.0-0.0-6.0-0.13","4","4","4","4","3","4","4","4","1","4","5","4","3","4","4","5","5","4","4","4","2","2","2","2","2","2","2","2","2","1","0","1","0","0","0","0","1","0","1","1","0","1","0","1","4","2","3","4","2","2","4","4","4","2","2","799015908117979137","亓","513","","","","","","","","","","","","","","","","","","","","","","","","","","","","","","","","","","","","","","","","","",""
"1141","<p style=""color:white; font-size: 35px;"">全能</p>","i","categorize-html","86","334236","0.0-6.0-0.0-6.0-1.13","4","4","4","4","3","4","4","4","1","4","5","4","3","4","4","5","5","4","4","4","2","2","2","2","2","2","2","2","2","1","0","1","0","0","0","0","1","0","1","1","0","1","0","1","4","2","3","4","2","2","4","4","4","2","2","799015908117979137","亓","513","","","","","","","","","","","","","","","","","","","true","3","3","ability","1141","positive","全能","","","","","","","","","","","","","","","","",""
"null","","null","html-keyboard-response","87","334493","0.0-6.0-0.0-6.0-0.14","4","4","4","4","3","4","4","4","1","4","5","4","3","4","4","5","5","4","4","4","2","2","2","2","2","2","2","2","2","1","0","1","0","0","0","0","1","0","1","1","0","1","0","1","4","2","3","4","2","2","4","4","4","2","2","799015908117979137","亓","513","","","","","","","","","","","","","","","","","","","","","","","","","","","","","","","","","","","","","","","","","",""
"1179","<p style=""color:rgb(150, 250, 100); font-size: 35px;"">他人的</p>","i","categorize-html","88","335674","0.0-6.0-0.0-6.0-1.14","4","4","4","4","3","4","4","4","1","4","5","4","3","4","4","5","5","4","4","4","2","2","2","2","2","2","2","2","2","1","0","1","0","0","0","0","1","0","1","1","0","1","0","1","4","2","3","4","2","2","4","4","4","2","2","799015908117979137","亓","513","","","","","","","","","","","","","","","","","","","true","3","3","ability","1179","other","他人的","","","","","","","","","","","","","","","","",""
"null","","null","html-keyboard-response","89","335926","0.0-6.0-0.0-6.0-0.15","4","4","4","4","3","4","4","4","1","4","5","4","3","4","4","5","5","4","4","4","2","2","2","2","2","2","2","2","2","1","0","1","0","0","0","0","1","0","1","1","0","1","0","1","4","2","3","4","2","2","4","4","4","2","2","799015908117979137","亓","513","","","","","","","","","","","","","","","","","","","","","","","","","","","","","","","","","","","","","","","","","",""
"1115","<p style=""color:white; font-size: 35px;"">愚钝</p>","e","categorize-html","90","337045","0.0-6.0-0.0-6.0-1.15","4","4","4","4","3","4","4","4","1","4","5","4","3","4","4","5","5","4","4","4","2","2","2","2","2","2","2","2","2","1","0","1","0","0","0","0","1","0","1","1","0","1","0","1","4","2","3","4","2","2","4","4","4","2","2","799015908117979137","亓","513","","","","","","","","","","","","","","","","","","","true","3","3","ability","1115","negative","愚钝","","","","","","","","","","","","","","","","",""
"null","","null","html-keyboard-response","91","337297","0.0-6.0-0.0-6.0-0.16","4","4","4","4","3","4","4","4","1","4","5","4","3","4","4","5","5","4","4","4","2","2","2","2","2","2","2","2","2","1","0","1","0","0","0","0","1","0","1","1","0","1","0","1","4","2","3","4","2","2","4","4","4","2","2","799015908117979137","亓","513","","","","","","","","","","","","","","","","","","","","","","","","","","","","","","","","","","","","","","","","","",""
"1667","<p style=""color:rgb(150, 250, 100); font-size: 35px;"">自己的</p>","e","categorize-html","92","338968","0.0-6.0-0.0-6.0-1.16","4","4","4","4","3","4","4","4","1","4","5","4","3","4","4","5","5","4","4","4","2","2","2","2","2","2","2","2","2","1","0","1","0","0","0","0","1","0","1","1","0","1","0","1","4","2","3","4","2","2","4","4","4","2","2","799015908117979137","亓","513","","","","","","","","","","","","","","","","","","","true","3","3","ability","1667","self","自己的","","","","","","","","","","","","","","","","",""
"null","","null","html-keyboard-response","93","339224","0.0-6.0-0.0-6.0-0.17","4","4","4","4","3","4","4","4","1","4","5","4","3","4","4","5","5","4","4","4","2","2","2","2","2","2","2","2","2","1","0","1","0","0","0","0","1","0","1","1","0","1","0","1","4","2","3","4","2","2","4","4","4","2","2","799015908117979137","亓","513","","","","","","","","","","","","","","","","","","","","","","","","","","","","","","","","","","","","","","","","","",""
"1337","<p style=""color:white; font-size: 35px;"">拙笨</p>","e","categorize-html","94","340563","0.0-6.0-0.0-6.0-1.17","4","4","4","4","3","4","4","4","1","4","5","4","3","4","4","5","5","4","4","4","2","2","2","2","2","2","2","2","2","1","0","1","0","0","0","0","1","0","1","1","0","1","0","1","4","2","3","4","2","2","4","4","4","2","2","799015908117979137","亓","513","","","","","","","","","","","","","","","","","","","true","3","3","ability","1337","negative","拙笨","","","","","","","","","","","","","","","","",""
"null","","null","html-keyboard-response","95","340819","0.0-6.0-0.0-6.0-0.18","4","4","4","4","3","4","4","4","1","4","5","4","3","4","4","5","5","4","4","4","2","2","2","2","2","2","2","2","2","1","0","1","0","0","0","0","1","0","1","1","0","1","0","1","4","2","3","4","2","2","4","4","4","2","2","799015908117979137","亓","513","","","","","","","","","","","","","","","","","","","","","","","","","","","","","","","","","","","","","","","","","",""
"2136","<p style=""color:rgb(150, 250, 100); font-size: 35px;"">他的</p>","i","categorize-html","96","342956","0.0-6.0-0.0-6.0-1.18","4","4","4","4","3","4","4","4","1","4","5","4","3","4","4","5","5","4","4","4","2","2","2","2","2","2","2","2","2","1","0","1","0","0","0","0","1","0","1","1","0","1","0","1","4","2","3","4","2","2","4","4","4","2","2","799015908117979137","亓","513","","","","","","","","","","","","","","","","","","","true","3","3","ability","2136","other","他的","","","","","","","","","","","","","","","","",""
"null","","null","html-keyboard-response","97","343212","0.0-6.0-0.0-6.0-0.19","4","4","4","4","3","4","4","4","1","4","5","4","3","4","4","5","5","4","4","4","2","2","2","2","2","2","2","2","2","1","0","1","0","0","0","0","1","0","1","1","0","1","0","1","4","2","3","4","2","2","4","4","4","2","2","799015908117979137","亓","513","","","","","","","","","","","","","","","","","","","","","","","","","","","","","","","","","","","","","","","","","",""
"1738","<p style=""color:white; font-size: 35px;"">能干</p>","i","categorize-html","98","344955","0.0-6.0-0.0-6.0-1.19","4","4","4","4","3","4","4","4","1","4","5","4","3","4","4","5","5","4","4","4","2","2","2","2","2","2","2","2","2","1","0","1","0","0","0","0","1","0","1","1","0","1","0","1","4","2","3","4","2","2","4","4","4","2","2","799015908117979137","亓","513","","","","","","","","","","","","","","","","","","","true","3","3","ability","1738","positive","能干","","","","","","","","","","","","","","","","",""
"null","","null","html-keyboard-response","99","345208","0.0-6.0-0.0-6.0-0.20","4","4","4","4","3","4","4","4","1","4","5","4","3","4","4","5","5","4","4","4","2","2","2","2","2","2","2","2","2","1","0","1","0","0","0","0","1","0","1","1","0","1","0","1","4","2","3","4","2","2","4","4","4","2","2","799015908117979137","亓","513","","","","","","","","","","","","","","","","","","","","","","","","","","","","","","","","","","","","","","","","","",""
"2237","<p style=""color:rgb(150, 250, 100); font-size: 35px;"">别人</p>","i","categorize-html","100","347446","0.0-6.0-0.0-6.0-1.20","4","4","4","4","3","4","4","4","1","4","5","4","3","4","4","5","5","4","4","4","2","2","2","2","2","2","2","2","2","1","0","1","0","0","0","0","1","0","1","1","0","1","0","1","4","2","3","4","2","2","4","4","4","2","2","799015908117979137","亓","513","","","","","","","","","","","","","","","","","","","true","3","3","ability","2237","other","别人","","","","","","","","","","","","","","","","",""
"null","","null","html-keyboard-response","101","347702","0.0-6.0-0.0-6.0-0.21","4","4","4","4","3","4","4","4","1","4","5","4","3","4","4","5","5","4","4","4","2","2","2","2","2","2","2","2","2","1","0","1","0","0","0","0","1","0","1","1","0","1","0","1","4","2","3","4","2","2","4","4","4","2","2","799015908117979137","亓","513","","","","","","","","","","","","","","","","","","","","","","","","","","","","","","","","","","","","","","","","","",""
"1190","<p style=""color:white; font-size: 35px;"">蠢笨</p>","e","categorize-html","102","348894","0.0-6.0-0.0-6.0-1.21","4","4","4","4","3","4","4","4","1","4","5","4","3","4","4","5","5","4","4","4","2","2","2","2","2","2","2","2","2","1","0","1","0","0","0","0","1","0","1","1","0","1","0","1","4","2","3","4","2","2","4","4","4","2","2","799015908117979137","亓","513","","","","","","","","","","","","","","","","","","","true","3","3","ability","1190","negative","蠢笨","","","","","","","","","","","","","","","","",""
"null","","null","html-keyboard-response","103","349151","0.0-6.0-0.0-6.0-0.22","4","4","4","4","3","4","4","4","1","4","5","4","3","4","4","5","5","4","4","4","2","2","2","2","2","2","2","2","2","1","0","1","0","0","0","0","1","0","1","1","0","1","0","1","4","2","3","4","2","2","4","4","4","2","2","799015908117979137","亓","513","","","","","","","","","","","","","","","","","","","","","","","","","","","","","","","","","","","","","","","","","",""
"1203","<p style=""color:rgb(150, 250, 100); font-size: 35px;"">我的</p>","e","categorize-html","104","350356","0.0-6.0-0.0-6.0-1.22","4","4","4","4","3","4","4","4","1","4","5","4","3","4","4","5","5","4","4","4","2","2","2","2","2","2","2","2","2","1","0","1","0","0","0","0","1","0","1","1","0","1","0","1","4","2","3","4","2","2","4","4","4","2","2","799015908117979137","亓","513","","","","","","","","","","","","","","","","","","","true","3","3","ability","1203","self","我的","","","","","","","","","","","","","","","","",""
"null","","null","html-keyboard-response","105","350610","0.0-6.0-0.0-6.0-0.23","4","4","4","4","3","4","4","4","1","4","5","4","3","4","4","5","5","4","4","4","2","2","2","2","2","2","2","2","2","1","0","1","0","0","0","0","1","0","1","1","0","1","0","1","4","2","3","4","2","2","4","4","4","2","2","799015908117979137","亓","513","","","","","","","","","","","","","","","","","","","","","","","","","","","","","","","","","","","","","","","","","",""
"1648","<p style=""color:white; font-size: 35px;"">高效</p>","i","categorize-html","106","352260","0.0-6.0-0.0-6.0-1.23","4","4","4","4","3","4","4","4","1","4","5","4","3","4","4","5","5","4","4","4","2","2","2","2","2","2","2","2","2","1","0","1","0","0","0","0","1","0","1","1","0","1","0","1","4","2","3","4","2","2","4","4","4","2","2","799015908117979137","亓","513","","","","","","","","","","","","","","","","","","","true","3","3","ability","1648","positive","高效","","","","","","","","","","","","","","","","",""
"32069","
    <div class=""tag-bottom""><p>
    —— 任务4：对“自我/消极”词和“他人/积极”词分类 ——<p/>
    <span style=""color:#78DCE8""><b>与刚才的任务完全相同，请再次对这四类词语分类</b></span><p/>
    <span style=""color:#FFD866""><b>请根据上方标签的提示，尽可能正确并且快速地做出按键反应</b></span><p/>
    当按键错误时屏幕中会出现<span style=""color:red""> X </span>，需要按另一个键纠正才能继续<br/><p/>
    请把双手食指分别放在键盘的“E”键和“I”键上<p/>
    按<空格键>开始
    </p></div>"," ","html-keyboard-response","107","384331","0.0-6.0-0.0-7.0","4","4","4","4","3","4","4","4","1","4","5","4","3","4","4","5","5","4","4","4","2","2","2","2","2","2","2","2","2","1","0","1","0","0","0","0","1","0","1","1","0","1","0","1","4","2","3","4","2","2","4","4","4","2","2","799015908117979137","亓","513","","","","","","","","","","","","","","","","","","","","","","","","","","","","","","","","","","","","","","","","","",""
"null","","null","html-keyboard-response","108","384590","0.0-6.0-0.0-8.0-0.0","4","4","4","4","3","4","4","4","1","4","5","4","3","4","4","5","5","4","4","4","2","2","2","2","2","2","2","2","2","1","0","1","0","0","0","0","1","0","1","1","0","1","0","1","4","2","3","4","2","2","4","4","4","2","2","799015908117979137","亓","513","","","","","","","","","","","","","","","","","","","","","","","","","","","","","","","","","","","","","","","","","",""
"1061","<p style=""color:rgb(150, 250, 100); font-size: 35px;"">别人</p>","i","categorize-html","109","385654","0.0-6.0-0.0-8.0-1.0","4","4","4","4","3","4","4","4","1","4","5","4","3","4","4","5","5","4","4","4","2","2","2","2","2","2","2","2","2","1","0","1","0","0","0","0","1","0","1","1","0","1","0","1","4","2","3","4","2","2","4","4","4","2","2","799015908117979137","亓","513","","","","","","","","","","","","","","","","","","","true","4","4","ability","1061","other","别人","","","","","","","","","","","","","","","","",""
"null","","null","html-keyboard-response","110","385909","0.0-6.0-0.0-8.0-0.1","4","4","4","4","3","4","4","4","1","4","5","4","3","4","4","5","5","4","4","4","2","2","2","2","2","2","2","2","2","1","0","1","0","0","0","0","1","0","1","1","0","1","0","1","4","2","3","4","2","2","4","4","4","2","2","799015908117979137","亓","513","","","","","","","","","","","","","","","","","","","","","","","","","","","","","","","","","","","","","","","","","",""
"972","<p style=""color:white; font-size: 35px;"">低能</p>","e","categorize-html","111","386883","0.0-6.0-0.0-8.0-1.1","4","4","4","4","3","4","4","4","1","4","5","4","3","4","4","5","5","4","4","4","2","2","2","2","2","2","2","2","2","1","0","1","0","0","0","0","1","0","1","1","0","1","0","1","4","2","3","4","2","2","4","4","4","2","2","799015908117979137","亓","513","","","","","","","","","","","","","","","","","","","true","4","4","ability","972","negative","低能","","","","","","","","","","","","","","","","",""
"null","","null","html-keyboard-response","112","387141","0.0-6.0-0.0-8.0-0.2","4","4","4","4","3","4","4","4","1","4","5","4","3","4","4","5","5","4","4","4","2","2","2","2","2","2","2","2","2","1","0","1","0","0","0","0","1","0","1","1","0","1","0","1","4","2","3","4","2","2","4","4","4","2","2","799015908117979137","亓","513","","","","","","","","","","","","","","","","","","","","","","","","","","","","","","","","","","","","","","","","","",""
"733","<p style=""color:rgb(150, 250, 100); font-size: 35px;"">自己的</p>","e","categorize-html","113","387876","0.0-6.0-0.0-8.0-1.2","4","4","4","4","3","4","4","4","1","4","5","4","3","4","4","5","5","4","4","4","2","2","2","2","2","2","2","2","2","1","0","1","0","0","0","0","1","0","1","1","0","1","0","1","4","2","3","4","2","2","4","4","4","2","2","799015908117979137","亓","513","","","","","","","","","","","","","","","","","","","true","4","4","ability","733","self","自己的","","","","","","","","","","","","","","","","",""
"null","","null","html-keyboard-response","114","388141","0.0-6.0-0.0-8.0-0.3","4","4","4","4","3","4","4","4","1","4","5","4","3","4","4","5","5","4","4","4","2","2","2","2","2","2","2","2","2","1","0","1","0","0","0","0","1","0","1","1","0","1","0","1","4","2","3","4","2","2","4","4","4","2","2","799015908117979137","亓","513","","","","","","","","","","","","","","","","","","","","","","","","","","","","","","","","","","","","","","","","","",""
"1299","<p style=""color:white; font-size: 35px;"">全才</p>","i","categorize-html","115","389442","0.0-6.0-0.0-8.0-1.3","4","4","4","4","3","4","4","4","1","4","5","4","3","4","4","5","5","4","4","4","2","2","2","2","2","2","2","2","2","1","0","1","0","0","0","0","1","0","1","1","0","1","0","1","4","2","3","4","2","2","4","4","4","2","2","799015908117979137","亓","513","","","","","","","","","","","","","","","","","","","true","4","4","ability","1299","positive","全才","","","","","","","","","","","","","","","","",""
"null","","null","html-keyboard-response","116","389696","0.0-6.0-0.0-8.0-0.4","4","4","4","4","3","4","4","4","1","4","5","4","3","4","4","5","5","4","4","4","2","2","2","2","2","2","2","2","2","1","0","1","0","0","0","0","1","0","1","1","0","1","0","1","4","2","3","4","2","2","4","4","4","2","2","799015908117979137","亓","513","","","","","","","","","","","","","","","","","","","","","","","","","","","","","","","","","","","","","","","","","",""
"1421","<p style=""color:rgb(150, 250, 100); font-size: 35px;"">我</p>","e","categorize-html","117","391119","0.0-6.0-0.0-8.0-1.4","4","4","4","4","3","4","4","4","1","4","5","4","3","4","4","5","5","4","4","4","2","2","2","2","2","2","2","2","2","1","0","1","0","0","0","0","1","0","1","1","0","1","0","1","4","2","3","4","2","2","4","4","4","2","2","799015908117979137","亓","513","","","","","","","","","","","","","","","","","","","true","4","4","ability","1421","self","我","","","","","","","","","","","","","","","","",""
"null","","null","html-keyboard-response","118","391372","0.0-6.0-0.0-8.0-0.5","4","4","4","4","3","4","4","4","1","4","5","4","3","4","4","5","5","4","4","4","2","2","2","2","2","2","2","2","2","1","0","1","0","0","0","0","1","0","1","1","0","1","0","1","4","2","3","4","2","2","4","4","4","2","2","799015908117979137","亓","513","","","","","","","","","","","","","","","","","","","","","","","","","","","","","","","","","","","","","","","","","",""
"2553","<p style=""color:white; font-size: 35px;"">天才</p>","i","categorize-html","119","393927","0.0-6.0-0.0-8.0-1.5","4","4","4","4","3","4","4","4","1","4","5","4","3","4","4","5","5","4","4","4","2","2","2","2","2","2","2","2","2","1","0","1","0","0","0","0","1","0","1","1","0","1","0","1","4","2","3","4","2","2","4","4","4","2","2","799015908117979137","亓","513","","","","","","","","","","","","","","","","","","","true","4","4","ability","2553","positive","天才","","","","","","","","","","","","","","","","",""
"null","","null","html-keyboard-response","120","394181","0.0-6.0-0.0-8.0-0.6","4","4","4","4","3","4","4","4","1","4","5","4","3","4","4","5","5","4","4","4","2","2","2","2","2","2","2","2","2","1","0","1","0","0","0","0","1","0","1","1","0","1","0","1","4","2","3","4","2","2","4","4","4","2","2","799015908117979137","亓","513","","","","","","","","","","","","","","","","","","","","","","","","","","","","","","","","","","","","","","","","","",""
"1340","<p style=""color:rgb(150, 250, 100); font-size: 35px;"">他人</p>","i","categorize-html","121","395523","0.0-6.0-0.0-8.0-1.6","4","4","4","4","3","4","4","4","1","4","5","4","3","4","4","5","5","4","4","4","2","2","2","2","2","2","2","2","2","1","0","1","0","0","0","0","1","0","1","1","0","1","0","1","4","2","3","4","2","2","4","4","4","2","2","799015908117979137","亓","513","","","","","","","","","","","","","","","","","","","true","4","4","ability","1340","other","他人","","","","","","","","","","","","","","","","",""
"null","","null","html-keyboard-response","122","395778","0.0-6.0-0.0-8.0-0.7","4","4","4","4","3","4","4","4","1","4","5","4","3","4","4","5","5","4","4","4","2","2","2","2","2","2","2","2","2","1","0","1","0","0","0","0","1","0","1","1","0","1","0","1","4","2","3","4","2","2","4","4","4","2","2","799015908117979137","亓","513","","","","","","","","","","","","","","","","","","","","","","","","","","","","","","","","","","","","","","","","","",""
"1076","<p style=""color:white; font-size: 35px;"">拙笨</p>","e","categorize-html","123","396855","0.0-6.0-0.0-8.0-1.7","4","4","4","4","3","4","4","4","1","4","5","4","3","4","4","5","5","4","4","4","2","2","2","2","2","2","2","2","2","1","0","1","0","0","0","0","1","0","1","1","0","1","0","1","4","2","3","4","2","2","4","4","4","2","2","799015908117979137","亓","513","","","","","","","","","","","","","","","","","","","true","4","4","ability","1076","negative","拙笨","","","","","","","","","","","","","","","","",""
"null","","null","html-keyboard-response","124","397108","0.0-6.0-0.0-8.0-0.8","4","4","4","4","3","4","4","4","1","4","5","4","3","4","4","5","5","4","4","4","2","2","2","2","2","2","2","2","2","1","0","1","0","0","0","0","1","0","1","1","0","1","0","1","4","2","3","4","2","2","4","4","4","2","2","799015908117979137","亓","513","","","","","","","","","","","","","","","","","","","","","","","","","","","","","","","","","","","","","","","","","",""
"897","<p style=""color:rgb(150, 250, 100); font-size: 35px;"">本人</p>","e","categorize-html","125","398007","0.0-6.0-0.0-8.0-1.8","4","4","4","4","3","4","4","4","1","4","5","4","3","4","4","5","5","4","4","4","2","2","2","2","2","2","2","2","2","1","0","1","0","0","0","0","1","0","1","1","0","1","0","1","4","2","3","4","2","2","4","4","4","2","2","799015908117979137","亓","513","","","","","","","","","","","","","","","","","","","true","4","4","ability","897","self","本人","","","","","","","","","","","","","","","","",""
"null","","null","html-keyboard-response","126","398262","0.0-6.0-0.0-8.0-0.9","4","4","4","4","3","4","4","4","1","4","5","4","3","4","4","5","5","4","4","4","2","2","2","2","2","2","2","2","2","1","0","1","0","0","0","0","1","0","1","1","0","1","0","1","4","2","3","4","2","2","4","4","4","2","2","799015908117979137","亓","513","","","","","","","","","","","","","","","","","","","","","","","","","","","","","","","","","","","","","","","","","",""
"2458","<p style=""color:white; font-size: 35px;"">废物</p>","i","categorize-html","127","401449","0.0-6.0-0.0-8.0-1.9","4","4","4","4","3","4","4","4","1","4","5","4","3","4","4","5","5","4","4","4","2","2","2","2","2","2","2","2","2","1","0","1","0","0","0","0","1","0","1","1","0","1","0","1","4","2","3","4","2","2","4","4","4","2","2","799015908117979137","亓","513","","","","","","","","","","","","","","","","","","","false","4","4","ability","2011.2608695652175","negative","废物","","","","","","","","","","","","","","","","",""
"null","","null","html-keyboard-response","128","401706","0.0-6.0-0.0-8.0-0.10","4","4","4","4","3","4","4","4","1","4","5","4","3","4","4","5","5","4","4","4","2","2","2","2","2","2","2","2","2","1","0","1","0","0","0","0","1","0","1","1","0","1","0","1","4","2","3","4","2","2","4","4","4","2","2","799015908117979137","亓","513","","","","","","","","","","","","","","","","","","","","","","","","","","","","","","","","","","","","","","","","","",""
"1404","<p style=""color:rgb(150, 250, 100); font-size: 35px;"">别人的</p>","i","categorize-html","129","403112","0.0-6.0-0.0-8.0-1.10","4","4","4","4","3","4","4","4","1","4","5","4","3","4","4","5","5","4","4","4","2","2","2","2","2","2","2","2","2","1","0","1","0","0","0","0","1","0","1","1","0","1","0","1","4","2","3","4","2","2","4","4","4","2","2","799015908117979137","亓","513","","","","","","","","","","","","","","","","","","","true","4","4","ability","1404","other","别人的","","","","","","","","","","","","","","","","",""
"null","","null","html-keyboard-response","130","403371","0.0-6.0-0.0-8.0-0.11","4","4","4","4","3","4","4","4","1","4","5","4","3","4","4","5","5","4","4","4","2","2","2","2","2","2","2","2","2","1","0","1","0","0","0","0","1","0","1","1","0","1","0","1","4","2","3","4","2","2","4","4","4","2","2","799015908117979137","亓","513","","","","","","","","","","","","","","","","","","","","","","","","","","","","","","","","","","","","","","","","","",""
"1341","<p style=""color:white; font-size: 35px;"">精干</p>","i","categorize-html","131","404714","0.0-6.0-0.0-8.0-1.11","4","4","4","4","3","4","4","4","1","4","5","4","3","4","4","5","5","4","4","4","2","2","2","2","2","2","2","2","2","1","0","1","0","0","0","0","1","0","1","1","0","1","0","1","4","2","3","4","2","2","4","4","4","2","2","799015908117979137","亓","513","","","","","","","","","","","","","","","","","","","true","4","4","ability","1341","positive","精干","","","","","","","","","","","","","","","","",""
"null","","null","html-keyboard-response","132","404972","0.0-6.0-0.0-8.0-0.12","4","4","4","4","3","4","4","4","1","4","5","4","3","4","4","5","5","4","4","4","2","2","2","2","2","2","2","2","2","1","0","1","0","0","0","0","1","0","1","1","0","1","0","1","4","2","3","4","2","2","4","4","4","2","2","799015908117979137","亓","513","","","","","","","","","","","","","","","","","","","","","","","","","","","","","","","","","","","","","","","","","",""
"2038","<p style=""color:rgb(150, 250, 100); font-size: 35px;"">我</p>","e","categorize-html","133","407012","0.0-6.0-0.0-8.0-1.12","4","4","4","4","3","4","4","4","1","4","5","4","3","4","4","5","5","4","4","4","2","2","2","2","2","2","2","2","2","1","0","1","0","0","0","0","1","0","1","1","0","1","0","1","4","2","3","4","2","2","4","4","4","2","2","799015908117979137","亓","513","","","","","","","","","","","","","","","","","","","true","4","4","ability","2038","self","我","","","","","","","","","","","","","","","","",""
"null","","null","html-keyboard-response","134","407271","0.0-6.0-0.0-8.0-0.13","4","4","4","4","3","4","4","4","1","4","5","4","3","4","4","5","5","4","4","4","2","2","2","2","2","2","2","2","2","1","0","1","0","0","0","0","1","0","1","1","0","1","0","1","4","2","3","4","2","2","4","4","4","2","2","799015908117979137","亓","513","","","","","","","","","","","","","","","","","","","","","","","","","","","","","","","","","","","","","","","","","",""
"1909","<p style=""color:white; font-size: 35px;"">愚钝</p>","e","categorize-html","135","409185","0.0-6.0-0.0-8.0-1.13","4","4","4","4","3","4","4","4","1","4","5","4","3","4","4","5","5","4","4","4","2","2","2","2","2","2","2","2","2","1","0","1","0","0","0","0","1","0","1","1","0","1","0","1","4","2","3","4","2","2","4","4","4","2","2","799015908117979137","亓","513","","","","","","","","","","","","","","","","","","","true","4","4","ability","1909","negative","愚钝","","","","","","","","","","","","","","","","",""
"null","","null","html-keyboard-response","136","409443","0.0-6.0-0.0-8.0-0.14","4","4","4","4","3","4","4","4","1","4","5","4","3","4","4","5","5","4","4","4","2","2","2","2","2","2","2","2","2","1","0","1","0","0","0","0","1","0","1","1","0","1","0","1","4","2","3","4","2","2","4","4","4","2","2","799015908117979137","亓","513","","","","","","","","","","","","","","","","","","","","","","","","","","","","","","","","","","","","","","","","","",""
"1047","<p style=""color:rgb(150, 250, 100); font-size: 35px;"">他的</p>","i","categorize-html","137","410493","0.0-6.0-0.0-8.0-1.14","4","4","4","4","3","4","4","4","1","4","5","4","3","4","4","5","5","4","4","4","2","2","2","2","2","2","2","2","2","1","0","1","0","0","0","0","1","0","1","1","0","1","0","1","4","2","3","4","2","2","4","4","4","2","2","799015908117979137","亓","513","","","","","","","","","","","","","","","","","","","true","4","4","ability","1047","other","他的","","","","","","","","","","","","","","","","",""
"null","","null","html-keyboard-response","138","410751","0.0-6.0-0.0-8.0-0.15","4","4","4","4","3","4","4","4","1","4","5","4","3","4","4","5","5","4","4","4","2","2","2","2","2","2","2","2","2","1","0","1","0","0","0","0","1","0","1","1","0","1","0","1","4","2","3","4","2","2","4","4","4","2","2","799015908117979137","亓","513","","","","","","","","","","","","","","","","","","","","","","","","","","","","","","","","","","","","","","","","","",""
"1529","<p style=""color:white; font-size: 35px;"">全能</p>","i","categorize-html","139","412281","0.0-6.0-0.0-8.0-1.15","4","4","4","4","3","4","4","4","1","4","5","4","3","4","4","5","5","4","4","4","2","2","2","2","2","2","2","2","2","1","0","1","0","0","0","0","1","0","1","1","0","1","0","1","4","2","3","4","2","2","4","4","4","2","2","799015908117979137","亓","513","","","","","","","","","","","","","","","","","","","true","4","4","ability","1529","positive","全能","","","","","","","","","","","","","","","","",""
"null","","null","html-keyboard-response","140","412535","0.0-6.0-0.0-8.0-0.16","4","4","4","4","3","4","4","4","1","4","5","4","3","4","4","5","5","4","4","4","2","2","2","2","2","2","2","2","2","1","0","1","0","0","0","0","1","0","1","1","0","1","0","1","4","2","3","4","2","2","4","4","4","2","2","799015908117979137","亓","513","","","","","","","","","","","","","","","","","","","","","","","","","","","","","","","","","","","","","","","","","",""
"1315","<p style=""color:rgb(150, 250, 100); font-size: 35px;"">自己</p>","e","categorize-html","141","413852","0.0-6.0-0.0-8.0-1.16","4","4","4","4","3","4","4","4","1","4","5","4","3","4","4","5","5","4","4","4","2","2","2","2","2","2","2","2","2","1","0","1","0","0","0","0","1","0","1","1","0","1","0","1","4","2","3","4","2","2","4","4","4","2","2","799015908117979137","亓","513","","","","","","","","","","","","","","","","","","","true","4","4","ability","1315","self","自己","","","","","","","","","","","","","","","","",""
"null","","null","html-keyboard-response","142","414109","0.0-6.0-0.0-8.0-0.17","4","4","4","4","3","4","4","4","1","4","5","4","3","4","4","5","5","4","4","4","2","2","2","2","2","2","2","2","2","1","0","1","0","0","0","0","1","0","1","1","0","1","0","1","4","2","3","4","2","2","4","4","4","2","2","799015908117979137","亓","513","","","","","","","","","","","","","","","","","","","","","","","","","","","","","","","","","","","","","","","","","",""
"1682","<p style=""color:white; font-size: 35px;"">高效</p>","i","categorize-html","143","415792","0.0-6.0-0.0-8.0-1.17","4","4","4","4","3","4","4","4","1","4","5","4","3","4","4","5","5","4","4","4","2","2","2","2","2","2","2","2","2","1","0","1","0","0","0","0","1","0","1","1","0","1","0","1","4","2","3","4","2","2","4","4","4","2","2","799015908117979137","亓","513","","","","","","","","","","","","","","","","","","","true","4","4","ability","1682","positive","高效","","","","","","","","","","","","","","","","",""
"null","","null","html-keyboard-response","144","416044","0.0-6.0-0.0-8.0-0.18","4","4","4","4","3","4","4","4","1","4","5","4","3","4","4","5","5","4","4","4","2","2","2","2","2","2","2","2","2","1","0","1","0","0","0","0","1","0","1","1","0","1","0","1","4","2","3","4","2","2","4","4","4","2","2","799015908117979137","亓","513","","","","","","","","","","","","","","","","","","","","","","","","","","","","","","","","","","","","","","","","","",""
"946","<p style=""color:rgb(150, 250, 100); font-size: 35px;"">别人的</p>","i","categorize-html","145","416992","0.0-6.0-0.0-8.0-1.18","4","4","4","4","3","4","4","4","1","4","5","4","3","4","4","5","5","4","4","4","2","2","2","2","2","2","2","2","2","1","0","1","0","0","0","0","1","0","1","1","0","1","0","1","4","2","3","4","2","2","4","4","4","2","2","799015908117979137","亓","513","","","","","","","","","","","","","","","","","","","true","4","4","ability","946","other","别人的","","","","","","","","","","","","","","","","",""
"null","","null","html-keyboard-response","146","417243","0.0-6.0-0.0-8.0-0.19","4","4","4","4","3","4","4","4","1","4","5","4","3","4","4","5","5","4","4","4","2","2","2","2","2","2","2","2","2","1","0","1","0","0","0","0","1","0","1","1","0","1","0","1","4","2","3","4","2","2","4","4","4","2","2","799015908117979137","亓","513","","","","","","","","","","","","","","","","","","","","","","","","","","","","","","","","","","","","","","","","","",""
"980","<p style=""color:white; font-size: 35px;"">无能</p>","e","categorize-html","147","418225","0.0-6.0-0.0-8.0-1.19","4","4","4","4","3","4","4","4","1","4","5","4","3","4","4","5","5","4","4","4","2","2","2","2","2","2","2","2","2","1","0","1","0","0","0","0","1","0","1","1","0","1","0","1","4","2","3","4","2","2","4","4","4","2","2","799015908117979137","亓","513","","","","","","","","","","","","","","","","","","","true","4","4","ability","980","negative","无能","","","","","","","","","","","","","","","","",""
"null","","null","html-keyboard-response","148","418477","0.0-6.0-0.0-8.0-0.20","4","4","4","4","3","4","4","4","1","4","5","4","3","4","4","5","5","4","4","4","2","2","2","2","2","2","2","2","2","1","0","1","0","0","0","0","1","0","1","1","0","1","0","1","4","2","3","4","2","2","4","4","4","2","2","799015908117979137","亓","513","","","","","","","","","","","","","","","","","","","","","","","","","","","","","","","","","","","","","","","","","",""
"875","<p style=""color:rgb(150, 250, 100); font-size: 35px;"">他人的</p>","i","categorize-html","149","419354","0.0-6.0-0.0-8.0-1.20","4","4","4","4","3","4","4","4","1","4","5","4","3","4","4","5","5","4","4","4","2","2","2","2","2","2","2","2","2","1","0","1","0","0","0","0","1","0","1","1","0","1","0","1","4","2","3","4","2","2","4","4","4","2","2","799015908117979137","亓","513","","","","","","","","","","","","","","","","","","","true","4","4","ability","875","other","他人的","","","","","","","","","","","","","","","","",""
"null","","null","html-keyboard-response","150","419606","0.0-6.0-0.0-8.0-0.21","4","4","4","4","3","4","4","4","1","4","5","4","3","4","4","5","5","4","4","4","2","2","2","2","2","2","2","2","2","1","0","1","0","0","0","0","1","0","1","1","0","1","0","1","4","2","3","4","2","2","4","4","4","2","2","799015908117979137","亓","513","","","","","","","","","","","","","","","","","","","","","","","","","","","","","","","","","","","","","","","","","",""
"3503","<p style=""color:white; font-size: 35px;"">愚钝</p>","e","categorize-html","151","423111","0.0-6.0-0.0-8.0-1.21","4","4","4","4","3","4","4","4","1","4","5","4","3","4","4","5","5","4","4","4","2","2","2","2","2","2","2","2","2","1","0","1","0","0","0","0","1","0","1","1","0","1","0","1","4","2","3","4","2","2","4","4","4","2","2","799015908117979137","亓","513","","","","","","","","","","","","","","","","","","","true","4","4","ability","3503","negative","愚钝","","","","","","","","","","","","","","","","",""
"null","","null","html-keyboard-response","152","423370","0.0-6.0-0.0-8.0-0.22","4","4","4","4","3","4","4","4","1","4","5","4","3","4","4","5","5","4","4","4","2","2","2","2","2","2","2","2","2","1","0","1","0","0","0","0","1","0","1","1","0","1","0","1","4","2","3","4","2","2","4","4","4","2","2","799015908117979137","亓","513","","","","","","","","","","","","","","","","","","","","","","","","","","","","","","","","","","","","","","","","","",""
"1513","<p style=""color:rgb(150, 250, 100); font-size: 35px;"">本人</p>","e","categorize-html","153","424884","0.0-6.0-0.0-8.0-1.22","4","4","4","4","3","4","4","4","1","4","5","4","3","4","4","5","5","4","4","4","2","2","2","2","2","2","2","2","2","1","0","1","0","0","0","0","1","0","1","1","0","1","0","1","4","2","3","4","2","2","4","4","4","2","2","799015908117979137","亓","513","","","","","","","","","","","","","","","","","","","true","4","4","ability","1513","self","本人","","","","","","","","","","","","","","","","",""
"null","","null","html-keyboard-response","154","425141","0.0-6.0-0.0-8.0-0.23","4","4","4","4","3","4","4","4","1","4","5","4","3","4","4","5","5","4","4","4","2","2","2","2","2","2","2","2","2","1","0","1","0","0","0","0","1","0","1","1","0","1","0","1","4","2","3","4","2","2","4","4","4","2","2","799015908117979137","亓","513","","","","","","","","","","","","","","","","","","","","","","","","","","","","","","","","","","","","","","","","","",""
"1168","<p style=""color:white; font-size: 35px;"">能干</p>","i","categorize-html","155","426311","0.0-6.0-0.0-8.0-1.23","4","4","4","4","3","4","4","4","1","4","5","4","3","4","4","5","5","4","4","4","2","2","2","2","2","2","2","2","2","1","0","1","0","0","0","0","1","0","1","1","0","1","0","1","4","2","3","4","2","2","4","4","4","2","2","799015908117979137","亓","513","","","","","","","","","","","","","","","","","","","true","4","4","ability","1168","positive","能干","","","","","","","","","","","","","","","","",""
"null","","null","html-keyboard-response","156","426564","0.0-6.0-0.0-8.0-0.24","4","4","4","4","3","4","4","4","1","4","5","4","3","4","4","5","5","4","4","4","2","2","2","2","2","2","2","2","2","1","0","1","0","0","0","0","1","0","1","1","0","1","0","1","4","2","3","4","2","2","4","4","4","2","2","799015908117979137","亓","513","","","","","","","","","","","","","","","","","","","","","","","","","","","","","","","","","","","","","","","","","",""
"877","<p style=""color:rgb(150, 250, 100); font-size: 35px;"">本人的</p>","e","categorize-html","157","427443","0.0-6.0-0.0-8.0-1.24","4","4","4","4","3","4","4","4","1","4","5","4","3","4","4","5","5","4","4","4","2","2","2","2","2","2","2","2","2","1","0","1","0","0","0","0","1","0","1","1","0","1","0","1","4","2","3","4","2","2","4","4","4","2","2","799015908117979137","亓","513","","","","","","","","","","","","","","","","","","","true","4","4","ability","877","self","本人的","","","","","","","","","","","","","","","","",""
"null","","null","html-keyboard-response","158","427698","0.0-6.0-0.0-8.0-0.25","4","4","4","4","3","4","4","4","1","4","5","4","3","4","4","5","5","4","4","4","2","2","2","2","2","2","2","2","2","1","0","1","0","0","0","0","1","0","1","1","0","1","0","1","4","2","3","4","2","2","4","4","4","2","2","799015908117979137","亓","513","","","","","","","","","","","","","","","","","","","","","","","","","","","","","","","","","","","","","","","","","",""
"1032","<p style=""color:white; font-size: 35px;"">废物</p>","e","categorize-html","159","428733","0.0-6.0-0.0-8.0-1.25","4","4","4","4","3","4","4","4","1","4","5","4","3","4","4","5","5","4","4","4","2","2","2","2","2","2","2","2","2","1","0","1","0","0","0","0","1","0","1","1","0","1","0","1","4","2","3","4","2","2","4","4","4","2","2","799015908117979137","亓","513","","","","","","","","","","","","","","","","","","","true","4","4","ability","1032","negative","废物","","","","","","","","","","","","","","","","",""
"null","","null","html-keyboard-response","160","428990","0.0-6.0-0.0-8.0-0.26","4","4","4","4","3","4","4","4","1","4","5","4","3","4","4","5","5","4","4","4","2","2","2","2","2","2","2","2","2","1","0","1","0","0","0","0","1","0","1","1","0","1","0","1","4","2","3","4","2","2","4","4","4","2","2","799015908117979137","亓","513","","","","","","","","","","","","","","","","","","","","","","","","","","","","","","","","","","","","","","","","","",""
"724","<p style=""color:rgb(150, 250, 100); font-size: 35px;"">他人</p>","i","categorize-html","161","429716","0.0-6.0-0.0-8.0-1.26","4","4","4","4","3","4","4","4","1","4","5","4","3","4","4","5","5","4","4","4","2","2","2","2","2","2","2","2","2","1","0","1","0","0","0","0","1","0","1","1","0","1","0","1","4","2","3","4","2","2","4","4","4","2","2","799015908117979137","亓","513","","","","","","","","","","","","","","","","","","","true","4","4","ability","724","other","他人","","","","","","","","","","","","","","","","",""
"null","","null","html-keyboard-response","162","429967","0.0-6.0-0.0-8.0-0.27","4","4","4","4","3","4","4","4","1","4","5","4","3","4","4","5","5","4","4","4","2","2","2","2","2","2","2","2","2","1","0","1","0","0","0","0","1","0","1","1","0","1","0","1","4","2","3","4","2","2","4","4","4","2","2","799015908117979137","亓","513","","","","","","","","","","","","","","","","","","","","","","","","","","","","","","","","","","","","","","","","","",""
"842","<p style=""color:white; font-size: 35px;"">能干</p>","e","categorize-html","163","431294","0.0-6.0-0.0-8.0-1.27","4","4","4","4","3","4","4","4","1","4","5","4","3","4","4","5","5","4","4","4","2","2","2","2","2","2","2","2","2","1","0","1","0","0","0","0","1","0","1","1","0","1","0","1","4","2","3","4","2","2","4","4","4","2","2","799015908117979137","亓","513","","","","","","","","","","","","","","","","","","","false","4","4","ability","2011.2608695652175","positive","能干","","","","","","","","","","","","","","","","",""
"null","","null","html-keyboard-response","164","431553","0.0-6.0-0.0-8.0-0.28","4","4","4","4","3","4","4","4","1","4","5","4","3","4","4","5","5","4","4","4","2","2","2","2","2","2","2","2","2","1","0","1","0","0","0","0","1","0","1","1","0","1","0","1","4","2","3","4","2","2","4","4","4","2","2","799015908117979137","亓","513","","","","","","","","","","","","","","","","","","","","","","","","","","","","","","","","","","","","","","","","","",""
"1112","<p style=""color:rgb(150, 250, 100); font-size: 35px;"">本人的</p>","e","categorize-html","165","432667","0.0-6.0-0.0-8.0-1.28","4","4","4","4","3","4","4","4","1","4","5","4","3","4","4","5","5","4","4","4","2","2","2","2","2","2","2","2","2","1","0","1","0","0","0","0","1","0","1","1","0","1","0","1","4","2","3","4","2","2","4","4","4","2","2","799015908117979137","亓","513","","","","","","","","","","","","","","","","","","","true","4","4","ability","1112","self","本人的","","","","","","","","","","","","","","","","",""
"null","","null","html-keyboard-response","166","432921","0.0-6.0-0.0-8.0-0.29","4","4","4","4","3","4","4","4","1","4","5","4","3","4","4","5","5","4","4","4","2","2","2","2","2","2","2","2","2","1","0","1","0","0","0","0","1","0","1","1","0","1","0","1","4","2","3","4","2","2","4","4","4","2","2","799015908117979137","亓","513","","","","","","","","","","","","","","","","","","","","","","","","","","","","","","","","","","","","","","","","","",""
"1407","<p style=""color:white; font-size: 35px;"">蠢笨</p>","e","categorize-html","167","434330","0.0-6.0-0.0-8.0-1.29","4","4","4","4","3","4","4","4","1","4","5","4","3","4","4","5","5","4","4","4","2","2","2","2","2","2","2","2","2","1","0","1","0","0","0","0","1","0","1","1","0","1","0","1","4","2","3","4","2","2","4","4","4","2","2","799015908117979137","亓","513","","","","","","","","","","","","","","","","","","","true","4","4","ability","1407","negative","蠢笨","","","","","","","","","","","","","","","","",""
"null","","null","html-keyboard-response","168","434588","0.0-6.0-0.0-8.0-0.30","4","4","4","4","3","4","4","4","1","4","5","4","3","4","4","5","5","4","4","4","2","2","2","2","2","2","2","2","2","1","0","1","0","0","0","0","1","0","1","1","0","1","0","1","4","2","3","4","2","2","4","4","4","2","2","799015908117979137","亓","513","","","","","","","","","","","","","","","","","","","","","","","","","","","","","","","","","","","","","","","","","",""
"2043","<p style=""color:rgb(150, 250, 100); font-size: 35px;"">他人的</p>","i","categorize-html","169","436633","0.0-6.0-0.0-8.0-1.30","4","4","4","4","3","4","4","4","1","4","5","4","3","4","4","5","5","4","4","4","2","2","2","2","2","2","2","2","2","1","0","1","0","0","0","0","1","0","1","1","0","1","0","1","4","2","3","4","2","2","4","4","4","2","2","799015908117979137","亓","513","","","","","","","","","","","","","","","","","","","true","4","4","ability","2043","other","他人的","","","","","","","","","","","","","","","","",""
"null","","null","html-keyboard-response","170","436891","0.0-6.0-0.0-8.0-0.31","4","4","4","4","3","4","4","4","1","4","5","4","3","4","4","5","5","4","4","4","2","2","2","2","2","2","2","2","2","1","0","1","0","0","0","0","1","0","1","1","0","1","0","1","4","2","3","4","2","2","4","4","4","2","2","799015908117979137","亓","513","","","","","","","","","","","","","","","","","","","","","","","","","","","","","","","","","","","","","","","","","",""
"1208","<p style=""color:white; font-size: 35px;"">全才</p>","i","categorize-html","171","438101","0.0-6.0-0.0-8.0-1.31","4","4","4","4","3","4","4","4","1","4","5","4","3","4","4","5","5","4","4","4","2","2","2","2","2","2","2","2","2","1","0","1","0","0","0","0","1","0","1","1","0","1","0","1","4","2","3","4","2","2","4","4","4","2","2","799015908117979137","亓","513","","","","","","","","","","","","","","","","","","","true","4","4","ability","1208","positive","全才","","","","","","","","","","","","","","","","",""
"null","","null","html-keyboard-response","172","438353","0.0-6.0-0.0-8.0-0.32","4","4","4","4","3","4","4","4","1","4","5","4","3","4","4","5","5","4","4","4","2","2","2","2","2","2","2","2","2","1","0","1","0","0","0","0","1","0","1","1","0","1","0","1","4","2","3","4","2","2","4","4","4","2","2","799015908117979137","亓","513","","","","","","","","","","","","","","","","","","","","","","","","","","","","","","","","","","","","","","","","","",""
"1450","<p style=""color:rgb(150, 250, 100); font-size: 35px;"">我的</p>","e","categorize-html","173","439807","0.0-6.0-0.0-8.0-1.32","4","4","4","4","3","4","4","4","1","4","5","4","3","4","4","5","5","4","4","4","2","2","2","2","2","2","2","2","2","1","0","1","0","0","0","0","1","0","1","1","0","1","0","1","4","2","3","4","2","2","4","4","4","2","2","799015908117979137","亓","513","","","","","","","","","","","","","","","","","","","true","4","4","ability","1450","self","我的","","","","","","","","","","","","","","","","",""
"null","","null","html-keyboard-response","174","440059","0.0-6.0-0.0-8.0-0.33","4","4","4","4","3","4","4","4","1","4","5","4","3","4","4","5","5","4","4","4","2","2","2","2","2","2","2","2","2","1","0","1","0","0","0","0","1","0","1","1","0","1","0","1","4","2","3","4","2","2","4","4","4","2","2","799015908117979137","亓","513","","","","","","","","","","","","","","","","","","","","","","","","","","","","","","","","","","","","","","","","","",""
"2263","<p style=""color:white; font-size: 35px;"">蠢笨</p>","e","categorize-html","175","442324","0.0-6.0-0.0-8.0-1.33","4","4","4","4","3","4","4","4","1","4","5","4","3","4","4","5","5","4","4","4","2","2","2","2","2","2","2","2","2","1","0","1","0","0","0","0","1","0","1","1","0","1","0","1","4","2","3","4","2","2","4","4","4","2","2","799015908117979137","亓","513","","","","","","","","","","","","","","","","","","","true","4","4","ability","2263","negative","蠢笨","","","","","","","","","","","","","","","","",""
"null","","null","html-keyboard-response","176","442581","0.0-6.0-0.0-8.0-0.34","4","4","4","4","3","4","4","4","1","4","5","4","3","4","4","5","5","4","4","4","2","2","2","2","2","2","2","2","2","1","0","1","0","0","0","0","1","0","1","1","0","1","0","1","4","2","3","4","2","2","4","4","4","2","2","799015908117979137","亓","513","","","","","","","","","","","","","","","","","","","","","","","","","","","","","","","","","","","","","","","","","",""
"795","<p style=""color:rgb(150, 250, 100); font-size: 35px;"">他</p>","i","categorize-html","177","443377","0.0-6.0-0.0-8.0-1.34","4","4","4","4","3","4","4","4","1","4","5","4","3","4","4","5","5","4","4","4","2","2","2","2","2","2","2","2","2","1","0","1","0","0","0","0","1","0","1","1","0","1","0","1","4","2","3","4","2","2","4","4","4","2","2","799015908117979137","亓","513","","","","","","","","","","","","","","","","","","","true","4","4","ability","795","other","他","","","","","","","","","","","","","","","","",""
"null","","null","html-keyboard-response","178","443631","0.0-6.0-0.0-8.0-0.35","4","4","4","4","3","4","4","4","1","4","5","4","3","4","4","5","5","4","4","4","2","2","2","2","2","2","2","2","2","1","0","1","0","0","0","0","1","0","1","1","0","1","0","1","4","2","3","4","2","2","4","4","4","2","2","799015908117979137","亓","513","","","","","","","","","","","","","","","","","","","","","","","","","","","","","","","","","","","","","","","","","",""
"983","<p style=""color:white; font-size: 35px;"">精干</p>","i","categorize-html","179","444616","0.0-6.0-0.0-8.0-1.35","4","4","4","4","3","4","4","4","1","4","5","4","3","4","4","5","5","4","4","4","2","2","2","2","2","2","2","2","2","1","0","1","0","0","0","0","1","0","1","1","0","1","0","1","4","2","3","4","2","2","4","4","4","2","2","799015908117979137","亓","513","","","","","","","","","","","","","","","","","","","true","4","4","ability","983","positive","精干","","","","","","","","","","","","","","","","",""
"null","","null","html-keyboard-response","180","444898","0.0-6.0-0.0-8.0-0.36","4","4","4","4","3","4","4","4","1","4","5","4","3","4","4","5","5","4","4","4","2","2","2","2","2","2","2","2","2","1","0","1","0","0","0","0","1","0","1","1","0","1","0","1","4","2","3","4","2","2","4","4","4","2","2","799015908117979137","亓","513","","","","","","","","","","","","","","","","","","","","","","","","","","","","","","","","","","","","","","","","","",""
"1345","<p style=""color:rgb(150, 250, 100); font-size: 35px;"">自己的</p>","e","categorize-html","181","446245","0.0-6.0-0.0-8.0-1.36","4","4","4","4","3","4","4","4","1","4","5","4","3","4","4","5","5","4","4","4","2","2","2","2","2","2","2","2","2","1","0","1","0","0","0","0","1","0","1","1","0","1","0","1","4","2","3","4","2","2","4","4","4","2","2","799015908117979137","亓","513","","","","","","","","","","","","","","","","","","","true","4","4","ability","1345","self","自己的","","","","","","","","","","","","","","","","",""
"null","","null","html-keyboard-response","182","446497","0.0-6.0-0.0-8.0-0.37","4","4","4","4","3","4","4","4","1","4","5","4","3","4","4","5","5","4","4","4","2","2","2","2","2","2","2","2","2","1","0","1","0","0","0","0","1","0","1","1","0","1","0","1","4","2","3","4","2","2","4","4","4","2","2","799015908117979137","亓","513","","","","","","","","","","","","","","","","","","","","","","","","","","","","","","","","","","","","","","","","","",""
"872","<p style=""color:white; font-size: 35px;"">高效</p>","i","categorize-html","183","447374","0.0-6.0-0.0-8.0-1.37","4","4","4","4","3","4","4","4","1","4","5","4","3","4","4","5","5","4","4","4","2","2","2","2","2","2","2","2","2","1","0","1","0","0","0","0","1","0","1","1","0","1","0","1","4","2","3","4","2","2","4","4","4","2","2","799015908117979137","亓","513","","","","","","","","","","","","","","","","","","","true","4","4","ability","872","positive","高效","","","","","","","","","","","","","","","","",""
"null","","null","html-keyboard-response","184","447631","0.0-6.0-0.0-8.0-0.38","4","4","4","4","3","4","4","4","1","4","5","4","3","4","4","5","5","4","4","4","2","2","2","2","2","2","2","2","2","1","0","1","0","0","0","0","1","0","1","1","0","1","0","1","4","2","3","4","2","2","4","4","4","2","2","799015908117979137","亓","513","","","","","","","","","","","","","","","","","","","","","","","","","","","","","","","","","","","","","","","","","",""
"1080","<p style=""color:rgb(150, 250, 100); font-size: 35px;"">他</p>","i","categorize-html","185","448712","0.0-6.0-0.0-8.0-1.38","4","4","4","4","3","4","4","4","1","4","5","4","3","4","4","5","5","4","4","4","2","2","2","2","2","2","2","2","2","1","0","1","0","0","0","0","1","0","1","1","0","1","0","1","4","2","3","4","2","2","4","4","4","2","2","799015908117979137","亓","513","","","","","","","","","","","","","","","","","","","true","4","4","ability","1080","other","他","","","","","","","","","","","","","","","","",""
"null","","null","html-keyboard-response","186","448970","0.0-6.0-0.0-8.0-0.39","4","4","4","4","3","4","4","4","1","4","5","4","3","4","4","5","5","4","4","4","2","2","2","2","2","2","2","2","2","1","0","1","0","0","0","0","1","0","1","1","0","1","0","1","4","2","3","4","2","2","4","4","4","2","2","799015908117979137","亓","513","","","","","","","","","","","","","","","","","","","","","","","","","","","","","","","","","","","","","","","","","",""
"989","<p style=""color:white; font-size: 35px;"">低能</p>","e","categorize-html","187","449964","0.0-6.0-0.0-8.0-1.39","4","4","4","4","3","4","4","4","1","4","5","4","3","4","4","5","5","4","4","4","2","2","2","2","2","2","2","2","2","1","0","1","0","0","0","0","1","0","1","1","0","1","0","1","4","2","3","4","2","2","4","4","4","2","2","799015908117979137","亓","513","","","","","","","","","","","","","","","","","","","true","4","4","ability","989","negative","低能","","","","","","","","","","","","","","","","",""
"null","","null","html-keyboard-response","188","450223","0.0-6.0-0.0-8.0-0.40","4","4","4","4","3","4","4","4","1","4","5","4","3","4","4","5","5","4","4","4","2","2","2","2","2","2","2","2","2","1","0","1","0","0","0","0","1","0","1","1","0","1","0","1","4","2","3","4","2","2","4","4","4","2","2","799015908117979137","亓","513","","","","","","","","","","","","","","","","","","","","","","","","","","","","","","","","","","","","","","","","","",""
"1434","<p style=""color:rgb(150, 250, 100); font-size: 35px;"">自己</p>","e","categorize-html","189","451659","0.0-6.0-0.0-8.0-1.40","4","4","4","4","3","4","4","4","1","4","5","4","3","4","4","5","5","4","4","4","2","2","2","2","2","2","2","2","2","1","0","1","0","0","0","0","1","0","1","1","0","1","0","1","4","2","3","4","2","2","4","4","4","2","2","799015908117979137","亓","513","","","","","","","","","","","","","","","","","","","true","4","4","ability","1434","self","自己","","","","","","","","","","","","","","","","",""
"null","","null","html-keyboard-response","190","451910","0.0-6.0-0.0-8.0-0.41","4","4","4","4","3","4","4","4","1","4","5","4","3","4","4","5","5","4","4","4","2","2","2","2","2","2","2","2","2","1","0","1","0","0","0","0","1","0","1","1","0","1","0","1","4","2","3","4","2","2","4","4","4","2","2","799015908117979137","亓","513","","","","","","","","","","","","","","","","","","","","","","","","","","","","","","","","","","","","","","","","","",""
"2294","<p style=""color:white; font-size: 35px;"">天才</p>","i","categorize-html","191","454206","0.0-6.0-0.0-8.0-1.41","4","4","4","4","3","4","4","4","1","4","5","4","3","4","4","5","5","4","4","4","2","2","2","2","2","2","2","2","2","1","0","1","0","0","0","0","1","0","1","1","0","1","0","1","4","2","3","4","2","2","4","4","4","2","2","799015908117979137","亓","513","","","","","","","","","","","","","","","","","","","true","4","4","ability","2294","positive","天才","","","","","","","","","","","","","","","","",""
"null","","null","html-keyboard-response","192","454462","0.0-6.0-0.0-8.0-0.42","4","4","4","4","3","4","4","4","1","4","5","4","3","4","4","5","5","4","4","4","2","2","2","2","2","2","2","2","2","1","0","1","0","0","0","0","1","0","1","1","0","1","0","1","4","2","3","4","2","2","4","4","4","2","2","799015908117979137","亓","513","","","","","","","","","","","","","","","","","","","","","","","","","","","","","","","","","","","","","","","","","",""
