"rt","stimulus","response","trial_type","trial_index","time_elapsed","internal_node_id","ses_1","ses_2","ses_3","ses_4","ses_5","ses_6","ses_7","ses_8","ses_9","ses_10","coreself_1","coreself_2","coreself_3","coreself_4","coreself_5","coreself_6","coreself_7","coreself_8","coreself_9","coreself_10","SGPS_1","SGPS_2","SGPS_3","SGPS_4","SGPS_5","SGPS_6","SGPS_7","SGPS_8","SGPS_9","NPI1","NPI2","NPI3","NPI4","NPI5","NPI6","NPI7","NPI8","NPI9","NPI10","NPI11","NPI12","NPI13","NPI14","NPI15","hsns_1","hsns_2","hsns_3","hsns_4","hsns_5","trap1","hsns_6","hsns_7","hsns_8","hsns_9","hsns_10","subj_idx","friend_name","ParticipantID","value","success","user_agent","responses","item_order","radio_event_ids","radio_event_times","key_event_times","mouse_event_times","straightlining","zigzagging","honeypot","timeout","failed_images","failed_audio","failed_video","view_history","response_type","key_press","avg_frame_time","center_x","center_y","correct_response","correct","identity","Image","word","condition","task_id","screen_id","time_stamp","version_attrib","version_target","IAT","RT","varname","summary","version_attrib2","version_target2","question_order","correct_answer","trap1_item"
"26216","
   <p><div style = ""color: white;font-size:25px;"">您好，欢迎参加本次实验。</div> </p>
   <p><div style = ""color: white;font-size:25px;"">为充分保障您的权利，请确保您已经知晓并同意《参与实验同意书》以及《数据公开知情同意书》。</div></p>
   <p><div style = ""color: white;font-size:25px;"">如果您未见过上述内容，请咨询实验员。</div></p>
   <p><div style = ""color: white;font-size:25px;"">如果您选择继续实验，则表示您已经清楚两份知情同意书的内容并同意。</div></p>
   <p><div style = ""color: pink;font-size:30px;"">请确保您记得day0的实验编号，您将在本次实验输入该编号，若您忘记，请咨询实验员后作答。</div></p>
   <p><div style = ""color: lightblue;font-size:25px;"">请您尽可能认真地作答，我们将依据您在各问卷和按键任务中的作答质量发放报酬。</div></p>
   <p> <div style = ""color: green;font-size:25px;""><按空格键至下页></div> </p>
   "," ","html-keyboard-response","0","26221","0.0-0.0","2","2","2","2","2","2","2","2","2","2","2","2","2","2","2","2","1","2","2","2","4","5","4","4","4","4","4","2","4","1","0","1","1","0","0","1","1","0","1","1","0","1","0","1","2","4","4","5","3","2","1","2","2","3","2","772080972635312129","文","89","","","","","","","","","","","","","","","","","","","","","","","","","","","","","","","","","","","","","","","","","",""
"","","","call-function","1","26224","0.0-1.0-0.0","2","2","2","2","2","2","2","2","2","2","2","2","2","2","2","2","1","2","2","2","4","5","4","4","4","4","4","2","4","1","0","1","1","0","0","1","1","0","1","1","0","1","0","1","2","4","4","5","3","2","1","2","2","3","2","772080972635312129","文","89","","","","","","","","","","","","","","","","","","","","","","","","","","","","","","","","","","","","","","","","","",""
"38328","","{""friend_name"":""文"",""ParticipantID"":""89""}","survey-html-form","2","64553","0.0-1.0-1.0","2","2","2","2","2","2","2","2","2","2","2","2","2","2","2","2","1","2","2","2","4","5","4","4","4","4","4","2","4","1","0","1","1","0","0","1","1","0","1","1","0","1","0","1","2","4","4","5","3","2","1","2","2","3","2","772080972635312129","文","89","","","","","","","","","","","","","","","","","","","","","","","","","","","","","","","","","","","","","","","","","",""
"","","","fullscreen","3","121211","0.0-2.0","2","2","2","2","2","2","2","2","2","2","2","2","2","2","2","2","1","2","2","2","4","5","4","4","4","4","4","2","4","1","0","1","1","0","0","1","1","0","1","1","0","1","0","1","2","4","4","5","3","2","1","2","2","3","2","772080972635312129","文","89","","true","","","","","","","","","","","","","","","","","","","","","","","","","","","","","","","","","","","","","","","",""
"104142.36500000698","","{""Q01"":""2"",""Q02"":""2"",""Q03"":""2"",""Q04"":""2"",""Q05"":""2"",""Q06"":""2"",""Q07"":""2"",""Q08"":""2"",""Q09"":""2"",""Q10"":""2""}","survey-template","4","225363","0.0-3.0","2","2","2","2","2","2","2","2","2","2","2","2","2","2","2","2","1","2","2","2","4","5","4","4","4","4","4","2","4","1","0","1","1","0","0","1","1","0","1","1","0","1","0","1","2","4","4","5","3","2","1","2","2","3","2","772080972635312129","文","89","","","","{""Q01"":""2"",""Q02"":""2"",""Q03"":""2"",""Q04"":""2"",""Q05"":""2"",""Q06"":""2"",""Q07"":""2"",""Q08"":""2"",""Q09"":""2"",""Q10"":""2""}","[0,1,2,3,4,5,6,7,8,9]","[""Q01"",""Q04"",""Q05"",""Q06"",""Q03"",""Q02"",""Q07"",""Q08"",""Q09"",""Q10"",""Q02""]","[43269.59500000521,59213.750000009895,61422.14500000409,64613.649999999325,66678.04500000784,69357.88999999932,72237.67500001122,74478.35000000487,76645.64000000246,80437.96500000462,89438.15500001074]","[]","[41373.950000008335,43269.59500000521,59213.750000009895,61422.14500000409,64613.649999999325,66678.04500000784,69357.88999999932,72237.67500001122,74478.35000000487,76645.64000000246,80437.96500000462,89438.15500001074,104142.01999999932]","0.5","0.5555555555555556","0","","","","","","","","","","","","","","","","","","","","","","","","","","","","","",""
"56584.975000005215","","{""Q01"":""2"",""Q02"":""2"",""Q03"":""2"",""Q04"":""2"",""Q05"":""2"",""Q06"":""2"",""Q07"":""1"",""Q08"":""2"",""Q09"":""2"",""Q10"":""2""}","survey-template","5","281964","0.0-4.0","2","2","2","2","2","2","2","2","2","2","2","2","2","2","2","2","1","2","2","2","4","5","4","4","4","4","4","2","4","1","0","1","1","0","0","1","1","0","1","1","0","1","0","1","2","4","4","5","3","2","1","2","2","3","2","772080972635312129","文","89","","","","{""Q01"":""2"",""Q02"":""2"",""Q03"":""2"",""Q04"":""2"",""Q05"":""2"",""Q06"":""2"",""Q07"":""1"",""Q08"":""2"",""Q09"":""2"",""Q10"":""2""}","[0,1,2,3,4,5,6,7,8,9]","[""Q01"",""Q02"",""Q03"",""Q04"",""Q05"",""Q06"",""Q07"",""Q08"",""Q09"",""Q10""]","[7279.3950000050245,9054.705000002286,12431.414999999106,14903.659999996307,19251.99999999313,22183.539999998175,25175.45500000415,29047.669999999925,33159.090000001015,34529.039999993984]","[]","[7279.3950000050245,9054.705000002286,12431.414999999106,14903.659999996307,19251.99999999313,21159.2149999924,22183.539999998175,25175.45500000415,29047.669999999925,31439.704999997048,33159.090000001015,34529.039999993984,56584.91999999387]","0.5","0.1111111111111111","0","","","","","","","","","","","","","","","","","","","","","","","","","","","","","",""
"","","","preload","6","282361","0.0-5.0","2","2","2","2","2","2","2","2","2","2","2","2","2","2","2","2","1","2","2","2","4","5","4","4","4","4","4","2","4","1","0","1","1","0","0","1","1","0","1","1","0","1","0","1","2","4","4","5","3","2","1","2","2","3","2","772080972635312129","文","89","","true","","","","","","","","","","","false","[]","[]","[]","","","","","","","","","","","","","","","","","","","","","","","","","",""
"37776","","","instructions","7","320138","0.0-6.0","2","2","2","2","2","2","2","2","2","2","2","2","2","2","2","2","1","2","2","2","4","5","4","4","4","4","4","2","4","1","0","1","1","0","0","1","1","0","1","1","0","1","0","1","2","4","4","5","3","2","1","2","2","3","2","772080972635312129","文","89","","","","","","","","","","","","","","","","","[{""page_index"":0,""viewing_time"":37774}]","","","","","","","","","","","","","","","","","","","","","","","","",""
"64412","","","instructions","8","384553","0.0-7.0-1.0-0.0","2","2","2","2","2","2","2","2","2","2","2","2","2","2","2","2","1","2","2","2","4","5","4","4","4","4","4","2","4","1","0","1","1","0","0","1","1","0","1","1","0","1","0","1","2","4","4","5","3","2","1","2","2","3","2","772080972635312129","文","89","","","","","","","","","","","","","","","","","[{""page_index"":0,""viewing_time"":38940},{""page_index"":1,""viewing_time"":21896},{""page_index"":2,""viewing_time"":3575}]","","","","","","","","","","","","","","","","","","","","","","","","",""
"null","","null","psychophysics","9","386765","0.0-7.0-1.0-1.0-0.0-0.0","2","2","2","2","2","2","2","2","2","2","2","2","2","2","2","2","1","2","2","2","4","5","4","4","4","4","4","2","4","1","0","1","1","0","0","1","1","0","1","1","0","1","0","1","2","4","4","5","3","2","1","2","2","3","2","772080972635312129","文","89","","","","null","","","","","","","","","","","","","","key","null","16.92438281249997","684","381","j","false","match","img/diamond.png","菱形","菱形","ALT1_2","prac_ALT1_2","","","","","","","","","","","",""
"null","<span class='add_' style='color:yellow; font-size: 70px;'> 太慢! </span>","null","html-keyboard-response","10","387268","0.0-7.0-1.0-1.0-0.0-1.0","2","2","2","2","2","2","2","2","2","2","2","2","2","2","2","2","1","2","2","2","4","5","4","4","4","4","4","2","4","1","0","1","1","0","0","1","1","0","1","1","0","1","0","1","2","4","4","5","3","2","1","2","2","3","2","772080972635312129","文","89","","","","","","","","","","","","","","","","","","","","","","","","","","","","","","feedback_test","","","","","","","","","","","",""
"null","","null","psychophysics","11","389474","0.0-7.0-1.0-1.0-0.0-0.1","2","2","2","2","2","2","2","2","2","2","2","2","2","2","2","2","1","2","2","2","4","5","4","4","4","4","4","2","4","1","0","1","1","0","0","1","1","0","1","1","0","1","0","1","2","4","4","5","3","2","1","2","2","3","2","772080972635312129","文","89","","","","null","","","","","","","","","","","","","","key","null","16.663022900763135","684","381","j","false","match","img/ellipse.png","椭圆","椭圆","ALT1_2","prac_ALT1_2","","","","","","","","","","","",""
"null","<span class='add_' style='color:yellow; font-size: 70px;'> 太慢! </span>","null","html-keyboard-response","12","389976","0.0-7.0-1.0-1.0-0.0-1.1","2","2","2","2","2","2","2","2","2","2","2","2","2","2","2","2","1","2","2","2","4","5","4","4","4","4","4","2","4","1","0","1","1","0","0","1","1","0","1","1","0","1","0","1","2","4","4","5","3","2","1","2","2","3","2","772080972635312129","文","89","","","","","","","","","","","","","","","","","","","","","","","","","","","","","","feedback_test","","","","","","","","","","","",""
"null","","null","psychophysics","13","392182","0.0-7.0-1.0-1.0-0.0-0.2","2","2","2","2","2","2","2","2","2","2","2","2","2","2","2","2","1","2","2","2","4","5","4","4","4","4","4","2","4","1","0","1","1","0","0","1","1","0","1","1","0","1","0","1","2","4","4","5","3","2","1","2","2","3","2","772080972635312129","文","89","","","","null","","","","","","","","","","","","","","key","null","16.663740458015354","684","381","f","false","nonmatch","img/hexagon.png","椭圆","六边","ALT1_2","prac_ALT1_2","","","","","","","","","","","",""
"null","<span class='add_' style='color:yellow; font-size: 70px;'> 太慢! </span>","null","html-keyboard-response","14","392688","0.0-7.0-1.0-1.0-0.0-1.2","2","2","2","2","2","2","2","2","2","2","2","2","2","2","2","2","1","2","2","2","4","5","4","4","4","4","4","2","4","1","0","1","1","0","0","1","1","0","1","1","0","1","0","1","2","4","4","5","3","2","1","2","2","3","2","772080972635312129","文","89","","","","","","","","","","","","","","","","","","","","","","","","","","","","","","feedback_test","","","","","","","","","","","",""
"480","","f","psychophysics","15","394173","0.0-7.0-1.0-1.0-0.0-0.3","2","2","2","2","2","2","2","2","2","2","2","2","2","2","2","2","1","2","2","2","4","5","4","4","4","4","4","2","4","1","0","1","1","0","0","1","1","0","1","1","0","1","0","1","2","4","4","5","3","2","1","2","2","3","2","772080972635312129","文","89","","","","nonmatch","","","","","","","","","","","","","","key","f","16.664551724137834","684","381","f","true","nonmatch","img/diamond.png","方形","菱形","ALT1_2","prac_ALT1_2","","","","","","","","","","","",""
"null","<span style='color:GreenYellow; font-size: 70px;'>正确! </span>","null","html-keyboard-response","16","394677","0.0-7.0-1.0-1.0-0.0-1.3","2","2","2","2","2","2","2","2","2","2","2","2","2","2","2","2","1","2","2","2","4","5","4","4","4","4","4","2","4","1","0","1","1","0","0","1","1","0","1","1","0","1","0","1","2","4","4","5","3","2","1","2","2","3","2","772080972635312129","文","89","","","","","","","","","","","","","","","","","","","","","","","","","","","","","","feedback_test","","","","","","","","","","","",""
"499","","f","psychophysics","17","396182","0.0-7.0-1.0-1.0-0.0-0.4","2","2","2","2","2","2","2","2","2","2","2","2","2","2","2","2","1","2","2","2","4","5","4","4","4","4","4","2","4","1","0","1","1","0","0","1","1","0","1","1","0","1","0","1","2","4","4","5","3","2","1","2","2","3","2","772080972635312129","文","89","","","","nonmatch","","","","","","","","","","","","","","key","f","16.663159090909176","684","381","j","false","match","img/diamond.png","菱形","菱形","ALT1_2","prac_ALT1_2","","","","","","","","","","","",""
"null","<span style='color:red; font-size: 70px;'>错误! </span>","null","html-keyboard-response","18","396685","0.0-7.0-1.0-1.0-0.0-1.4","2","2","2","2","2","2","2","2","2","2","2","2","2","2","2","2","1","2","2","2","4","5","4","4","4","4","4","2","4","1","0","1","1","0","0","1","1","0","1","1","0","1","0","1","2","4","4","5","3","2","1","2","2","3","2","772080972635312129","文","89","","","","","","","","","","","","","","","","","","","","","","","","","","","","","","feedback_test","","","","","","","","","","","",""
"597","","j","psychophysics","19","398283","0.0-7.0-1.0-1.0-0.0-0.5","2","2","2","2","2","2","2","2","2","2","2","2","2","2","2","2","1","2","2","2","4","5","4","4","4","4","4","2","4","1","0","1","1","0","0","1","1","0","1","1","0","1","0","1","2","4","4","5","3","2","1","2","2","3","2","772080972635312129","文","89","","","","match","","","","","","","","","","","","","","key","j","16.66401052631585","684","381","j","true","match","img/ellipse.png","椭圆","椭圆","ALT1_2","prac_ALT1_2","","","","","","","","","","","",""
"null","<span style='color:GreenYellow; font-size: 70px;'>正确! </span>","null","html-keyboard-response","20","398787","0.0-7.0-1.0-1.0-0.0-1.5","2","2","2","2","2","2","2","2","2","2","2","2","2","2","2","2","1","2","2","2","4","5","4","4","4","4","4","2","4","1","0","1","1","0","0","1","1","0","1","1","0","1","0","1","2","4","4","5","3","2","1","2","2","3","2","772080972635312129","文","89","","","","","","","","","","","","","","","","","","","","","","","","","","","","","","feedback_test","","","","","","","","","","","",""
"509","","f","psychophysics","21","400301","0.0-7.0-1.0-1.0-0.0-0.6","2","2","2","2","2","2","2","2","2","2","2","2","2","2","2","2","1","2","2","2","4","5","4","4","4","4","4","2","4","1","0","1","1","0","0","1","1","0","1","1","0","1","0","1","2","4","4","5","3","2","1","2","2","3","2","772080972635312129","文","89","","","","nonmatch","","","","","","","","","","","","","","key","f","16.663853932584093","684","381","j","false","match","img/hexagon.png","六边","六边","ALT1_2","prac_ALT1_2","","","","","","","","","","","",""
"null","<span style='color:red; font-size: 70px;'>错误! </span>","null","html-keyboard-response","22","400803","0.0-7.0-1.0-1.0-0.0-1.6","2","2","2","2","2","2","2","2","2","2","2","2","2","2","2","2","1","2","2","2","4","5","4","4","4","4","4","2","4","1","0","1","1","0","0","1","1","0","1","1","0","1","0","1","2","4","4","5","3","2","1","2","2","3","2","772080972635312129","文","89","","","","","","","","","","","","","","","","","","","","","","","","","","","","","","feedback_test","","","","","","","","","","","",""
"673","","f","psychophysics","23","402481","0.0-7.0-1.0-1.0-0.0-0.7","2","2","2","2","2","2","2","2","2","2","2","2","2","2","2","2","1","2","2","2","4","5","4","4","4","4","4","2","4","1","0","1","1","0","0","1","1","0","1","1","0","1","0","1","2","4","4","5","3","2","1","2","2","3","2","772080972635312129","文","89","","","","nonmatch","","","","","","","","","","","","","","key","f","16.66382828282811","684","381","f","true","nonmatch","img/diamond.png","六边","菱形","ALT1_2","prac_ALT1_2","","","","","","","","","","","",""
"null","<span style='color:GreenYellow; font-size: 70px;'>正确! </span>","null","html-keyboard-response","24","402987","0.0-7.0-1.0-1.0-0.0-1.7","2","2","2","2","2","2","2","2","2","2","2","2","2","2","2","2","1","2","2","2","4","5","4","4","4","4","4","2","4","1","0","1","1","0","0","1","1","0","1","1","0","1","0","1","2","4","4","5","3","2","1","2","2","3","2","772080972635312129","文","89","","","","","","","","","","","","","","","","","","","","","","","","","","","","","","feedback_test","","","","","","","","","","","",""
"468","","j","psychophysics","25","404458","0.0-7.0-1.0-1.0-0.0-0.8","2","2","2","2","2","2","2","2","2","2","2","2","2","2","2","2","1","2","2","2","4","5","4","4","4","4","4","2","4","1","0","1","1","0","0","1","1","0","1","1","0","1","0","1","2","4","4","5","3","2","1","2","2","3","2","772080972635312129","文","89","","","","match","","","","","","","","","","","","","","key","j","16.663686046511515","684","381","j","true","match","img/square.png","方形","方形","ALT1_2","prac_ALT1_2","","","","","","","","","","","",""
"null","<span style='color:GreenYellow; font-size: 70px;'>正确! </span>","null","html-keyboard-response","26","404959","0.0-7.0-1.0-1.0-0.0-1.8","2","2","2","2","2","2","2","2","2","2","2","2","2","2","2","2","1","2","2","2","4","5","4","4","4","4","4","2","4","1","0","1","1","0","0","1","1","0","1","1","0","1","0","1","2","4","4","5","3","2","1","2","2","3","2","772080972635312129","文","89","","","","","","","","","","","","","","","","","","","","","","","","","","","","","","feedback_test","","","","","","","","","","","",""
"579","","f","psychophysics","27","406543","0.0-7.0-1.0-1.0-0.0-0.9","2","2","2","2","2","2","2","2","2","2","2","2","2","2","2","2","1","2","2","2","4","5","4","4","4","4","4","2","4","1","0","1","1","0","0","1","1","0","1","1","0","1","0","1","2","4","4","5","3","2","1","2","2","3","2","772080972635312129","文","89","","","","nonmatch","","","","","","","","","","","","","","key","f","16.663623655914023","684","381","f","true","nonmatch","img/ellipse.png","菱形","椭圆","ALT1_2","prac_ALT1_2","","","","","","","","","","","",""
"null","<span style='color:GreenYellow; font-size: 70px;'>正确! </span>","null","html-keyboard-response","28","407047","0.0-7.0-1.0-1.0-0.0-1.9","2","2","2","2","2","2","2","2","2","2","2","2","2","2","2","2","1","2","2","2","4","5","4","4","4","4","4","2","4","1","0","1","1","0","0","1","1","0","1","1","0","1","0","1","2","4","4","5","3","2","1","2","2","3","2","772080972635312129","文","89","","","","","","","","","","","","","","","","","","","","","","","","","","","","","","feedback_test","","","","","","","","","","","",""
"561","","j","psychophysics","29","408613","0.0-7.0-1.0-1.0-0.0-0.10","2","2","2","2","2","2","2","2","2","2","2","2","2","2","2","2","1","2","2","2","4","5","4","4","4","4","4","2","4","1","0","1","1","0","0","1","1","0","1","1","0","1","0","1","2","4","4","5","3","2","1","2","2","3","2","772080972635312129","文","89","","","","match","","","","","","","","","","","","","","key","j","16.663098901098948","684","381","j","true","match","img/square.png","方形","方形","ALT1_2","prac_ALT1_2","","","","","","","","","","","",""
"null","<span style='color:GreenYellow; font-size: 70px;'>正确! </span>","null","html-keyboard-response","30","409122","0.0-7.0-1.0-1.0-0.0-1.10","2","2","2","2","2","2","2","2","2","2","2","2","2","2","2","2","1","2","2","2","4","5","4","4","4","4","4","2","4","1","0","1","1","0","0","1","1","0","1","1","0","1","0","1","2","4","4","5","3","2","1","2","2","3","2","772080972635312129","文","89","","","","","","","","","","","","","","","","","","","","","","","","","","","","","","feedback_test","","","","","","","","","","","",""
"484","","f","psychophysics","31","410614","0.0-7.0-1.0-1.0-0.0-0.11","2","2","2","2","2","2","2","2","2","2","2","2","2","2","2","2","1","2","2","2","4","5","4","4","4","4","4","2","4","1","0","1","1","0","0","1","1","0","1","1","0","1","0","1","2","4","4","5","3","2","1","2","2","3","2","772080972635312129","文","89","","","","nonmatch","","","","","","","","","","","","","","key","f","16.663147727272932","684","381","f","true","nonmatch","img/hexagon.png","方形","六边","ALT1_2","prac_ALT1_2","","","","","","","","","","","",""
"null","<span style='color:GreenYellow; font-size: 70px;'>正确! </span>","null","html-keyboard-response","32","411118","0.0-7.0-1.0-1.0-0.0-1.11","2","2","2","2","2","2","2","2","2","2","2","2","2","2","2","2","1","2","2","2","4","5","4","4","4","4","4","2","4","1","0","1","1","0","0","1","1","0","1","1","0","1","0","1","2","4","4","5","3","2","1","2","2","3","2","772080972635312129","文","89","","","","","","","","","","","","","","","","","","","","","","","","","","","","","","feedback_test","","","","","","","","","","","",""
"402","","j","psychophysics","33","412522","0.0-7.0-1.0-1.0-0.0-0.12","2","2","2","2","2","2","2","2","2","2","2","2","2","2","2","2","1","2","2","2","4","5","4","4","4","4","4","2","4","1","0","1","1","0","0","1","1","0","1","1","0","1","0","1","2","4","4","5","3","2","1","2","2","3","2","772080972635312129","文","89","","","","match","","","","","","","","","","","","","","key","j","16.663457831325072","684","381","j","true","match","img/square.png","方形","方形","ALT1_2","prac_ALT1_2","","","","","","","","","","","",""
"null","<span style='color:GreenYellow; font-size: 70px;'>正确! </span>","null","html-keyboard-response","34","413024","0.0-7.0-1.0-1.0-0.0-1.12","2","2","2","2","2","2","2","2","2","2","2","2","2","2","2","2","1","2","2","2","4","5","4","4","4","4","4","2","4","1","0","1","1","0","0","1","1","0","1","1","0","1","0","1","2","4","4","5","3","2","1","2","2","3","2","772080972635312129","文","89","","","","","","","","","","","","","","","","","","","","","","","","","","","","","","feedback_test","","","","","","","","","","","",""
"464","","f","psychophysics","35","414495","0.0-7.0-1.0-1.0-0.0-0.13","2","2","2","2","2","2","2","2","2","2","2","2","2","2","2","2","1","2","2","2","4","5","4","4","4","4","4","2","4","1","0","1","1","0","0","1","1","0","1","1","0","1","0","1","2","4","4","5","3","2","1","2","2","3","2","772080972635312129","文","89","","","","nonmatch","","","","","","","","","","","","","","key","f","16.663151162790896","684","381","f","true","nonmatch","img/square.png","菱形","方形","ALT1_2","prac_ALT1_2","","","","","","","","","","","",""
"null","<span style='color:GreenYellow; font-size: 70px;'>正确! </span>","null","html-keyboard-response","36","414997","0.0-7.0-1.0-1.0-0.0-1.13","2","2","2","2","2","2","2","2","2","2","2","2","2","2","2","2","1","2","2","2","4","5","4","4","4","4","4","2","4","1","0","1","1","0","0","1","1","0","1","1","0","1","0","1","2","4","4","5","3","2","1","2","2","3","2","772080972635312129","文","89","","","","","","","","","","","","","","","","","","","","","","","","","","","","","","feedback_test","","","","","","","","","","","",""
"445","","f","psychophysics","37","416446","0.0-7.0-1.0-1.0-0.0-0.14","2","2","2","2","2","2","2","2","2","2","2","2","2","2","2","2","1","2","2","2","4","5","4","4","4","4","4","2","4","1","0","1","1","0","0","1","1","0","1","1","0","1","0","1","2","4","4","5","3","2","1","2","2","3","2","772080972635312129","文","89","","","","nonmatch","","","","","","","","","","","","","","key","f","16.66379761904786","684","381","j","false","match","img/diamond.png","菱形","菱形","ALT1_2","prac_ALT1_2","","","","","","","","","","","",""
"null","<span style='color:red; font-size: 70px;'>错误! </span>","null","html-keyboard-response","38","416947","0.0-7.0-1.0-1.0-0.0-1.14","2","2","2","2","2","2","2","2","2","2","2","2","2","2","2","2","1","2","2","2","4","5","4","4","4","4","4","2","4","1","0","1","1","0","0","1","1","0","1","1","0","1","0","1","2","4","4","5","3","2","1","2","2","3","2","772080972635312129","文","89","","","","","","","","","","","","","","","","","","","","","","","","","","","","","","feedback_test","","","","","","","","","","","",""
"416","","j","psychophysics","39","418366","0.0-7.0-1.0-1.0-0.0-0.15","2","2","2","2","2","2","2","2","2","2","2","2","2","2","2","2","1","2","2","2","4","5","4","4","4","4","4","2","4","1","0","1","1","0","0","1","1","0","1","1","0","1","0","1","2","4","4","5","3","2","1","2","2","3","2","772080972635312129","文","89","","","","match","","","","","","","","","","","","","","key","j","16.664250000000244","684","381","f","false","nonmatch","img/square.png","椭圆","方形","ALT1_2","prac_ALT1_2","","","","","","","","","","","",""
"null","<span style='color:red; font-size: 70px;'>错误! </span>","null","html-keyboard-response","40","418868","0.0-7.0-1.0-1.0-0.0-1.15","2","2","2","2","2","2","2","2","2","2","2","2","2","2","2","2","1","2","2","2","4","5","4","4","4","4","4","2","4","1","0","1","1","0","0","1","1","0","1","1","0","1","0","1","2","4","4","5","3","2","1","2","2","3","2","772080972635312129","文","89","","","","","","","","","","","","","","","","","","","","","","","","","","","","","","feedback_test","","","","","","","","","","","",""
"723","","f","psychophysics","41","420594","0.0-7.0-1.0-1.0-0.0-0.16","2","2","2","2","2","2","2","2","2","2","2","2","2","2","2","2","1","2","2","2","4","5","4","4","4","4","4","2","4","1","0","1","1","0","0","1","1","0","1","1","0","1","0","1","2","4","4","5","3","2","1","2","2","3","2","772080972635312129","文","89","","","","nonmatch","","","","","","","","","","","","","","key","f","16.663960784313602","684","381","f","true","nonmatch","img/ellipse.png","六边","椭圆","ALT1_2","prac_ALT1_2","","","","","","","","","","","",""
"null","<span style='color:GreenYellow; font-size: 70px;'>正确! </span>","null","html-keyboard-response","42","421099","0.0-7.0-1.0-1.0-0.0-1.16","2","2","2","2","2","2","2","2","2","2","2","2","2","2","2","2","1","2","2","2","4","5","4","4","4","4","4","2","4","1","0","1","1","0","0","1","1","0","1","1","0","1","0","1","2","4","4","5","3","2","1","2","2","3","2","772080972635312129","文","89","","","","","","","","","","","","","","","","","","","","","","","","","","","","","","feedback_test","","","","","","","","","","","",""
"400","","f","psychophysics","43","422502","0.0-7.0-1.0-1.0-0.0-0.17","2","2","2","2","2","2","2","2","2","2","2","2","2","2","2","2","1","2","2","2","4","5","4","4","4","4","4","2","4","1","0","1","1","0","0","1","1","0","1","1","0","1","0","1","2","4","4","5","3","2","1","2","2","3","2","772080972635312129","文","89","","","","nonmatch","","","","","","","","","","","","","","key","f","16.66308536585321","684","381","f","true","nonmatch","img/diamond.png","椭圆","菱形","ALT1_2","prac_ALT1_2","","","","","","","","","","","",""
"null","<span style='color:GreenYellow; font-size: 70px;'>正确! </span>","null","html-keyboard-response","44","423004","0.0-7.0-1.0-1.0-0.0-1.17","2","2","2","2","2","2","2","2","2","2","2","2","2","2","2","2","1","2","2","2","4","5","4","4","4","4","4","2","4","1","0","1","1","0","0","1","1","0","1","1","0","1","0","1","2","4","4","5","3","2","1","2","2","3","2","772080972635312129","文","89","","","","","","","","","","","","","","","","","","","","","","","","","","","","","","feedback_test","","","","","","","","","","","",""
"438","","f","psychophysics","45","424446","0.0-7.0-1.0-1.0-0.0-0.18","2","2","2","2","2","2","2","2","2","2","2","2","2","2","2","2","1","2","2","2","4","5","4","4","4","4","4","2","4","1","0","1","1","0","0","1","1","0","1","1","0","1","0","1","2","4","4","5","3","2","1","2","2","3","2","772080972635312129","文","89","","","","nonmatch","","","","","","","","","","","","","","key","f","16.663270588234916","684","381","f","true","nonmatch","img/ellipse.png","方形","椭圆","ALT1_2","prac_ALT1_2","","","","","","","","","","","",""
"null","<span style='color:GreenYellow; font-size: 70px;'>正确! </span>","null","html-keyboard-response","46","424948","0.0-7.0-1.0-1.0-0.0-1.18","2","2","2","2","2","2","2","2","2","2","2","2","2","2","2","2","1","2","2","2","4","5","4","4","4","4","4","2","4","1","0","1","1","0","0","1","1","0","1","1","0","1","0","1","2","4","4","5","3","2","1","2","2","3","2","772080972635312129","文","89","","","","","","","","","","","","","","","","","","","","","","","","","","","","","","feedback_test","","","","","","","","","","","",""
"330","","f","psychophysics","47","426281","0.0-7.0-1.0-1.0-0.0-0.19","2","2","2","2","2","2","2","2","2","2","2","2","2","2","2","2","1","2","2","2","4","5","4","4","4","4","4","2","4","1","0","1","1","0","0","1","1","0","1","1","0","1","0","1","2","4","4","5","3","2","1","2","2","3","2","772080972635312129","文","89","","","","nonmatch","","","","","","","","","","","","","","key","f","16.6636708860766","684","381","j","false","match","img/hexagon.png","六边","六边","ALT1_2","prac_ALT1_2","","","","","","","","","","","",""
"null","<span style='color:red; font-size: 70px;'>错误! </span>","null","html-keyboard-response","48","426782","0.0-7.0-1.0-1.0-0.0-1.19","2","2","2","2","2","2","2","2","2","2","2","2","2","2","2","2","1","2","2","2","4","5","4","4","4","4","4","2","4","1","0","1","1","0","0","1","1","0","1","1","0","1","0","1","2","4","4","5","3","2","1","2","2","3","2","772080972635312129","文","89","","","","","","","","","","","","","","","","","","","","","","","","","","","","","","feedback_test","","","","","","","","","","","",""
"714","","j","psychophysics","49","428498","0.0-7.0-1.0-1.0-0.0-0.20","2","2","2","2","2","2","2","2","2","2","2","2","2","2","2","2","1","2","2","2","4","5","4","4","4","4","4","2","4","1","0","1","1","0","0","1","1","0","1","1","0","1","0","1","2","4","4","5","3","2","1","2","2","3","2","772080972635312129","文","89","","","","match","","","","","","","","","","","","","","key","j","16.663683168316897","684","381","f","false","nonmatch","img/square.png","六边","方形","ALT1_2","prac_ALT1_2","","","","","","","","","","","",""
"null","<span style='color:red; font-size: 70px;'>错误! </span>","null","html-keyboard-response","50","428999","0.0-7.0-1.0-1.0-0.0-1.20","2","2","2","2","2","2","2","2","2","2","2","2","2","2","2","2","1","2","2","2","4","5","4","4","4","4","4","2","4","1","0","1","1","0","0","1","1","0","1","1","0","1","0","1","2","4","4","5","3","2","1","2","2","3","2","772080972635312129","文","89","","","","","","","","","","","","","","","","","","","","","","","","","","","","","","feedback_test","","","","","","","","","","","",""
"361","","f","psychophysics","51","430362","0.0-7.0-1.0-1.0-0.0-0.21","2","2","2","2","2","2","2","2","2","2","2","2","2","2","2","2","1","2","2","2","4","5","4","4","4","4","4","2","4","1","0","1","1","0","0","1","1","0","1","1","0","1","0","1","2","4","4","5","3","2","1","2","2","3","2","772080972635312129","文","89","","","","nonmatch","","","","","","","","","","","","","","key","f","16.664074074073817","684","381","f","true","nonmatch","img/hexagon.png","菱形","六边","ALT1_2","prac_ALT1_2","","","","","","","","","","","",""
"null","<span style='color:GreenYellow; font-size: 70px;'>正确! </span>","null","html-keyboard-response","52","430864","0.0-7.0-1.0-1.0-0.0-1.21","2","2","2","2","2","2","2","2","2","2","2","2","2","2","2","2","1","2","2","2","4","5","4","4","4","4","4","2","4","1","0","1","1","0","0","1","1","0","1","1","0","1","0","1","2","4","4","5","3","2","1","2","2","3","2","772080972635312129","文","89","","","","","","","","","","","","","","","","","","","","","","","","","","","","","","feedback_test","","","","","","","","","","","",""
"336","","f","psychophysics","53","432206","0.0-7.0-1.0-1.0-0.0-0.22","2","2","2","2","2","2","2","2","2","2","2","2","2","2","2","2","1","2","2","2","4","5","4","4","4","4","4","2","4","1","0","1","1","0","0","1","1","0","1","1","0","1","0","1","2","4","4","5","3","2","1","2","2","3","2","772080972635312129","文","89","","","","nonmatch","","","","","","","","","","","","","","key","f","16.663499999999587","684","381","j","false","match","img/ellipse.png","椭圆","椭圆","ALT1_2","prac_ALT1_2","","","","","","","","","","","",""
"null","<span style='color:red; font-size: 70px;'>错误! </span>","null","html-keyboard-response","54","432709","0.0-7.0-1.0-1.0-0.0-1.22","2","2","2","2","2","2","2","2","2","2","2","2","2","2","2","2","1","2","2","2","4","5","4","4","4","4","4","2","4","1","0","1","1","0","0","1","1","0","1","1","0","1","0","1","2","4","4","5","3","2","1","2","2","3","2","772080972635312129","文","89","","","","","","","","","","","","","","","","","","","","","","","","","","","","","","feedback_test","","","","","","","","","","","",""
"415","","f","psychophysics","55","434127","0.0-7.0-1.0-1.0-0.0-0.23","2","2","2","2","2","2","2","2","2","2","2","2","2","2","2","2","1","2","2","2","4","5","4","4","4","4","4","2","4","1","0","1","1","0","0","1","1","0","1","1","0","1","0","1","2","4","4","5","3","2","1","2","2","3","2","772080972635312129","文","89","","","","nonmatch","","","","","","","","","","","","","","key","f","16.663690476190474","684","381","j","false","match","img/hexagon.png","六边","六边","ALT1_2","prac_ALT1_2","","","","","","","","","","","",""
"null","<span style='color:red; font-size: 70px;'>错误! </span>","null","html-keyboard-response","56","434632","0.0-7.0-1.0-1.0-0.0-1.23","2","2","2","2","2","2","2","2","2","2","2","2","2","2","2","2","1","2","2","2","4","5","4","4","4","4","4","2","4","1","0","1","1","0","0","1","1","0","1","1","0","1","0","1","2","4","4","5","3","2","1","2","2","3","2","772080972635312129","文","89","","","","","","","","","","","","","","","","","","","","","","","","","","","","","","feedback_test","","","","","","","","","","","",""
"390","","j","psychophysics","57","436028","0.0-7.0-1.0-1.0-0.0-0.24","2","2","2","2","2","2","2","2","2","2","2","2","2","2","2","2","1","2","2","2","4","5","4","4","4","4","4","2","4","1","0","1","1","0","0","1","1","0","1","1","0","1","0","1","2","4","4","5","3","2","1","2","2","3","2","772080972635312129","文","89","","","","match","","","","","","","","","","","","","","key","j","16.665231707317062","684","381","j","true","match","img/square.png","方形","方形","ALT1_2","prac_ALT1_2","","","","","","","","","","","",""
"null","<span style='color:GreenYellow; font-size: 70px;'>正确! </span>","null","html-keyboard-response","58","436532","0.0-7.0-1.0-1.0-0.0-1.24","2","2","2","2","2","2","2","2","2","2","2","2","2","2","2","2","1","2","2","2","4","5","4","4","4","4","4","2","4","1","0","1","1","0","0","1","1","0","1","1","0","1","0","1","2","4","4","5","3","2","1","2","2","3","2","772080972635312129","文","89","","","","","","","","","","","","","","","","","","","","","","","","","","","","","","feedback_test","","","","","","","","","","","",""
"577","","j","psychophysics","59","438114","0.0-7.0-1.0-1.0-0.0-0.25","2","2","2","2","2","2","2","2","2","2","2","2","2","2","2","2","1","2","2","2","4","5","4","4","4","4","4","2","4","1","0","1","1","0","0","1","1","0","1","1","0","1","0","1","2","4","4","5","3","2","1","2","2","3","2","772080972635312129","文","89","","","","match","","","","","","","","","","","","","","key","j","16.663924731182746","684","381","j","true","match","img/hexagon.png","六边","六边","ALT1_2","prac_ALT1_2","","","","","","","","","","","",""
"null","<span style='color:GreenYellow; font-size: 70px;'>正确! </span>","null","html-keyboard-response","60","438616","0.0-7.0-1.0-1.0-0.0-1.25","2","2","2","2","2","2","2","2","2","2","2","2","2","2","2","2","1","2","2","2","4","5","4","4","4","4","4","2","4","1","0","1","1","0","0","1","1","0","1","1","0","1","0","1","2","4","4","5","3","2","1","2","2","3","2","772080972635312129","文","89","","","","","","","","","","","","","","","","","","","","","","","","","","","","","","feedback_test","","","","","","","","","","","",""
"583","","j","psychophysics","61","440202","0.0-7.0-1.0-1.0-0.0-0.26","2","2","2","2","2","2","2","2","2","2","2","2","2","2","2","2","1","2","2","2","4","5","4","4","4","4","4","2","4","1","0","1","1","0","0","1","1","0","1","1","0","1","0","1","2","4","4","5","3","2","1","2","2","3","2","772080972635312129","文","89","","","","match","","","","","","","","","","","","","","key","j","16.663430107526498","684","381","j","true","match","img/square.png","方形","方形","ALT1_2","prac_ALT1_2","","","","","","","","","","","",""
"null","<span style='color:GreenYellow; font-size: 70px;'>正确! </span>","null","html-keyboard-response","62","440703","0.0-7.0-1.0-1.0-0.0-1.26","2","2","2","2","2","2","2","2","2","2","2","2","2","2","2","2","1","2","2","2","4","5","4","4","4","4","4","2","4","1","0","1","1","0","0","1","1","0","1","1","0","1","0","1","2","4","4","5","3","2","1","2","2","3","2","772080972635312129","文","89","","","","","","","","","","","","","","","","","","","","","","","","","","","","","","feedback_test","","","","","","","","","","","",""
"389","","j","psychophysics","63","442095","0.0-7.0-1.0-1.0-0.0-0.27","2","2","2","2","2","2","2","2","2","2","2","2","2","2","2","2","1","2","2","2","4","5","4","4","4","4","4","2","4","1","0","1","1","0","0","1","1","0","1","1","0","1","0","1","2","4","4","5","3","2","1","2","2","3","2","772080972635312129","文","89","","","","match","","","","","","","","","","","","","","key","j","16.66375609756044","684","381","f","false","nonmatch","img/diamond.png","椭圆","菱形","ALT1_2","prac_ALT1_2","","","","","","","","","","","",""
"null","<span style='color:red; font-size: 70px;'>错误! </span>","null","html-keyboard-response","64","442597","0.0-7.0-1.0-1.0-0.0-1.27","2","2","2","2","2","2","2","2","2","2","2","2","2","2","2","2","1","2","2","2","4","5","4","4","4","4","4","2","4","1","0","1","1","0","0","1","1","0","1","1","0","1","0","1","2","4","4","5","3","2","1","2","2","3","2","772080972635312129","文","89","","","","","","","","","","","","","","","","","","","","","","","","","","","","","","feedback_test","","","","","","","","","","","",""
"250","","f","psychophysics","65","443849","0.0-7.0-1.0-1.0-0.0-0.28","2","2","2","2","2","2","2","2","2","2","2","2","2","2","2","2","1","2","2","2","4","5","4","4","4","4","4","2","4","1","0","1","1","0","0","1","1","0","1","1","0","1","0","1","2","4","4","5","3","2","1","2","2","3","2","772080972635312129","文","89","","","","nonmatch","","","","","","","","","","","","","","key","f","16.663608108108352","684","381","j","false","match","img/ellipse.png","椭圆","椭圆","ALT1_2","prac_ALT1_2","","","","","","","","","","","",""
"null","<span style='color:red; font-size: 70px;'>错误! </span>","null","html-keyboard-response","66","444352","0.0-7.0-1.0-1.0-0.0-1.28","2","2","2","2","2","2","2","2","2","2","2","2","2","2","2","2","1","2","2","2","4","5","4","4","4","4","4","2","4","1","0","1","1","0","0","1","1","0","1","1","0","1","0","1","2","4","4","5","3","2","1","2","2","3","2","772080972635312129","文","89","","","","","","","","","","","","","","","","","","","","","","","","","","","","","","feedback_test","","","","","","","","","","","",""
"333","","j","psychophysics","67","445686","0.0-7.0-1.0-1.0-0.0-0.29","2","2","2","2","2","2","2","2","2","2","2","2","2","2","2","2","1","2","2","2","4","5","4","4","4","4","4","2","4","1","0","1","1","0","0","1","1","0","1","1","0","1","0","1","2","4","4","5","3","2","1","2","2","3","2","772080972635312129","文","89","","","","match","","","","","","","","","","","","","","key","j","16.663230769230257","684","381","f","false","nonmatch","img/hexagon.png","椭圆","六边","ALT1_2","prac_ALT1_2","","","","","","","","","","","",""
"null","<span style='color:red; font-size: 70px;'>错误! </span>","null","html-keyboard-response","68","446190","0.0-7.0-1.0-1.0-0.0-1.29","2","2","2","2","2","2","2","2","2","2","2","2","2","2","2","2","1","2","2","2","4","5","4","4","4","4","4","2","4","1","0","1","1","0","0","1","1","0","1","1","0","1","0","1","2","4","4","5","3","2","1","2","2","3","2","772080972635312129","文","89","","","","","","","","","","","","","","","","","","","","","","","","","","","","","","feedback_test","","","","","","","","","","","",""
"473","","f","psychophysics","69","447663","0.0-7.0-1.0-1.0-0.0-0.30","2","2","2","2","2","2","2","2","2","2","2","2","2","2","2","2","1","2","2","2","4","5","4","4","4","4","4","2","4","1","0","1","1","0","0","1","1","0","1","1","0","1","0","1","2","4","4","5","3","2","1","2","2","3","2","772080972635312129","文","89","","","","nonmatch","","","","","","","","","","","","","","key","f","16.66556321839125","684","381","f","true","nonmatch","img/square.png","六边","方形","ALT1_2","prac_ALT1_2","","","","","","","","","","","",""
"null","<span style='color:GreenYellow; font-size: 70px;'>正确! </span>","null","html-keyboard-response","70","448164","0.0-7.0-1.0-1.0-0.0-1.30","2","2","2","2","2","2","2","2","2","2","2","2","2","2","2","2","1","2","2","2","4","5","4","4","4","4","4","2","4","1","0","1","1","0","0","1","1","0","1","1","0","1","0","1","2","4","4","5","3","2","1","2","2","3","2","772080972635312129","文","89","","","","","","","","","","","","","","","","","","","","","","","","","","","","","","feedback_test","","","","","","","","","","","",""
"403","","f","psychophysics","71","449568","0.0-7.0-1.0-1.0-0.0-0.31","2","2","2","2","2","2","2","2","2","2","2","2","2","2","2","2","1","2","2","2","4","5","4","4","4","4","4","2","4","1","0","1","1","0","0","1","1","0","1","1","0","1","0","1","2","4","4","5","3","2","1","2","2","3","2","772080972635312129","文","89","","","","nonmatch","","","","","","","","","","","","","","key","f","16.663072289157018","684","381","f","true","nonmatch","img/hexagon.png","方形","六边","ALT1_2","prac_ALT1_2","","","","","","","","","","","",""
"null","<span style='color:GreenYellow; font-size: 70px;'>正确! </span>","null","html-keyboard-response","72","450071","0.0-7.0-1.0-1.0-0.0-1.31","2","2","2","2","2","2","2","2","2","2","2","2","2","2","2","2","1","2","2","2","4","5","4","4","4","4","4","2","4","1","0","1","1","0","0","1","1","0","1","1","0","1","0","1","2","4","4","5","3","2","1","2","2","3","2","772080972635312129","文","89","","","","","","","","","","","","","","","","","","","","","","","","","","","","","","feedback_test","","","","","","","","","","","",""
"420","","f","psychophysics","73","451497","0.0-7.0-1.0-1.0-0.0-0.32","2","2","2","2","2","2","2","2","2","2","2","2","2","2","2","2","1","2","2","2","4","5","4","4","4","4","4","2","4","1","0","1","1","0","0","1","1","0","1","1","0","1","0","1","2","4","4","5","3","2","1","2","2","3","2","772080972635312129","文","89","","","","nonmatch","","","","","","","","","","","","","","key","f","16.6630833333336","684","381","f","true","nonmatch","img/ellipse.png","菱形","椭圆","ALT1_2","prac_ALT1_2","","","","","","","","","","","",""
"null","<span style='color:GreenYellow; font-size: 70px;'>正确! </span>","null","html-keyboard-response","74","452000","0.0-7.0-1.0-1.0-0.0-1.32","2","2","2","2","2","2","2","2","2","2","2","2","2","2","2","2","1","2","2","2","4","5","4","4","4","4","4","2","4","1","0","1","1","0","0","1","1","0","1","1","0","1","0","1","2","4","4","5","3","2","1","2","2","3","2","772080972635312129","文","89","","","","","","","","","","","","","","","","","","","","","","","","","","","","","","feedback_test","","","","","","","","","","","",""
"331","","f","psychophysics","75","453333","0.0-7.0-1.0-1.0-0.0-0.33","2","2","2","2","2","2","2","2","2","2","2","2","2","2","2","2","1","2","2","2","4","5","4","4","4","4","4","2","4","1","0","1","1","0","0","1","1","0","1","1","0","1","0","1","2","4","4","5","3","2","1","2","2","3","2","772080972635312129","文","89","","","","nonmatch","","","","","","","","","","","","","","key","f","16.663384615384693","684","381","f","true","nonmatch","img/diamond.png","六边","菱形","ALT1_2","prac_ALT1_2","","","","","","","","","","","",""
"null","<span style='color:GreenYellow; font-size: 70px;'>正确! </span>","null","html-keyboard-response","76","453835","0.0-7.0-1.0-1.0-0.0-1.33","2","2","2","2","2","2","2","2","2","2","2","2","2","2","2","2","1","2","2","2","4","5","4","4","4","4","4","2","4","1","0","1","1","0","0","1","1","0","1","1","0","1","0","1","2","4","4","5","3","2","1","2","2","3","2","772080972635312129","文","89","","","","","","","","","","","","","","","","","","","","","","","","","","","","","","feedback_test","","","","","","","","","","","",""
"407","","f","psychophysics","77","455245","0.0-7.0-1.0-1.0-0.0-0.34","2","2","2","2","2","2","2","2","2","2","2","2","2","2","2","2","1","2","2","2","4","5","4","4","4","4","4","2","4","1","0","1","1","0","0","1","1","0","1","1","0","1","0","1","2","4","4","5","3","2","1","2","2","3","2","772080972635312129","文","89","","","","nonmatch","","","","","","","","","","","","","","key","f","16.66397560975676","684","381","j","false","match","img/ellipse.png","椭圆","椭圆","ALT1_2","prac_ALT1_2","","","","","","","","","","","",""
"null","<span style='color:red; font-size: 70px;'>错误! </span>","null","html-keyboard-response","78","455746","0.0-7.0-1.0-1.0-0.0-1.34","2","2","2","2","2","2","2","2","2","2","2","2","2","2","2","2","1","2","2","2","4","5","4","4","4","4","4","2","4","1","0","1","1","0","0","1","1","0","1","1","0","1","0","1","2","4","4","5","3","2","1","2","2","3","2","772080972635312129","文","89","","","","","","","","","","","","","","","","","","","","","","","","","","","","","","feedback_test","","","","","","","","","","","",""
"427","","j","psychophysics","79","457176","0.0-7.0-1.0-1.0-0.0-0.35","2","2","2","2","2","2","2","2","2","2","2","2","2","2","2","2","1","2","2","2","4","5","4","4","4","4","4","2","4","1","0","1","1","0","0","1","1","0","1","1","0","1","0","1","2","4","4","5","3","2","1","2","2","3","2","772080972635312129","文","89","","","","match","","","","","","","","","","","","","","key","j","16.66394047619057","684","381","j","true","match","img/diamond.png","菱形","菱形","ALT1_2","prac_ALT1_2","","","","","","","","","","","",""
"null","<span style='color:GreenYellow; font-size: 70px;'>正确! </span>","null","html-keyboard-response","80","457677","0.0-7.0-1.0-1.0-0.0-1.35","2","2","2","2","2","2","2","2","2","2","2","2","2","2","2","2","1","2","2","2","4","5","4","4","4","4","4","2","4","1","0","1","1","0","0","1","1","0","1","1","0","1","0","1","2","4","4","5","3","2","1","2","2","3","2","772080972635312129","文","89","","","","","","","","","","","","","","","","","","","","","","","","","","","","","","feedback_test","","","","","","","","","","","",""
"483","","j","psychophysics","81","459162","0.0-7.0-1.0-1.0-0.0-0.36","2","2","2","2","2","2","2","2","2","2","2","2","2","2","2","2","1","2","2","2","4","5","4","4","4","4","4","2","4","1","0","1","1","0","0","1","1","0","1","1","0","1","0","1","2","4","4","5","3","2","1","2","2","3","2","772080972635312129","文","89","","","","match","","","","","","","","","","","","","","key","j","16.66339772727224","684","381","j","true","match","img/diamond.png","菱形","菱形","ALT1_2","prac_ALT1_2","","","","","","","","","","","",""
"null","<span style='color:GreenYellow; font-size: 70px;'>正确! </span>","null","html-keyboard-response","82","459665","0.0-7.0-1.0-1.0-0.0-1.36","2","2","2","2","2","2","2","2","2","2","2","2","2","2","2","2","1","2","2","2","4","5","4","4","4","4","4","2","4","1","0","1","1","0","0","1","1","0","1","1","0","1","0","1","2","4","4","5","3","2","1","2","2","3","2","772080972635312129","文","89","","","","","","","","","","","","","","","","","","","","","","","","","","","","","","feedback_test","","","","","","","","","","","",""
"276","","j","psychophysics","83","460943","0.0-7.0-1.0-1.0-0.0-0.37","2","2","2","2","2","2","2","2","2","2","2","2","2","2","2","2","1","2","2","2","4","5","4","4","4","4","4","2","4","1","0","1","1","0","0","1","1","0","1","1","0","1","0","1","2","4","4","5","3","2","1","2","2","3","2","772080972635312129","文","89","","","","match","","","","","","","","","","","","","","key","j","16.663853333333197","684","381","j","true","match","img/hexagon.png","六边","六边","ALT1_2","prac_ALT1_2","","","","","","","","","","","",""
"null","<span style='color:GreenYellow; font-size: 70px;'>正确! </span>","null","html-keyboard-response","84","461445","0.0-7.0-1.0-1.0-0.0-1.37","2","2","2","2","2","2","2","2","2","2","2","2","2","2","2","2","1","2","2","2","4","5","4","4","4","4","4","2","4","1","0","1","1","0","0","1","1","0","1","1","0","1","0","1","2","4","4","5","3","2","1","2","2","3","2","772080972635312129","文","89","","","","","","","","","","","","","","","","","","","","","","","","","","","","","","feedback_test","","","","","","","","","","","",""
"414","","j","psychophysics","85","462862","0.0-7.0-1.0-1.0-0.0-0.38","2","2","2","2","2","2","2","2","2","2","2","2","2","2","2","2","1","2","2","2","4","5","4","4","4","4","4","2","4","1","0","1","1","0","0","1","1","0","1","1","0","1","0","1","2","4","4","5","3","2","1","2","2","3","2","772080972635312129","文","89","","","","match","","","","","","","","","","","","","","key","j","16.66422891566328","684","381","j","true","match","img/hexagon.png","六边","六边","ALT1_2","prac_ALT1_2","","","","","","","","","","","",""
"null","<span style='color:GreenYellow; font-size: 70px;'>正确! </span>","null","html-keyboard-response","86","463363","0.0-7.0-1.0-1.0-0.0-1.38","2","2","2","2","2","2","2","2","2","2","2","2","2","2","2","2","1","2","2","2","4","5","4","4","4","4","4","2","4","1","0","1","1","0","0","1","1","0","1","1","0","1","0","1","2","4","4","5","3","2","1","2","2","3","2","772080972635312129","文","89","","","","","","","","","","","","","","","","","","","","","","","","","","","","","","feedback_test","","","","","","","","","","","",""
"623","","j","psychophysics","87","464990","0.0-7.0-1.0-1.0-0.0-0.39","2","2","2","2","2","2","2","2","2","2","2","2","2","2","2","2","1","2","2","2","4","5","4","4","4","4","4","2","4","1","0","1","1","0","0","1","1","0","1","1","0","1","0","1","2","4","4","5","3","2","1","2","2","3","2","772080972635312129","文","89","","","","match","","","","","","","","","","","","","","key","j","16.663447916667185","684","381","f","false","nonmatch","img/ellipse.png","方形","椭圆","ALT1_2","prac_ALT1_2","","","","","","","","","","","",""
"null","<span style='color:red; font-size: 70px;'>错误! </span>","null","html-keyboard-response","88","465494","0.0-7.0-1.0-1.0-0.0-1.39","2","2","2","2","2","2","2","2","2","2","2","2","2","2","2","2","1","2","2","2","4","5","4","4","4","4","4","2","4","1","0","1","1","0","0","1","1","0","1","1","0","1","0","1","2","4","4","5","3","2","1","2","2","3","2","772080972635312129","文","89","","","","","","","","","","","","","","","","","","","","","","","","","","","","","","feedback_test","","","","","","","","","","","",""
"562","","f","psychophysics","89","467058","0.0-7.0-1.0-1.0-0.0-0.40","2","2","2","2","2","2","2","2","2","2","2","2","2","2","2","2","1","2","2","2","4","5","4","4","4","4","4","2","4","1","0","1","1","0","0","1","1","0","1","1","0","1","0","1","2","4","4","5","3","2","1","2","2","3","2","772080972635312129","文","89","","","","nonmatch","","","","","","","","","","","","","","key","f","16.66376086956576","684","381","f","true","nonmatch","img/square.png","椭圆","方形","ALT1_2","prac_ALT1_2","","","","","","","","","","","",""
"null","<span style='color:GreenYellow; font-size: 70px;'>正确! </span>","null","html-keyboard-response","90","467559","0.0-7.0-1.0-1.0-0.0-1.40","2","2","2","2","2","2","2","2","2","2","2","2","2","2","2","2","1","2","2","2","4","5","4","4","4","4","4","2","4","1","0","1","1","0","0","1","1","0","1","1","0","1","0","1","2","4","4","5","3","2","1","2","2","3","2","772080972635312129","文","89","","","","","","","","","","","","","","","","","","","","","","","","","","","","","","feedback_test","","","","","","","","","","","",""
"545","","f","psychophysics","91","469107","0.0-7.0-1.0-1.0-0.0-0.41","2","2","2","2","2","2","2","2","2","2","2","2","2","2","2","2","1","2","2","2","4","5","4","4","4","4","4","2","4","1","0","1","1","0","0","1","1","0","1","1","0","1","0","1","2","4","4","5","3","2","1","2","2","3","2","772080972635312129","文","89","","","","nonmatch","","","","","","","","","","","","","","key","f","16.66357608695651","684","381","f","true","nonmatch","img/ellipse.png","六边","椭圆","ALT1_2","prac_ALT1_2","","","","","","","","","","","",""
"null","<span style='color:GreenYellow; font-size: 70px;'>正确! </span>","null","html-keyboard-response","92","469609","0.0-7.0-1.0-1.0-0.0-1.41","2","2","2","2","2","2","2","2","2","2","2","2","2","2","2","2","1","2","2","2","4","5","4","4","4","4","4","2","4","1","0","1","1","0","0","1","1","0","1","1","0","1","0","1","2","4","4","5","3","2","1","2","2","3","2","772080972635312129","文","89","","","","","","","","","","","","","","","","","","","","","","","","","","","","","","feedback_test","","","","","","","","","","","",""
"494","","f","psychophysics","93","471105","0.0-7.0-1.0-1.0-0.0-0.42","2","2","2","2","2","2","2","2","2","2","2","2","2","2","2","2","1","2","2","2","4","5","4","4","4","4","4","2","4","1","0","1","1","0","0","1","1","0","1","1","0","1","0","1","2","4","4","5","3","2","1","2","2","3","2","772080972635312129","文","89","","","","nonmatch","","","","","","","","","","","","","","key","f","16.663078651685016","684","381","j","false","match","img/square.png","方形","方形","ALT1_2","prac_ALT1_2","","","","","","","","","","","",""
"null","<span style='color:red; font-size: 70px;'>错误! </span>","null","html-keyboard-response","94","471609","0.0-7.0-1.0-1.0-0.0-1.42","2","2","2","2","2","2","2","2","2","2","2","2","2","2","2","2","1","2","2","2","4","5","4","4","4","4","4","2","4","1","0","1","1","0","0","1","1","0","1","1","0","1","0","1","2","4","4","5","3","2","1","2","2","3","2","772080972635312129","文","89","","","","","","","","","","","","","","","","","","","","","","","","","","","","","","feedback_test","","","","","","","","","","","",""
"394","","j","psychophysics","95","473008","0.0-7.0-1.0-1.0-0.0-0.43","2","2","2","2","2","2","2","2","2","2","2","2","2","2","2","2","1","2","2","2","4","5","4","4","4","4","4","2","4","1","0","1","1","0","0","1","1","0","1","1","0","1","0","1","2","4","4","5","3","2","1","2","2","3","2","772080972635312129","文","89","","","","match","","","","","","","","","","","","","","key","j","16.665914634146116","684","381","j","true","match","img/diamond.png","菱形","菱形","ALT1_2","prac_ALT1_2","","","","","","","","","","","",""
"null","<span style='color:GreenYellow; font-size: 70px;'>正确! </span>","null","html-keyboard-response","96","473511","0.0-7.0-1.0-1.0-0.0-1.43","2","2","2","2","2","2","2","2","2","2","2","2","2","2","2","2","1","2","2","2","4","5","4","4","4","4","4","2","4","1","0","1","1","0","0","1","1","0","1","1","0","1","0","1","2","4","4","5","3","2","1","2","2","3","2","772080972635312129","文","89","","","","","","","","","","","","","","","","","","","","","","","","","","","","","","feedback_test","","","","","","","","","","","",""
"438","","j","psychophysics","97","474954","0.0-7.0-1.0-1.0-0.0-0.44","2","2","2","2","2","2","2","2","2","2","2","2","2","2","2","2","1","2","2","2","4","5","4","4","4","4","4","2","4","1","0","1","1","0","0","1","1","0","1","1","0","1","0","1","2","4","4","5","3","2","1","2","2","3","2","772080972635312129","文","89","","","","match","","","","","","","","","","","","","","key","j","16.665317647058433","684","381","j","true","match","img/ellipse.png","椭圆","椭圆","ALT1_2","prac_ALT1_2","","","","","","","","","","","",""
"null","<span style='color:GreenYellow; font-size: 70px;'>正确! </span>","null","html-keyboard-response","98","475456","0.0-7.0-1.0-1.0-0.0-1.44","2","2","2","2","2","2","2","2","2","2","2","2","2","2","2","2","1","2","2","2","4","5","4","4","4","4","4","2","4","1","0","1","1","0","0","1","1","0","1","1","0","1","0","1","2","4","4","5","3","2","1","2","2","3","2","772080972635312129","文","89","","","","","","","","","","","","","","","","","","","","","","","","","","","","","","feedback_test","","","","","","","","","","","",""
"452","","f","psychophysics","99","476911","0.0-7.0-1.0-1.0-0.0-0.45","2","2","2","2","2","2","2","2","2","2","2","2","2","2","2","2","1","2","2","2","4","5","4","4","4","4","4","2","4","1","0","1","1","0","0","1","1","0","1","1","0","1","0","1","2","4","4","5","3","2","1","2","2","3","2","772080972635312129","文","89","","","","nonmatch","","","","","","","","","","","","","","key","f","16.66303488372102","684","381","f","true","nonmatch","img/hexagon.png","菱形","六边","ALT1_2","prac_ALT1_2","","","","","","","","","","","",""
"null","<span style='color:GreenYellow; font-size: 70px;'>正确! </span>","null","html-keyboard-response","100","477415","0.0-7.0-1.0-1.0-0.0-1.45","2","2","2","2","2","2","2","2","2","2","2","2","2","2","2","2","1","2","2","2","4","5","4","4","4","4","4","2","4","1","0","1","1","0","0","1","1","0","1","1","0","1","0","1","2","4","4","5","3","2","1","2","2","3","2","772080972635312129","文","89","","","","","","","","","","","","","","","","","","","","","","","","","","","","","","feedback_test","","","","","","","","","","","",""
"520","","j","psychophysics","101","478939","0.0-7.0-1.0-1.0-0.0-0.46","2","2","2","2","2","2","2","2","2","2","2","2","2","2","2","2","1","2","2","2","4","5","4","4","4","4","4","2","4","1","0","1","1","0","0","1","1","0","1","1","0","1","0","1","2","4","4","5","3","2","1","2","2","3","2","772080972635312129","文","89","","","","match","","","","","","","","","","","","","","key","j","16.6650224719105","684","381","f","false","nonmatch","img/diamond.png","方形","菱形","ALT1_2","prac_ALT1_2","","","","","","","","","","","",""
"null","<span style='color:red; font-size: 70px;'>错误! </span>","null","html-keyboard-response","102","479441","0.0-7.0-1.0-1.0-0.0-1.46","2","2","2","2","2","2","2","2","2","2","2","2","2","2","2","2","1","2","2","2","4","5","4","4","4","4","4","2","4","1","0","1","1","0","0","1","1","0","1","1","0","1","0","1","2","4","4","5","3","2","1","2","2","3","2","772080972635312129","文","89","","","","","","","","","","","","","","","","","","","","","","","","","","","","","","feedback_test","","","","","","","","","","","",""
"470","","f","psychophysics","103","480914","0.0-7.0-1.0-1.0-0.0-0.47","2","2","2","2","2","2","2","2","2","2","2","2","2","2","2","2","1","2","2","2","4","5","4","4","4","4","4","2","4","1","0","1","1","0","0","1","1","0","1","1","0","1","0","1","2","4","4","5","3","2","1","2","2","3","2","772080972635312129","文","89","","","","nonmatch","","","","","","","","","","","","","","key","f","16.662149425286895","684","381","f","true","nonmatch","img/square.png","菱形","方形","ALT1_2","prac_ALT1_2","","","","","","","","","","","",""
"null","<span style='color:GreenYellow; font-size: 70px;'>正确! </span>","null","html-keyboard-response","104","481418","0.0-7.0-1.0-1.0-0.0-1.47","2","2","2","2","2","2","2","2","2","2","2","2","2","2","2","2","1","2","2","2","4","5","4","4","4","4","4","2","4","1","0","1","1","0","0","1","1","0","1","1","0","1","0","1","2","4","4","5","3","2","1","2","2","3","2","772080972635312129","文","89","","","","","","","","","","","","","","","","","","","","","","","","","","","","","","feedback_test","","","","","","","","","","","",""
"51575","<style>.context{color:white; font-size: 35px; line-height:40px}</style>                          <div><p class='context'>您正确回答了63% 的试次。</p><p class='context'>您的平均反应时为476毫秒。</p><p class='context'>恭喜您完成练习。按空格键进入正式实验。</p><p class='footer' style='font-size: 35px; line-height:40px;'>请在进入正式实验实验之前将您的<span style='color: lightgreen;'>食指</span>放在电脑键盘的相应键位上进行按键。</p>"," ","html-keyboard-response","105","532997","0.0-7.0-1.0-2.0","2","2","2","2","2","2","2","2","2","2","2","2","2","2","2","2","1","2","2","2","4","5","4","4","4","4","4","2","4","1","0","1","1","0","0","1","1","0","1","1","0","1","0","1","2","4","4","5","3","2","1","2","2","3","2","772080972635312129","文","89","","","","","","","","","","","","","","","","","","","","","","","","","","","","","","","","","","","","","","","","","",""
"4287","
  <p style='color: white; font-size: 22px'>请您将手指放在按键上，准备进入正式的匹配任务。</p>
  <p> <div style = ""color: green""><按空格键进入下一阶段的匹配任务></div></p>
  "," ","html-keyboard-response","106","537311","0.0-7.0-1.0-3.0","2","2","2","2","2","2","2","2","2","2","2","2","2","2","2","2","1","2","2","2","4","5","4","4","4","4","4","2","4","1","0","1","1","0","0","1","1","0","1","1","0","1","0","1","2","4","4","5","3","2","1","2","2","3","2","772080972635312129","文","89","","","","","","","","","","","","","","","","","","","","","","","","","","","","","","","","","","","","","","","","","",""
"799","","f","psychophysics","107","539113","0.0-7.0-1.0-4.0-0.0-0.0","2","2","2","2","2","2","2","2","2","2","2","2","2","2","2","2","1","2","2","2","4","5","4","4","4","4","4","2","4","1","0","1","1","0","0","1","1","0","1","1","0","1","0","1","2","4","4","5","3","2","1","2","2","3","2","772080972635312129","文","89","","","","nonmatch","","","","","","","","","","","","","","key","f","16.97877142857095","684","381","f","true","nonmatch","img/hexagon.png","方形","六边","ALT1","formal_ALT1_2","","","","","","","","","","","",""
"null","<span style='color:GreenYellow; font-size: 70px;'>正确! </span>","null","html-keyboard-response","108","539615","0.0-7.0-1.0-4.0-0.0-1.0","2","2","2","2","2","2","2","2","2","2","2","2","2","2","2","2","1","2","2","2","4","5","4","4","4","4","4","2","4","1","0","1","1","0","0","1","1","0","1","1","0","1","0","1","2","4","4","5","3","2","1","2","2","3","2","772080972635312129","文","89","","","","","","","","","","","","","","","","","","","","","","","","","","","","","","feedback_test","","","","","","","","","","","",""
"389","","f","psychophysics","109","541008","0.0-7.0-1.0-4.0-0.0-0.1","2","2","2","2","2","2","2","2","2","2","2","2","2","2","2","2","1","2","2","2","4","5","4","4","4","4","4","2","4","1","0","1","1","0","0","1","1","0","1","1","0","1","0","1","2","4","4","5","3","2","1","2","2","3","2","772080972635312129","文","89","","","","nonmatch","","","","","","","","","","","","","","key","f","16.66172839506144","684","381","f","true","nonmatch","img/ellipse.png","方形","椭圆","ALT1","formal_ALT1_2","","","","","","","","","","","",""
"null","<span style='color:GreenYellow; font-size: 70px;'>正确! </span>","null","html-keyboard-response","110","541510","0.0-7.0-1.0-4.0-0.0-1.1","2","2","2","2","2","2","2","2","2","2","2","2","2","2","2","2","1","2","2","2","4","5","4","4","4","4","4","2","4","1","0","1","1","0","0","1","1","0","1","1","0","1","0","1","2","4","4","5","3","2","1","2","2","3","2","772080972635312129","文","89","","","","","","","","","","","","","","","","","","","","","","","","","","","","","","feedback_test","","","","","","","","","","","",""
"379","","f","psychophysics","111","542894","0.0-7.0-1.0-4.0-0.0-0.2","2","2","2","2","2","2","2","2","2","2","2","2","2","2","2","2","1","2","2","2","4","5","4","4","4","4","4","2","4","1","0","1","1","0","0","1","1","0","1","1","0","1","0","1","2","4","4","5","3","2","1","2","2","3","2","772080972635312129","文","89","","","","nonmatch","","","","","","","","","","","","","","key","f","16.6619012345672","684","381","f","true","nonmatch","img/square.png","六边","方形","ALT1","formal_ALT1_2","","","","","","","","","","","",""
"null","<span style='color:GreenYellow; font-size: 70px;'>正确! </span>","null","html-keyboard-response","112","543395","0.0-7.0-1.0-4.0-0.0-1.2","2","2","2","2","2","2","2","2","2","2","2","2","2","2","2","2","1","2","2","2","4","5","4","4","4","4","4","2","4","1","0","1","1","0","0","1","1","0","1","1","0","1","0","1","2","4","4","5","3","2","1","2","2","3","2","772080972635312129","文","89","","","","","","","","","","","","","","","","","","","","","","","","","","","","","","feedback_test","","","","","","","","","","","",""
"447","","f","psychophysics","113","544845","0.0-7.0-1.0-4.0-0.0-0.3","2","2","2","2","2","2","2","2","2","2","2","2","2","2","2","2","1","2","2","2","4","5","4","4","4","4","4","2","4","1","0","1","1","0","0","1","1","0","1","1","0","1","0","1","2","4","4","5","3","2","1","2","2","3","2","772080972635312129","文","89","","","","nonmatch","","","","","","","","","","","","","","key","f","16.665220930231573","684","381","j","false","match","img/hexagon.png","六边","六边","ALT1","formal_ALT1_2","","","","","","","","","","","",""
"null","<span style='color:red; font-size: 70px;'>错误! </span>","null","html-keyboard-response","114","545346","0.0-7.0-1.0-4.0-0.0-1.3","2","2","2","2","2","2","2","2","2","2","2","2","2","2","2","2","1","2","2","2","4","5","4","4","4","4","4","2","4","1","0","1","1","0","0","1","1","0","1","1","0","1","0","1","2","4","4","5","3","2","1","2","2","3","2","772080972635312129","文","89","","","","","","","","","","","","","","","","","","","","","","","","","","","","","","feedback_test","","","","","","","","","","","",""
"777","","f","psychophysics","115","547127","0.0-7.0-1.0-4.0-0.0-0.4","2","2","2","2","2","2","2","2","2","2","2","2","2","2","2","2","1","2","2","2","4","5","4","4","4","4","4","2","4","1","0","1","1","0","0","1","1","0","1","1","0","1","0","1","2","4","4","5","3","2","1","2","2","3","2","772080972635312129","文","89","","","","nonmatch","","","","","","","","","","","","","","key","f","16.66300943396208","684","381","f","true","nonmatch","img/square.png","椭圆","方形","ALT1","formal_ALT1_2","","","","","","","","","","","",""
"null","<span style='color:GreenYellow; font-size: 70px;'>正确! </span>","null","html-keyboard-response","116","547630","0.0-7.0-1.0-4.0-0.0-1.4","2","2","2","2","2","2","2","2","2","2","2","2","2","2","2","2","1","2","2","2","4","5","4","4","4","4","4","2","4","1","0","1","1","0","0","1","1","0","1","1","0","1","0","1","2","4","4","5","3","2","1","2","2","3","2","772080972635312129","文","89","","","","","","","","","","","","","","","","","","","","","","","","","","","","","","feedback_test","","","","","","","","","","","",""
"407","","f","psychophysics","117","549039","0.0-7.0-1.0-4.0-0.0-0.5","2","2","2","2","2","2","2","2","2","2","2","2","2","2","2","2","1","2","2","2","4","5","4","4","4","4","4","2","4","1","0","1","1","0","0","1","1","0","1","1","0","1","0","1","2","4","4","5","3","2","1","2","2","3","2","772080972635312129","文","89","","","","nonmatch","","","","","","","","","","","","","","key","f","16.86826829268404","684","381","j","false","match","img/diamond.png","菱形","菱形","ALT1","formal_ALT1_2","","","","","","","","","","","",""
"null","<span style='color:red; font-size: 70px;'>错误! </span>","null","html-keyboard-response","118","549545","0.0-7.0-1.0-4.0-0.0-1.5","2","2","2","2","2","2","2","2","2","2","2","2","2","2","2","2","1","2","2","2","4","5","4","4","4","4","4","2","4","1","0","1","1","0","0","1","1","0","1","1","0","1","0","1","2","4","4","5","3","2","1","2","2","3","2","772080972635312129","文","89","","","","","","","","","","","","","","","","","","","","","","","","","","","","","","feedback_test","","","","","","","","","","","",""
"612","","j","psychophysics","119","551158","0.0-7.0-1.0-4.0-0.0-0.6","2","2","2","2","2","2","2","2","2","2","2","2","2","2","2","2","1","2","2","2","4","5","4","4","4","4","4","2","4","1","0","1","1","0","0","1","1","0","1","1","0","1","0","1","2","4","4","5","3","2","1","2","2","3","2","772080972635312129","文","89","","","","match","","","","","","","","","","","","","","key","j","16.663104166667228","684","381","j","true","match","img/square.png","方形","方形","ALT1","formal_ALT1_2","","","","","","","","","","","",""
"null","<span style='color:GreenYellow; font-size: 70px;'>正确! </span>","null","html-keyboard-response","120","551662","0.0-7.0-1.0-4.0-0.0-1.6","2","2","2","2","2","2","2","2","2","2","2","2","2","2","2","2","1","2","2","2","4","5","4","4","4","4","4","2","4","1","0","1","1","0","0","1","1","0","1","1","0","1","0","1","2","4","4","5","3","2","1","2","2","3","2","772080972635312129","文","89","","","","","","","","","","","","","","","","","","","","","","","","","","","","","","feedback_test","","","","","","","","","","","",""
"456","","j","psychophysics","121","553120","0.0-7.0-1.0-4.0-0.0-0.7","2","2","2","2","2","2","2","2","2","2","2","2","2","2","2","2","1","2","2","2","4","5","4","4","4","4","4","2","4","1","0","1","1","0","0","1","1","0","1","1","0","1","0","1","2","4","4","5","3","2","1","2","2","3","2","772080972635312129","文","89","","","","match","","","","","","","","","","","","","","key","j","16.66372941176489","684","381","j","true","match","img/square.png","方形","方形","ALT1","formal_ALT1_2","","","","","","","","","","","",""
"null","<span style='color:GreenYellow; font-size: 70px;'>正确! </span>","null","html-keyboard-response","122","553623","0.0-7.0-1.0-4.0-0.0-1.7","2","2","2","2","2","2","2","2","2","2","2","2","2","2","2","2","1","2","2","2","4","5","4","4","4","4","4","2","4","1","0","1","1","0","0","1","1","0","1","1","0","1","0","1","2","4","4","5","3","2","1","2","2","3","2","772080972635312129","文","89","","","","","","","","","","","","","","","","","","","","","","","","","","","","","","feedback_test","","","","","","","","","","","",""
"506","","j","psychophysics","123","555132","0.0-7.0-1.0-4.0-0.0-0.8","2","2","2","2","2","2","2","2","2","2","2","2","2","2","2","2","1","2","2","2","4","5","4","4","4","4","4","2","4","1","0","1","1","0","0","1","1","0","1","1","0","1","0","1","2","4","4","5","3","2","1","2","2","3","2","772080972635312129","文","89","","","","match","","","","","","","","","","","","","","key","j","16.663329545453465","684","381","j","true","match","img/ellipse.png","椭圆","椭圆","ALT1","formal_ALT1_2","","","","","","","","","","","",""
"null","<span style='color:GreenYellow; font-size: 70px;'>正确! </span>","null","html-keyboard-response","124","555633","0.0-7.0-1.0-4.0-0.0-1.8","2","2","2","2","2","2","2","2","2","2","2","2","2","2","2","2","1","2","2","2","4","5","4","4","4","4","4","2","4","1","0","1","1","0","0","1","1","0","1","1","0","1","0","1","2","4","4","5","3","2","1","2","2","3","2","772080972635312129","文","89","","","","","","","","","","","","","","","","","","","","","","","","","","","","","","feedback_test","","","","","","","","","","","",""
"592","","f","psychophysics","125","557231","0.0-7.0-1.0-4.0-0.0-0.9","2","2","2","2","2","2","2","2","2","2","2","2","2","2","2","2","1","2","2","2","4","5","4","4","4","4","4","2","4","1","0","1","1","0","0","1","1","0","1","1","0","1","0","1","2","4","4","5","3","2","1","2","2","3","2","772080972635312129","文","89","","","","nonmatch","","","","","","","","","","","","","","key","f","16.663553191490095","684","381","j","false","match","img/ellipse.png","椭圆","椭圆","ALT1","formal_ALT1_2","","","","","","","","","","","",""
"null","<span style='color:red; font-size: 70px;'>错误! </span>","null","html-keyboard-response","126","557733","0.0-7.0-1.0-4.0-0.0-1.9","2","2","2","2","2","2","2","2","2","2","2","2","2","2","2","2","1","2","2","2","4","5","4","4","4","4","4","2","4","1","0","1","1","0","0","1","1","0","1","1","0","1","0","1","2","4","4","5","3","2","1","2","2","3","2","772080972635312129","文","89","","","","","","","","","","","","","","","","","","","","","","","","","","","","","","feedback_test","","","","","","","","","","","",""
"477","","j","psychophysics","127","559212","0.0-7.0-1.0-4.0-0.0-0.10","2","2","2","2","2","2","2","2","2","2","2","2","2","2","2","2","1","2","2","2","4","5","4","4","4","4","4","2","4","1","0","1","1","0","0","1","1","0","1","1","0","1","0","1","2","4","4","5","3","2","1","2","2","3","2","772080972635312129","文","89","","","","match","","","","","","","","","","","","","","key","j","16.663689655172853","684","381","j","true","match","img/hexagon.png","六边","六边","ALT1","formal_ALT1_2","","","","","","","","","","","",""
"null","<span style='color:GreenYellow; font-size: 70px;'>正确! </span>","null","html-keyboard-response","128","559714","0.0-7.0-1.0-4.0-0.0-1.10","2","2","2","2","2","2","2","2","2","2","2","2","2","2","2","2","1","2","2","2","4","5","4","4","4","4","4","2","4","1","0","1","1","0","0","1","1","0","1","1","0","1","0","1","2","4","4","5","3","2","1","2","2","3","2","772080972635312129","文","89","","","","","","","","","","","","","","","","","","","","","","","","","","","","","","feedback_test","","","","","","","","","","","",""
"460","","f","psychophysics","129","561177","0.0-7.0-1.0-4.0-0.0-0.11","2","2","2","2","2","2","2","2","2","2","2","2","2","2","2","2","1","2","2","2","4","5","4","4","4","4","4","2","4","1","0","1","1","0","0","1","1","0","1","1","0","1","0","1","2","4","4","5","3","2","1","2","2","3","2","772080972635312129","文","89","","","","nonmatch","","","","","","","","","","","","","","key","f","16.663244186047745","684","381","f","true","nonmatch","img/hexagon.png","菱形","六边","ALT1","formal_ALT1_2","","","","","","","","","","","",""
"null","<span style='color:GreenYellow; font-size: 70px;'>正确! </span>","null","html-keyboard-response","130","561680","0.0-7.0-1.0-4.0-0.0-1.11","2","2","2","2","2","2","2","2","2","2","2","2","2","2","2","2","1","2","2","2","4","5","4","4","4","4","4","2","4","1","0","1","1","0","0","1","1","0","1","1","0","1","0","1","2","4","4","5","3","2","1","2","2","3","2","772080972635312129","文","89","","","","","","","","","","","","","","","","","","","","","","","","","","","","","","feedback_test","","","","","","","","","","","",""
"474","","f","psychophysics","131","563162","0.0-7.0-1.0-4.0-0.0-0.12","2","2","2","2","2","2","2","2","2","2","2","2","2","2","2","2","1","2","2","2","4","5","4","4","4","4","4","2","4","1","0","1","1","0","0","1","1","0","1","1","0","1","0","1","2","4","4","5","3","2","1","2","2","3","2","772080972635312129","文","89","","","","nonmatch","","","","","","","","","","","","","","key","f","16.66338372092997","684","381","j","false","match","img/hexagon.png","六边","六边","ALT1","formal_ALT1_2","","","","","","","","","","","",""
"null","<span style='color:red; font-size: 70px;'>错误! </span>","null","html-keyboard-response","132","563664","0.0-7.0-1.0-4.0-0.0-1.12","2","2","2","2","2","2","2","2","2","2","2","2","2","2","2","2","1","2","2","2","4","5","4","4","4","4","4","2","4","1","0","1","1","0","0","1","1","0","1","1","0","1","0","1","2","4","4","5","3","2","1","2","2","3","2","772080972635312129","文","89","","","","","","","","","","","","","","","","","","","","","","","","","","","","","","feedback_test","","","","","","","","","","","",""
"408","","j","psychophysics","133","565075","0.0-7.0-1.0-4.0-0.0-0.13","2","2","2","2","2","2","2","2","2","2","2","2","2","2","2","2","1","2","2","2","4","5","4","4","4","4","4","2","4","1","0","1","1","0","0","1","1","0","1","1","0","1","0","1","2","4","4","5","3","2","1","2","2","3","2","772080972635312129","文","89","","","","match","","","","","","","","","","","","","","key","j","16.66383132530118","684","381","j","true","match","img/ellipse.png","椭圆","椭圆","ALT1","formal_ALT1_2","","","","","","","","","","","",""
"null","<span style='color:GreenYellow; font-size: 70px;'>正确! </span>","null","html-keyboard-response","134","565576","0.0-7.0-1.0-4.0-0.0-1.13","2","2","2","2","2","2","2","2","2","2","2","2","2","2","2","2","1","2","2","2","4","5","4","4","4","4","4","2","4","1","0","1","1","0","0","1","1","0","1","1","0","1","0","1","2","4","4","5","3","2","1","2","2","3","2","772080972635312129","文","89","","","","","","","","","","","","","","","","","","","","","","","","","","","","","","feedback_test","","","","","","","","","","","",""
"393","","j","psychophysics","135","566972","0.0-7.0-1.0-4.0-0.0-0.14","2","2","2","2","2","2","2","2","2","2","2","2","2","2","2","2","1","2","2","2","4","5","4","4","4","4","4","2","4","1","0","1","1","0","0","1","1","0","1","1","0","1","0","1","2","4","4","5","3","2","1","2","2","3","2","772080972635312129","文","89","","","","match","","","","","","","","","","","","","","key","j","16.66561445783184","684","381","f","false","nonmatch","img/hexagon.png","椭圆","六边","ALT1","formal_ALT1_2","","","","","","","","","","","",""
"null","<span style='color:red; font-size: 70px;'>错误! </span>","null","html-keyboard-response","136","567475","0.0-7.0-1.0-4.0-0.0-1.14","2","2","2","2","2","2","2","2","2","2","2","2","2","2","2","2","1","2","2","2","4","5","4","4","4","4","4","2","4","1","0","1","1","0","0","1","1","0","1","1","0","1","0","1","2","4","4","5","3","2","1","2","2","3","2","772080972635312129","文","89","","","","","","","","","","","","","","","","","","","","","","","","","","","","","","feedback_test","","","","","","","","","","","",""
"550","","f","psychophysics","137","569029","0.0-7.0-1.0-4.0-0.0-0.15","2","2","2","2","2","2","2","2","2","2","2","2","2","2","2","2","1","2","2","2","4","5","4","4","4","4","4","2","4","1","0","1","1","0","0","1","1","0","1","1","0","1","0","1","2","4","4","5","3","2","1","2","2","3","2","772080972635312129","文","89","","","","nonmatch","","","","","","","","","","","","","","key","f","16.664076923076728","684","381","j","false","match","img/diamond.png","菱形","菱形","ALT1","formal_ALT1_2","","","","","","","","","","","",""
"null","<span style='color:red; font-size: 70px;'>错误! </span>","null","html-keyboard-response","138","569532","0.0-7.0-1.0-4.0-0.0-1.15","2","2","2","2","2","2","2","2","2","2","2","2","2","2","2","2","1","2","2","2","4","5","4","4","4","4","4","2","4","1","0","1","1","0","0","1","1","0","1","1","0","1","0","1","2","4","4","5","3","2","1","2","2","3","2","772080972635312129","文","89","","","","","","","","","","","","","","","","","","","","","","","","","","","","","","feedback_test","","","","","","","","","","","",""
"487","","j","psychophysics","139","571023","0.0-7.0-1.0-4.0-0.0-0.16","2","2","2","2","2","2","2","2","2","2","2","2","2","2","2","2","1","2","2","2","4","5","4","4","4","4","4","2","4","1","0","1","1","0","0","1","1","0","1","1","0","1","0","1","2","4","4","5","3","2","1","2","2","3","2","772080972635312129","文","89","","","","match","","","","","","","","","","","","","","key","j","16.664999999998887","684","381","j","true","match","img/diamond.png","菱形","菱形","ALT1","formal_ALT1_2","","","","","","","","","","","",""
"null","<span style='color:GreenYellow; font-size: 70px;'>正确! </span>","null","html-keyboard-response","140","571524","0.0-7.0-1.0-4.0-0.0-1.16","2","2","2","2","2","2","2","2","2","2","2","2","2","2","2","2","1","2","2","2","4","5","4","4","4","4","4","2","4","1","0","1","1","0","0","1","1","0","1","1","0","1","0","1","2","4","4","5","3","2","1","2","2","3","2","772080972635312129","文","89","","","","","","","","","","","","","","","","","","","","","","","","","","","","","","feedback_test","","","","","","","","","","","",""
"430","","j","psychophysics","141","572957","0.0-7.0-1.0-4.0-0.0-0.17","2","2","2","2","2","2","2","2","2","2","2","2","2","2","2","2","1","2","2","2","4","5","4","4","4","4","4","2","4","1","0","1","1","0","0","1","1","0","1","1","0","1","0","1","2","4","4","5","3","2","1","2","2","3","2","772080972635312129","文","89","","","","match","","","","","","","","","","","","","","key","j","16.663511904761737","684","381","f","false","nonmatch","img/diamond.png","方形","菱形","ALT1","formal_ALT1_2","","","","","","","","","","","",""
"null","<span style='color:red; font-size: 70px;'>错误! </span>","null","html-keyboard-response","142","573458","0.0-7.0-1.0-4.0-0.0-1.17","2","2","2","2","2","2","2","2","2","2","2","2","2","2","2","2","1","2","2","2","4","5","4","4","4","4","4","2","4","1","0","1","1","0","0","1","1","0","1","1","0","1","0","1","2","4","4","5","3","2","1","2","2","3","2","772080972635312129","文","89","","","","","","","","","","","","","","","","","","","","","","","","","","","","","","feedback_test","","","","","","","","","","","",""
"671","","j","psychophysics","143","575133","0.0-7.0-1.0-4.0-0.0-0.18","2","2","2","2","2","2","2","2","2","2","2","2","2","2","2","2","1","2","2","2","4","5","4","4","4","4","4","2","4","1","0","1","1","0","0","1","1","0","1","1","0","1","0","1","2","4","4","5","3","2","1","2","2","3","2","772080972635312129","文","89","","","","match","","","","","","","","","","","","","","key","j","16.66358163265383","684","381","j","true","match","img/square.png","方形","方形","ALT1","formal_ALT1_2","","","","","","","","","","","",""
"null","<span style='color:GreenYellow; font-size: 70px;'>正确! </span>","null","html-keyboard-response","144","575635","0.0-7.0-1.0-4.0-0.0-1.18","2","2","2","2","2","2","2","2","2","2","2","2","2","2","2","2","1","2","2","2","4","5","4","4","4","4","4","2","4","1","0","1","1","0","0","1","1","0","1","1","0","1","0","1","2","4","4","5","3","2","1","2","2","3","2","772080972635312129","文","89","","","","","","","","","","","","","","","","","","","","","","","","","","","","","","feedback_test","","","","","","","","","","","",""
"451","","f","psychophysics","145","577089","0.0-7.0-1.0-4.0-0.0-0.19","2","2","2","2","2","2","2","2","2","2","2","2","2","2","2","2","1","2","2","2","4","5","4","4","4","4","4","2","4","1","0","1","1","0","0","1","1","0","1","1","0","1","0","1","2","4","4","5","3","2","1","2","2","3","2","772080972635312129","文","89","","","","nonmatch","","","","","","","","","","","","","","key","f","16.665325581395273","684","381","f","true","nonmatch","img/diamond.png","六边","菱形","ALT1","formal_ALT1_2","","","","","","","","","","","",""
"null","<span style='color:GreenYellow; font-size: 70px;'>正确! </span>","null","html-keyboard-response","146","577590","0.0-7.0-1.0-4.0-0.0-1.19","2","2","2","2","2","2","2","2","2","2","2","2","2","2","2","2","1","2","2","2","4","5","4","4","4","4","4","2","4","1","0","1","1","0","0","1","1","0","1","1","0","1","0","1","2","4","4","5","3","2","1","2","2","3","2","772080972635312129","文","89","","","","","","","","","","","","","","","","","","","","","","","","","","","","","","feedback_test","","","","","","","","","","","",""
"498","","f","psychophysics","147","579091","0.0-7.0-1.0-4.0-0.0-0.20","2","2","2","2","2","2","2","2","2","2","2","2","2","2","2","2","1","2","2","2","4","5","4","4","4","4","4","2","4","1","0","1","1","0","0","1","1","0","1","1","0","1","0","1","2","4","4","5","3","2","1","2","2","3","2","772080972635312129","文","89","","","","nonmatch","","","","","","","","","","","","","","key","f","16.66339772727224","684","381","f","true","nonmatch","img/square.png","菱形","方形","ALT1","formal_ALT1_2","","","","","","","","","","","",""
"null","<span style='color:GreenYellow; font-size: 70px;'>正确! </span>","null","html-keyboard-response","148","579592","0.0-7.0-1.0-4.0-0.0-1.20","2","2","2","2","2","2","2","2","2","2","2","2","2","2","2","2","1","2","2","2","4","5","4","4","4","4","4","2","4","1","0","1","1","0","0","1","1","0","1","1","0","1","0","1","2","4","4","5","3","2","1","2","2","3","2","772080972635312129","文","89","","","","","","","","","","","","","","","","","","","","","","","","","","","","","","feedback_test","","","","","","","","","","","",""
"393","","j","psychophysics","149","580988","0.0-7.0-1.0-4.0-0.0-0.21","2","2","2","2","2","2","2","2","2","2","2","2","2","2","2","2","1","2","2","2","4","5","4","4","4","4","4","2","4","1","0","1","1","0","0","1","1","0","1","1","0","1","0","1","2","4","4","5","3","2","1","2","2","3","2","772080972635312129","文","89","","","","match","","","","","","","","","","","","","","key","j","16.663865853658958","684","381","f","false","nonmatch","img/diamond.png","椭圆","菱形","ALT1","formal_ALT1_2","","","","","","","","","","","",""
"null","<span style='color:red; font-size: 70px;'>错误! </span>","null","html-keyboard-response","150","581491","0.0-7.0-1.0-4.0-0.0-1.21","2","2","2","2","2","2","2","2","2","2","2","2","2","2","2","2","1","2","2","2","4","5","4","4","4","4","4","2","4","1","0","1","1","0","0","1","1","0","1","1","0","1","0","1","2","4","4","5","3","2","1","2","2","3","2","772080972635312129","文","89","","","","","","","","","","","","","","","","","","","","","","","","","","","","","","feedback_test","","","","","","","","","","","",""
"634","","j","psychophysics","151","583128","0.0-7.0-1.0-4.0-0.0-0.22","2","2","2","2","2","2","2","2","2","2","2","2","2","2","2","2","1","2","2","2","4","5","4","4","4","4","4","2","4","1","0","1","1","0","0","1","1","0","1","1","0","1","0","1","2","4","4","5","3","2","1","2","2","3","2","772080972635312129","文","89","","","","match","","","","","","","","","","","","","","key","j","16.663260416666162","684","381","f","false","nonmatch","img/ellipse.png","菱形","椭圆","ALT1","formal_ALT1_2","","","","","","","","","","","",""
"null","<span style='color:red; font-size: 70px;'>错误! </span>","null","html-keyboard-response","152","583631","0.0-7.0-1.0-4.0-0.0-1.22","2","2","2","2","2","2","2","2","2","2","2","2","2","2","2","2","1","2","2","2","4","5","4","4","4","4","4","2","4","1","0","1","1","0","0","1","1","0","1","1","0","1","0","1","2","4","4","5","3","2","1","2","2","3","2","772080972635312129","文","89","","","","","","","","","","","","","","","","","","","","","","","","","","","","","","feedback_test","","","","","","","","","","","",""
"670","","j","psychophysics","153","585304","0.0-7.0-1.0-4.0-0.0-0.23","2","2","2","2","2","2","2","2","2","2","2","2","2","2","2","2","1","2","2","2","4","5","4","4","4","4","4","2","4","1","0","1","1","0","0","1","1","0","1","1","0","1","0","1","2","4","4","5","3","2","1","2","2","3","2","772080972635312129","文","89","","","","match","","","","","","","","","","","","","","key","j","16.663969696969772","684","381","f","false","nonmatch","img/ellipse.png","六边","椭圆","ALT1","formal_ALT1_2","","","","","","","","","","","",""
"null","<span style='color:red; font-size: 70px;'>错误! </span>","null","html-keyboard-response","154","585806","0.0-7.0-1.0-4.0-0.0-1.23","2","2","2","2","2","2","2","2","2","2","2","2","2","2","2","2","1","2","2","2","4","5","4","4","4","4","4","2","4","1","0","1","1","0","0","1","1","0","1","1","0","1","0","1","2","4","4","5","3","2","1","2","2","3","2","772080972635312129","文","89","","","","","","","","","","","","","","","","","","","","","","","","","","","","","","feedback_test","","","","","","","","","","","",""
"934","","j","psychophysics","155","587747","0.0-7.0-1.0-4.0-0.0-0.24","2","2","2","2","2","2","2","2","2","2","2","2","2","2","2","2","1","2","2","2","4","5","4","4","4","4","4","2","4","1","0","1","1","0","0","1","1","0","1","1","0","1","0","1","2","4","4","5","3","2","1","2","2","3","2","772080972635312129","文","89","","","","match","","","","","","","","","","","","","","key","j","16.663815789473073","684","381","j","true","match","img/diamond.png","菱形","菱形","ALT1","formal_ALT1_2","","","","","","","","","","","",""
"null","<span style='color:GreenYellow; font-size: 70px;'>正确! </span>","null","html-keyboard-response","156","588251","0.0-7.0-1.0-4.0-0.0-1.24","2","2","2","2","2","2","2","2","2","2","2","2","2","2","2","2","1","2","2","2","4","5","4","4","4","4","4","2","4","1","0","1","1","0","0","1","1","0","1","1","0","1","0","1","2","4","4","5","3","2","1","2","2","3","2","772080972635312129","文","89","","","","","","","","","","","","","","","","","","","","","","","","","","","","","","feedback_test","","","","","","","","","","","",""
"689","","f","psychophysics","157","589942","0.0-7.0-1.0-4.0-0.0-0.25","2","2","2","2","2","2","2","2","2","2","2","2","2","2","2","2","1","2","2","2","4","5","4","4","4","4","4","2","4","1","0","1","1","0","0","1","1","0","1","1","0","1","0","1","2","4","4","5","3","2","1","2","2","3","2","772080972635312129","文","89","","","","nonmatch","","","","","","","","","","","","","","key","f","16.66540000000037","684","381","j","false","match","img/hexagon.png","六边","六边","ALT1","formal_ALT1_2","","","","","","","","","","","",""
"null","<span style='color:red; font-size: 70px;'>错误! </span>","null","html-keyboard-response","158","590445","0.0-7.0-1.0-4.0-0.0-1.25","2","2","2","2","2","2","2","2","2","2","2","2","2","2","2","2","1","2","2","2","4","5","4","4","4","4","4","2","4","1","0","1","1","0","0","1","1","0","1","1","0","1","0","1","2","4","4","5","3","2","1","2","2","3","2","772080972635312129","文","89","","","","","","","","","","","","","","","","","","","","","","","","","","","","","","feedback_test","","","","","","","","","","","",""
"588","","j","psychophysics","159","592036","0.0-7.0-1.0-4.0-0.0-0.26","2","2","2","2","2","2","2","2","2","2","2","2","2","2","2","2","1","2","2","2","4","5","4","4","4","4","4","2","4","1","0","1","1","0","0","1","1","0","1","1","0","1","0","1","2","4","4","5","3","2","1","2","2","3","2","772080972635312129","文","89","","","","match","","","","","","","","","","","","","","key","j","16.66353191489334","684","381","j","true","match","img/square.png","方形","方形","ALT1","formal_ALT1_2","","","","","","","","","","","",""
"null","<span style='color:GreenYellow; font-size: 70px;'>正确! </span>","null","html-keyboard-response","160","592538","0.0-7.0-1.0-4.0-0.0-1.26","2","2","2","2","2","2","2","2","2","2","2","2","2","2","2","2","1","2","2","2","4","5","4","4","4","4","4","2","4","1","0","1","1","0","0","1","1","0","1","1","0","1","0","1","2","4","4","5","3","2","1","2","2","3","2","772080972635312129","文","89","","","","","","","","","","","","","","","","","","","","","","","","","","","","","","feedback_test","","","","","","","","","","","",""
"463","","f","psychophysics","161","594004","0.0-7.0-1.0-4.0-0.0-0.27","2","2","2","2","2","2","2","2","2","2","2","2","2","2","2","2","1","2","2","2","4","5","4","4","4","4","4","2","4","1","0","1","1","0","0","1","1","0","1","1","0","1","0","1","2","4","4","5","3","2","1","2","2","3","2","772080972635312129","文","89","","","","nonmatch","","","","","","","","","","","","","","key","f","16.66439534883762","684","381","j","false","match","img/square.png","方形","方形","ALT1","formal_ALT1_2","","","","","","","","","","","",""
"null","<span style='color:red; font-size: 70px;'>错误! </span>","null","html-keyboard-response","162","594505","0.0-7.0-1.0-4.0-0.0-1.27","2","2","2","2","2","2","2","2","2","2","2","2","2","2","2","2","1","2","2","2","4","5","4","4","4","4","4","2","4","1","0","1","1","0","0","1","1","0","1","1","0","1","0","1","2","4","4","5","3","2","1","2","2","3","2","772080972635312129","文","89","","","","","","","","","","","","","","","","","","","","","","","","","","","","","","feedback_test","","","","","","","","","","","",""
"482","","j","psychophysics","163","595989","0.0-7.0-1.0-4.0-0.0-0.28","2","2","2","2","2","2","2","2","2","2","2","2","2","2","2","2","1","2","2","2","4","5","4","4","4","4","4","2","4","1","0","1","1","0","0","1","1","0","1","1","0","1","0","1","2","4","4","5","3","2","1","2","2","3","2","772080972635312129","文","89","","","","match","","","","","","","","","","","","","","key","j","16.66384090909163","684","381","f","false","nonmatch","img/square.png","菱形","方形","ALT1","formal_ALT1_2","","","","","","","","","","","",""
"null","<span style='color:red; font-size: 70px;'>错误! </span>","null","html-keyboard-response","164","596495","0.0-7.0-1.0-4.0-0.0-1.28","2","2","2","2","2","2","2","2","2","2","2","2","2","2","2","2","1","2","2","2","4","5","4","4","4","4","4","2","4","1","0","1","1","0","0","1","1","0","1","1","0","1","0","1","2","4","4","5","3","2","1","2","2","3","2","772080972635312129","文","89","","","","","","","","","","","","","","","","","","","","","","","","","","","","","","feedback_test","","","","","","","","","","","",""
"840","","j","psychophysics","165","598337","0.0-7.0-1.0-4.0-0.0-0.29","2","2","2","2","2","2","2","2","2","2","2","2","2","2","2","2","1","2","2","2","4","5","4","4","4","4","4","2","4","1","0","1","1","0","0","1","1","0","1","1","0","1","0","1","2","4","4","5","3","2","1","2","2","3","2","772080972635312129","文","89","","","","match","","","","","","","","","","","","","","key","j","16.662541284403176","684","381","j","true","match","img/hexagon.png","六边","六边","ALT1","formal_ALT1_2","","","","","","","","","","","",""
"null","<span style='color:GreenYellow; font-size: 70px;'>正确! </span>","null","html-keyboard-response","166","598839","0.0-7.0-1.0-4.0-0.0-1.29","2","2","2","2","2","2","2","2","2","2","2","2","2","2","2","2","1","2","2","2","4","5","4","4","4","4","4","2","4","1","0","1","1","0","0","1","1","0","1","1","0","1","0","1","2","4","4","5","3","2","1","2","2","3","2","772080972635312129","文","89","","","","","","","","","","","","","","","","","","","","","","","","","","","","","","feedback_test","","","","","","","","","","","",""
"568","","j","psychophysics","167","600409","0.0-7.0-1.0-4.0-0.0-0.30","2","2","2","2","2","2","2","2","2","2","2","2","2","2","2","2","1","2","2","2","4","5","4","4","4","4","4","2","4","1","0","1","1","0","0","1","1","0","1","1","0","1","0","1","2","4","4","5","3","2","1","2","2","3","2","772080972635312129","文","89","","","","match","","","","","","","","","","","","","","key","j","16.661304347827","684","381","j","true","match","img/hexagon.png","六边","六边","ALT1","formal_ALT1_2","","","","","","","","","","","",""
"null","<span style='color:GreenYellow; font-size: 70px;'>正确! </span>","null","html-keyboard-response","168","600912","0.0-7.0-1.0-4.0-0.0-1.30","2","2","2","2","2","2","2","2","2","2","2","2","2","2","2","2","1","2","2","2","4","5","4","4","4","4","4","2","4","1","0","1","1","0","0","1","1","0","1","1","0","1","0","1","2","4","4","5","3","2","1","2","2","3","2","772080972635312129","文","89","","","","","","","","","","","","","","","","","","","","","","","","","","","","","","feedback_test","","","","","","","","","","","",""
"704","","j","psychophysics","169","602619","0.0-7.0-1.0-4.0-0.0-0.31","2","2","2","2","2","2","2","2","2","2","2","2","2","2","2","2","1","2","2","2","4","5","4","4","4","4","4","2","4","1","0","1","1","0","0","1","1","0","1","1","0","1","0","1","2","4","4","5","3","2","1","2","2","3","2","772080972635312129","文","89","","","","match","","","","","","","","","","","","","","key","j","16.662574257425003","684","381","j","true","match","img/diamond.png","菱形","菱形","ALT1","formal_ALT1_2","","","","","","","","","","","",""
"null","<span style='color:GreenYellow; font-size: 70px;'>正确! </span>","null","html-keyboard-response","170","603121","0.0-7.0-1.0-4.0-0.0-1.31","2","2","2","2","2","2","2","2","2","2","2","2","2","2","2","2","1","2","2","2","4","5","4","4","4","4","4","2","4","1","0","1","1","0","0","1","1","0","1","1","0","1","0","1","2","4","4","5","3","2","1","2","2","3","2","772080972635312129","文","89","","","","","","","","","","","","","","","","","","","","","","","","","","","","","","feedback_test","","","","","","","","","","","",""
"751","","f","psychophysics","171","604873","0.0-7.0-1.0-4.0-0.0-0.32","2","2","2","2","2","2","2","2","2","2","2","2","2","2","2","2","1","2","2","2","4","5","4","4","4","4","4","2","4","1","0","1","1","0","0","1","1","0","1","1","0","1","0","1","2","4","4","5","3","2","1","2","2","3","2","772080972635312129","文","89","","","","nonmatch","","","","","","","","","","","","","","key","f","16.665182692307727","684","381","f","true","nonmatch","img/square.png","六边","方形","ALT1","formal_ALT1_2","","","","","","","","","","","",""
"null","<span style='color:GreenYellow; font-size: 70px;'>正确! </span>","null","html-keyboard-response","172","605375","0.0-7.0-1.0-4.0-0.0-1.32","2","2","2","2","2","2","2","2","2","2","2","2","2","2","2","2","1","2","2","2","4","5","4","4","4","4","4","2","4","1","0","1","1","0","0","1","1","0","1","1","0","1","0","1","2","4","4","5","3","2","1","2","2","3","2","772080972635312129","文","89","","","","","","","","","","","","","","","","","","","","","","","","","","","","","","feedback_test","","","","","","","","","","","",""
"655","","f","psychophysics","173","607032","0.0-7.0-1.0-4.0-0.0-0.33","2","2","2","2","2","2","2","2","2","2","2","2","2","2","2","2","1","2","2","2","4","5","4","4","4","4","4","2","4","1","0","1","1","0","0","1","1","0","1","1","0","1","0","1","2","4","4","5","3","2","1","2","2","3","2","772080972635312129","文","89","","","","nonmatch","","","","","","","","","","","","","","key","f","16.664132653060843","684","381","f","true","nonmatch","img/square.png","椭圆","方形","ALT1","formal_ALT1_2","","","","","","","","","","","",""
"null","<span style='color:GreenYellow; font-size: 70px;'>正确! </span>","null","html-keyboard-response","174","607538","0.0-7.0-1.0-4.0-0.0-1.33","2","2","2","2","2","2","2","2","2","2","2","2","2","2","2","2","1","2","2","2","4","5","4","4","4","4","4","2","4","1","0","1","1","0","0","1","1","0","1","1","0","1","0","1","2","4","4","5","3","2","1","2","2","3","2","772080972635312129","文","89","","","","","","","","","","","","","","","","","","","","","","","","","","","","","","feedback_test","","","","","","","","","","","",""
"696","","j","psychophysics","175","609236","0.0-7.0-1.0-4.0-0.0-0.34","2","2","2","2","2","2","2","2","2","2","2","2","2","2","2","2","1","2","2","2","4","5","4","4","4","4","4","2","4","1","0","1","1","0","0","1","1","0","1","1","0","1","0","1","2","4","4","5","3","2","1","2","2","3","2","772080972635312129","文","89","","","","match","","","","","","","","","","","","","","key","j","16.66435999999987","684","381","j","true","match","img/diamond.png","菱形","菱形","ALT1","formal_ALT1_2","","","","","","","","","","","",""
"null","<span style='color:GreenYellow; font-size: 70px;'>正确! </span>","null","html-keyboard-response","176","609739","0.0-7.0-1.0-4.0-0.0-1.34","2","2","2","2","2","2","2","2","2","2","2","2","2","2","2","2","1","2","2","2","4","5","4","4","4","4","4","2","4","1","0","1","1","0","0","1","1","0","1","1","0","1","0","1","2","4","4","5","3","2","1","2","2","3","2","772080972635312129","文","89","","","","","","","","","","","","","","","","","","","","","","","","","","","","","","feedback_test","","","","","","","","","","","",""
"840","","f","psychophysics","177","611585","0.0-7.0-1.0-4.0-0.0-0.35","2","2","2","2","2","2","2","2","2","2","2","2","2","2","2","2","1","2","2","2","4","5","4","4","4","4","4","2","4","1","0","1","1","0","0","1","1","0","1","1","0","1","0","1","2","4","4","5","3","2","1","2","2","3","2","772080972635312129","文","89","","","","nonmatch","","","","","","","","","","","","","","key","f","16.663412844035946","684","381","f","true","nonmatch","img/ellipse.png","菱形","椭圆","ALT1","formal_ALT1_2","","","","","","","","","","","",""
"null","<span style='color:GreenYellow; font-size: 70px;'>正确! </span>","null","html-keyboard-response","178","612086","0.0-7.0-1.0-4.0-0.0-1.35","2","2","2","2","2","2","2","2","2","2","2","2","2","2","2","2","1","2","2","2","4","5","4","4","4","4","4","2","4","1","0","1","1","0","0","1","1","0","1","1","0","1","0","1","2","4","4","5","3","2","1","2","2","3","2","772080972635312129","文","89","","","","","","","","","","","","","","","","","","","","","","","","","","","","","","feedback_test","","","","","","","","","","","",""
"678","","j","psychophysics","179","613767","0.0-7.0-1.0-4.0-0.0-0.36","2","2","2","2","2","2","2","2","2","2","2","2","2","2","2","2","1","2","2","2","4","5","4","4","4","4","4","2","4","1","0","1","1","0","0","1","1","0","1","1","0","1","0","1","2","4","4","5","3","2","1","2","2","3","2","772080972635312129","文","89","","","","match","","","","","","","","","","","","","","key","j","16.663434343433686","684","381","f","false","nonmatch","img/ellipse.png","六边","椭圆","ALT1","formal_ALT1_2","","","","","","","","","","","",""
"null","<span style='color:red; font-size: 70px;'>错误! </span>","null","html-keyboard-response","180","614269","0.0-7.0-1.0-4.0-0.0-1.36","2","2","2","2","2","2","2","2","2","2","2","2","2","2","2","2","1","2","2","2","4","5","4","4","4","4","4","2","4","1","0","1","1","0","0","1","1","0","1","1","0","1","0","1","2","4","4","5","3","2","1","2","2","3","2","772080972635312129","文","89","","","","","","","","","","","","","","","","","","","","","","","","","","","","","","feedback_test","","","","","","","","","","","",""
"887","","f","psychophysics","181","616158","0.0-7.0-1.0-4.0-0.0-0.37","2","2","2","2","2","2","2","2","2","2","2","2","2","2","2","2","1","2","2","2","4","5","4","4","4","4","4","2","4","1","0","1","1","0","0","1","1","0","1","1","0","1","0","1","2","4","4","5","3","2","1","2","2","3","2","772080972635312129","文","89","","","","nonmatch","","","","","","","","","","","","","","key","f","16.66319642857187","684","381","f","true","nonmatch","img/diamond.png","方形","菱形","ALT1","formal_ALT1_2","","","","","","","","","","","",""
