"rt","stimulus","response","trial_type","trial_index","time_elapsed","internal_node_id","ses_1","ses_2","ses_3","ses_4","ses_5","ses_6","ses_7","ses_8","ses_9","ses_10","coreself_1","coreself_2","coreself_3","coreself_4","coreself_5","coreself_6","coreself_7","coreself_8","coreself_9","coreself_10","SGPS_1","SGPS_2","SGPS_3","SGPS_4","SGPS_5","SGPS_6","SGPS_7","SGPS_8","SGPS_9","NPI1","NPI2","NPI3","NPI4","NPI5","NPI6","NPI7","NPI8","NPI9","NPI10","NPI11","NPI12","NPI13","NPI14","NPI15","hsns_1","hsns_2","hsns_3","hsns_4","hsns_5","trap1","hsns_6","hsns_7","hsns_8","hsns_9","hsns_10","subj_idx","friend_name","ParticipantID","value","success","user_agent","responses","item_order","radio_event_ids","radio_event_times","key_event_times","mouse_event_times","straightlining","zigzagging","honeypot","timeout","failed_images","failed_audio","failed_video","view_history","response_type","key_press","avg_frame_time","center_x","center_y","correct_response","correct","identity","Image","word","condition","task_id","screen_id","time_stamp","version_attrib","version_target","IAT","RT","varname","summary","version_attrib2","version_target2","question_order","correct_answer","trap1_item"
"16931","
   <p><div style = ""color: white;font-size:25px;"">您好，欢迎参加本次实验。</div> </p>
   <p><div style = ""color: white;font-size:25px;"">为充分保障您的权利，请确保您已经知晓并同意《参与实验同意书》以及《数据公开知情同意书》。</div></p>
   <p><div style = ""color: white;font-size:25px;"">如果您未见过上述内容，请咨询实验员。</div></p>
   <p><div style = ""color: white;font-size:25px;"">如果您选择继续实验，则表示您已经清楚两份知情同意书的内容并同意。</div></p>
   <p><div style = ""color: pink;font-size:30px;"">请确保您记得day0的实验编号，您将在本次实验输入该编号，若您忘记，请咨询实验员后作答。</div></p>
   <p><div style = ""color: lightblue;font-size:25px;"">请您尽可能认真地作答，我们将依据您在各问卷和按键任务中的作答质量发放报酬。</div></p>
   <p> <div style = ""color: green;font-size:25px;""><按空格键至下页></div> </p>
   "," ","html-keyboard-response","0","16934","0.0-0.0","3","3","2","3","2","2","2","2","2","3","3","2","2","3","3","3","2","2","3","2","5","5","3","3","3","3","2","3","3","1","0","0","1","0","0","1","1","0","1","1","0","1","0","1","3","3","4","3","4","2","3","4","4","4","3","800009629605175298","武","369","","","","","","","","","","","","","","","","","","","","","","","","","","","","","","","","","","","","","","","","","",""
"","","","call-function","1","16935","0.0-1.0-0.0","3","3","2","3","2","2","2","2","2","3","3","2","2","3","3","3","2","2","3","2","5","5","3","3","3","3","2","3","3","1","0","0","1","0","0","1","1","0","1","1","0","1","0","1","3","3","4","3","4","2","3","4","4","4","3","800009629605175298","武","369","","","","","","","","","","","","","","","","","","","","","","","","","","","","","","","","","","","","","","","","","",""
"37677","","{""friend_name"":""武"",""ParticipantID"":""369""}","survey-html-form","2","54613","0.0-1.0-1.0","3","3","2","3","2","2","2","2","2","3","3","2","2","3","3","3","2","2","3","2","5","5","3","3","3","3","2","3","3","1","0","0","1","0","0","1","1","0","1","1","0","1","0","1","3","3","4","3","4","2","3","4","4","4","3","800009629605175298","武","369","","","","","","","","","","","","","","","","","","","","","","","","","","","","","","","","","","","","","","","","","",""
"","","","fullscreen","3","96958","0.0-2.0","3","3","2","3","2","2","2","2","2","3","3","2","2","3","3","3","2","2","3","2","5","5","3","3","3","3","2","3","3","1","0","0","1","0","0","1","1","0","1","1","0","1","0","1","3","3","4","3","4","2","3","4","4","4","3","800009629605175298","武","369","","true","{}","","","","","","","","","","","","","","","","","","","","","","","","","","","","","","","","","","","","","","",""
"134771.29999999888","","{""Q01"":""3"",""Q02"":""3"",""Q03"":""2"",""Q04"":""3"",""Q05"":""2"",""Q06"":""2"",""Q07"":""2"",""Q08"":""2"",""Q09"":""2"",""Q10"":""3""}","survey-template","4","231734","0.0-3.0","3","3","2","3","2","2","2","2","2","3","3","2","2","3","3","3","2","2","3","2","5","5","3","3","3","3","2","3","3","1","0","0","1","0","0","1","1","0","1","1","0","1","0","1","3","3","4","3","4","2","3","4","4","4","3","800009629605175298","武","369","","","","{""Q01"":""3"",""Q02"":""3"",""Q03"":""2"",""Q04"":""3"",""Q05"":""2"",""Q06"":""2"",""Q07"":""2"",""Q08"":""2"",""Q09"":""2"",""Q10"":""3""}","[0,1,2,3,4,5,6,7,8,9]","[""Q01"",""Q02"",""Q03"",""Q04"",""Q05"",""Q06"",""Q06"",""Q07"",""Q08"",""Q09"",""Q10""]","[8737.5,11478,14567,75035,78071,89701,111489,113435.09999999963,118098.90000000037,121921,130525.19999999925]","[]","[8737.5,11478,14567,75035,78071,89701,111489,113435.09999999963,118098.90000000037,121921,130525.19999999925,134769.19999999925]","0.7","0.3333333333333333","0","","","","","","","","","","","","","","","","","","","","","","","","","","","","","",""
"127540.80000000075","","{""Q01"":""3"",""Q02"":""2"",""Q03"":""2"",""Q04"":""3"",""Q05"":""3"",""Q06"":""3"",""Q07"":""2"",""Q08"":""2"",""Q09"":""3"",""Q10"":""2""}","survey-template","5","359285","0.0-4.0","3","3","2","3","2","2","2","2","2","3","3","2","2","3","3","3","2","2","3","2","5","5","3","3","3","3","2","3","3","1","0","0","1","0","0","1","1","0","1","1","0","1","0","1","3","3","4","3","4","2","3","4","4","4","3","800009629605175298","武","369","","","","{""Q01"":""3"",""Q02"":""2"",""Q03"":""2"",""Q04"":""3"",""Q05"":""3"",""Q06"":""3"",""Q07"":""2"",""Q08"":""2"",""Q09"":""3"",""Q10"":""2""}","[0,1,2,3,4,5,6,7,8,9]","[""Q01"",""Q02"",""Q03"",""Q04"",""Q05"",""Q06"",""Q07"",""Q08"",""Q09"",""Q10""]","[17322.300000000745,25344.200000001118,27117.800000000745,31506.200000001118,35929.90000000037,40546.40000000037,41496.10000000149,44572.20000000112,122834.10000000149,125706]","[]","[17322.300000000745,25344.200000001118,27117.800000000745,31506.200000001118,35929.90000000037,40546.40000000037,41496.10000000149,44572.20000000112,122834.10000000149,125706,127538.5]","0.5","0.5555555555555556","0","","","","","","","","","","","","","","","","","","","","","","","","","","","","","",""
"","","","preload","6","359612","0.0-5.0","3","3","2","3","2","2","2","2","2","3","3","2","2","3","3","3","2","2","3","2","5","5","3","3","3","3","2","3","3","1","0","0","1","0","0","1","1","0","1","1","0","1","0","1","3","3","4","3","4","2","3","4","4","4","3","800009629605175298","武","369","","true","","","","","","","","","","","false","[]","[]","[]","","","","","","","","","","","","","","","","","","","","","","","","","",""
"213527","","","instructions","7","573161","0.0-6.0","3","3","2","3","2","2","2","2","2","3","3","2","2","3","3","3","2","2","3","2","5","5","3","3","3","3","2","3","3","1","0","0","1","0","0","1","1","0","1","1","0","1","0","1","3","3","4","3","4","2","3","4","4","4","3","800009629605175298","武","369","","","","","","","","","","","","","","","","","[{""page_index"":0,""viewing_time"":213526}]","","","","","","","","","","","","","","","","","","","","","","","","",""
"81921","","","instructions","8","655086","0.0-7.0-1.0-0.0","3","3","2","3","2","2","2","2","2","3","3","2","2","3","3","3","2","2","3","2","5","5","3","3","3","3","2","3","3","1","0","0","1","0","0","1","1","0","1","1","0","1","0","1","3","3","4","3","4","2","3","4","4","4","3","800009629605175298","武","369","","","","","","","","","","","","","","","","","[{""page_index"":0,""viewing_time"":69188},{""page_index"":1,""viewing_time"":9490},{""page_index"":2,""viewing_time"":3243}]","","","","","","","","","","","","","","","","","","","","","","","","",""
"null","","null","psychophysics","9","657312","0.0-7.0-1.0-1.0-0.0-0.0","3","3","2","3","2","2","2","2","2","3","3","2","2","3","3","3","2","2","3","2","5","5","3","3","3","3","2","3","3","1","0","0","1","0","0","1","1","0","1","1","0","1","0","1","3","3","4","3","4","2","3","4","4","4","3","800009629605175298","武","369","","","","null","","","","","","","","","","","","","","key","null","16.666000000000086","720","446","j","false","match","img/trapezoid.png","梯形","梯形","ALT1_2","prac_ALT1_2","","","","","","","","","","","",""
"null","<span class='add_' style='color:yellow; font-size: 70px;'> 太慢! </span>","null","html-keyboard-response","10","657814","0.0-7.0-1.0-1.0-0.0-1.0","3","3","2","3","2","2","2","2","2","3","3","2","2","3","3","3","2","2","3","2","5","5","3","3","3","3","2","3","3","1","0","0","1","0","0","1","1","0","1","1","0","1","0","1","3","3","4","3","4","2","3","4","4","4","3","800009629605175298","武","369","","","","","","","","","","","","","","","","","","","","","","","","","","","","","","feedback_test","","","","","","","","","","","",""
"533","","j","psychophysics","11","659349","0.0-7.0-1.0-1.0-0.0-0.1","3","3","2","3","2","2","2","2","2","3","3","2","2","3","3","3","2","2","3","2","5","5","3","3","3","3","2","3","3","1","0","0","1","0","0","1","1","0","1","1","0","1","0","1","3","3","4","3","4","2","3","4","4","4","3","800009629605175298","武","369","","","","match","","","","","","","","","","","","","","key","j","16.666000000000317","720","446","f","false","nonmatch","img/trapezoid.png","六边","梯形","ALT1_2","prac_ALT1_2","","","","","","","","","","","",""
"null","<span style='color:red; font-size: 70px;'>错误! </span>","null","html-keyboard-response","12","659852","0.0-7.0-1.0-1.0-0.0-1.1","3","3","2","3","2","2","2","2","2","3","3","2","2","3","3","3","2","2","3","2","5","5","3","3","3","3","2","3","3","1","0","0","1","0","0","1","1","0","1","1","0","1","0","1","3","3","4","3","4","2","3","4","4","4","3","800009629605175298","武","369","","","","","","","","","","","","","","","","","","","","","","","","","","","","","","feedback_test","","","","","","","","","","","",""
"459","","f","psychophysics","13","661314","0.0-7.0-1.0-1.0-0.0-0.2","3","3","2","3","2","2","2","2","2","3","3","2","2","3","3","3","2","2","3","2","5","5","3","3","3","3","2","3","3","1","0","0","1","0","0","1","1","0","1","1","0","1","0","1","3","3","4","3","4","2","3","4","4","4","3","800009629605175298","武","369","","","","nonmatch","","","","","","","","","","","","","","key","f","16.63437931034473","720","446","j","false","match","img/diamond.png","菱形","菱形","ALT1_2","prac_ALT1_2","","","","","","","","","","","",""
"null","<span style='color:red; font-size: 70px;'>错误! </span>","null","html-keyboard-response","14","661815","0.0-7.0-1.0-1.0-0.0-1.2","3","3","2","3","2","2","2","2","2","3","3","2","2","3","3","3","2","2","3","2","5","5","3","3","3","3","2","3","3","1","0","0","1","0","0","1","1","0","1","1","0","1","0","1","3","3","4","3","4","2","3","4","4","4","3","800009629605175298","武","369","","","","","","","","","","","","","","","","","","","","","","","","","","","","","","feedback_test","","","","","","","","","","","",""
"463","","j","psychophysics","15","663280","0.0-7.0-1.0-1.0-0.0-0.3","3","3","2","3","2","2","2","2","2","3","3","2","2","3","3","3","2","2","3","2","5","5","3","3","3","3","2","3","3","1","0","0","1","0","0","1","1","0","1","1","0","1","0","1","3","3","4","3","4","2","3","4","4","4","3","800009629605175298","武","369","","","","match","","","","","","","","","","","","","","key","j","16.666000000000448","720","446","f","false","nonmatch","img/diamond.png","椭圆","菱形","ALT1_2","prac_ALT1_2","","","","","","","","","","","",""
"null","<span style='color:red; font-size: 70px;'>错误! </span>","null","html-keyboard-response","16","663781","0.0-7.0-1.0-1.0-0.0-1.3","3","3","2","3","2","2","2","2","2","3","3","2","2","3","3","3","2","2","3","2","5","5","3","3","3","3","2","3","3","1","0","0","1","0","0","1","1","0","1","1","0","1","0","1","3","3","4","3","4","2","3","4","4","4","3","800009629605175298","武","369","","","","","","","","","","","","","","","","","","","","","","","","","","","","","","feedback_test","","","","","","","","","","","",""
"282","","f","psychophysics","17","665066","0.0-7.0-1.0-1.0-0.0-0.4","3","3","2","3","2","2","2","2","2","3","3","2","2","3","3","3","2","2","3","2","5","5","3","3","3","3","2","3","3","1","0","0","1","0","0","1","1","0","1","1","0","1","0","1","3","3","4","3","4","2","3","4","4","4","3","800009629605175298","武","369","","","","nonmatch","","","","","","","","","","","","","","key","f","16.66599999999897","720","446","j","false","match","img/ellipse.png","椭圆","椭圆","ALT1_2","prac_ALT1_2","","","","","","","","","","","",""
"null","<span style='color:red; font-size: 70px;'>错误! </span>","null","html-keyboard-response","18","665569","0.0-7.0-1.0-1.0-0.0-1.4","3","3","2","3","2","2","2","2","2","3","3","2","2","3","3","3","2","2","3","2","5","5","3","3","3","3","2","3","3","1","0","0","1","0","0","1","1","0","1","1","0","1","0","1","3","3","4","3","4","2","3","4","4","4","3","800009629605175298","武","369","","","","","","","","","","","","","","","","","","","","","","","","","","","","","","feedback_test","","","","","","","","","","","",""
"1210","","j","psychophysics","19","667781","0.0-7.0-1.0-1.0-0.0-0.5","3","3","2","3","2","2","2","2","2","3","3","2","2","3","3","3","2","2","3","2","5","5","3","3","3","3","2","3","3","1","0","0","1","0","0","1","1","0","1","1","0","1","0","1","3","3","4","3","4","2","3","4","4","4","3","800009629605175298","武","369","","","","match","","","","","","","","","","","","","","key","j","16.666000000000086","720","446","f","false","nonmatch","img/trapezoid.png","椭圆","梯形","ALT1_2","prac_ALT1_2","","","","","","","","","","","",""
"null","<span class='add_' style='color:yellow; font-size: 70px;'> 太慢! </span>","null","html-keyboard-response","20","668284","0.0-7.0-1.0-1.0-0.0-1.5","3","3","2","3","2","2","2","2","2","3","3","2","2","3","3","3","2","2","3","2","5","5","3","3","3","3","2","3","3","1","0","0","1","0","0","1","1","0","1","1","0","1","0","1","3","3","4","3","4","2","3","4","4","4","3","800009629605175298","武","369","","","","","","","","","","","","","","","","","","","","","","","","","","","","","","feedback_test","","","","","","","","","","","",""
"473","","j","psychophysics","21","669759","0.0-7.0-1.0-1.0-0.0-0.6","3","3","2","3","2","2","2","2","2","3","3","2","2","3","3","3","2","2","3","2","5","5","3","3","3","3","2","3","3","1","0","0","1","0","0","1","1","0","1","1","0","1","0","1","3","3","4","3","4","2","3","4","4","4","3","800009629605175298","武","369","","","","match","","","","","","","","","","","","","","key","j","16.666000000000448","720","446","j","true","match","img/trapezoid.png","梯形","梯形","ALT1_2","prac_ALT1_2","","","","","","","","","","","",""
"null","<span style='color:GreenYellow; font-size: 70px;'>正确! </span>","null","html-keyboard-response","22","670261","0.0-7.0-1.0-1.0-0.0-1.6","3","3","2","3","2","2","2","2","2","3","3","2","2","3","3","3","2","2","3","2","5","5","3","3","3","3","2","3","3","1","0","0","1","0","0","1","1","0","1","1","0","1","0","1","3","3","4","3","4","2","3","4","4","4","3","800009629605175298","武","369","","","","","","","","","","","","","","","","","","","","","","","","","","","","","","feedback_test","","","","","","","","","","","",""
"501","","f","psychophysics","23","671765","0.0-7.0-1.0-1.0-0.0-0.7","3","3","2","3","2","2","2","2","2","3","3","2","2","3","3","3","2","2","3","2","5","5","3","3","3","3","2","3","3","1","0","0","1","0","0","1","1","0","1","1","0","1","0","1","3","3","4","3","4","2","3","4","4","4","3","800009629605175298","武","369","","","","nonmatch","","","","","","","","","","","","","","key","f","16.616235955057174","720","446","j","false","match","img/diamond.png","菱形","菱形","ALT1_2","prac_ALT1_2","","","","","","","","","","","",""
"null","<span style='color:red; font-size: 70px;'>错误! </span>","null","html-keyboard-response","24","672268","0.0-7.0-1.0-1.0-0.0-1.7","3","3","2","3","2","2","2","2","2","3","3","2","2","3","3","3","2","2","3","2","5","5","3","3","3","3","2","3","3","1","0","0","1","0","0","1","1","0","1","1","0","1","0","1","3","3","4","3","4","2","3","4","4","4","3","800009629605175298","武","369","","","","","","","","","","","","","","","","","","","","","","","","","","","","","","feedback_test","","","","","","","","","","","",""
"470","","j","psychophysics","25","673745","0.0-7.0-1.0-1.0-0.0-0.8","3","3","2","3","2","2","2","2","2","3","3","2","2","3","3","3","2","2","3","2","5","5","3","3","3","3","2","3","3","1","0","0","1","0","0","1","1","0","1","1","0","1","0","1","3","3","4","3","4","2","3","4","4","4","3","800009629605175298","武","369","","","","match","","","","","","","","","","","","","","key","j","16.666000000000448","720","446","f","false","nonmatch","img/ellipse.png","菱形","椭圆","ALT1_2","prac_ALT1_2","","","","","","","","","","","",""
"null","<span style='color:red; font-size: 70px;'>错误! </span>","null","html-keyboard-response","26","674246","0.0-7.0-1.0-1.0-0.0-1.8","3","3","2","3","2","2","2","2","2","3","3","2","2","3","3","3","2","2","3","2","5","5","3","3","3","3","2","3","3","1","0","0","1","0","0","1","1","0","1","1","0","1","0","1","3","3","4","3","4","2","3","4","4","4","3","800009629605175298","武","369","","","","","","","","","","","","","","","","","","","","","","","","","","","","","","feedback_test","","","","","","","","","","","",""
"739","","j","psychophysics","27","675987","0.0-7.0-1.0-1.0-0.0-0.9","3","3","2","3","2","2","2","2","2","3","3","2","2","3","3","3","2","2","3","2","5","5","3","3","3","3","2","3","3","1","0","0","1","0","0","1","1","0","1","1","0","1","0","1","3","3","4","3","4","2","3","4","4","4","3","800009629605175298","武","369","","","","match","","","","","","","","","","","","","","key","j","16.666000000000796","720","446","j","true","match","img/ellipse.png","椭圆","椭圆","ALT1_2","prac_ALT1_2","","","","","","","","","","","",""
"null","<span style='color:GreenYellow; font-size: 70px;'>正确! </span>","null","html-keyboard-response","28","676491","0.0-7.0-1.0-1.0-0.0-1.9","3","3","2","3","2","2","2","2","2","3","3","2","2","3","3","3","2","2","3","2","5","5","3","3","3","3","2","3","3","1","0","0","1","0","0","1","1","0","1","1","0","1","0","1","3","3","4","3","4","2","3","4","4","4","3","800009629605175298","武","369","","","","","","","","","","","","","","","","","","","","","","","","","","","","","","feedback_test","","","","","","","","","","","",""
"351","","f","psychophysics","29","677844","0.0-7.0-1.0-1.0-0.0-0.10","3","3","2","3","2","2","2","2","2","3","3","2","2","3","3","3","2","2","3","2","5","5","3","3","3","3","2","3","3","1","0","0","1","0","0","1","1","0","1","1","0","1","0","1","3","3","4","3","4","2","3","4","4","4","3","800009629605175298","武","369","","","","nonmatch","","","","","","","","","","","","","","key","f","16.66600000000035","720","446","j","false","match","img/hexagon.png","六边","六边","ALT1_2","prac_ALT1_2","","","","","","","","","","","",""
"null","<span style='color:red; font-size: 70px;'>错误! </span>","null","html-keyboard-response","30","678347","0.0-7.0-1.0-1.0-0.0-1.10","3","3","2","3","2","2","2","2","2","3","3","2","2","3","3","3","2","2","3","2","5","5","3","3","3","3","2","3","3","1","0","0","1","0","0","1","1","0","1","1","0","1","0","1","3","3","4","3","4","2","3","4","4","4","3","800009629605175298","武","369","","","","","","","","","","","","","","","","","","","","","","","","","","","","","","feedback_test","","","","","","","","","","","",""
"440","","j","psychophysics","31","679790","0.0-7.0-1.0-1.0-0.0-0.11","3","3","2","3","2","2","2","2","2","3","3","2","2","3","3","3","2","2","3","2","5","5","3","3","3","3","2","3","3","1","0","0","1","0","0","1","1","0","1","1","0","1","0","1","3","3","4","3","4","2","3","4","4","4","3","800009629605175298","武","369","","","","match","","","","","","","","","","","","","","key","j","16.666000000000825","720","446","f","false","nonmatch","img/ellipse.png","梯形","椭圆","ALT1_2","prac_ALT1_2","","","","","","","","","","","",""
"null","<span style='color:red; font-size: 70px;'>错误! </span>","null","html-keyboard-response","32","680294","0.0-7.0-1.0-1.0-0.0-1.11","3","3","2","3","2","2","2","2","2","3","3","2","2","3","3","3","2","2","3","2","5","5","3","3","3","3","2","3","3","1","0","0","1","0","0","1","1","0","1","1","0","1","0","1","3","3","4","3","4","2","3","4","4","4","3","800009629605175298","武","369","","","","","","","","","","","","","","","","","","","","","","","","","","","","","","feedback_test","","","","","","","","","","","",""
"576","","j","psychophysics","33","681872","0.0-7.0-1.0-1.0-0.0-0.12","3","3","2","3","2","2","2","2","2","3","3","2","2","3","3","3","2","2","3","2","5","5","3","3","3","3","2","3","3","1","0","0","1","0","0","1","1","0","1","1","0","1","0","1","3","3","4","3","4","2","3","4","4","4","3","800009629605175298","武","369","","","","match","","","","","","","","","","","","","","key","j","16.621180851064484","720","446","j","true","match","img/trapezoid.png","梯形","梯形","ALT1_2","prac_ALT1_2","","","","","","","","","","","",""
"null","<span style='color:GreenYellow; font-size: 70px;'>正确! </span>","null","html-keyboard-response","34","682374","0.0-7.0-1.0-1.0-0.0-1.12","3","3","2","3","2","2","2","2","2","3","3","2","2","3","3","3","2","2","3","2","5","5","3","3","3","3","2","3","3","1","0","0","1","0","0","1","1","0","1","1","0","1","0","1","3","3","4","3","4","2","3","4","4","4","3","800009629605175298","武","369","","","","","","","","","","","","","","","","","","","","","","","","","","","","","","feedback_test","","","","","","","","","","","",""
"711","","j","psychophysics","35","684088","0.0-7.0-1.0-1.0-0.0-0.13","3","3","2","3","2","2","2","2","2","3","3","2","2","3","3","3","2","2","3","2","5","5","3","3","3","3","2","3","3","1","0","0","1","0","0","1","1","0","1","1","0","1","0","1","3","3","4","3","4","2","3","4","4","4","3","800009629605175298","武","369","","","","match","","","","","","","","","","","","","","key","j","16.66600000000029","720","446","j","true","match","img/hexagon.png","六边","六边","ALT1_2","prac_ALT1_2","","","","","","","","","","","",""
"null","<span style='color:GreenYellow; font-size: 70px;'>正确! </span>","null","html-keyboard-response","36","684593","0.0-7.0-1.0-1.0-0.0-1.13","3","3","2","3","2","2","2","2","2","3","3","2","2","3","3","3","2","2","3","2","5","5","3","3","3","3","2","3","3","1","0","0","1","0","0","1","1","0","1","1","0","1","0","1","3","3","4","3","4","2","3","4","4","4","3","800009629605175298","武","369","","","","","","","","","","","","","","","","","","","","","","","","","","","","","","feedback_test","","","","","","","","","","","",""
"878","","j","psychophysics","37","686474","0.0-7.0-1.0-1.0-0.0-0.14","3","3","2","3","2","2","2","2","2","3","3","2","2","3","3","3","2","2","3","2","5","5","3","3","3","3","2","3","3","1","0","0","1","0","0","1","1","0","1","1","0","1","0","1","3","3","4","3","4","2","3","4","4","4","3","800009629605175298","武","369","","","","match","","","","","","","","","","","","","","key","j","16.665999999999798","720","446","f","false","nonmatch","img/ellipse.png","六边","椭圆","ALT1_2","prac_ALT1_2","","","","","","","","","","","",""
"null","<span style='color:red; font-size: 70px;'>错误! </span>","null","html-keyboard-response","38","686977","0.0-7.0-1.0-1.0-0.0-1.14","3","3","2","3","2","2","2","2","2","3","3","2","2","3","3","3","2","2","3","2","5","5","3","3","3","3","2","3","3","1","0","0","1","0","0","1","1","0","1","1","0","1","0","1","3","3","4","3","4","2","3","4","4","4","3","800009629605175298","武","369","","","","","","","","","","","","","","","","","","","","","","","","","","","","","","feedback_test","","","","","","","","","","","",""
"628","","j","psychophysics","39","688607","0.0-7.0-1.0-1.0-0.0-0.15","3","3","2","3","2","2","2","2","2","3","3","2","2","3","3","3","2","2","3","2","5","5","3","3","3","3","2","3","3","1","0","0","1","0","0","1","1","0","1","1","0","1","0","1","3","3","4","3","4","2","3","4","4","4","3","800009629605175298","武","369","","","","match","","","","","","","","","","","","","","key","j","16.666000000001077","720","446","f","false","nonmatch","img/hexagon.png","椭圆","六边","ALT1_2","prac_ALT1_2","","","","","","","","","","","",""
"null","<span style='color:red; font-size: 70px;'>错误! </span>","null","html-keyboard-response","40","689110","0.0-7.0-1.0-1.0-0.0-1.15","3","3","2","3","2","2","2","2","2","3","3","2","2","3","3","3","2","2","3","2","5","5","3","3","3","3","2","3","3","1","0","0","1","0","0","1","1","0","1","1","0","1","0","1","3","3","4","3","4","2","3","4","4","4","3","800009629605175298","武","369","","","","","","","","","","","","","","","","","","","","","","","","","","","","","","feedback_test","","","","","","","","","","","",""
"803","","j","psychophysics","41","690915","0.0-7.0-1.0-1.0-0.0-0.16","3","3","2","3","2","2","2","2","2","3","3","2","2","3","3","3","2","2","3","2","5","5","3","3","3","3","2","3","3","1","0","0","1","0","0","1","1","0","1","1","0","1","0","1","3","3","4","3","4","2","3","4","4","4","3","800009629605175298","武","369","","","","match","","","","","","","","","","","","","","key","j","16.70413084112099","720","446","j","true","match","img/hexagon.png","六边","六边","ALT1_2","prac_ALT1_2","","","","","","","","","","","",""
"null","<span style='color:GreenYellow; font-size: 70px;'>正确! </span>","null","html-keyboard-response","42","691416","0.0-7.0-1.0-1.0-0.0-1.16","3","3","2","3","2","2","2","2","2","3","3","2","2","3","3","3","2","2","3","2","5","5","3","3","3","3","2","3","3","1","0","0","1","0","0","1","1","0","1","1","0","1","0","1","3","3","4","3","4","2","3","4","4","4","3","800009629605175298","武","369","","","","","","","","","","","","","","","","","","","","","","","","","","","","","","feedback_test","","","","","","","","","","","",""
"451","","f","psychophysics","43","692875","0.0-7.0-1.0-1.0-0.0-0.17","3","3","2","3","2","2","2","2","2","3","3","2","2","3","3","3","2","2","3","2","5","5","3","3","3","3","2","3","3","1","0","0","1","0","0","1","1","0","1","1","0","1","0","1","3","3","4","3","4","2","3","4","4","4","3","800009629605175298","武","369","","","","nonmatch","","","","","","","","","","","","","","key","f","16.666000000000825","720","446","f","true","nonmatch","img/hexagon.png","菱形","六边","ALT1_2","prac_ALT1_2","","","","","","","","","","","",""
"null","<span style='color:GreenYellow; font-size: 70px;'>正确! </span>","null","html-keyboard-response","44","693377","0.0-7.0-1.0-1.0-0.0-1.17","3","3","2","3","2","2","2","2","2","3","3","2","2","3","3","3","2","2","3","2","5","5","3","3","3","3","2","3","3","1","0","0","1","0","0","1","1","0","1","1","0","1","0","1","3","3","4","3","4","2","3","4","4","4","3","800009629605175298","武","369","","","","","","","","","","","","","","","","","","","","","","","","","","","","","","feedback_test","","","","","","","","","","","",""
"478","","j","psychophysics","45","694858","0.0-7.0-1.0-1.0-0.0-0.18","3","3","2","3","2","2","2","2","2","3","3","2","2","3","3","3","2","2","3","2","5","5","3","3","3","3","2","3","3","1","0","0","1","0","0","1","1","0","1","1","0","1","0","1","3","3","4","3","4","2","3","4","4","4","3","800009629605175298","武","369","","","","match","","","","","","","","","","","","","","key","j","16.666000000000086","720","446","f","false","nonmatch","img/trapezoid.png","菱形","梯形","ALT1_2","prac_ALT1_2","","","","","","","","","","","",""
"null","<span style='color:red; font-size: 70px;'>错误! </span>","null","html-keyboard-response","46","695361","0.0-7.0-1.0-1.0-0.0-1.18","3","3","2","3","2","2","2","2","2","3","3","2","2","3","3","3","2","2","3","2","5","5","3","3","3","3","2","3","3","1","0","0","1","0","0","1","1","0","1","1","0","1","0","1","3","3","4","3","4","2","3","4","4","4","3","800009629605175298","武","369","","","","","","","","","","","","","","","","","","","","","","","","","","","","","","feedback_test","","","","","","","","","","","",""
"794","","j","psychophysics","47","697158","0.0-7.0-1.0-1.0-0.0-0.19","3","3","2","3","2","2","2","2","2","3","3","2","2","3","3","3","2","2","3","2","5","5","3","3","3","3","2","3","3","1","0","0","1","0","0","1","1","0","1","1","0","1","0","1","3","3","4","3","4","2","3","4","4","4","3","800009629605175298","武","369","","","","match","","","","","","","","","","","","","","key","j","16.665999999999887","720","446","f","false","nonmatch","img/diamond.png","梯形","菱形","ALT1_2","prac_ALT1_2","","","","","","","","","","","",""
"null","<span style='color:red; font-size: 70px;'>错误! </span>","null","html-keyboard-response","48","697660","0.0-7.0-1.0-1.0-0.0-1.19","3","3","2","3","2","2","2","2","2","3","3","2","2","3","3","3","2","2","3","2","5","5","3","3","3","3","2","3","3","1","0","0","1","0","0","1","1","0","1","1","0","1","0","1","3","3","4","3","4","2","3","4","4","4","3","800009629605175298","武","369","","","","","","","","","","","","","","","","","","","","","","","","","","","","","","feedback_test","","","","","","","","","","","",""
"null","","null","psychophysics","49","699868","0.0-7.0-1.0-1.0-0.0-0.20","3","3","2","3","2","2","2","2","2","3","3","2","2","3","3","3","2","2","3","2","5","5","3","3","3","3","2","3","3","1","0","0","1","0","0","1","1","0","1","1","0","1","0","1","3","3","4","3","4","2","3","4","4","4","3","800009629605175298","武","369","","","","null","","","","","","","","","","","","","","key","null","16.66599999999944","720","446","f","false","nonmatch","img/diamond.png","六边","菱形","ALT1_2","prac_ALT1_2","","","","","","","","","","","",""
"null","<span class='add_' style='color:yellow; font-size: 70px;'> 太慢! </span>","null","html-keyboard-response","50","700369","0.0-7.0-1.0-1.0-0.0-1.20","3","3","2","3","2","2","2","2","2","3","3","2","2","3","3","3","2","2","3","2","5","5","3","3","3","3","2","3","3","1","0","0","1","0","0","1","1","0","1","1","0","1","0","1","3","3","4","3","4","2","3","4","4","4","3","800009629605175298","武","369","","","","","","","","","","","","","","","","","","","","","","","","","","","","","","feedback_test","","","","","","","","","","","",""
"772","","j","psychophysics","51","702147","0.0-7.0-1.0-1.0-0.0-0.21","3","3","2","3","2","2","2","2","2","3","3","2","2","3","3","3","2","2","3","2","5","5","3","3","3","3","2","3","3","1","0","0","1","0","0","1","1","0","1","1","0","1","0","1","3","3","4","3","4","2","3","4","4","4","3","800009629605175298","武","369","","","","match","","","","","","","","","","","","","","key","j","16.668800000000434","720","446","j","true","match","img/ellipse.png","椭圆","椭圆","ALT1_2","prac_ALT1_2","","","","","","","","","","","",""
"null","<span style='color:GreenYellow; font-size: 70px;'>正确! </span>","null","html-keyboard-response","52","702648","0.0-7.0-1.0-1.0-0.0-1.21","3","3","2","3","2","2","2","2","2","3","3","2","2","3","3","3","2","2","3","2","5","5","3","3","3","3","2","3","3","1","0","0","1","0","0","1","1","0","1","1","0","1","0","1","3","3","4","3","4","2","3","4","4","4","3","800009629605175298","武","369","","","","","","","","","","","","","","","","","","","","","","","","","","","","","","feedback_test","","","","","","","","","","","",""
"615","","f","psychophysics","53","704264","0.0-7.0-1.0-1.0-0.0-0.22","3","3","2","3","2","2","2","2","2","3","3","2","2","3","3","3","2","2","3","2","5","5","3","3","3","3","2","3","3","1","0","0","1","0","0","1","1","0","1","1","0","1","0","1","3","3","4","3","4","2","3","4","4","4","3","800009629605175298","武","369","","","","nonmatch","","","","","","","","","","","","","","key","f","16.665999999999865","720","446","f","true","nonmatch","img/hexagon.png","梯形","六边","ALT1_2","prac_ALT1_2","","","","","","","","","","","",""
"null","<span style='color:GreenYellow; font-size: 70px;'>正确! </span>","null","html-keyboard-response","54","704769","0.0-7.0-1.0-1.0-0.0-1.22","3","3","2","3","2","2","2","2","2","3","3","2","2","3","3","3","2","2","3","2","5","5","3","3","3","3","2","3","3","1","0","0","1","0","0","1","1","0","1","1","0","1","0","1","3","3","4","3","4","2","3","4","4","4","3","800009629605175298","武","369","","","","","","","","","","","","","","","","","","","","","","","","","","","","","","feedback_test","","","","","","","","","","","",""
"673","","j","psychophysics","55","706447","0.0-7.0-1.0-1.0-0.0-0.23","3","3","2","3","2","2","2","2","2","3","3","2","2","3","3","3","2","2","3","2","5","5","3","3","3","3","2","3","3","1","0","0","1","0","0","1","1","0","1","1","0","1","0","1","3","3","4","3","4","2","3","4","4","4","3","800009629605175298","武","369","","","","match","","","","","","","","","","","","","","key","j","16.666000000000086","720","446","j","true","match","img/diamond.png","菱形","菱形","ALT1_2","prac_ALT1_2","","","","","","","","","","","",""
"null","<span style='color:GreenYellow; font-size: 70px;'>正确! </span>","null","html-keyboard-response","56","706951","0.0-7.0-1.0-1.0-0.0-1.23","3","3","2","3","2","2","2","2","2","3","3","2","2","3","3","3","2","2","3","2","5","5","3","3","3","3","2","3","3","1","0","0","1","0","0","1","1","0","1","1","0","1","0","1","3","3","4","3","4","2","3","4","4","4","3","800009629605175298","武","369","","","","","","","","","","","","","","","","","","","","","","","","","","","","","","feedback_test","","","","","","","","","","","",""
"773","","j","psychophysics","57","708730","0.0-7.0-1.0-1.0-0.0-0.24","3","3","2","3","2","2","2","2","2","3","3","2","2","3","3","3","2","2","3","2","5","5","3","3","3","3","2","3","3","1","0","0","1","0","0","1","1","0","1","1","0","1","0","1","3","3","4","3","4","2","3","4","4","4","3","800009629605175298","武","369","","","","match","","","","","","","","","","","","","","key","j","16.66599999999938","720","446","f","false","nonmatch","img/hexagon.png","椭圆","六边","ALT1_2","prac_ALT1_2","","","","","","","","","","","",""
"null","<span style='color:red; font-size: 70px;'>错误! </span>","null","html-keyboard-response","58","709233","0.0-7.0-1.0-1.0-0.0-1.24","3","3","2","3","2","2","2","2","2","3","3","2","2","3","3","3","2","2","3","2","5","5","3","3","3","3","2","3","3","1","0","0","1","0","0","1","1","0","1","1","0","1","0","1","3","3","4","3","4","2","3","4","4","4","3","800009629605175298","武","369","","","","","","","","","","","","","","","","","","","","","","","","","","","","","","feedback_test","","","","","","","","","","","",""
"847","","j","psychophysics","59","711081","0.0-7.0-1.0-1.0-0.0-0.25","3","3","2","3","2","2","2","2","2","3","3","2","2","3","3","3","2","2","3","2","5","5","3","3","3","3","2","3","3","1","0","0","1","0","0","1","1","0","1","1","0","1","0","1","3","3","4","3","4","2","3","4","4","4","3","800009629605175298","武","369","","","","match","","","","","","","","","","","","","","key","j","16.668440366972348","720","446","j","true","match","img/ellipse.png","椭圆","椭圆","ALT1_2","prac_ALT1_2","","","","","","","","","","","",""
"null","<span style='color:GreenYellow; font-size: 70px;'>正确! </span>","null","html-keyboard-response","60","711585","0.0-7.0-1.0-1.0-0.0-1.25","3","3","2","3","2","2","2","2","2","3","3","2","2","3","3","3","2","2","3","2","5","5","3","3","3","3","2","3","3","1","0","0","1","0","0","1","1","0","1","1","0","1","0","1","3","3","4","3","4","2","3","4","4","4","3","800009629605175298","武","369","","","","","","","","","","","","","","","","","","","","","","","","","","","","","","feedback_test","","","","","","","","","","","",""
"null","","null","psychophysics","61","713793","0.0-7.0-1.0-1.0-0.0-0.26","3","3","2","3","2","2","2","2","2","3","3","2","2","3","3","3","2","2","3","2","5","5","3","3","3","3","2","3","3","1","0","0","1","0","0","1","1","0","1","1","0","1","0","1","3","3","4","3","4","2","3","4","4","4","3","800009629605175298","武","369","","","","null","","","","","","","","","","","","","","key","null","16.66599999999944","720","446","f","false","nonmatch","img/hexagon.png","梯形","六边","ALT1_2","prac_ALT1_2","","","","","","","","","","","",""
"null","<span class='add_' style='color:yellow; font-size: 70px;'> 太慢! </span>","null","html-keyboard-response","62","714294","0.0-7.0-1.0-1.0-0.0-1.26","3","3","2","3","2","2","2","2","2","3","3","2","2","3","3","3","2","2","3","2","5","5","3","3","3","3","2","3","3","1","0","0","1","0","0","1","1","0","1","1","0","1","0","1","3","3","4","3","4","2","3","4","4","4","3","800009629605175298","武","369","","","","","","","","","","","","","","","","","","","","","","","","","","","","","","feedback_test","","","","","","","","","","","",""
"615","","j","psychophysics","63","715913","0.0-7.0-1.0-1.0-0.0-0.27","3","3","2","3","2","2","2","2","2","3","3","2","2","3","3","3","2","2","3","2","5","5","3","3","3","3","2","3","3","1","0","0","1","0","0","1","1","0","1","1","0","1","0","1","3","3","4","3","4","2","3","4","4","4","3","800009629605175298","武","369","","","","match","","","","","","","","","","","","","","key","j","16.666000000000196","720","446","j","true","match","img/diamond.png","菱形","菱形","ALT1_2","prac_ALT1_2","","","","","","","","","","","",""
"null","<span style='color:GreenYellow; font-size: 70px;'>正确! </span>","null","html-keyboard-response","64","716417","0.0-7.0-1.0-1.0-0.0-1.27","3","3","2","3","2","2","2","2","2","3","3","2","2","3","3","3","2","2","3","2","5","5","3","3","3","3","2","3","3","1","0","0","1","0","0","1","1","0","1","1","0","1","0","1","3","3","4","3","4","2","3","4","4","4","3","800009629605175298","武","369","","","","","","","","","","","","","","","","","","","","","","","","","","","","","","feedback_test","","","","","","","","","","","",""
"616","","f","psychophysics","65","718041","0.0-7.0-1.0-1.0-0.0-0.28","3","3","2","3","2","2","2","2","2","3","3","2","2","3","3","3","2","2","3","2","5","5","3","3","3","3","2","3","3","1","0","0","1","0","0","1","1","0","1","1","0","1","0","1","3","3","4","3","4","2","3","4","4","4","3","800009629605175298","武","369","","","","nonmatch","","","","","","","","","","","","","","key","f","16.665999999999865","720","446","j","false","match","img/trapezoid.png","梯形","梯形","ALT1_2","prac_ALT1_2","","","","","","","","","","","",""
"null","<span style='color:red; font-size: 70px;'>错误! </span>","null","html-keyboard-response","66","718545","0.0-7.0-1.0-1.0-0.0-1.28","3","3","2","3","2","2","2","2","2","3","3","2","2","3","3","3","2","2","3","2","5","5","3","3","3","3","2","3","3","1","0","0","1","0","0","1","1","0","1","1","0","1","0","1","3","3","4","3","4","2","3","4","4","4","3","800009629605175298","武","369","","","","","","","","","","","","","","","","","","","","","","","","","","","","","","feedback_test","","","","","","","","","","","",""
"1096","","f","psychophysics","67","720644","0.0-7.0-1.0-1.0-0.0-0.29","3","3","2","3","2","2","2","2","2","3","3","2","2","3","3","3","2","2","3","2","5","5","3","3","3","3","2","3","3","1","0","0","1","0","0","1","1","0","1","1","0","1","0","1","3","3","4","3","4","2","3","4","4","4","3","800009629605175298","武","369","","","","nonmatch","","","","","","","","","","","","","","key","f","16.66811199999973","720","446","f","true","nonmatch","img/trapezoid.png","椭圆","梯形","ALT1_2","prac_ALT1_2","","","","","","","","","","","",""
"null","<span style='color:GreenYellow; font-size: 70px;'>正确! </span>","null","html-keyboard-response","68","721148","0.0-7.0-1.0-1.0-0.0-1.29","3","3","2","3","2","2","2","2","2","3","3","2","2","3","3","3","2","2","3","2","5","5","3","3","3","3","2","3","3","1","0","0","1","0","0","1","1","0","1","1","0","1","0","1","3","3","4","3","4","2","3","4","4","4","3","800009629605175298","武","369","","","","","","","","","","","","","","","","","","","","","","","","","","","","","","feedback_test","","","","","","","","","","","",""
"988","","f","psychophysics","69","723138","0.0-7.0-1.0-1.0-0.0-0.30","3","3","2","3","2","2","2","2","2","3","3","2","2","3","3","3","2","2","3","2","5","5","3","3","3","3","2","3","3","1","0","0","1","0","0","1","1","0","1","1","0","1","0","1","3","3","4","3","4","2","3","4","4","4","3","800009629605175298","武","369","","","","nonmatch","","","","","","","","","","","","","","key","f","16.665999999999904","720","446","f","true","nonmatch","img/diamond.png","梯形","菱形","ALT1_2","prac_ALT1_2","","","","","","","","","","","",""
"null","<span style='color:GreenYellow; font-size: 70px;'>正确! </span>","null","html-keyboard-response","70","723640","0.0-7.0-1.0-1.0-0.0-1.30","3","3","2","3","2","2","2","2","2","3","3","2","2","3","3","3","2","2","3","2","5","5","3","3","3","3","2","3","3","1","0","0","1","0","0","1","1","0","1","1","0","1","0","1","3","3","4","3","4","2","3","4","4","4","3","800009629605175298","武","369","","","","","","","","","","","","","","","","","","","","","","","","","","","","","","feedback_test","","","","","","","","","","","",""
"839","","f","psychophysics","71","725480","0.0-7.0-1.0-1.0-0.0-0.31","3","3","2","3","2","2","2","2","2","3","3","2","2","3","3","3","2","2","3","2","5","5","3","3","3","3","2","3","3","1","0","0","1","0","0","1","1","0","1","1","0","1","0","1","3","3","4","3","4","2","3","4","4","4","3","800009629605175298","武","369","","","","nonmatch","","","","","","","","","","","","","","key","f","16.665999999999308","720","446","f","true","nonmatch","img/ellipse.png","六边","椭圆","ALT1_2","prac_ALT1_2","","","","","","","","","","","",""
"null","<span style='color:GreenYellow; font-size: 70px;'>正确! </span>","null","html-keyboard-response","72","725985","0.0-7.0-1.0-1.0-0.0-1.31","3","3","2","3","2","2","2","2","2","3","3","2","2","3","3","3","2","2","3","2","5","5","3","3","3","3","2","3","3","1","0","0","1","0","0","1","1","0","1","1","0","1","0","1","3","3","4","3","4","2","3","4","4","4","3","800009629605175298","武","369","","","","","","","","","","","","","","","","","","","","","","","","","","","","","","feedback_test","","","","","","","","","","","",""
"805","","f","psychophysics","73","727793","0.0-7.0-1.0-1.0-0.0-0.32","3","3","2","3","2","2","2","2","2","3","3","2","2","3","3","3","2","2","3","2","5","5","3","3","3","3","2","3","3","1","0","0","1","0","0","1","1","0","1","1","0","1","0","1","3","3","4","3","4","2","3","4","4","4","3","800009629605175298","武","369","","","","nonmatch","","","","","","","","","","","","","","key","f","16.665999999999887","720","446","f","true","nonmatch","img/diamond.png","椭圆","菱形","ALT1_2","prac_ALT1_2","","","","","","","","","","","",""
"null","<span style='color:GreenYellow; font-size: 70px;'>正确! </span>","null","html-keyboard-response","74","728295","0.0-7.0-1.0-1.0-0.0-1.32","3","3","2","3","2","2","2","2","2","3","3","2","2","3","3","3","2","2","3","2","5","5","3","3","3","3","2","3","3","1","0","0","1","0","0","1","1","0","1","1","0","1","0","1","3","3","4","3","4","2","3","4","4","4","3","800009629605175298","武","369","","","","","","","","","","","","","","","","","","","","","","","","","","","","","","feedback_test","","","","","","","","","","","",""
"607","","j","psychophysics","75","729905","0.0-7.0-1.0-1.0-0.0-0.33","3","3","2","3","2","2","2","2","2","3","3","2","2","3","3","3","2","2","3","2","5","5","3","3","3","3","2","3","3","1","0","0","1","0","0","1","1","0","1","1","0","1","0","1","3","3","4","3","4","2","3","4","4","4","3","800009629605175298","武","369","","","","match","","","","","","","","","","","","","","key","j","16.665999999999865","720","446","j","true","match","img/diamond.png","菱形","菱形","ALT1_2","prac_ALT1_2","","","","","","","","","","","",""
"null","<span style='color:GreenYellow; font-size: 70px;'>正确! </span>","null","html-keyboard-response","76","730407","0.0-7.0-1.0-1.0-0.0-1.33","3","3","2","3","2","2","2","2","2","3","3","2","2","3","3","3","2","2","3","2","5","5","3","3","3","3","2","3","3","1","0","0","1","0","0","1","1","0","1","1","0","1","0","1","3","3","4","3","4","2","3","4","4","4","3","800009629605175298","武","369","","","","","","","","","","","","","","","","","","","","","","","","","","","","","","feedback_test","","","","","","","","","","","",""
"850","","f","psychophysics","77","732258","0.0-7.0-1.0-1.0-0.0-0.34","3","3","2","3","2","2","2","2","2","3","3","2","2","3","3","3","2","2","3","2","5","5","3","3","3","3","2","3","3","1","0","0","1","0","0","1","1","0","1","1","0","1","0","1","3","3","4","3","4","2","3","4","4","4","3","800009629605175298","武","369","","","","nonmatch","","","","","","","","","","","","","","key","f","16.667999999999832","720","446","f","true","nonmatch","img/ellipse.png","梯形","椭圆","ALT1_2","prac_ALT1_2","","","","","","","","","","","",""
"null","<span style='color:GreenYellow; font-size: 70px;'>正确! </span>","null","html-keyboard-response","78","732760","0.0-7.0-1.0-1.0-0.0-1.34","3","3","2","3","2","2","2","2","2","3","3","2","2","3","3","3","2","2","3","2","5","5","3","3","3","3","2","3","3","1","0","0","1","0","0","1","1","0","1","1","0","1","0","1","3","3","4","3","4","2","3","4","4","4","3","800009629605175298","武","369","","","","","","","","","","","","","","","","","","","","","","","","","","","","","","feedback_test","","","","","","","","","","","",""
"972","","f","psychophysics","79","734738","0.0-7.0-1.0-1.0-0.0-0.35","3","3","2","3","2","2","2","2","2","3","3","2","2","3","3","3","2","2","3","2","5","5","3","3","3","3","2","3","3","1","0","0","1","0","0","1","1","0","1","1","0","1","0","1","3","3","4","3","4","2","3","4","4","4","3","800009629605175298","武","369","","","","nonmatch","","","","","","","","","","","","","","key","f","16.665999999999904","720","446","f","true","nonmatch","img/diamond.png","六边","菱形","ALT1_2","prac_ALT1_2","","","","","","","","","","","",""
"null","<span style='color:GreenYellow; font-size: 70px;'>正确! </span>","null","html-keyboard-response","80","735241","0.0-7.0-1.0-1.0-0.0-1.35","3","3","2","3","2","2","2","2","2","3","3","2","2","3","3","3","2","2","3","2","5","5","3","3","3","3","2","3","3","1","0","0","1","0","0","1","1","0","1","1","0","1","0","1","3","3","4","3","4","2","3","4","4","4","3","800009629605175298","武","369","","","","","","","","","","","","","","","","","","","","","","","","","","","","","","feedback_test","","","","","","","","","","","",""
"1098","","j","psychophysics","81","737344","0.0-7.0-1.0-1.0-0.0-0.36","3","3","2","3","2","2","2","2","2","3","3","2","2","3","3","3","2","2","3","2","5","5","3","3","3","3","2","3","3","1","0","0","1","0","0","1","1","0","1","1","0","1","0","1","3","3","4","3","4","2","3","4","4","4","3","800009629605175298","武","369","","","","match","","","","","","","","","","","","","","key","j","16.666","720","446","j","true","match","img/trapezoid.png","梯形","梯形","ALT1_2","prac_ALT1_2","","","","","","","","","","","",""
"null","<span style='color:GreenYellow; font-size: 70px;'>正确! </span>","null","html-keyboard-response","82","737847","0.0-7.0-1.0-1.0-0.0-1.36","3","3","2","3","2","2","2","2","2","3","3","2","2","3","3","3","2","2","3","2","5","5","3","3","3","3","2","3","3","1","0","0","1","0","0","1","1","0","1","1","0","1","0","1","3","3","4","3","4","2","3","4","4","4","3","800009629605175298","武","369","","","","","","","","","","","","","","","","","","","","","","","","","","","","","","feedback_test","","","","","","","","","","","",""
"760","","j","psychophysics","83","739609","0.0-7.0-1.0-1.0-0.0-0.37","3","3","2","3","2","2","2","2","2","3","3","2","2","3","3","3","2","2","3","2","5","5","3","3","3","3","2","3","3","1","0","0","1","0","0","1","1","0","1","1","0","1","0","1","3","3","4","3","4","2","3","4","4","4","3","800009629605175298","武","369","","","","match","","","","","","","","","","","","","","key","j","16.66599999999938","720","446","j","true","match","img/trapezoid.png","梯形","梯形","ALT1_2","prac_ALT1_2","","","","","","","","","","","",""
"null","<span style='color:GreenYellow; font-size: 70px;'>正确! </span>","null","html-keyboard-response","84","740113","0.0-7.0-1.0-1.0-0.0-1.37","3","3","2","3","2","2","2","2","2","3","3","2","2","3","3","3","2","2","3","2","5","5","3","3","3","3","2","3","3","1","0","0","1","0","0","1","1","0","1","1","0","1","0","1","3","3","4","3","4","2","3","4","4","4","3","800009629605175298","武","369","","","","","","","","","","","","","","","","","","","","","","","","","","","","","","feedback_test","","","","","","","","","","","",""
"492","","j","psychophysics","85","741608","0.0-7.0-1.0-1.0-0.0-0.38","3","3","2","3","2","2","2","2","2","3","3","2","2","3","3","3","2","2","3","2","5","5","3","3","3","3","2","3","3","1","0","0","1","0","0","1","1","0","1","1","0","1","0","1","3","3","4","3","4","2","3","4","4","4","3","800009629605175298","武","369","","","","match","","","","","","","","","","","","","","key","j","16.669568181818416","720","446","f","false","nonmatch","img/trapezoid.png","菱形","梯形","ALT1_2","prac_ALT1_2","","","","","","","","","","","",""
"null","<span style='color:red; font-size: 70px;'>错误! </span>","null","html-keyboard-response","86","742113","0.0-7.0-1.0-1.0-0.0-1.38","3","3","2","3","2","2","2","2","2","3","3","2","2","3","3","3","2","2","3","2","5","5","3","3","3","3","2","3","3","1","0","0","1","0","0","1","1","0","1","1","0","1","0","1","3","3","4","3","4","2","3","4","4","4","3","800009629605175298","武","369","","","","","","","","","","","","","","","","","","","","","","","","","","","","","","feedback_test","","","","","","","","","","","",""
"930","","f","psychophysics","87","744045","0.0-7.0-1.0-1.0-0.0-0.39","3","3","2","3","2","2","2","2","2","3","3","2","2","3","3","3","2","2","3","2","5","5","3","3","3","3","2","3","3","1","0","0","1","0","0","1","1","0","1","1","0","1","0","1","3","3","4","3","4","2","3","4","4","4","3","800009629605175298","武","369","","","","nonmatch","","","","","","","","","","","","","","key","f","16.665999999999993","720","446","f","true","nonmatch","img/ellipse.png","菱形","椭圆","ALT1_2","prac_ALT1_2","","","","","","","","","","","",""
"null","<span style='color:GreenYellow; font-size: 70px;'>正确! </span>","null","html-keyboard-response","88","744551","0.0-7.0-1.0-1.0-0.0-1.39","3","3","2","3","2","2","2","2","2","3","3","2","2","3","3","3","2","2","3","2","5","5","3","3","3","3","2","3","3","1","0","0","1","0","0","1","1","0","1","1","0","1","0","1","3","3","4","3","4","2","3","4","4","4","3","800009629605175298","武","369","","","","","","","","","","","","","","","","","","","","","","","","","","","","","","feedback_test","","","","","","","","","","","",""
"806","","j","psychophysics","89","746363","0.0-7.0-1.0-1.0-0.0-0.40","3","3","2","3","2","2","2","2","2","3","3","2","2","3","3","3","2","2","3","2","5","5","3","3","3","3","2","3","3","1","0","0","1","0","0","1","1","0","1","1","0","1","0","1","3","3","4","3","4","2","3","4","4","4","3","800009629605175298","武","369","","","","match","","","","","","","","","","","","","","key","j","16.665999999999887","720","446","j","true","match","img/hexagon.png","六边","六边","ALT1_2","prac_ALT1_2","","","","","","","","","","","",""
"null","<span style='color:GreenYellow; font-size: 70px;'>正确! </span>","null","html-keyboard-response","90","746865","0.0-7.0-1.0-1.0-0.0-1.40","3","3","2","3","2","2","2","2","2","3","3","2","2","3","3","3","2","2","3","2","5","5","3","3","3","3","2","3","3","1","0","0","1","0","0","1","1","0","1","1","0","1","0","1","3","3","4","3","4","2","3","4","4","4","3","800009629605175298","武","369","","","","","","","","","","","","","","","","","","","","","","","","","","","","","","feedback_test","","","","","","","","","","","",""
"758","","j","psychophysics","91","748629","0.0-7.0-1.0-1.0-0.0-0.41","3","3","2","3","2","2","2","2","2","3","3","2","2","3","3","3","2","2","3","2","5","5","3","3","3","3","2","3","3","1","0","0","1","0","0","1","1","0","1","1","0","1","0","1","3","3","4","3","4","2","3","4","4","4","3","800009629605175298","武","369","","","","match","","","","","","","","","","","","","","key","j","16.665999999999677","720","446","j","true","match","img/diamond.png","菱形","菱形","ALT1_2","prac_ALT1_2","","","","","","","","","","","",""
"null","<span style='color:GreenYellow; font-size: 70px;'>正确! </span>","null","html-keyboard-response","92","749132","0.0-7.0-1.0-1.0-0.0-1.41","3","3","2","3","2","2","2","2","2","3","3","2","2","3","3","3","2","2","3","2","5","5","3","3","3","3","2","3","3","1","0","0","1","0","0","1","1","0","1","1","0","1","0","1","3","3","4","3","4","2","3","4","4","4","3","800009629605175298","武","369","","","","","","","","","","","","","","","","","","","","","","","","","","","","","","feedback_test","","","","","","","","","","","",""
"1132","","j","psychophysics","93","751273","0.0-7.0-1.0-1.0-0.0-0.42","3","3","2","3","2","2","2","2","2","3","3","2","2","3","3","3","2","2","3","2","5","5","3","3","3","3","2","3","3","1","0","0","1","0","0","1","1","0","1","1","0","1","0","1","3","3","4","3","4","2","3","4","4","4","3","800009629605175298","武","369","","","","match","","","","","","","","","","","","","","key","j","16.66811023622029","720","446","j","true","match","img/ellipse.png","椭圆","椭圆","ALT1_2","prac_ALT1_2","","","","","","","","","","","",""
"null","<span style='color:GreenYellow; font-size: 70px;'>正确! </span>","null","html-keyboard-response","94","751778","0.0-7.0-1.0-1.0-0.0-1.42","3","3","2","3","2","2","2","2","2","3","3","2","2","3","3","3","2","2","3","2","5","5","3","3","3","3","2","3","3","1","0","0","1","0","0","1","1","0","1","1","0","1","0","1","3","3","4","3","4","2","3","4","4","4","3","800009629605175298","武","369","","","","","","","","","","","","","","","","","","","","","","","","","","","","","","feedback_test","","","","","","","","","","","",""
"886","","f","psychophysics","95","753667","0.0-7.0-1.0-1.0-0.0-0.43","3","3","2","3","2","2","2","2","2","3","3","2","2","3","3","3","2","2","3","2","5","5","3","3","3","3","2","3","3","1","0","0","1","0","0","1","1","0","1","1","0","1","0","1","3","3","4","3","4","2","3","4","4","4","3","800009629605175298","武","369","","","","nonmatch","","","","","","","","","","","","","","key","f","16.665999999999798","720","446","f","true","nonmatch","img/trapezoid.png","六边","梯形","ALT1_2","prac_ALT1_2","","","","","","","","","","","",""
"null","<span style='color:GreenYellow; font-size: 70px;'>正确! </span>","null","html-keyboard-response","96","754168","0.0-7.0-1.0-1.0-0.0-1.43","3","3","2","3","2","2","2","2","2","3","3","2","2","3","3","3","2","2","3","2","5","5","3","3","3","3","2","3","3","1","0","0","1","0","0","1","1","0","1","1","0","1","0","1","3","3","4","3","4","2","3","4","4","4","3","800009629605175298","武","369","","","","","","","","","","","","","","","","","","","","","","","","","","","","","","feedback_test","","","","","","","","","","","",""
"671","","f","psychophysics","97","755845","0.0-7.0-1.0-1.0-0.0-0.44","3","3","2","3","2","2","2","2","2","3","3","2","2","3","3","3","2","2","3","2","5","5","3","3","3","3","2","3","3","1","0","0","1","0","0","1","1","0","1","1","0","1","0","1","3","3","4","3","4","2","3","4","4","4","3","800009629605175298","武","369","","","","nonmatch","","","","","","","","","","","","","","key","f","16.666000000000086","720","446","j","false","match","img/hexagon.png","六边","六边","ALT1_2","prac_ALT1_2","","","","","","","","","","","",""
"null","<span style='color:red; font-size: 70px;'>错误! </span>","null","html-keyboard-response","98","756348","0.0-7.0-1.0-1.0-0.0-1.44","3","3","2","3","2","2","2","2","2","3","3","2","2","3","3","3","2","2","3","2","5","5","3","3","3","3","2","3","3","1","0","0","1","0","0","1","1","0","1","1","0","1","0","1","3","3","4","3","4","2","3","4","4","4","3","800009629605175298","武","369","","","","","","","","","","","","","","","","","","","","","","","","","","","","","","feedback_test","","","","","","","","","","","",""
"643","","j","psychophysics","99","757994","0.0-7.0-1.0-1.0-0.0-0.45","3","3","2","3","2","2","2","2","2","3","3","2","2","3","3","3","2","2","3","2","5","5","3","3","3","3","2","3","3","1","0","0","1","0","0","1","1","0","1","1","0","1","0","1","3","3","4","3","4","2","3","4","4","4","3","800009629605175298","武","369","","","","match","","","","","","","","","","","","","","key","j","16.66600000000074","720","446","j","true","match","img/hexagon.png","六边","六边","ALT1_2","prac_ALT1_2","","","","","","","","","","","",""
"null","<span style='color:GreenYellow; font-size: 70px;'>正确! </span>","null","html-keyboard-response","100","758497","0.0-7.0-1.0-1.0-0.0-1.45","3","3","2","3","2","2","2","2","2","3","3","2","2","3","3","3","2","2","3","2","5","5","3","3","3","3","2","3","3","1","0","0","1","0","0","1","1","0","1","1","0","1","0","1","3","3","4","3","4","2","3","4","4","4","3","800009629605175298","武","369","","","","","","","","","","","","","","","","","","","","","","","","","","","","","","feedback_test","","","","","","","","","","","",""
"512","","j","psychophysics","101","760012","0.0-7.0-1.0-1.0-0.0-0.46","3","3","2","3","2","2","2","2","2","3","3","2","2","3","3","3","2","2","3","2","5","5","3","3","3","3","2","3","3","1","0","0","1","0","0","1","1","0","1","1","0","1","0","1","3","3","4","3","4","2","3","4","4","4","3","800009629605175298","武","369","","","","match","","","","","","","","","","","","","","key","j","16.666000000000672","720","446","f","false","nonmatch","img/hexagon.png","菱形","六边","ALT1_2","prac_ALT1_2","","","","","","","","","","","",""
"null","<span style='color:red; font-size: 70px;'>错误! </span>","null","html-keyboard-response","102","760514","0.0-7.0-1.0-1.0-0.0-1.46","3","3","2","3","2","2","2","2","2","3","3","2","2","3","3","3","2","2","3","2","5","5","3","3","3","3","2","3","3","1","0","0","1","0","0","1","1","0","1","1","0","1","0","1","3","3","4","3","4","2","3","4","4","4","3","800009629605175298","武","369","","","","","","","","","","","","","","","","","","","","","","","","","","","","","","feedback_test","","","","","","","","","","","",""
"629","","j","psychophysics","103","762145","0.0-7.0-1.0-1.0-0.0-0.47","3","3","2","3","2","2","2","2","2","3","3","2","2","3","3","3","2","2","3","2","5","5","3","3","3","3","2","3","3","1","0","0","1","0","0","1","1","0","1","1","0","1","0","1","3","3","4","3","4","2","3","4","4","4","3","800009629605175298","武","369","","","","match","","","","","","","","","","","","","","key","j","16.668750000000728","720","446","j","true","match","img/ellipse.png","椭圆","椭圆","ALT1_2","prac_ALT1_2","","","","","","","","","","","",""
"null","<span style='color:GreenYellow; font-size: 70px;'>正确! </span>","null","html-keyboard-response","104","762647","0.0-7.0-1.0-1.0-0.0-1.47","3","3","2","3","2","2","2","2","2","3","3","2","2","3","3","3","2","2","3","2","5","5","3","3","3","3","2","3","3","1","0","0","1","0","0","1","1","0","1","1","0","1","0","1","3","3","4","3","4","2","3","4","4","4","3","800009629605175298","武","369","","","","","","","","","","","","","","","","","","","","","","","","","","","","","","feedback_test","","","","","","","","","","","",""
"111533","<style>.context{color:white; font-size: 35px; line-height:40px}</style>                          <div><p class='context'>您正确回答了56% 的试次。</p><p class='context'>您的平均反应时为781毫秒。</p><p class='context'>恭喜您完成练习。按空格键继续。</p></div>"," ","html-keyboard-response","105","874184","0.0-7.0-1.0-1.0-1.0-0.0","3","3","2","3","2","2","2","2","2","3","3","2","2","3","3","3","2","2","3","2","5","5","3","3","3","3","2","3","3","1","0","0","1","0","0","1","1","0","1","1","0","1","0","1","3","3","4","3","4","2","3","4","4","4","3","800009629605175298","武","369","","","","","","","","","","","","","","","","","","","","","","","","","","","","","","","","","","","","","","","","","",""
"26634","","","instructions","106","900822","0.0-7.0-1.0-1.0-1.0-1.0","3","3","2","3","2","2","2","2","2","3","3","2","2","3","3","3","2","2","3","2","5","5","3","3","3","3","2","3","3","1","0","0","1","0","0","1","1","0","1","1","0","1","0","1","3","3","4","3","4","2","3","4","4","4","3","800009629605175298","武","369","","","","","","","","","","","","","","","","","[{""page_index"":0,""viewing_time"":17502},{""page_index"":1,""viewing_time"":7107},{""page_index"":2,""viewing_time"":2025}]","","","","","","","","","","","","","","","","","","","","","","","","",""
"460","","j","psychophysics","107","902286","0.0-7.0-1.0-1.1-0.1-0.48","3","3","2","3","2","2","2","2","2","3","3","2","2","3","3","3","2","2","3","2","5","5","3","3","3","3","2","3","3","1","0","0","1","0","0","1","1","0","1","1","0","1","0","1","3","3","4","3","4","2","3","4","4","4","3","800009629605175298","武","369","","","","match","","","","","","","","","","","","","","key","j","16.666000000000825","720","446","j","true","match","img/hexagon.png","六边","六边","ALT1_2","prac_ALT1_2","","","","","","","","","","","",""
"null","<span style='color:GreenYellow; font-size: 70px;'>正确! </span>","null","html-keyboard-response","108","902792","0.0-7.0-1.0-1.1-0.1-1.48","3","3","2","3","2","2","2","2","2","3","3","2","2","3","3","3","2","2","3","2","5","5","3","3","3","3","2","3","3","1","0","0","1","0","0","1","1","0","1","1","0","1","0","1","3","3","4","3","4","2","3","4","4","4","3","800009629605175298","武","369","","","","","","","","","","","","","","","","","","","","","","","","","","","","","","feedback_test","","","","","","","","","","","",""
"489","","j","psychophysics","109","904284","0.0-7.0-1.0-1.1-0.1-0.49","3","3","2","3","2","2","2","2","2","3","3","2","2","3","3","3","2","2","3","2","5","5","3","3","3","3","2","3","3","1","0","0","1","0","0","1","1","0","1","1","0","1","0","1","3","3","4","3","4","2","3","4","4","4","3","800009629605175298","武","369","","","","match","","","","","","","","","","","","","","key","j","16.666000000000086","720","446","f","false","nonmatch","img/diamond.png","梯形","菱形","ALT1_2","prac_ALT1_2","","","","","","","","","","","",""
"null","<span style='color:red; font-size: 70px;'>错误! </span>","null","html-keyboard-response","110","904786","0.0-7.0-1.0-1.1-0.1-1.49","3","3","2","3","2","2","2","2","2","3","3","2","2","3","3","3","2","2","3","2","5","5","3","3","3","3","2","3","3","1","0","0","1","0","0","1","1","0","1","1","0","1","0","1","3","3","4","3","4","2","3","4","4","4","3","800009629605175298","武","369","","","","","","","","","","","","","","","","","","","","","","","","","","","","","","feedback_test","","","","","","","","","","","",""
"977","","j","psychophysics","111","906767","0.0-7.0-1.0-1.1-0.1-0.50","3","3","2","3","2","2","2","2","2","3","3","2","2","3","3","3","2","2","3","2","5","5","3","3","3","3","2","3","3","1","0","0","1","0","0","1","1","0","1","1","0","1","0","1","3","3","4","3","4","2","3","4","4","4","3","800009629605175298","武","369","","","","match","","","","","","","","","","","","","","key","j","16.666000000000174","720","446","j","true","match","img/trapezoid.png","梯形","梯形","ALT1_2","prac_ALT1_2","","","","","","","","","","","",""
"null","<span style='color:GreenYellow; font-size: 70px;'>正确! </span>","null","html-keyboard-response","112","907272","0.0-7.0-1.0-1.1-0.1-1.50","3","3","2","3","2","2","2","2","2","3","3","2","2","3","3","3","2","2","3","2","5","5","3","3","3","3","2","3","3","1","0","0","1","0","0","1","1","0","1","1","0","1","0","1","3","3","4","3","4","2","3","4","4","4","3","800009629605175298","武","369","","","","","","","","","","","","","","","","","","","","","","","","","","","","","","feedback_test","","","","","","","","","","","",""
"533","","j","psychophysics","113","908808","0.0-7.0-1.0-1.1-0.1-0.51","3","3","2","3","2","2","2","2","2","3","3","2","2","3","3","3","2","2","3","2","5","5","3","3","3","3","2","3","3","1","0","0","1","0","0","1","1","0","1","1","0","1","0","1","3","3","4","3","4","2","3","4","4","4","3","800009629605175298","武","369","","","","match","","","","","","","","","","","","","","key","j","16.607472527471554","720","446","f","false","nonmatch","img/trapezoid.png","椭圆","梯形","ALT1_2","prac_ALT1_2","","","","","","","","","","","",""
"null","<span style='color:red; font-size: 70px;'>错误! </span>","null","html-keyboard-response","114","909309","0.0-7.0-1.0-1.1-0.1-1.51","3","3","2","3","2","2","2","2","2","3","3","2","2","3","3","3","2","2","3","2","5","5","3","3","3","3","2","3","3","1","0","0","1","0","0","1","1","0","1","1","0","1","0","1","3","3","4","3","4","2","3","4","4","4","3","800009629605175298","武","369","","","","","","","","","","","","","","","","","","","","","","","","","","","","","","feedback_test","","","","","","","","","","","",""
"716","","j","psychophysics","115","911028","0.0-7.0-1.0-1.1-0.1-0.52","3","3","2","3","2","2","2","2","2","3","3","2","2","3","3","3","2","2","3","2","5","5","3","3","3","3","2","3","3","1","0","0","1","0","0","1","1","0","1","1","0","1","0","1","3","3","4","3","4","2","3","4","4","4","3","800009629605175298","武","369","","","","match","","","","","","","","","","","","","","key","j","16.665999999999457","720","446","j","true","match","img/trapezoid.png","梯形","梯形","ALT1_2","prac_ALT1_2","","","","","","","","","","","",""
"null","<span style='color:GreenYellow; font-size: 70px;'>正确! </span>","null","html-keyboard-response","116","911529","0.0-7.0-1.0-1.1-0.1-1.52","3","3","2","3","2","2","2","2","2","3","3","2","2","3","3","3","2","2","3","2","5","5","3","3","3","3","2","3","3","1","0","0","1","0","0","1","1","0","1","1","0","1","0","1","3","3","4","3","4","2","3","4","4","4","3","800009629605175298","武","369","","","","","","","","","","","","","","","","","","","","","","","","","","","","","","feedback_test","","","","","","","","","","","",""
"611","","j","psychophysics","117","913142","0.0-7.0-1.0-1.1-0.1-0.53","3","3","2","3","2","2","2","2","2","3","3","2","2","3","3","3","2","2","3","2","5","5","3","3","3","3","2","3","3","1","0","0","1","0","0","1","1","0","1","1","0","1","0","1","3","3","4","3","4","2","3","4","4","4","3","800009629605175298","武","369","","","","match","","","","","","","","","","","","","","key","j","16.666000000000196","720","446","f","false","nonmatch","img/trapezoid.png","菱形","梯形","ALT1_2","prac_ALT1_2","","","","","","","","","","","",""
"null","<span style='color:red; font-size: 70px;'>错误! </span>","null","html-keyboard-response","118","913645","0.0-7.0-1.0-1.1-0.1-1.53","3","3","2","3","2","2","2","2","2","3","3","2","2","3","3","3","2","2","3","2","5","5","3","3","3","3","2","3","3","1","0","0","1","0","0","1","1","0","1","1","0","1","0","1","3","3","4","3","4","2","3","4","4","4","3","800009629605175298","武","369","","","","","","","","","","","","","","","","","","","","","","","","","","","","","","feedback_test","","","","","","","","","","","",""
"653","","j","psychophysics","119","915301","0.0-7.0-1.0-1.1-0.1-0.54","3","3","2","3","2","2","2","2","2","3","3","2","2","3","3","3","2","2","3","2","5","5","3","3","3","3","2","3","3","1","0","0","1","0","0","1","1","0","1","1","0","1","0","1","3","3","4","3","4","2","3","4","4","4","3","800009629605175298","武","369","","","","match","","","","","","","","","","","","","","key","j","16.665999999999222","720","446","j","true","match","img/trapezoid.png","梯形","梯形","ALT1_2","prac_ALT1_2","","","","","","","","","","","",""
"null","<span style='color:GreenYellow; font-size: 70px;'>正确! </span>","null","html-keyboard-response","120","915801","0.0-7.0-1.0-1.1-0.1-1.54","3","3","2","3","2","2","2","2","2","3","3","2","2","3","3","3","2","2","3","2","5","5","3","3","3","3","2","3","3","1","0","0","1","0","0","1","1","0","1","1","0","1","0","1","3","3","4","3","4","2","3","4","4","4","3","800009629605175298","武","369","","","","","","","","","","","","","","","","","","","","","","","","","","","","","","feedback_test","","","","","","","","","","","",""
"899","","f","psychophysics","121","917702","0.0-7.0-1.0-1.1-0.1-0.55","3","3","2","3","2","2","2","2","2","3","3","2","2","3","3","3","2","2","3","2","5","5","3","3","3","3","2","3","3","1","0","0","1","0","0","1","1","0","1","1","0","1","0","1","3","3","4","3","4","2","3","4","4","4","3","800009629605175298","武","369","","","","nonmatch","","","","","","","","","","","","","","key","f","16.66600000000027","720","446","f","true","nonmatch","img/ellipse.png","梯形","椭圆","ALT1_2","prac_ALT1_2","","","","","","","","","","","",""
"null","<span style='color:GreenYellow; font-size: 70px;'>正确! </span>","null","html-keyboard-response","122","918205","0.0-7.0-1.0-1.1-0.1-1.55","3","3","2","3","2","2","2","2","2","3","3","2","2","3","3","3","2","2","3","2","5","5","3","3","3","3","2","3","3","1","0","0","1","0","0","1","1","0","1","1","0","1","0","1","3","3","4","3","4","2","3","4","4","4","3","800009629605175298","武","369","","","","","","","","","","","","","","","","","","","","","","","","","","","","","","feedback_test","","","","","","","","","","","",""
"725","","j","psychophysics","123","919933","0.0-7.0-1.0-1.1-0.1-0.56","3","3","2","3","2","2","2","2","2","3","3","2","2","3","3","3","2","2","3","2","5","5","3","3","3","3","2","3","3","1","0","0","1","0","0","1","1","0","1","1","0","1","0","1","3","3","4","3","4","2","3","4","4","4","3","800009629605175298","武","369","","","","match","","","","","","","","","","","","","","key","j","16.625922330096817","720","446","j","true","match","img/ellipse.png","椭圆","椭圆","ALT1_2","prac_ALT1_2","","","","","","","","","","","",""
"null","<span style='color:GreenYellow; font-size: 70px;'>正确! </span>","null","html-keyboard-response","124","920435","0.0-7.0-1.0-1.1-0.1-1.56","3","3","2","3","2","2","2","2","2","3","3","2","2","3","3","3","2","2","3","2","5","5","3","3","3","3","2","3","3","1","0","0","1","0","0","1","1","0","1","1","0","1","0","1","3","3","4","3","4","2","3","4","4","4","3","800009629605175298","武","369","","","","","","","","","","","","","","","","","","","","","","","","","","","","","","feedback_test","","","","","","","","","","","",""
"592","","j","psychophysics","125","922030","0.0-7.0-1.0-1.1-0.1-0.57","3","3","2","3","2","2","2","2","2","3","3","2","2","3","3","3","2","2","3","2","5","5","3","3","3","3","2","3","3","1","0","0","1","0","0","1","1","0","1","1","0","1","0","1","3","3","4","3","4","2","3","4","4","4","3","800009629605175298","武","369","","","","match","","","","","","","","","","","","","","key","j","16.666000000000196","720","446","j","true","match","img/ellipse.png","椭圆","椭圆","ALT1_2","prac_ALT1_2","","","","","","","","","","","",""
"null","<span style='color:GreenYellow; font-size: 70px;'>正确! </span>","null","html-keyboard-response","126","922535","0.0-7.0-1.0-1.1-0.1-1.57","3","3","2","3","2","2","2","2","2","3","3","2","2","3","3","3","2","2","3","2","5","5","3","3","3","3","2","3","3","1","0","0","1","0","0","1","1","0","1","1","0","1","0","1","3","3","4","3","4","2","3","4","4","4","3","800009629605175298","武","369","","","","","","","","","","","","","","","","","","","","","","","","","","","","","","feedback_test","","","","","","","","","","","",""
"784","","j","psychophysics","127","924322","0.0-7.0-1.0-1.1-0.1-0.58","3","3","2","3","2","2","2","2","2","3","3","2","2","3","3","3","2","2","3","2","5","5","3","3","3","3","2","3","3","1","0","0","1","0","0","1","1","0","1","1","0","1","0","1","3","3","4","3","4","2","3","4","4","4","3","800009629605175298","武","369","","","","match","","","","","","","","","","","","","","key","j","16.824723809523995","720","446","j","true","match","img/diamond.png","菱形","菱形","ALT1_2","prac_ALT1_2","","","","","","","","","","","",""
"null","<span style='color:GreenYellow; font-size: 70px;'>正确! </span>","null","html-keyboard-response","128","924824","0.0-7.0-1.0-1.1-0.1-1.58","3","3","2","3","2","2","2","2","2","3","3","2","2","3","3","3","2","2","3","2","5","5","3","3","3","3","2","3","3","1","0","0","1","0","0","1","1","0","1","1","0","1","0","1","3","3","4","3","4","2","3","4","4","4","3","800009629605175298","武","369","","","","","","","","","","","","","","","","","","","","","","","","","","","","","","feedback_test","","","","","","","","","","","",""
"947","","f","psychophysics","129","926773","0.0-7.0-1.0-1.1-0.1-0.59","3","3","2","3","2","2","2","2","2","3","3","2","2","3","3","3","2","2","3","2","5","5","3","3","3","3","2","3","3","1","0","0","1","0","0","1","1","0","1","1","0","1","0","1","3","3","4","3","4","2","3","4","4","4","3","800009629605175298","武","369","","","","nonmatch","","","","","","","","","","","","","","key","f","16.66600000000073","720","446","f","true","nonmatch","img/hexagon.png","菱形","六边","ALT1_2","prac_ALT1_2","","","","","","","","","","","",""
"null","<span style='color:GreenYellow; font-size: 70px;'>正确! </span>","null","html-keyboard-response","130","927277","0.0-7.0-1.0-1.1-0.1-1.59","3","3","2","3","2","2","2","2","2","3","3","2","2","3","3","3","2","2","3","2","5","5","3","3","3","3","2","3","3","1","0","0","1","0","0","1","1","0","1","1","0","1","0","1","3","3","4","3","4","2","3","4","4","4","3","800009629605175298","武","369","","","","","","","","","","","","","","","","","","","","","","","","","","","","","","feedback_test","","","","","","","","","","","",""
"547","","j","psychophysics","131","928826","0.0-7.0-1.0-1.1-0.1-0.60","3","3","2","3","2","2","2","2","2","3","3","2","2","3","3","3","2","2","3","2","5","5","3","3","3","3","2","3","3","1","0","0","1","0","0","1","1","0","1","1","0","1","0","1","3","3","4","3","4","2","3","4","4","4","3","800009629605175298","武","369","","","","match","","","","","","","","","","","","","","key","j","16.589260869565845","720","446","j","true","match","img/diamond.png","菱形","菱形","ALT1_2","prac_ALT1_2","","","","","","","","","","","",""
"null","<span style='color:GreenYellow; font-size: 70px;'>正确! </span>","null","html-keyboard-response","132","929331","0.0-7.0-1.0-1.1-0.1-1.60","3","3","2","3","2","2","2","2","2","3","3","2","2","3","3","3","2","2","3","2","5","5","3","3","3","3","2","3","3","1","0","0","1","0","0","1","1","0","1","1","0","1","0","1","3","3","4","3","4","2","3","4","4","4","3","800009629605175298","武","369","","","","","","","","","","","","","","","","","","","","","","","","","","","","","","feedback_test","","","","","","","","","","","",""
"512","","j","psychophysics","133","930845","0.0-7.0-1.0-1.1-0.1-0.61","3","3","2","3","2","2","2","2","2","3","3","2","2","3","3","3","2","2","3","2","5","5","3","3","3","3","2","3","3","1","0","0","1","0","0","1","1","0","1","1","0","1","0","1","3","3","4","3","4","2","3","4","4","4","3","800009629605175298","武","369","","","","match","","","","","","","","","","","","","","key","j","16.853258426966974","720","446","j","true","match","img/diamond.png","菱形","菱形","ALT1_2","prac_ALT1_2","","","","","","","","","","","",""
"null","<span style='color:GreenYellow; font-size: 70px;'>正确! </span>","null","html-keyboard-response","134","931346","0.0-7.0-1.0-1.1-0.1-1.61","3","3","2","3","2","2","2","2","2","3","3","2","2","3","3","3","2","2","3","2","5","5","3","3","3","3","2","3","3","1","0","0","1","0","0","1","1","0","1","1","0","1","0","1","3","3","4","3","4","2","3","4","4","4","3","800009629605175298","武","369","","","","","","","","","","","","","","","","","","","","","","","","","","","","","","feedback_test","","","","","","","","","","","",""
"1061","","f","psychophysics","135","933410","0.0-7.0-1.0-1.1-0.1-0.62","3","3","2","3","2","2","2","2","2","3","3","2","2","3","3","3","2","2","3","2","5","5","3","3","3","3","2","3","3","1","0","0","1","0","0","1","1","0","1","1","0","1","0","1","3","3","4","3","4","2","3","4","4","4","3","800009629605175298","武","369","","","","nonmatch","","","","","","","","","","","","","","key","f","16.666000000000516","720","446","f","true","nonmatch","img/hexagon.png","梯形","六边","ALT1_2","prac_ALT1_2","","","","","","","","","","","",""
"null","<span style='color:GreenYellow; font-size: 70px;'>正确! </span>","null","html-keyboard-response","136","933912","0.0-7.0-1.0-1.1-0.1-1.62","3","3","2","3","2","2","2","2","2","3","3","2","2","3","3","3","2","2","3","2","5","5","3","3","3","3","2","3","3","1","0","0","1","0","0","1","1","0","1","1","0","1","0","1","3","3","4","3","4","2","3","4","4","4","3","800009629605175298","武","369","","","","","","","","","","","","","","","","","","","","","","","","","","","","","","feedback_test","","","","","","","","","","","",""
"527","","j","psychophysics","137","935442","0.0-7.0-1.0-1.1-0.1-0.63","3","3","2","3","2","2","2","2","2","3","3","2","2","3","3","3","2","2","3","2","5","5","3","3","3","3","2","3","3","1","0","0","1","0","0","1","1","0","1","1","0","1","0","1","3","3","4","3","4","2","3","4","4","4","3","800009629605175298","武","369","","","","match","","","","","","","","","","","","","","key","j","16.666000000000672","720","446","f","false","nonmatch","img/diamond.png","椭圆","菱形","ALT1_2","prac_ALT1_2","","","","","","","","","","","",""
"null","<span style='color:red; font-size: 70px;'>错误! </span>","null","html-keyboard-response","138","935944","0.0-7.0-1.0-1.1-0.1-1.63","3","3","2","3","2","2","2","2","2","3","3","2","2","3","3","3","2","2","3","2","5","5","3","3","3","3","2","3","3","1","0","0","1","0","0","1","1","0","1","1","0","1","0","1","3","3","4","3","4","2","3","4","4","4","3","800009629605175298","武","369","","","","","","","","","","","","","","","","","","","","","","","","","","","","","","feedback_test","","","","","","","","","","","",""
"655","","j","psychophysics","139","937601","0.0-7.0-1.0-1.1-0.1-0.64","3","3","2","3","2","2","2","2","2","3","3","2","2","3","3","3","2","2","3","2","5","5","3","3","3","3","2","3","3","1","0","0","1","0","0","1","1","0","1","1","0","1","0","1","3","3","4","3","4","2","3","4","4","4","3","800009629605175298","武","369","","","","match","","","","","","","","","","","","","","key","j","16.66600000000041","720","446","j","true","match","img/ellipse.png","椭圆","椭圆","ALT1_2","prac_ALT1_2","","","","","","","","","","","",""
"null","<span style='color:GreenYellow; font-size: 70px;'>正确! </span>","null","html-keyboard-response","140","938104","0.0-7.0-1.0-1.1-0.1-1.64","3","3","2","3","2","2","2","2","2","3","3","2","2","3","3","3","2","2","3","2","5","5","3","3","3","3","2","3","3","1","0","0","1","0","0","1","1","0","1","1","0","1","0","1","3","3","4","3","4","2","3","4","4","4","3","800009629605175298","武","369","","","","","","","","","","","","","","","","","","","","","","","","","","","","","","feedback_test","","","","","","","","","","","",""
"925","","f","psychophysics","141","940035","0.0-7.0-1.0-1.1-0.1-0.65","3","3","2","3","2","2","2","2","2","3","3","2","2","3","3","3","2","2","3","2","5","5","3","3","3","3","2","3","3","1","0","0","1","0","0","1","1","0","1","1","0","1","0","1","3","3","4","3","4","2","3","4","4","4","3","800009629605175298","武","369","","","","nonmatch","","","","","","","","","","","","","","key","f","16.668307017543142","720","446","f","true","nonmatch","img/trapezoid.png","六边","梯形","ALT1_2","prac_ALT1_2","","","","","","","","","","","",""
"null","<span style='color:GreenYellow; font-size: 70px;'>正确! </span>","null","html-keyboard-response","142","940536","0.0-7.0-1.0-1.1-0.1-1.65","3","3","2","3","2","2","2","2","2","3","3","2","2","3","3","3","2","2","3","2","5","5","3","3","3","3","2","3","3","1","0","0","1","0","0","1","1","0","1","1","0","1","0","1","3","3","4","3","4","2","3","4","4","4","3","800009629605175298","武","369","","","","","","","","","","","","","","","","","","","","","","","","","","","","","","feedback_test","","","","","","","","","","","",""
"1150","","f","psychophysics","143","942692","0.0-7.0-1.0-1.1-0.1-0.66","3","3","2","3","2","2","2","2","2","3","3","2","2","3","3","3","2","2","3","2","5","5","3","3","3","3","2","3","3","1","0","0","1","0","0","1","1","0","1","1","0","1","0","1","3","3","4","3","4","2","3","4","4","4","3","800009629605175298","武","369","","","","nonmatch","","","","","","","","","","","","","","key","f","16.666000000000167","720","446","f","true","nonmatch","img/diamond.png","六边","菱形","ALT1_2","prac_ALT1_2","","","","","","","","","","","",""
"null","<span style='color:GreenYellow; font-size: 70px;'>正确! </span>","null","html-keyboard-response","144","943198","0.0-7.0-1.0-1.1-0.1-1.66","3","3","2","3","2","2","2","2","2","3","3","2","2","3","3","3","2","2","3","2","5","5","3","3","3","3","2","3","3","1","0","0","1","0","0","1","1","0","1","1","0","1","0","1","3","3","4","3","4","2","3","4","4","4","3","800009629605175298","武","369","","","","","","","","","","","","","","","","","","","","","","","","","","","","","","feedback_test","","","","","","","","","","","",""
"731","","j","psychophysics","145","944931","0.0-7.0-1.0-1.1-0.1-0.67","3","3","2","3","2","2","2","2","2","3","3","2","2","3","3","3","2","2","3","2","5","5","3","3","3","3","2","3","3","1","0","0","1","0","0","1","1","0","1","1","0","1","0","1","3","3","4","3","4","2","3","4","4","4","3","800009629605175298","武","369","","","","match","","","","","","","","","","","","","","key","j","16.665999999999983","720","446","f","false","nonmatch","img/hexagon.png","椭圆","六边","ALT1_2","prac_ALT1_2","","","","","","","","","","","",""
"null","<span style='color:red; font-size: 70px;'>错误! </span>","null","html-keyboard-response","146","945432","0.0-7.0-1.0-1.1-0.1-1.67","3","3","2","3","2","2","2","2","2","3","3","2","2","3","3","3","2","2","3","2","5","5","3","3","3","3","2","3","3","1","0","0","1","0","0","1","1","0","1","1","0","1","0","1","3","3","4","3","4","2","3","4","4","4","3","800009629605175298","武","369","","","","","","","","","","","","","","","","","","","","","","","","","","","","","","feedback_test","","","","","","","","","","","",""
"963","","f","psychophysics","147","947414","0.0-7.0-1.0-1.1-0.1-0.68","3","3","2","3","2","2","2","2","2","3","3","2","2","3","3","3","2","2","3","2","5","5","3","3","3","3","2","3","3","1","0","0","1","0","0","1","1","0","1","1","0","1","0","1","3","3","4","3","4","2","3","4","4","4","3","800009629605175298","武","369","","","","nonmatch","","","","","","","","","","","","","","key","f","16.666000000000448","720","446","f","true","nonmatch","img/ellipse.png","六边","椭圆","ALT1_2","prac_ALT1_2","","","","","","","","","","","",""
"null","<span style='color:GreenYellow; font-size: 70px;'>正确! </span>","null","html-keyboard-response","148","947918","0.0-7.0-1.0-1.1-0.1-1.68","3","3","2","3","2","2","2","2","2","3","3","2","2","3","3","3","2","2","3","2","5","5","3","3","3","3","2","3","3","1","0","0","1","0","0","1","1","0","1","1","0","1","0","1","3","3","4","3","4","2","3","4","4","4","3","800009629605175298","武","369","","","","","","","","","","","","","","","","","","","","","","","","","","","","","","feedback_test","","","","","","","","","","","",""
"791","","f","psychophysics","149","949718","0.0-7.0-1.0-1.1-0.1-0.69","3","3","2","3","2","2","2","2","2","3","3","2","2","3","3","3","2","2","3","2","5","5","3","3","3","3","2","3","3","1","0","0","1","0","0","1","1","0","1","1","0","1","0","1","3","3","4","3","4","2","3","4","4","4","3","800009629605175298","武","369","","","","nonmatch","","","","","","","","","","","","","","key","f","16.668528301886255","720","446","f","true","nonmatch","img/ellipse.png","菱形","椭圆","ALT1_2","prac_ALT1_2","","","","","","","","","","","",""
"null","<span style='color:GreenYellow; font-size: 70px;'>正确! </span>","null","html-keyboard-response","150","950222","0.0-7.0-1.0-1.1-0.1-1.69","3","3","2","3","2","2","2","2","2","3","3","2","2","3","3","3","2","2","3","2","5","5","3","3","3","3","2","3","3","1","0","0","1","0","0","1","1","0","1","1","0","1","0","1","3","3","4","3","4","2","3","4","4","4","3","800009629605175298","武","369","","","","","","","","","","","","","","","","","","","","","","","","","","","","","","feedback_test","","","","","","","","","","","",""
"835","","f","psychophysics","151","952058","0.0-7.0-1.0-1.1-0.1-0.70","3","3","2","3","2","2","2","2","2","3","3","2","2","3","3","3","2","2","3","2","5","5","3","3","3","3","2","3","3","1","0","0","1","0","0","1","1","0","1","1","0","1","0","1","3","3","4","3","4","2","3","4","4","4","3","800009629605175298","武","369","","","","nonmatch","","","","","","","","","","","","","","key","f","16.665999999999308","720","446","j","false","match","img/hexagon.png","六边","六边","ALT1_2","prac_ALT1_2","","","","","","","","","","","",""
"null","<span style='color:red; font-size: 70px;'>错误! </span>","null","html-keyboard-response","152","952563","0.0-7.0-1.0-1.1-0.1-1.70","3","3","2","3","2","2","2","2","2","3","3","2","2","3","3","3","2","2","3","2","5","5","3","3","3","3","2","3","3","1","0","0","1","0","0","1","1","0","1","1","0","1","0","1","3","3","4","3","4","2","3","4","4","4","3","800009629605175298","武","369","","","","","","","","","","","","","","","","","","","","","","","","","","","","","","feedback_test","","","","","","","","","","","",""
"1024","","j","psychophysics","153","954590","0.0-7.0-1.0-1.1-0.1-0.71","3","3","2","3","2","2","2","2","2","3","3","2","2","3","3","3","2","2","3","2","5","5","3","3","3","3","2","3","3","1","0","0","1","0","0","1","1","0","1","1","0","1","0","1","3","3","4","3","4","2","3","4","4","4","3","800009629605175298","武","369","","","","match","","","","","","","","","","","","","","key","j","16.804883333333418","720","446","j","true","match","img/hexagon.png","六边","六边","ALT1_2","prac_ALT1_2","","","","","","","","","","","",""
"null","<span style='color:GreenYellow; font-size: 70px;'>正确! </span>","null","html-keyboard-response","154","955091","0.0-7.0-1.0-1.1-0.1-1.71","3","3","2","3","2","2","2","2","2","3","3","2","2","3","3","3","2","2","3","2","5","5","3","3","3","3","2","3","3","1","0","0","1","0","0","1","1","0","1","1","0","1","0","1","3","3","4","3","4","2","3","4","4","4","3","800009629605175298","武","369","","","","","","","","","","","","","","","","","","","","","","","","","","","","","","feedback_test","","","","","","","","","","","",""
"null","","null","psychophysics","155","957303","0.0-7.0-1.0-1.1-0.1-0.72","3","3","2","3","2","2","2","2","2","3","3","2","2","3","3","3","2","2","3","2","5","5","3","3","3","3","2","3","3","1","0","0","1","0","0","1","1","0","1","1","0","1","0","1","3","3","4","3","4","2","3","4","4","4","3","800009629605175298","武","369","","","","null","","","","","","","","","","","","","","key","null","16.666000000000327","720","446","f","false","nonmatch","img/trapezoid.png","菱形","梯形","ALT1_2","prac_ALT1_2","","","","","","","","","","","",""
"null","<span class='add_' style='color:yellow; font-size: 70px;'> 太慢! </span>","null","html-keyboard-response","156","957806","0.0-7.0-1.0-1.1-0.1-1.72","3","3","2","3","2","2","2","2","2","3","3","2","2","3","3","3","2","2","3","2","5","5","3","3","3","3","2","3","3","1","0","0","1","0","0","1","1","0","1","1","0","1","0","1","3","3","4","3","4","2","3","4","4","4","3","800009629605175298","武","369","","","","","","","","","","","","","","","","","","","","","","","","","","","","","","feedback_test","","","","","","","","","","","",""
"901","","j","psychophysics","157","959710","0.0-7.0-1.0-1.1-0.1-0.73","3","3","2","3","2","2","2","2","2","3","3","2","2","3","3","3","2","2","3","2","5","5","3","3","3","3","2","3","3","1","0","0","1","0","0","1","1","0","1","1","0","1","0","1","3","3","4","3","4","2","3","4","4","4","3","800009629605175298","武","369","","","","match","","","","","","","","","","","","","","key","j","16.66835398230067","720","446","j","true","match","img/hexagon.png","六边","六边","ALT1_2","prac_ALT1_2","","","","","","","","","","","",""
"null","<span style='color:GreenYellow; font-size: 70px;'>正确! </span>","null","html-keyboard-response","158","960211","0.0-7.0-1.0-1.1-0.1-1.73","3","3","2","3","2","2","2","2","2","3","3","2","2","3","3","3","2","2","3","2","5","5","3","3","3","3","2","3","3","1","0","0","1","0","0","1","1","0","1","1","0","1","0","1","3","3","4","3","4","2","3","4","4","4","3","800009629605175298","武","369","","","","","","","","","","","","","","","","","","","","","","","","","","","","","","feedback_test","","","","","","","","","","","",""
"895","","f","psychophysics","159","962109","0.0-7.0-1.0-1.1-0.1-0.74","3","3","2","3","2","2","2","2","2","3","3","2","2","3","3","3","2","2","3","2","5","5","3","3","3","3","2","3","3","1","0","0","1","0","0","1","1","0","1","1","0","1","0","1","3","3","4","3","4","2","3","4","4","4","3","800009629605175298","武","369","","","","nonmatch","","","","","","","","","","","","","","key","f","16.66600000000027","720","446","f","true","nonmatch","img/hexagon.png","梯形","六边","ALT1_2","prac_ALT1_2","","","","","","","","","","","",""
"null","<span style='color:GreenYellow; font-size: 70px;'>正确! </span>","null","html-keyboard-response","160","962611","0.0-7.0-1.0-1.1-0.1-1.74","3","3","2","3","2","2","2","2","2","3","3","2","2","3","3","3","2","2","3","2","5","5","3","3","3","3","2","3","3","1","0","0","1","0","0","1","1","0","1","1","0","1","0","1","3","3","4","3","4","2","3","4","4","4","3","800009629605175298","武","369","","","","","","","","","","","","","","","","","","","","","","","","","","","","","","feedback_test","","","","","","","","","","","",""
"645","","f","psychophysics","161","964259","0.0-7.0-1.0-1.1-0.1-0.75","3","3","2","3","2","2","2","2","2","3","3","2","2","3","3","3","2","2","3","2","5","5","3","3","3","3","2","3","3","1","0","0","1","0","0","1","1","0","1","1","0","1","0","1","3","3","4","3","4","2","3","4","4","4","3","800009629605175298","武","369","","","","nonmatch","","","","","","","","","","","","","","key","f","16.66600000000041","720","446","j","false","match","img/hexagon.png","六边","六边","ALT1_2","prac_ALT1_2","","","","","","","","","","","",""
"null","<span style='color:red; font-size: 70px;'>错误! </span>","null","html-keyboard-response","162","964760","0.0-7.0-1.0-1.1-0.1-1.75","3","3","2","3","2","2","2","2","2","3","3","2","2","3","3","3","2","2","3","2","5","5","3","3","3","3","2","3","3","1","0","0","1","0","0","1","1","0","1","1","0","1","0","1","3","3","4","3","4","2","3","4","4","4","3","800009629605175298","武","369","","","","","","","","","","","","","","","","","","","","","","","","","","","","","","feedback_test","","","","","","","","","","","",""
"703","","j","psychophysics","163","966466","0.0-7.0-1.0-1.1-0.1-0.76","3","3","2","3","2","2","2","2","2","3","3","2","2","3","3","3","2","2","3","2","5","5","3","3","3","3","2","3","3","1","0","0","1","0","0","1","1","0","1","1","0","1","0","1","3","3","4","3","4","2","3","4","4","4","3","800009629605175298","武","369","","","","match","","","","","","","","","","","","","","key","j","16.832660000000615","720","446","j","true","match","img/diamond.png","菱形","菱形","ALT1_2","prac_ALT1_2","","","","","","","","","","","",""
"null","<span style='color:GreenYellow; font-size: 70px;'>正确! </span>","null","html-keyboard-response","164","966968","0.0-7.0-1.0-1.1-0.1-1.76","3","3","2","3","2","2","2","2","2","3","3","2","2","3","3","3","2","2","3","2","5","5","3","3","3","3","2","3","3","1","0","0","1","0","0","1","1","0","1","1","0","1","0","1","3","3","4","3","4","2","3","4","4","4","3","800009629605175298","武","369","","","","","","","","","","","","","","","","","","","","","","","","","","","","","","feedback_test","","","","","","","","","","","",""
"872","","j","psychophysics","165","968843","0.0-7.0-1.0-1.1-0.1-0.77","3","3","2","3","2","2","2","2","2","3","3","2","2","3","3","3","2","2","3","2","5","5","3","3","3","3","2","3","3","1","0","0","1","0","0","1","1","0","1","1","0","1","0","1","3","3","4","3","4","2","3","4","4","4","3","800009629605175298","武","369","","","","match","","","","","","","","","","","","","","key","j","16.665999999999798","720","446","j","true","match","img/hexagon.png","六边","六边","ALT1_2","prac_ALT1_2","","","","","","","","","","","",""
"null","<span style='color:GreenYellow; font-size: 70px;'>正确! </span>","null","html-keyboard-response","166","969346","0.0-7.0-1.0-1.1-0.1-1.77","3","3","2","3","2","2","2","2","2","3","3","2","2","3","3","3","2","2","3","2","5","5","3","3","3","3","2","3","3","1","0","0","1","0","0","1","1","0","1","1","0","1","0","1","3","3","4","3","4","2","3","4","4","4","3","800009629605175298","武","369","","","","","","","","","","","","","","","","","","","","","","","","","","","","","","feedback_test","","","","","","","","","","","",""
"751","","j","psychophysics","167","971100","0.0-7.0-1.0-1.1-0.1-0.78","3","3","2","3","2","2","2","2","2","3","3","2","2","3","3","3","2","2","3","2","5","5","3","3","3","3","2","3","3","1","0","0","1","0","0","1","1","0","1","1","0","1","0","1","3","3","4","3","4","2","3","4","4","4","3","800009629605175298","武","369","","","","match","","","","","","","","","","","","","","key","j","16.665999999999677","720","446","j","true","match","img/trapezoid.png","梯形","梯形","ALT1_2","prac_ALT1_2","","","","","","","","","","","",""
"null","<span style='color:GreenYellow; font-size: 70px;'>正确! </span>","null","html-keyboard-response","168","971603","0.0-7.0-1.0-1.1-0.1-1.78","3","3","2","3","2","2","2","2","2","3","3","2","2","3","3","3","2","2","3","2","5","5","3","3","3","3","2","3","3","1","0","0","1","0","0","1","1","0","1","1","0","1","0","1","3","3","4","3","4","2","3","4","4","4","3","800009629605175298","武","369","","","","","","","","","","","","","","","","","","","","","","","","","","","","","","feedback_test","","","","","","","","","","","",""
"571","","j","psychophysics","169","973176","0.0-7.0-1.0-1.1-0.1-0.79","3","3","2","3","2","2","2","2","2","3","3","2","2","3","3","3","2","2","3","2","5","5","3","3","3","3","2","3","3","1","0","0","1","0","0","1","1","0","1","1","0","1","0","1","3","3","4","3","4","2","3","4","4","4","3","800009629605175298","武","369","","","","match","","","","","","","","","","","","","","key","j","16.66599999999963","720","446","j","true","match","img/trapezoid.png","梯形","梯形","ALT1_2","prac_ALT1_2","","","","","","","","","","","",""
"null","<span style='color:GreenYellow; font-size: 70px;'>正确! </span>","null","html-keyboard-response","170","973678","0.0-7.0-1.0-1.1-0.1-1.79","3","3","2","3","2","2","2","2","2","3","3","2","2","3","3","3","2","2","3","2","5","5","3","3","3","3","2","3","3","1","0","0","1","0","0","1","1","0","1","1","0","1","0","1","3","3","4","3","4","2","3","4","4","4","3","800009629605175298","武","369","","","","","","","","","","","","","","","","","","","","","","","","","","","","","","feedback_test","","","","","","","","","","","",""
"886","","f","psychophysics","171","975567","0.0-7.0-1.0-1.1-0.1-0.80","3","3","2","3","2","2","2","2","2","3","3","2","2","3","3","3","2","2","3","2","5","5","3","3","3","3","2","3","3","1","0","0","1","0","0","1","1","0","1","1","0","1","0","1","3","3","4","3","4","2","3","4","4","4","3","800009629605175298","武","369","","","","nonmatch","","","","","","","","","","","","","","key","f","16.665999999999517","720","446","f","true","nonmatch","img/ellipse.png","梯形","椭圆","ALT1_2","prac_ALT1_2","","","","","","","","","","","",""
"null","<span style='color:GreenYellow; font-size: 70px;'>正确! </span>","null","html-keyboard-response","172","976073","0.0-7.0-1.0-1.1-0.1-1.80","3","3","2","3","2","2","2","2","2","3","3","2","2","3","3","3","2","2","3","2","5","5","3","3","3","3","2","3","3","1","0","0","1","0","0","1","1","0","1","1","0","1","0","1","3","3","4","3","4","2","3","4","4","4","3","800009629605175298","武","369","","","","","","","","","","","","","","","","","","","","","","","","","","","","","","feedback_test","","","","","","","","","","","",""
"616","","j","psychophysics","173","977693","0.0-7.0-1.0-1.1-0.1-0.81","3","3","2","3","2","2","2","2","2","3","3","2","2","3","3","3","2","2","3","2","5","5","3","3","3","3","2","3","3","1","0","0","1","0","0","1","1","0","1","1","0","1","0","1","3","3","4","3","4","2","3","4","4","4","3","800009629605175298","武","369","","","","match","","","","","","","","","","","","","","key","j","16.665999999999865","720","446","j","true","match","img/diamond.png","菱形","菱形","ALT1_2","prac_ALT1_2","","","","","","","","","","","",""
"null","<span style='color:GreenYellow; font-size: 70px;'>正确! </span>","null","html-keyboard-response","174","978195","0.0-7.0-1.0-1.1-0.1-1.81","3","3","2","3","2","2","2","2","2","3","3","2","2","3","3","3","2","2","3","2","5","5","3","3","3","3","2","3","3","1","0","0","1","0","0","1","1","0","1","1","0","1","0","1","3","3","4","3","4","2","3","4","4","4","3","800009629605175298","武","369","","","","","","","","","","","","","","","","","","","","","","","","","","","","","","feedback_test","","","","","","","","","","","",""
"979","","f","psychophysics","175","980177","0.0-7.0-1.0-1.1-0.1-0.82","3","3","2","3","2","2","2","2","2","3","3","2","2","3","3","3","2","2","3","2","5","5","3","3","3","3","2","3","3","1","0","0","1","0","0","1","1","0","1","1","0","1","0","1","3","3","4","3","4","2","3","4","4","4","3","800009629605175298","武","369","","","","nonmatch","","","","","","","","","","","","","","key","f","16.66866101694917","720","446","f","true","nonmatch","img/trapezoid.png","六边","梯形","ALT1_2","prac_ALT1_2","","","","","","","","","","","",""
"null","<span style='color:GreenYellow; font-size: 70px;'>正确! </span>","null","html-keyboard-response","176","980681","0.0-7.0-1.0-1.1-0.1-1.82","3","3","2","3","2","2","2","2","2","3","3","2","2","3","3","3","2","2","3","2","5","5","3","3","3","3","2","3","3","1","0","0","1","0","0","1","1","0","1","1","0","1","0","1","3","3","4","3","4","2","3","4","4","4","3","800009629605175298","武","369","","","","","","","","","","","","","","","","","","","","","","","","","","","","","","feedback_test","","","","","","","","","","","",""
"916","","f","psychophysics","177","982598","0.0-7.0-1.0-1.1-0.1-0.83","3","3","2","3","2","2","2","2","2","3","3","2","2","3","3","3","2","2","3","2","5","5","3","3","3","3","2","3","3","1","0","0","1","0","0","1","1","0","1","1","0","1","0","1","3","3","4","3","4","2","3","4","4","4","3","800009629605175298","武","369","","","","nonmatch","","","","","","","","","","","","","","key","f","16.665999999999993","720","446","f","true","nonmatch","img/hexagon.png","椭圆","六边","ALT1_2","prac_ALT1_2","","","","","","","","","","","",""
"null","<span style='color:GreenYellow; font-size: 70px;'>正确! </span>","null","html-keyboard-response","178","983101","0.0-7.0-1.0-1.1-0.1-1.83","3","3","2","3","2","2","2","2","2","3","3","2","2","3","3","3","2","2","3","2","5","5","3","3","3","3","2","3","3","1","0","0","1","0","0","1","1","0","1","1","0","1","0","1","3","3","4","3","4","2","3","4","4","4","3","800009629605175298","武","369","","","","","","","","","","","","","","","","","","","","","","","","","","","","","","feedback_test","","","","","","","","","","","",""
"611","","j","psychophysics","179","984715","0.0-7.0-1.0-1.1-0.1-0.84","3","3","2","3","2","2","2","2","2","3","3","2","2","3","3","3","2","2","3","2","5","5","3","3","3","3","2","3","3","1","0","0","1","0","0","1","1","0","1","1","0","1","0","1","3","3","4","3","4","2","3","4","4","4","3","800009629605175298","武","369","","","","match","","","","","","","","","","","","","","key","j","16.666000000000196","720","446","j","true","match","img/diamond.png","菱形","菱形","ALT1_2","prac_ALT1_2","","","","","","","","","","","",""
"null","<span style='color:GreenYellow; font-size: 70px;'>正确! </span>","null","html-keyboard-response","180","985219","0.0-7.0-1.0-1.1-0.1-1.84","3","3","2","3","2","2","2","2","2","3","3","2","2","3","3","3","2","2","3","2","5","5","3","3","3","3","2","3","3","1","0","0","1","0","0","1","1","0","1","1","0","1","0","1","3","3","4","3","4","2","3","4","4","4","3","800009629605175298","武","369","","","","","","","","","","","","","","","","","","","","","","","","","","","","","","feedback_test","","","","","","","","","","","",""
"918","","f","psychophysics","181","987143","0.0-7.0-1.0-1.1-0.1-0.85","3","3","2","3","2","2","2","2","2","3","3","2","2","3","3","3","2","2","3","2","5","5","3","3","3","3","2","3","3","1","0","0","1","0","0","1","1","0","1","1","0","1","0","1","3","3","4","3","4","2","3","4","4","4","3","800009629605175298","武","369","","","","nonmatch","","","","","","","","","","","","","","key","f","16.665999999999993","720","446","j","false","match","img/trapezoid.png","梯形","梯形","ALT1_2","prac_ALT1_2","","","","","","","","","","","",""
