"rt","stimulus","response","trial_type","trial_index","time_elapsed","internal_node_id","ses_1","ses_2","ses_3","ses_4","ses_5","ses_6","ses_7","ses_8","ses_9","ses_10","coreself_1","coreself_2","coreself_3","coreself_4","coreself_5","coreself_6","coreself_7","coreself_8","coreself_9","coreself_10","SGPS_1","SGPS_2","SGPS_3","SGPS_4","SGPS_5","SGPS_6","SGPS_7","SGPS_8","SGPS_9","NPI1","NPI2","NPI3","NPI4","NPI5","NPI6","NPI7","NPI8","NPI9","NPI10","NPI11","NPI12","NPI13","NPI14","NPI15","hsns_1","hsns_2","hsns_3","hsns_4","hsns_5","trap1","hsns_6","hsns_7","hsns_8","hsns_9","hsns_10","subj_idx","friend_name","ParticipantID","value","success","user_agent","responses","item_order","radio_event_ids","radio_event_times","key_event_times","mouse_event_times","straightlining","zigzagging","honeypot","timeout","failed_images","failed_audio","failed_video","version_attrib","version_target","correct","IAT","screen_id","task_id","RT","condition","word","varname","summary","version_attrib2","version_target2","time_stamp","view_history","response_type","key_press","avg_frame_time","center_x","center_y","correct_response","identity","Image","question_order","correct_answer","trap1_item"
"10207","
   <p><div style = ""color: white;font-size:25px;"">您好，欢迎参加本次实验。</div> </p>
   <p><div style = ""color: white;font-size:25px;"">为充分保障您的权利，请确保您已经知晓并同意《参与实验同意书》以及《数据公开知情同意书》。</div></p>
   <p><div style = ""color: white;font-size:25px;"">如果您未见过上述内容，请咨询实验员。</div></p>
   <p><div style = ""color: white;font-size:25px;"">如果您选择继续实验，则表示您已经清楚两份知情同意书的内容并同意。</div></p>
   <p><div style = ""color: pink;font-size:30px;"">请确保您记得day0的实验编号，您将在本次实验输入该编号，若您忘记，请咨询实验员后作答。</div></p>
   <p><div style = ""color: lightblue;font-size:25px;"">请您尽可能认真地作答，我们将依据您在各问卷和按键任务中的作答质量发放报酬。</div></p>
   <p> <div style = ""color: green;font-size:25px;""><按空格键至下页></div> </p>
   "," ","html-keyboard-response","0","10210","0.0-0.0","3","3","3","3","2","4","4","4","3","4","4","2","1","3","1","4","4","2","4","4","2","4","4","4","4","3","4","5","4","1","0","1","1","0","1","1","1","0","1","1","0","1","0","1","5","4","1","1","4","5","1","2","4","2","2","799738310078636033","陈","126","","","","","","","","","","","","","","","","","","","","","","","","","","","","","","","","","","","","","","","","","",""
"","","","call-function","1","10211","0.0-1.0-0.0","3","3","3","3","2","4","4","4","3","4","4","2","1","3","1","4","4","2","4","4","2","4","4","4","4","3","4","5","4","1","0","1","1","0","1","1","1","0","1","1","0","1","0","1","5","4","1","1","4","5","1","2","4","2","2","799738310078636033","陈","126","","","","","","","","","","","","","","","","","","","","","","","","","","","","","","","","","","","","","","","","","",""
"16714","","{""friend_name"":""陈"",""ParticipantID"":""126""}","survey-html-form","2","26925","0.0-1.0-1.0","3","3","3","3","2","4","4","4","3","4","4","2","1","3","1","4","4","2","4","4","2","4","4","4","4","3","4","5","4","1","0","1","1","0","1","1","1","0","1","1","0","1","0","1","5","4","1","1","4","5","1","2","4","2","2","799738310078636033","陈","126","","","","","","","","","","","","","","","","","","","","","","","","","","","","","","","","","","","","","","","","","",""
"","","","fullscreen","3","44213","0.0-2.0","3","3","3","3","2","4","4","4","3","4","4","2","1","3","1","4","4","2","4","4","2","4","4","4","4","3","4","5","4","1","0","1","1","0","1","1","1","0","1","1","0","1","0","1","5","4","1","1","4","5","1","2","4","2","2","799738310078636033","陈","126","","true","","","","","","","","","","","","","","","","","","","","","","","","","","","","","","","","","","","","","","","",""
"31651","","{""Q01"":""3"",""Q02"":""3"",""Q03"":""3"",""Q04"":""3"",""Q05"":""2"",""Q06"":""4"",""Q07"":""4"",""Q08"":""4"",""Q09"":""3"",""Q10"":""4""}","survey-template","4","75867","0.0-3.0","3","3","3","3","2","4","4","4","3","4","4","2","1","3","1","4","4","2","4","4","2","4","4","4","4","3","4","5","4","1","0","1","1","0","1","1","1","0","1","1","0","1","0","1","5","4","1","1","4","5","1","2","4","2","2","799738310078636033","陈","126","","","","{""Q01"":""3"",""Q02"":""3"",""Q03"":""3"",""Q04"":""3"",""Q05"":""2"",""Q06"":""4"",""Q07"":""4"",""Q08"":""4"",""Q09"":""3"",""Q10"":""4""}","[0,1,2,3,4,5,6,7,8,9]","[""Q01"",""Q02"",""Q03"",""Q04"",""Q05"",""Q06"",""Q07"",""Q08"",""Q09"",""Q10""]","[7864,9359,13456,16648,19849,21048,23631,25976,28353,30040]","[]","[7864,9359,13456,16648,19849,21048,23631,25976,28353,30040,31651]","0.4","0.6666666666666666","0","","","","","","","","","","","","","","","","","","","","","","","","","","","","","",""
"42563","","{""Q01"":""4"",""Q02"":""2"",""Q03"":""1"",""Q04"":""3"",""Q05"":""1"",""Q06"":""4"",""Q07"":""4"",""Q08"":""2"",""Q09"":""4"",""Q10"":""4""}","survey-template","5","118433","0.0-4.0","3","3","3","3","2","4","4","4","3","4","4","2","1","3","1","4","4","2","4","4","2","4","4","4","4","3","4","5","4","1","0","1","1","0","1","1","1","0","1","1","0","1","0","1","5","4","1","1","4","5","1","2","4","2","2","799738310078636033","陈","126","","","","{""Q01"":""4"",""Q02"":""2"",""Q03"":""1"",""Q04"":""3"",""Q05"":""1"",""Q06"":""4"",""Q07"":""4"",""Q08"":""2"",""Q09"":""4"",""Q10"":""4""}","[0,1,2,3,4,5,6,7,8,9]","[""Q01"",""Q02"",""Q03"",""Q04"",""Q05"",""Q06"",""Q07"",""Q08"",""Q09"",""Q10""]","[6409,21657,22761,25402,27800,29369,32633,35057,38561,40905]","[]","[6409,21657,22761,25402,27800,29369,32633,35057,38561,40905,42563]","0.5","0.2222222222222222","0","","","","","","","","","","","","","","","","","","","","","","","","","","","","","",""
"","","","preload","6","118832","0.0-5.0","3","3","3","3","2","4","4","4","3","4","4","2","1","3","1","4","4","2","4","4","2","4","4","4","4","3","4","5","4","1","0","1","1","0","1","1","1","0","1","1","0","1","0","1","5","4","1","1","4","5","1","2","4","2","2","799738310078636033","陈","126","","true","","","","","","","","","","","false","[]","[]","[]","","","","","","","","","","","","","","","","","","","","","","","","","",""
"26415","
    <h3>词语分类任务</h3>
    <p>在接下来的任务中，你需要对一系列词语进行分类。</p>
    <p>请先熟悉这些词语，这有利于你完成接下来的任务。</p>
    <table align=""center"" border=1 cellpadding=3 cellspacing=0>
    <tr> <th>类别</th> <th>词语</th> </tr>
    <tr> <td>&emsp;积极&emsp;</td> <td>&emsp;能干、全能、全才、高效、精干、天才&emsp;</td> </tr>
    <tr> <td>&emsp;消极&emsp;</td> <td>&emsp;无能、低能、废物、拙笨、愚钝、蠢笨&emsp;</td> </tr>
    <tr> <td>&emsp;自我&emsp;</td> <td>&emsp;我、我的、自己、自己的、本人、本人的&emsp;</td> </tr>
    <tr> <td>&emsp;他人&emsp;</td> <td>&emsp;他、他的、别人、别人的、他人、他人的&emsp;</td> </tr>
    </table><br/>","0","html-button-response","7","145248","0.0-6.0-0.0-0.0","3","3","3","3","2","4","4","4","3","4","4","2","1","3","1","4","4","2","4","4","2","4","4","4","4","3","4","5","4","1","0","1","1","0","1","1","1","0","1","1","0","1","0","1","5","4","1","1","4","5","1","2","4","2","2","799738310078636033","陈","126","","","","","","","","","","","","","","","","","1","1","","","","","","","","","","","","","","","","","","","","","","","",""
"15437","
    <div class=""tag-bottom"">
    <p> —— 任务1：对“自我”词和“他人”词分类 ——<p/>
    不同词语会出现在屏幕中央，类别标签将始终显示在屏幕上方<p/>   
    <span style=""color:#FFD866""><b>请根据上方标签的提示，尽可能正确并且快速地做出按键反应</b></span><p/>
    当按键错误时屏幕中会出现<span style=""color:red""> X </span>，需要按另一个键纠正才能继续<br/><p/>
    请把双手食指分别放在键盘的“E”键和“I”键上<p/>
    按<空格键>开始
    </p></div>"," ","html-keyboard-response","8","160687","0.0-6.0-0.0-1.0","3","3","3","3","2","4","4","4","3","4","4","2","1","3","1","4","4","2","4","4","2","4","4","4","4","3","4","5","4","1","0","1","1","0","1","1","1","0","1","1","0","1","0","1","5","4","1","1","4","5","1","2","4","2","2","799738310078636033","陈","126","","","","","","","","","","","","","","","","","","","","","","","","","","","","","","","","","","","","","","","","","",""
"null","","null","html-keyboard-response","9","160937","0.0-6.0-0.0-2.0-0.0","3","3","3","3","2","4","4","4","3","4","4","2","1","3","1","4","4","2","4","4","2","4","4","4","4","3","4","5","4","1","0","1","1","0","1","1","1","0","1","1","0","1","0","1","5","4","1","1","4","5","1","2","4","2","2","799738310078636033","陈","126","","","","","","","","","","","","","","","","","","","","","","","","","","","","","","","","","","","","","","","","","",""
"823","<p style=""color:rgb(150, 250, 100); font-size: 35px;"">本人的</p>","e","categorize-html","10","161763","0.0-6.0-0.0-2.0-1.0","3","3","3","3","2","4","4","4","3","4","4","2","1","3","1","4","4","2","4","4","2","4","4","4","4","3","4","5","4","1","0","1","1","0","1","1","1","0","1","1","0","1","0","1","5","4","1","1","4","5","1","2","4","2","2","799738310078636033","陈","126","","","","","","","","","","","","","","","","","","","true","1","1","ability","823","self","本人的","","","","","","","","","","","","","","","","",""
"null","","null","html-keyboard-response","11","162017","0.0-6.0-0.0-2.0-0.1","3","3","3","3","2","4","4","4","3","4","4","2","1","3","1","4","4","2","4","4","2","4","4","4","4","3","4","5","4","1","0","1","1","0","1","1","1","0","1","1","0","1","0","1","5","4","1","1","4","5","1","2","4","2","2","799738310078636033","陈","126","","","","","","","","","","","","","","","","","","","","","","","","","","","","","","","","","","","","","","","","","",""
"775","<p style=""color:rgb(150, 250, 100); font-size: 35px;"">我</p>","e","categorize-html","12","162795","0.0-6.0-0.0-2.0-1.1","3","3","3","3","2","4","4","4","3","4","4","2","1","3","1","4","4","2","4","4","2","4","4","4","4","3","4","5","4","1","0","1","1","0","1","1","1","0","1","1","0","1","0","1","5","4","1","1","4","5","1","2","4","2","2","799738310078636033","陈","126","","","","","","","","","","","","","","","","","","","true","1","1","ability","775","self","我","","","","","","","","","","","","","","","","",""
"null","","null","html-keyboard-response","13","163051","0.0-6.0-0.0-2.0-0.2","3","3","3","3","2","4","4","4","3","4","4","2","1","3","1","4","4","2","4","4","2","4","4","4","4","3","4","5","4","1","0","1","1","0","1","1","1","0","1","1","0","1","0","1","5","4","1","1","4","5","1","2","4","2","2","799738310078636033","陈","126","","","","","","","","","","","","","","","","","","","","","","","","","","","","","","","","","","","","","","","","","",""
"832","<p style=""color:rgb(150, 250, 100); font-size: 35px;"">自己的</p>","e","categorize-html","14","163885","0.0-6.0-0.0-2.0-1.2","3","3","3","3","2","4","4","4","3","4","4","2","1","3","1","4","4","2","4","4","2","4","4","4","4","3","4","5","4","1","0","1","1","0","1","1","1","0","1","1","0","1","0","1","5","4","1","1","4","5","1","2","4","2","2","799738310078636033","陈","126","","","","","","","","","","","","","","","","","","","true","1","1","ability","832","self","自己的","","","","","","","","","","","","","","","","",""
"null","","null","html-keyboard-response","15","164151","0.0-6.0-0.0-2.0-0.3","3","3","3","3","2","4","4","4","3","4","4","2","1","3","1","4","4","2","4","4","2","4","4","4","4","3","4","5","4","1","0","1","1","0","1","1","1","0","1","1","0","1","0","1","5","4","1","1","4","5","1","2","4","2","2","799738310078636033","陈","126","","","","","","","","","","","","","","","","","","","","","","","","","","","","","","","","","","","","","","","","","",""
"669","<p style=""color:rgb(150, 250, 100); font-size: 35px;"">我的</p>","e","categorize-html","16","164824","0.0-6.0-0.0-2.0-1.3","3","3","3","3","2","4","4","4","3","4","4","2","1","3","1","4","4","2","4","4","2","4","4","4","4","3","4","5","4","1","0","1","1","0","1","1","1","0","1","1","0","1","0","1","5","4","1","1","4","5","1","2","4","2","2","799738310078636033","陈","126","","","","","","","","","","","","","","","","","","","true","1","1","ability","669","self","我的","","","","","","","","","","","","","","","","",""
"null","","null","html-keyboard-response","17","165078","0.0-6.0-0.0-2.0-0.4","3","3","3","3","2","4","4","4","3","4","4","2","1","3","1","4","4","2","4","4","2","4","4","4","4","3","4","5","4","1","0","1","1","0","1","1","1","0","1","1","0","1","0","1","5","4","1","1","4","5","1","2","4","2","2","799738310078636033","陈","126","","","","","","","","","","","","","","","","","","","","","","","","","","","","","","","","","","","","","","","","","",""
"801","<p style=""color:rgb(150, 250, 100); font-size: 35px;"">别人</p>","i","categorize-html","18","165883","0.0-6.0-0.0-2.0-1.4","3","3","3","3","2","4","4","4","3","4","4","2","1","3","1","4","4","2","4","4","2","4","4","4","4","3","4","5","4","1","0","1","1","0","1","1","1","0","1","1","0","1","0","1","5","4","1","1","4","5","1","2","4","2","2","799738310078636033","陈","126","","","","","","","","","","","","","","","","","","","true","1","1","ability","801","other","别人","","","","","","","","","","","","","","","","",""
"null","","null","html-keyboard-response","19","166148","0.0-6.0-0.0-2.0-0.5","3","3","3","3","2","4","4","4","3","4","4","2","1","3","1","4","4","2","4","4","2","4","4","4","4","3","4","5","4","1","0","1","1","0","1","1","1","0","1","1","0","1","0","1","5","4","1","1","4","5","1","2","4","2","2","799738310078636033","陈","126","","","","","","","","","","","","","","","","","","","","","","","","","","","","","","","","","","","","","","","","","",""
"635","<p style=""color:rgb(150, 250, 100); font-size: 35px;"">他人的</p>","i","categorize-html","20","166786","0.0-6.0-0.0-2.0-1.5","3","3","3","3","2","4","4","4","3","4","4","2","1","3","1","4","4","2","4","4","2","4","4","4","4","3","4","5","4","1","0","1","1","0","1","1","1","0","1","1","0","1","0","1","5","4","1","1","4","5","1","2","4","2","2","799738310078636033","陈","126","","","","","","","","","","","","","","","","","","","true","1","1","ability","635","other","他人的","","","","","","","","","","","","","","","","",""
"null","","null","html-keyboard-response","21","167041","0.0-6.0-0.0-2.0-0.6","3","3","3","3","2","4","4","4","3","4","4","2","1","3","1","4","4","2","4","4","2","4","4","4","4","3","4","5","4","1","0","1","1","0","1","1","1","0","1","1","0","1","0","1","5","4","1","1","4","5","1","2","4","2","2","799738310078636033","陈","126","","","","","","","","","","","","","","","","","","","","","","","","","","","","","","","","","","","","","","","","","",""
"592","<p style=""color:rgb(150, 250, 100); font-size: 35px;"">他人</p>","i","categorize-html","22","167636","0.0-6.0-0.0-2.0-1.6","3","3","3","3","2","4","4","4","3","4","4","2","1","3","1","4","4","2","4","4","2","4","4","4","4","3","4","5","4","1","0","1","1","0","1","1","1","0","1","1","0","1","0","1","5","4","1","1","4","5","1","2","4","2","2","799738310078636033","陈","126","","","","","","","","","","","","","","","","","","","true","1","1","ability","592","other","他人","","","","","","","","","","","","","","","","",""
"null","","null","html-keyboard-response","23","167902","0.0-6.0-0.0-2.0-0.7","3","3","3","3","2","4","4","4","3","4","4","2","1","3","1","4","4","2","4","4","2","4","4","4","4","3","4","5","4","1","0","1","1","0","1","1","1","0","1","1","0","1","0","1","5","4","1","1","4","5","1","2","4","2","2","799738310078636033","陈","126","","","","","","","","","","","","","","","","","","","","","","","","","","","","","","","","","","","","","","","","","",""
"782","<p style=""color:rgb(150, 250, 100); font-size: 35px;"">自己</p>","e","categorize-html","24","168688","0.0-6.0-0.0-2.0-1.7","3","3","3","3","2","4","4","4","3","4","4","2","1","3","1","4","4","2","4","4","2","4","4","4","4","3","4","5","4","1","0","1","1","0","1","1","1","0","1","1","0","1","0","1","5","4","1","1","4","5","1","2","4","2","2","799738310078636033","陈","126","","","","","","","","","","","","","","","","","","","true","1","1","ability","782","self","自己","","","","","","","","","","","","","","","","",""
"null","","null","html-keyboard-response","25","168941","0.0-6.0-0.0-2.0-0.8","3","3","3","3","2","4","4","4","3","4","4","2","1","3","1","4","4","2","4","4","2","4","4","4","4","3","4","5","4","1","0","1","1","0","1","1","1","0","1","1","0","1","0","1","5","4","1","1","4","5","1","2","4","2","2","799738310078636033","陈","126","","","","","","","","","","","","","","","","","","","","","","","","","","","","","","","","","","","","","","","","","",""
"606","<p style=""color:rgb(150, 250, 100); font-size: 35px;"">本人</p>","e","categorize-html","26","169551","0.0-6.0-0.0-2.0-1.8","3","3","3","3","2","4","4","4","3","4","4","2","1","3","1","4","4","2","4","4","2","4","4","4","4","3","4","5","4","1","0","1","1","0","1","1","1","0","1","1","0","1","0","1","5","4","1","1","4","5","1","2","4","2","2","799738310078636033","陈","126","","","","","","","","","","","","","","","","","","","true","1","1","ability","606","self","本人","","","","","","","","","","","","","","","","",""
"null","","null","html-keyboard-response","27","169803","0.0-6.0-0.0-2.0-0.9","3","3","3","3","2","4","4","4","3","4","4","2","1","3","1","4","4","2","4","4","2","4","4","4","4","3","4","5","4","1","0","1","1","0","1","1","1","0","1","1","0","1","0","1","5","4","1","1","4","5","1","2","4","2","2","799738310078636033","陈","126","","","","","","","","","","","","","","","","","","","","","","","","","","","","","","","","","","","","","","","","","",""
"694","<p style=""color:rgb(150, 250, 100); font-size: 35px;"">他的</p>","i","categorize-html","28","170498","0.0-6.0-0.0-2.0-1.9","3","3","3","3","2","4","4","4","3","4","4","2","1","3","1","4","4","2","4","4","2","4","4","4","4","3","4","5","4","1","0","1","1","0","1","1","1","0","1","1","0","1","0","1","5","4","1","1","4","5","1","2","4","2","2","799738310078636033","陈","126","","","","","","","","","","","","","","","","","","","true","1","1","ability","694","other","他的","","","","","","","","","","","","","","","","",""
"null","","null","html-keyboard-response","29","170761","0.0-6.0-0.0-2.0-0.10","3","3","3","3","2","4","4","4","3","4","4","2","1","3","1","4","4","2","4","4","2","4","4","4","4","3","4","5","4","1","0","1","1","0","1","1","1","0","1","1","0","1","0","1","5","4","1","1","4","5","1","2","4","2","2","799738310078636033","陈","126","","","","","","","","","","","","","","","","","","","","","","","","","","","","","","","","","","","","","","","","","",""
"694","<p style=""color:rgb(150, 250, 100); font-size: 35px;"">他</p>","i","categorize-html","30","171458","0.0-6.0-0.0-2.0-1.10","3","3","3","3","2","4","4","4","3","4","4","2","1","3","1","4","4","2","4","4","2","4","4","4","4","3","4","5","4","1","0","1","1","0","1","1","1","0","1","1","0","1","0","1","5","4","1","1","4","5","1","2","4","2","2","799738310078636033","陈","126","","","","","","","","","","","","","","","","","","","true","1","1","ability","694","other","他","","","","","","","","","","","","","","","","",""
"null","","null","html-keyboard-response","31","171720","0.0-6.0-0.0-2.0-0.11","3","3","3","3","2","4","4","4","3","4","4","2","1","3","1","4","4","2","4","4","2","4","4","4","4","3","4","5","4","1","0","1","1","0","1","1","1","0","1","1","0","1","0","1","5","4","1","1","4","5","1","2","4","2","2","799738310078636033","陈","126","","","","","","","","","","","","","","","","","","","","","","","","","","","","","","","","","","","","","","","","","",""
"611","<p style=""color:rgb(150, 250, 100); font-size: 35px;"">别人的</p>","i","categorize-html","32","172333","0.0-6.0-0.0-2.0-1.11","3","3","3","3","2","4","4","4","3","4","4","2","1","3","1","4","4","2","4","4","2","4","4","4","4","3","4","5","4","1","0","1","1","0","1","1","1","0","1","1","0","1","0","1","5","4","1","1","4","5","1","2","4","2","2","799738310078636033","陈","126","","","","","","","","","","","","","","","","","","","true","1","1","ability","611","other","别人的","","","","","","","","","","","","","","","","",""
"5380","
    <div class=""tag-bottom""><p>
    —— 任务2：对“积极”词和“消极”词分类 ——<p/>   
    <span style=""color:#78DCE8""><b>注意上方，类别标签和需要分类的词语都已经改变</b></span><p/>
    <span style=""color:#FFD866""><b>请根据上方标签的提示，尽可能正确并且快速地做出按键反应</b></span><p/>
    当按键错误时屏幕中会出现<span style=""color:red""> X </span>，需要按另一个键纠正才能继续<br/><p/>
    请把双手食指分别放在键盘的“E”键和“I”键上<p/>
    按<空格键>开始
    </p></div>"," ","html-keyboard-response","33","177713","0.0-6.0-0.0-3.0","3","3","3","3","2","4","4","4","3","4","4","2","1","3","1","4","4","2","4","4","2","4","4","4","4","3","4","5","4","1","0","1","1","0","1","1","1","0","1","1","0","1","0","1","5","4","1","1","4","5","1","2","4","2","2","799738310078636033","陈","126","","","","","","","","","","","","","","","","","","","","","","","","","","","","","","","","","","","","","","","","","",""
"null","","null","html-keyboard-response","34","177964","0.0-6.0-0.0-4.0-0.0","3","3","3","3","2","4","4","4","3","4","4","2","1","3","1","4","4","2","4","4","2","4","4","4","4","3","4","5","4","1","0","1","1","0","1","1","1","0","1","1","0","1","0","1","5","4","1","1","4","5","1","2","4","2","2","799738310078636033","陈","126","","","","","","","","","","","","","","","","","","","","","","","","","","","","","","","","","","","","","","","","","",""
"1075","<p style=""color:white; font-size: 35px;"">全才</p>","e","categorize-html","35","179041","0.0-6.0-0.0-4.0-1.0","3","3","3","3","2","4","4","4","3","4","4","2","1","3","1","4","4","2","4","4","2","4","4","4","4","3","4","5","4","1","0","1","1","0","1","1","1","0","1","1","0","1","0","1","5","4","1","1","4","5","1","2","4","2","2","799738310078636033","陈","126","","","","","","","","","","","","","","","","","","","true","2","2","ability","1075","positive","全才","","","","","","","","","","","","","","","","",""
"null","","null","html-keyboard-response","36","179305","0.0-6.0-0.0-4.0-0.1","3","3","3","3","2","4","4","4","3","4","4","2","1","3","1","4","4","2","4","4","2","4","4","4","4","3","4","5","4","1","0","1","1","0","1","1","1","0","1","1","0","1","0","1","5","4","1","1","4","5","1","2","4","2","2","799738310078636033","陈","126","","","","","","","","","","","","","","","","","","","","","","","","","","","","","","","","","","","","","","","","","",""
"536","<p style=""color:white; font-size: 35px;"">天才</p>","e","categorize-html","37","179844","0.0-6.0-0.0-4.0-1.1","3","3","3","3","2","4","4","4","3","4","4","2","1","3","1","4","4","2","4","4","2","4","4","4","4","3","4","5","4","1","0","1","1","0","1","1","1","0","1","1","0","1","0","1","5","4","1","1","4","5","1","2","4","2","2","799738310078636033","陈","126","","","","","","","","","","","","","","","","","","","true","2","2","ability","536","positive","天才","","","","","","","","","","","","","","","","",""
"null","","null","html-keyboard-response","38","180103","0.0-6.0-0.0-4.0-0.2","3","3","3","3","2","4","4","4","3","4","4","2","1","3","1","4","4","2","4","4","2","4","4","4","4","3","4","5","4","1","0","1","1","0","1","1","1","0","1","1","0","1","0","1","5","4","1","1","4","5","1","2","4","2","2","799738310078636033","陈","126","","","","","","","","","","","","","","","","","","","","","","","","","","","","","","","","","","","","","","","","","",""
"691","<p style=""color:white; font-size: 35px;"">愚钝</p>","i","categorize-html","39","180795","0.0-6.0-0.0-4.0-1.2","3","3","3","3","2","4","4","4","3","4","4","2","1","3","1","4","4","2","4","4","2","4","4","4","4","3","4","5","4","1","0","1","1","0","1","1","1","0","1","1","0","1","0","1","5","4","1","1","4","5","1","2","4","2","2","799738310078636033","陈","126","","","","","","","","","","","","","","","","","","","true","2","2","ability","691","negative","愚钝","","","","","","","","","","","","","","","","",""
"null","","null","html-keyboard-response","40","181047","0.0-6.0-0.0-4.0-0.3","3","3","3","3","2","4","4","4","3","4","4","2","1","3","1","4","4","2","4","4","2","4","4","4","4","3","4","5","4","1","0","1","1","0","1","1","1","0","1","1","0","1","0","1","5","4","1","1","4","5","1","2","4","2","2","799738310078636033","陈","126","","","","","","","","","","","","","","","","","","","","","","","","","","","","","","","","","","","","","","","","","",""
"611","<p style=""color:white; font-size: 35px;"">能干</p>","e","categorize-html","41","181660","0.0-6.0-0.0-4.0-1.3","3","3","3","3","2","4","4","4","3","4","4","2","1","3","1","4","4","2","4","4","2","4","4","4","4","3","4","5","4","1","0","1","1","0","1","1","1","0","1","1","0","1","0","1","5","4","1","1","4","5","1","2","4","2","2","799738310078636033","陈","126","","","","","","","","","","","","","","","","","","","true","2","2","ability","611","positive","能干","","","","","","","","","","","","","","","","",""
"null","","null","html-keyboard-response","42","181923","0.0-6.0-0.0-4.0-0.4","3","3","3","3","2","4","4","4","3","4","4","2","1","3","1","4","4","2","4","4","2","4","4","4","4","3","4","5","4","1","0","1","1","0","1","1","1","0","1","1","0","1","0","1","5","4","1","1","4","5","1","2","4","2","2","799738310078636033","陈","126","","","","","","","","","","","","","","","","","","","","","","","","","","","","","","","","","","","","","","","","","",""
"642","<p style=""color:white; font-size: 35px;"">无能</p>","i","categorize-html","43","182568","0.0-6.0-0.0-4.0-1.4","3","3","3","3","2","4","4","4","3","4","4","2","1","3","1","4","4","2","4","4","2","4","4","4","4","3","4","5","4","1","0","1","1","0","1","1","1","0","1","1","0","1","0","1","5","4","1","1","4","5","1","2","4","2","2","799738310078636033","陈","126","","","","","","","","","","","","","","","","","","","true","2","2","ability","642","negative","无能","","","","","","","","","","","","","","","","",""
"null","","null","html-keyboard-response","44","182850","0.0-6.0-0.0-4.0-0.5","3","3","3","3","2","4","4","4","3","4","4","2","1","3","1","4","4","2","4","4","2","4","4","4","4","3","4","5","4","1","0","1","1","0","1","1","1","0","1","1","0","1","0","1","5","4","1","1","4","5","1","2","4","2","2","799738310078636033","陈","126","","","","","","","","","","","","","","","","","","","","","","","","","","","","","","","","","","","","","","","","","",""
"683","<p style=""color:white; font-size: 35px;"">拙笨</p>","i","categorize-html","45","183536","0.0-6.0-0.0-4.0-1.5","3","3","3","3","2","4","4","4","3","4","4","2","1","3","1","4","4","2","4","4","2","4","4","4","4","3","4","5","4","1","0","1","1","0","1","1","1","0","1","1","0","1","0","1","5","4","1","1","4","5","1","2","4","2","2","799738310078636033","陈","126","","","","","","","","","","","","","","","","","","","true","2","2","ability","683","negative","拙笨","","","","","","","","","","","","","","","","",""
"null","","null","html-keyboard-response","46","183809","0.0-6.0-0.0-4.0-0.6","3","3","3","3","2","4","4","4","3","4","4","2","1","3","1","4","4","2","4","4","2","4","4","4","4","3","4","5","4","1","0","1","1","0","1","1","1","0","1","1","0","1","0","1","5","4","1","1","4","5","1","2","4","2","2","799738310078636033","陈","126","","","","","","","","","","","","","","","","","","","","","","","","","","","","","","","","","","","","","","","","","",""
"614","<p style=""color:white; font-size: 35px;"">蠢笨</p>","i","categorize-html","47","184424","0.0-6.0-0.0-4.0-1.6","3","3","3","3","2","4","4","4","3","4","4","2","1","3","1","4","4","2","4","4","2","4","4","4","4","3","4","5","4","1","0","1","1","0","1","1","1","0","1","1","0","1","0","1","5","4","1","1","4","5","1","2","4","2","2","799738310078636033","陈","126","","","","","","","","","","","","","","","","","","","true","2","2","ability","614","negative","蠢笨","","","","","","","","","","","","","","","","",""
"null","","null","html-keyboard-response","48","184687","0.0-6.0-0.0-4.0-0.7","3","3","3","3","2","4","4","4","3","4","4","2","1","3","1","4","4","2","4","4","2","4","4","4","4","3","4","5","4","1","0","1","1","0","1","1","1","0","1","1","0","1","0","1","5","4","1","1","4","5","1","2","4","2","2","799738310078636033","陈","126","","","","","","","","","","","","","","","","","","","","","","","","","","","","","","","","","","","","","","","","","",""
"574","<p style=""color:white; font-size: 35px;"">精干</p>","e","categorize-html","49","185264","0.0-6.0-0.0-4.0-1.7","3","3","3","3","2","4","4","4","3","4","4","2","1","3","1","4","4","2","4","4","2","4","4","4","4","3","4","5","4","1","0","1","1","0","1","1","1","0","1","1","0","1","0","1","5","4","1","1","4","5","1","2","4","2","2","799738310078636033","陈","126","","","","","","","","","","","","","","","","","","","true","2","2","ability","574","positive","精干","","","","","","","","","","","","","","","","",""
"null","","null","html-keyboard-response","50","185518","0.0-6.0-0.0-4.0-0.8","3","3","3","3","2","4","4","4","3","4","4","2","1","3","1","4","4","2","4","4","2","4","4","4","4","3","4","5","4","1","0","1","1","0","1","1","1","0","1","1","0","1","0","1","5","4","1","1","4","5","1","2","4","2","2","799738310078636033","陈","126","","","","","","","","","","","","","","","","","","","","","","","","","","","","","","","","","","","","","","","","","",""
"856","<p style=""color:white; font-size: 35px;"">全能</p>","e","categorize-html","51","186376","0.0-6.0-0.0-4.0-1.8","3","3","3","3","2","4","4","4","3","4","4","2","1","3","1","4","4","2","4","4","2","4","4","4","4","3","4","5","4","1","0","1","1","0","1","1","1","0","1","1","0","1","0","1","5","4","1","1","4","5","1","2","4","2","2","799738310078636033","陈","126","","","","","","","","","","","","","","","","","","","true","2","2","ability","856","positive","全能","","","","","","","","","","","","","","","","",""
"null","","null","html-keyboard-response","52","186637","0.0-6.0-0.0-4.0-0.9","3","3","3","3","2","4","4","4","3","4","4","2","1","3","1","4","4","2","4","4","2","4","4","4","4","3","4","5","4","1","0","1","1","0","1","1","1","0","1","1","0","1","0","1","5","4","1","1","4","5","1","2","4","2","2","799738310078636033","陈","126","","","","","","","","","","","","","","","","","","","","","","","","","","","","","","","","","","","","","","","","","",""
"664","<p style=""color:white; font-size: 35px;"">废物</p>","i","categorize-html","53","187303","0.0-6.0-0.0-4.0-1.9","3","3","3","3","2","4","4","4","3","4","4","2","1","3","1","4","4","2","4","4","2","4","4","4","4","3","4","5","4","1","0","1","1","0","1","1","1","0","1","1","0","1","0","1","5","4","1","1","4","5","1","2","4","2","2","799738310078636033","陈","126","","","","","","","","","","","","","","","","","","","true","2","2","ability","664","negative","废物","","","","","","","","","","","","","","","","",""
"null","","null","html-keyboard-response","54","187563","0.0-6.0-0.0-4.0-0.10","3","3","3","3","2","4","4","4","3","4","4","2","1","3","1","4","4","2","4","4","2","4","4","4","4","3","4","5","4","1","0","1","1","0","1","1","1","0","1","1","0","1","0","1","5","4","1","1","4","5","1","2","4","2","2","799738310078636033","陈","126","","","","","","","","","","","","","","","","","","","","","","","","","","","","","","","","","","","","","","","","","",""
"897","<p style=""color:white; font-size: 35px;"">高效</p>","e","categorize-html","55","188462","0.0-6.0-0.0-4.0-1.10","3","3","3","3","2","4","4","4","3","4","4","2","1","3","1","4","4","2","4","4","2","4","4","4","4","3","4","5","4","1","0","1","1","0","1","1","1","0","1","1","0","1","0","1","5","4","1","1","4","5","1","2","4","2","2","799738310078636033","陈","126","","","","","","","","","","","","","","","","","","","true","2","2","ability","897","positive","高效","","","","","","","","","","","","","","","","",""
"null","","null","html-keyboard-response","56","188713","0.0-6.0-0.0-4.0-0.11","3","3","3","3","2","4","4","4","3","4","4","2","1","3","1","4","4","2","4","4","2","4","4","4","4","3","4","5","4","1","0","1","1","0","1","1","1","0","1","1","0","1","0","1","5","4","1","1","4","5","1","2","4","2","2","799738310078636033","陈","126","","","","","","","","","","","","","","","","","","","","","","","","","","","","","","","","","","","","","","","","","",""
"1717","<p style=""color:white; font-size: 35px;"">低能</p>","i","categorize-html","57","190432","0.0-6.0-0.0-4.0-1.11","3","3","3","3","2","4","4","4","3","4","4","2","1","3","1","4","4","2","4","4","2","4","4","4","4","3","4","5","4","1","0","1","1","0","1","1","1","0","1","1","0","1","0","1","5","4","1","1","4","5","1","2","4","2","2","799738310078636033","陈","126","","","","","","","","","","","","","","","","","","","true","2","2","ability","1717","negative","低能","","","","","","","","","","","","","","","","",""
"6647","
    <div class=""tag-bottom""><p>
    —— 任务3：对“自我/积极”词和“他人/消极”词分类 ——<p/>
    <span style=""color:#78DCE8""><b>注意上方，之前的四类词语将混合在一起交替呈现</b></span><p/>
    <span style=""color:#FFD866""><b>请根据上方标签的提示，尽可能正确并且快速地做出按键反应</b></span><p/>
    当按键错误时屏幕中会出现<span style=""color:red""> X </span>，需要按另一个键纠正才能继续<br/><p/>
    请把双手食指分别放在键盘的“E”键和“I”键上<p/>
    按<空格键>开始
    </p></div>"," ","html-keyboard-response","58","197081","0.0-6.0-0.0-5.0","3","3","3","3","2","4","4","4","3","4","4","2","1","3","1","4","4","2","4","4","2","4","4","4","4","3","4","5","4","1","0","1","1","0","1","1","1","0","1","1","0","1","0","1","5","4","1","1","4","5","1","2","4","2","2","799738310078636033","陈","126","","","","","","","","","","","","","","","","","","","","","","","","","","","","","","","","","","","","","","","","","",""
"null","","null","html-keyboard-response","59","197335","0.0-6.0-0.0-6.0-0.0","3","3","3","3","2","4","4","4","3","4","4","2","1","3","1","4","4","2","4","4","2","4","4","4","4","3","4","5","4","1","0","1","1","0","1","1","1","0","1","1","0","1","0","1","5","4","1","1","4","5","1","2","4","2","2","799738310078636033","陈","126","","","","","","","","","","","","","","","","","","","","","","","","","","","","","","","","","","","","","","","","","",""
"697","<p style=""color:rgb(150, 250, 100); font-size: 35px;"">我的</p>","e","categorize-html","60","198035","0.0-6.0-0.0-6.0-1.0","3","3","3","3","2","4","4","4","3","4","4","2","1","3","1","4","4","2","4","4","2","4","4","4","4","3","4","5","4","1","0","1","1","0","1","1","1","0","1","1","0","1","0","1","5","4","1","1","4","5","1","2","4","2","2","799738310078636033","陈","126","","","","","","","","","","","","","","","","","","","true","3","3","ability","697","self","我的","","","","","","","","","","","","","","","","",""
"null","","null","html-keyboard-response","61","198292","0.0-6.0-0.0-6.0-0.1","3","3","3","3","2","4","4","4","3","4","4","2","1","3","1","4","4","2","4","4","2","4","4","4","4","3","4","5","4","1","0","1","1","0","1","1","1","0","1","1","0","1","0","1","5","4","1","1","4","5","1","2","4","2","2","799738310078636033","陈","126","","","","","","","","","","","","","","","","","","","","","","","","","","","","","","","","","","","","","","","","","",""
"681","<p style=""color:white; font-size: 35px;"">无能</p>","i","categorize-html","62","198975","0.0-6.0-0.0-6.0-1.1","3","3","3","3","2","4","4","4","3","4","4","2","1","3","1","4","4","2","4","4","2","4","4","4","4","3","4","5","4","1","0","1","1","0","1","1","1","0","1","1","0","1","0","1","5","4","1","1","4","5","1","2","4","2","2","799738310078636033","陈","126","","","","","","","","","","","","","","","","","","","true","3","3","ability","681","negative","无能","","","","","","","","","","","","","","","","",""
"null","","null","html-keyboard-response","63","199230","0.0-6.0-0.0-6.0-0.2","3","3","3","3","2","4","4","4","3","4","4","2","1","3","1","4","4","2","4","4","2","4","4","4","4","3","4","5","4","1","0","1","1","0","1","1","1","0","1","1","0","1","0","1","5","4","1","1","4","5","1","2","4","2","2","799738310078636033","陈","126","","","","","","","","","","","","","","","","","","","","","","","","","","","","","","","","","","","","","","","","","",""
"802","<p style=""color:rgb(150, 250, 100); font-size: 35px;"">他人</p>","i","categorize-html","64","200034","0.0-6.0-0.0-6.0-1.2","3","3","3","3","2","4","4","4","3","4","4","2","1","3","1","4","4","2","4","4","2","4","4","4","4","3","4","5","4","1","0","1","1","0","1","1","1","0","1","1","0","1","0","1","5","4","1","1","4","5","1","2","4","2","2","799738310078636033","陈","126","","","","","","","","","","","","","","","","","","","true","3","3","ability","802","other","他人","","","","","","","","","","","","","","","","",""
"null","","null","html-keyboard-response","65","200301","0.0-6.0-0.0-6.0-0.3","3","3","3","3","2","4","4","4","3","4","4","2","1","3","1","4","4","2","4","4","2","4","4","4","4","3","4","5","4","1","0","1","1","0","1","1","1","0","1","1","0","1","0","1","5","4","1","1","4","5","1","2","4","2","2","799738310078636033","陈","126","","","","","","","","","","","","","","","","","","","","","","","","","","","","","","","","","","","","","","","","","",""
"830","<p style=""color:white; font-size: 35px;"">精干</p>","e","categorize-html","66","201134","0.0-6.0-0.0-6.0-1.3","3","3","3","3","2","4","4","4","3","4","4","2","1","3","1","4","4","2","4","4","2","4","4","4","4","3","4","5","4","1","0","1","1","0","1","1","1","0","1","1","0","1","0","1","5","4","1","1","4","5","1","2","4","2","2","799738310078636033","陈","126","","","","","","","","","","","","","","","","","","","true","3","3","ability","830","positive","精干","","","","","","","","","","","","","","","","",""
"null","","null","html-keyboard-response","67","201385","0.0-6.0-0.0-6.0-0.4","3","3","3","3","2","4","4","4","3","4","4","2","1","3","1","4","4","2","4","4","2","4","4","4","4","3","4","5","4","1","0","1","1","0","1","1","1","0","1","1","0","1","0","1","5","4","1","1","4","5","1","2","4","2","2","799738310078636033","陈","126","","","","","","","","","","","","","","","","","","","","","","","","","","","","","","","","","","","","","","","","","",""
"965","<p style=""color:rgb(150, 250, 100); font-size: 35px;"">别人的</p>","i","categorize-html","68","202352","0.0-6.0-0.0-6.0-1.4","3","3","3","3","2","4","4","4","3","4","4","2","1","3","1","4","4","2","4","4","2","4","4","4","4","3","4","5","4","1","0","1","1","0","1","1","1","0","1","1","0","1","0","1","5","4","1","1","4","5","1","2","4","2","2","799738310078636033","陈","126","","","","","","","","","","","","","","","","","","","true","3","3","ability","965","other","别人的","","","","","","","","","","","","","","","","",""
"null","","null","html-keyboard-response","69","202615","0.0-6.0-0.0-6.0-0.5","3","3","3","3","2","4","4","4","3","4","4","2","1","3","1","4","4","2","4","4","2","4","4","4","4","3","4","5","4","1","0","1","1","0","1","1","1","0","1","1","0","1","0","1","5","4","1","1","4","5","1","2","4","2","2","799738310078636033","陈","126","","","","","","","","","","","","","","","","","","","","","","","","","","","","","","","","","","","","","","","","","",""
"735","<p style=""color:white; font-size: 35px;"">全能</p>","e","categorize-html","70","203353","0.0-6.0-0.0-6.0-1.5","3","3","3","3","2","4","4","4","3","4","4","2","1","3","1","4","4","2","4","4","2","4","4","4","4","3","4","5","4","1","0","1","1","0","1","1","1","0","1","1","0","1","0","1","5","4","1","1","4","5","1","2","4","2","2","799738310078636033","陈","126","","","","","","","","","","","","","","","","","","","true","3","3","ability","735","positive","全能","","","","","","","","","","","","","","","","",""
"null","","null","html-keyboard-response","71","203604","0.0-6.0-0.0-6.0-0.6","3","3","3","3","2","4","4","4","3","4","4","2","1","3","1","4","4","2","4","4","2","4","4","4","4","3","4","5","4","1","0","1","1","0","1","1","1","0","1","1","0","1","0","1","5","4","1","1","4","5","1","2","4","2","2","799738310078636033","陈","126","","","","","","","","","","","","","","","","","","","","","","","","","","","","","","","","","","","","","","","","","",""
"1394","<p style=""color:rgb(150, 250, 100); font-size: 35px;"">本人的</p>","e","categorize-html","72","205001","0.0-6.0-0.0-6.0-1.6","3","3","3","3","2","4","4","4","3","4","4","2","1","3","1","4","4","2","4","4","2","4","4","4","4","3","4","5","4","1","0","1","1","0","1","1","1","0","1","1","0","1","0","1","5","4","1","1","4","5","1","2","4","2","2","799738310078636033","陈","126","","","","","","","","","","","","","","","","","","","true","3","3","ability","1394","self","本人的","","","","","","","","","","","","","","","","",""
"null","","null","html-keyboard-response","73","205266","0.0-6.0-0.0-6.0-0.7","3","3","3","3","2","4","4","4","3","4","4","2","1","3","1","4","4","2","4","4","2","4","4","4","4","3","4","5","4","1","0","1","1","0","1","1","1","0","1","1","0","1","0","1","5","4","1","1","4","5","1","2","4","2","2","799738310078636033","陈","126","","","","","","","","","","","","","","","","","","","","","","","","","","","","","","","","","","","","","","","","","",""
"776","<p style=""color:white; font-size: 35px;"">愚钝</p>","i","categorize-html","74","206046","0.0-6.0-0.0-6.0-1.7","3","3","3","3","2","4","4","4","3","4","4","2","1","3","1","4","4","2","4","4","2","4","4","4","4","3","4","5","4","1","0","1","1","0","1","1","1","0","1","1","0","1","0","1","5","4","1","1","4","5","1","2","4","2","2","799738310078636033","陈","126","","","","","","","","","","","","","","","","","","","true","3","3","ability","776","negative","愚钝","","","","","","","","","","","","","","","","",""
"null","","null","html-keyboard-response","75","206305","0.0-6.0-0.0-6.0-0.8","3","3","3","3","2","4","4","4","3","4","4","2","1","3","1","4","4","2","4","4","2","4","4","4","4","3","4","5","4","1","0","1","1","0","1","1","1","0","1","1","0","1","0","1","5","4","1","1","4","5","1","2","4","2","2","799738310078636033","陈","126","","","","","","","","","","","","","","","","","","","","","","","","","","","","","","","","","","","","","","","","","",""
"736","<p style=""color:rgb(150, 250, 100); font-size: 35px;"">他</p>","i","categorize-html","76","207043","0.0-6.0-0.0-6.0-1.8","3","3","3","3","2","4","4","4","3","4","4","2","1","3","1","4","4","2","4","4","2","4","4","4","4","3","4","5","4","1","0","1","1","0","1","1","1","0","1","1","0","1","0","1","5","4","1","1","4","5","1","2","4","2","2","799738310078636033","陈","126","","","","","","","","","","","","","","","","","","","true","3","3","ability","736","other","他","","","","","","","","","","","","","","","","",""
"null","","null","html-keyboard-response","77","207309","0.0-6.0-0.0-6.0-0.9","3","3","3","3","2","4","4","4","3","4","4","2","1","3","1","4","4","2","4","4","2","4","4","4","4","3","4","5","4","1","0","1","1","0","1","1","1","0","1","1","0","1","0","1","5","4","1","1","4","5","1","2","4","2","2","799738310078636033","陈","126","","","","","","","","","","","","","","","","","","","","","","","","","","","","","","","","","","","","","","","","","",""
"743","<p style=""color:white; font-size: 35px;"">低能</p>","i","categorize-html","78","208055","0.0-6.0-0.0-6.0-1.9","3","3","3","3","2","4","4","4","3","4","4","2","1","3","1","4","4","2","4","4","2","4","4","4","4","3","4","5","4","1","0","1","1","0","1","1","1","0","1","1","0","1","0","1","5","4","1","1","4","5","1","2","4","2","2","799738310078636033","陈","126","","","","","","","","","","","","","","","","","","","true","3","3","ability","743","negative","低能","","","","","","","","","","","","","","","","",""
"null","","null","html-keyboard-response","79","208314","0.0-6.0-0.0-6.0-0.10","3","3","3","3","2","4","4","4","3","4","4","2","1","3","1","4","4","2","4","4","2","4","4","4","4","3","4","5","4","1","0","1","1","0","1","1","1","0","1","1","0","1","0","1","5","4","1","1","4","5","1","2","4","2","2","799738310078636033","陈","126","","","","","","","","","","","","","","","","","","","","","","","","","","","","","","","","","","","","","","","","","",""
"643","<p style=""color:rgb(150, 250, 100); font-size: 35px;"">我</p>","e","categorize-html","80","208959","0.0-6.0-0.0-6.0-1.10","3","3","3","3","2","4","4","4","3","4","4","2","1","3","1","4","4","2","4","4","2","4","4","4","4","3","4","5","4","1","0","1","1","0","1","1","1","0","1","1","0","1","0","1","5","4","1","1","4","5","1","2","4","2","2","799738310078636033","陈","126","","","","","","","","","","","","","","","","","","","true","3","3","ability","643","self","我","","","","","","","","","","","","","","","","",""
"null","","null","html-keyboard-response","81","209223","0.0-6.0-0.0-6.0-0.11","3","3","3","3","2","4","4","4","3","4","4","2","1","3","1","4","4","2","4","4","2","4","4","4","4","3","4","5","4","1","0","1","1","0","1","1","1","0","1","1","0","1","0","1","5","4","1","1","4","5","1","2","4","2","2","799738310078636033","陈","126","","","","","","","","","","","","","","","","","","","","","","","","","","","","","","","","","","","","","","","","","",""
"633","<p style=""color:white; font-size: 35px;"">全才</p>","e","categorize-html","82","209858","0.0-6.0-0.0-6.0-1.11","3","3","3","3","2","4","4","4","3","4","4","2","1","3","1","4","4","2","4","4","2","4","4","4","4","3","4","5","4","1","0","1","1","0","1","1","1","0","1","1","0","1","0","1","5","4","1","1","4","5","1","2","4","2","2","799738310078636033","陈","126","","","","","","","","","","","","","","","","","","","true","3","3","ability","633","positive","全才","","","","","","","","","","","","","","","","",""
"null","","null","html-keyboard-response","83","210115","0.0-6.0-0.0-6.0-0.12","3","3","3","3","2","4","4","4","3","4","4","2","1","3","1","4","4","2","4","4","2","4","4","4","4","3","4","5","4","1","0","1","1","0","1","1","1","0","1","1","0","1","0","1","5","4","1","1","4","5","1","2","4","2","2","799738310078636033","陈","126","","","","","","","","","","","","","","","","","","","","","","","","","","","","","","","","","","","","","","","","","",""
"889","<p style=""color:rgb(150, 250, 100); font-size: 35px;"">他的</p>","i","categorize-html","84","211008","0.0-6.0-0.0-6.0-1.12","3","3","3","3","2","4","4","4","3","4","4","2","1","3","1","4","4","2","4","4","2","4","4","4","4","3","4","5","4","1","0","1","1","0","1","1","1","0","1","1","0","1","0","1","5","4","1","1","4","5","1","2","4","2","2","799738310078636033","陈","126","","","","","","","","","","","","","","","","","","","true","3","3","ability","889","other","他的","","","","","","","","","","","","","","","","",""
"null","","null","html-keyboard-response","85","211268","0.0-6.0-0.0-6.0-0.13","3","3","3","3","2","4","4","4","3","4","4","2","1","3","1","4","4","2","4","4","2","4","4","4","4","3","4","5","4","1","0","1","1","0","1","1","1","0","1","1","0","1","0","1","5","4","1","1","4","5","1","2","4","2","2","799738310078636033","陈","126","","","","","","","","","","","","","","","","","","","","","","","","","","","","","","","","","","","","","","","","","",""
"821","<p style=""color:white; font-size: 35px;"">高效</p>","e","categorize-html","86","212091","0.0-6.0-0.0-6.0-1.13","3","3","3","3","2","4","4","4","3","4","4","2","1","3","1","4","4","2","4","4","2","4","4","4","4","3","4","5","4","1","0","1","1","0","1","1","1","0","1","1","0","1","0","1","5","4","1","1","4","5","1","2","4","2","2","799738310078636033","陈","126","","","","","","","","","","","","","","","","","","","true","3","3","ability","821","positive","高效","","","","","","","","","","","","","","","","",""
"null","","null","html-keyboard-response","87","212371","0.0-6.0-0.0-6.0-0.14","3","3","3","3","2","4","4","4","3","4","4","2","1","3","1","4","4","2","4","4","2","4","4","4","4","3","4","5","4","1","0","1","1","0","1","1","1","0","1","1","0","1","0","1","5","4","1","1","4","5","1","2","4","2","2","799738310078636033","陈","126","","","","","","","","","","","","","","","","","","","","","","","","","","","","","","","","","","","","","","","","","",""
"695","<p style=""color:rgb(150, 250, 100); font-size: 35px;"">本人</p>","e","categorize-html","88","213069","0.0-6.0-0.0-6.0-1.14","3","3","3","3","2","4","4","4","3","4","4","2","1","3","1","4","4","2","4","4","2","4","4","4","4","3","4","5","4","1","0","1","1","0","1","1","1","0","1","1","0","1","0","1","5","4","1","1","4","5","1","2","4","2","2","799738310078636033","陈","126","","","","","","","","","","","","","","","","","","","true","3","3","ability","695","self","本人","","","","","","","","","","","","","","","","",""
"null","","null","html-keyboard-response","89","213329","0.0-6.0-0.0-6.0-0.15","3","3","3","3","2","4","4","4","3","4","4","2","1","3","1","4","4","2","4","4","2","4","4","4","4","3","4","5","4","1","0","1","1","0","1","1","1","0","1","1","0","1","0","1","5","4","1","1","4","5","1","2","4","2","2","799738310078636033","陈","126","","","","","","","","","","","","","","","","","","","","","","","","","","","","","","","","","","","","","","","","","",""
"2423","<p style=""color:white; font-size: 35px;"">蠢笨</p>","i","categorize-html","90","215754","0.0-6.0-0.0-6.0-1.15","3","3","3","3","2","4","4","4","3","4","4","2","1","3","1","4","4","2","4","4","2","4","4","4","4","3","4","5","4","1","0","1","1","0","1","1","1","0","1","1","0","1","0","1","5","4","1","1","4","5","1","2","4","2","2","799738310078636033","陈","126","","","","","","","","","","","","","","","","","","","true","3","3","ability","2423","negative","蠢笨","","","","","","","","","","","","","","","","",""
"null","","null","html-keyboard-response","91","216012","0.0-6.0-0.0-6.0-0.16","3","3","3","3","2","4","4","4","3","4","4","2","1","3","1","4","4","2","4","4","2","4","4","4","4","3","4","5","4","1","0","1","1","0","1","1","1","0","1","1","0","1","0","1","5","4","1","1","4","5","1","2","4","2","2","799738310078636033","陈","126","","","","","","","","","","","","","","","","","","","","","","","","","","","","","","","","","","","","","","","","","",""
"619","<p style=""color:rgb(150, 250, 100); font-size: 35px;"">自己的</p>","e","categorize-html","92","216634","0.0-6.0-0.0-6.0-1.16","3","3","3","3","2","4","4","4","3","4","4","2","1","3","1","4","4","2","4","4","2","4","4","4","4","3","4","5","4","1","0","1","1","0","1","1","1","0","1","1","0","1","0","1","5","4","1","1","4","5","1","2","4","2","2","799738310078636033","陈","126","","","","","","","","","","","","","","","","","","","true","3","3","ability","619","self","自己的","","","","","","","","","","","","","","","","",""
"null","","null","html-keyboard-response","93","216890","0.0-6.0-0.0-6.0-0.17","3","3","3","3","2","4","4","4","3","4","4","2","1","3","1","4","4","2","4","4","2","4","4","4","4","3","4","5","4","1","0","1","1","0","1","1","1","0","1","1","0","1","0","1","5","4","1","1","4","5","1","2","4","2","2","799738310078636033","陈","126","","","","","","","","","","","","","","","","","","","","","","","","","","","","","","","","","","","","","","","","","",""
"672","<p style=""color:white; font-size: 35px;"">拙笨</p>","i","categorize-html","94","217565","0.0-6.0-0.0-6.0-1.17","3","3","3","3","2","4","4","4","3","4","4","2","1","3","1","4","4","2","4","4","2","4","4","4","4","3","4","5","4","1","0","1","1","0","1","1","1","0","1","1","0","1","0","1","5","4","1","1","4","5","1","2","4","2","2","799738310078636033","陈","126","","","","","","","","","","","","","","","","","","","true","3","3","ability","672","negative","拙笨","","","","","","","","","","","","","","","","",""
"null","","null","html-keyboard-response","95","217815","0.0-6.0-0.0-6.0-0.18","3","3","3","3","2","4","4","4","3","4","4","2","1","3","1","4","4","2","4","4","2","4","4","4","4","3","4","5","4","1","0","1","1","0","1","1","1","0","1","1","0","1","0","1","5","4","1","1","4","5","1","2","4","2","2","799738310078636033","陈","126","","","","","","","","","","","","","","","","","","","","","","","","","","","","","","","","","","","","","","","","","",""
"897","<p style=""color:rgb(150, 250, 100); font-size: 35px;"">他人的</p>","i","categorize-html","96","218715","0.0-6.0-0.0-6.0-1.18","3","3","3","3","2","4","4","4","3","4","4","2","1","3","1","4","4","2","4","4","2","4","4","4","4","3","4","5","4","1","0","1","1","0","1","1","1","0","1","1","0","1","0","1","5","4","1","1","4","5","1","2","4","2","2","799738310078636033","陈","126","","","","","","","","","","","","","","","","","","","true","3","3","ability","897","other","他人的","","","","","","","","","","","","","","","","",""
"null","","null","html-keyboard-response","97","218978","0.0-6.0-0.0-6.0-0.19","3","3","3","3","2","4","4","4","3","4","4","2","1","3","1","4","4","2","4","4","2","4","4","4","4","3","4","5","4","1","0","1","1","0","1","1","1","0","1","1","0","1","0","1","5","4","1","1","4","5","1","2","4","2","2","799738310078636033","陈","126","","","","","","","","","","","","","","","","","","","","","","","","","","","","","","","","","","","","","","","","","",""
"674","<p style=""color:white; font-size: 35px;"">天才</p>","e","categorize-html","98","219654","0.0-6.0-0.0-6.0-1.19","3","3","3","3","2","4","4","4","3","4","4","2","1","3","1","4","4","2","4","4","2","4","4","4","4","3","4","5","4","1","0","1","1","0","1","1","1","0","1","1","0","1","0","1","5","4","1","1","4","5","1","2","4","2","2","799738310078636033","陈","126","","","","","","","","","","","","","","","","","","","true","3","3","ability","674","positive","天才","","","","","","","","","","","","","","","","",""
"null","","null","html-keyboard-response","99","219918","0.0-6.0-0.0-6.0-0.20","3","3","3","3","2","4","4","4","3","4","4","2","1","3","1","4","4","2","4","4","2","4","4","4","4","3","4","5","4","1","0","1","1","0","1","1","1","0","1","1","0","1","0","1","5","4","1","1","4","5","1","2","4","2","2","799738310078636033","陈","126","","","","","","","","","","","","","","","","","","","","","","","","","","","","","","","","","","","","","","","","","",""
"600","<p style=""color:rgb(150, 250, 100); font-size: 35px;"">自己</p>","e","categorize-html","100","220520","0.0-6.0-0.0-6.0-1.20","3","3","3","3","2","4","4","4","3","4","4","2","1","3","1","4","4","2","4","4","2","4","4","4","4","3","4","5","4","1","0","1","1","0","1","1","1","0","1","1","0","1","0","1","5","4","1","1","4","5","1","2","4","2","2","799738310078636033","陈","126","","","","","","","","","","","","","","","","","","","true","3","3","ability","600","self","自己","","","","","","","","","","","","","","","","",""
"null","","null","html-keyboard-response","101","220780","0.0-6.0-0.0-6.0-0.21","3","3","3","3","2","4","4","4","3","4","4","2","1","3","1","4","4","2","4","4","2","4","4","4","4","3","4","5","4","1","0","1","1","0","1","1","1","0","1","1","0","1","0","1","5","4","1","1","4","5","1","2","4","2","2","799738310078636033","陈","126","","","","","","","","","","","","","","","","","","","","","","","","","","","","","","","","","","","","","","","","","",""
"890","<p style=""color:white; font-size: 35px;"">废物</p>","i","categorize-html","102","221672","0.0-6.0-0.0-6.0-1.21","3","3","3","3","2","4","4","4","3","4","4","2","1","3","1","4","4","2","4","4","2","4","4","4","4","3","4","5","4","1","0","1","1","0","1","1","1","0","1","1","0","1","0","1","5","4","1","1","4","5","1","2","4","2","2","799738310078636033","陈","126","","","","","","","","","","","","","","","","","","","true","3","3","ability","890","negative","废物","","","","","","","","","","","","","","","","",""
"null","","null","html-keyboard-response","103","221929","0.0-6.0-0.0-6.0-0.22","3","3","3","3","2","4","4","4","3","4","4","2","1","3","1","4","4","2","4","4","2","4","4","4","4","3","4","5","4","1","0","1","1","0","1","1","1","0","1","1","0","1","0","1","5","4","1","1","4","5","1","2","4","2","2","799738310078636033","陈","126","","","","","","","","","","","","","","","","","","","","","","","","","","","","","","","","","","","","","","","","","",""
"837","<p style=""color:rgb(150, 250, 100); font-size: 35px;"">别人</p>","i","categorize-html","104","222768","0.0-6.0-0.0-6.0-1.22","3","3","3","3","2","4","4","4","3","4","4","2","1","3","1","4","4","2","4","4","2","4","4","4","4","3","4","5","4","1","0","1","1","0","1","1","1","0","1","1","0","1","0","1","5","4","1","1","4","5","1","2","4","2","2","799738310078636033","陈","126","","","","","","","","","","","","","","","","","","","true","3","3","ability","837","other","别人","","","","","","","","","","","","","","","","",""
"null","","null","html-keyboard-response","105","223030","0.0-6.0-0.0-6.0-0.23","3","3","3","3","2","4","4","4","3","4","4","2","1","3","1","4","4","2","4","4","2","4","4","4","4","3","4","5","4","1","0","1","1","0","1","1","1","0","1","1","0","1","0","1","5","4","1","1","4","5","1","2","4","2","2","799738310078636033","陈","126","","","","","","","","","","","","","","","","","","","","","","","","","","","","","","","","","","","","","","","","","",""
"826","<p style=""color:white; font-size: 35px;"">能干</p>","e","categorize-html","106","223859","0.0-6.0-0.0-6.0-1.23","3","3","3","3","2","4","4","4","3","4","4","2","1","3","1","4","4","2","4","4","2","4","4","4","4","3","4","5","4","1","0","1","1","0","1","1","1","0","1","1","0","1","0","1","5","4","1","1","4","5","1","2","4","2","2","799738310078636033","陈","126","","","","","","","","","","","","","","","","","","","true","3","3","ability","826","positive","能干","","","","","","","","","","","","","","","","",""
"12299","
    <div class=""tag-bottom""><p>
    —— 任务4：对“自我/积极”词和“他人/消极”词分类 ——<p/>
    <span style=""color:#78DCE8""><b>与刚才的任务完全相同，请再次对这四类词语分类</b></span><p/>
    <span style=""color:#FFD866""><b>请根据上方标签的提示，尽可能正确并且快速地做出按键反应</b></span><p/>
    当按键错误时屏幕中会出现<span style=""color:red""> X </span>，需要按另一个键纠正才能继续<br/><p/>
    请把双手食指分别放在键盘的“E”键和“I”键上<p/>
    按<空格键>开始
    </p></div>"," ","html-keyboard-response","107","236159","0.0-6.0-0.0-7.0","3","3","3","3","2","4","4","4","3","4","4","2","1","3","1","4","4","2","4","4","2","4","4","4","4","3","4","5","4","1","0","1","1","0","1","1","1","0","1","1","0","1","0","1","5","4","1","1","4","5","1","2","4","2","2","799738310078636033","陈","126","","","","","","","","","","","","","","","","","","","","","","","","","","","","","","","","","","","","","","","","","",""
"null","","null","html-keyboard-response","108","236418","0.0-6.0-0.0-8.0-0.0","3","3","3","3","2","4","4","4","3","4","4","2","1","3","1","4","4","2","4","4","2","4","4","4","4","3","4","5","4","1","0","1","1","0","1","1","1","0","1","1","0","1","0","1","5","4","1","1","4","5","1","2","4","2","2","799738310078636033","陈","126","","","","","","","","","","","","","","","","","","","","","","","","","","","","","","","","","","","","","","","","","",""
"601","<p style=""color:rgb(150, 250, 100); font-size: 35px;"">他的</p>","i","categorize-html","109","237023","0.0-6.0-0.0-8.0-1.0","3","3","3","3","2","4","4","4","3","4","4","2","1","3","1","4","4","2","4","4","2","4","4","4","4","3","4","5","4","1","0","1","1","0","1","1","1","0","1","1","0","1","0","1","5","4","1","1","4","5","1","2","4","2","2","799738310078636033","陈","126","","","","","","","","","","","","","","","","","","","true","4","4","ability","601","other","他的","","","","","","","","","","","","","","","","",""
"null","","null","html-keyboard-response","110","237280","0.0-6.0-0.0-8.0-0.1","3","3","3","3","2","4","4","4","3","4","4","2","1","3","1","4","4","2","4","4","2","4","4","4","4","3","4","5","4","1","0","1","1","0","1","1","1","0","1","1","0","1","0","1","5","4","1","1","4","5","1","2","4","2","2","799738310078636033","陈","126","","","","","","","","","","","","","","","","","","","","","","","","","","","","","","","","","","","","","","","","","",""
"684","<p style=""color:white; font-size: 35px;"">拙笨</p>","i","categorize-html","111","237967","0.0-6.0-0.0-8.0-1.1","3","3","3","3","2","4","4","4","3","4","4","2","1","3","1","4","4","2","4","4","2","4","4","4","4","3","4","5","4","1","0","1","1","0","1","1","1","0","1","1","0","1","0","1","5","4","1","1","4","5","1","2","4","2","2","799738310078636033","陈","126","","","","","","","","","","","","","","","","","","","true","4","4","ability","684","negative","拙笨","","","","","","","","","","","","","","","","",""
"null","","null","html-keyboard-response","112","238222","0.0-6.0-0.0-8.0-0.2","3","3","3","3","2","4","4","4","3","4","4","2","1","3","1","4","4","2","4","4","2","4","4","4","4","3","4","5","4","1","0","1","1","0","1","1","1","0","1","1","0","1","0","1","5","4","1","1","4","5","1","2","4","2","2","799738310078636033","陈","126","","","","","","","","","","","","","","","","","","","","","","","","","","","","","","","","","","","","","","","","","",""
"723","<p style=""color:rgb(150, 250, 100); font-size: 35px;"">我</p>","e","categorize-html","113","238948","0.0-6.0-0.0-8.0-1.2","3","3","3","3","2","4","4","4","3","4","4","2","1","3","1","4","4","2","4","4","2","4","4","4","4","3","4","5","4","1","0","1","1","0","1","1","1","0","1","1","0","1","0","1","5","4","1","1","4","5","1","2","4","2","2","799738310078636033","陈","126","","","","","","","","","","","","","","","","","","","true","4","4","ability","723","self","我","","","","","","","","","","","","","","","","",""
"null","","null","html-keyboard-response","114","239208","0.0-6.0-0.0-8.0-0.3","3","3","3","3","2","4","4","4","3","4","4","2","1","3","1","4","4","2","4","4","2","4","4","4","4","3","4","5","4","1","0","1","1","0","1","1","1","0","1","1","0","1","0","1","5","4","1","1","4","5","1","2","4","2","2","799738310078636033","陈","126","","","","","","","","","","","","","","","","","","","","","","","","","","","","","","","","","","","","","","","","","",""
"673","<p style=""color:white; font-size: 35px;"">精干</p>","e","categorize-html","115","239884","0.0-6.0-0.0-8.0-1.3","3","3","3","3","2","4","4","4","3","4","4","2","1","3","1","4","4","2","4","4","2","4","4","4","4","3","4","5","4","1","0","1","1","0","1","1","1","0","1","1","0","1","0","1","5","4","1","1","4","5","1","2","4","2","2","799738310078636033","陈","126","","","","","","","","","","","","","","","","","","","true","4","4","ability","673","positive","精干","","","","","","","","","","","","","","","","",""
"null","","null","html-keyboard-response","116","240150","0.0-6.0-0.0-8.0-0.4","3","3","3","3","2","4","4","4","3","4","4","2","1","3","1","4","4","2","4","4","2","4","4","4","4","3","4","5","4","1","0","1","1","0","1","1","1","0","1","1","0","1","0","1","5","4","1","1","4","5","1","2","4","2","2","799738310078636033","陈","126","","","","","","","","","","","","","","","","","","","","","","","","","","","","","","","","","","","","","","","","","",""
"776","<p style=""color:rgb(150, 250, 100); font-size: 35px;"">别人</p>","i","categorize-html","117","240928","0.0-6.0-0.0-8.0-1.4","3","3","3","3","2","4","4","4","3","4","4","2","1","3","1","4","4","2","4","4","2","4","4","4","4","3","4","5","4","1","0","1","1","0","1","1","1","0","1","1","0","1","0","1","5","4","1","1","4","5","1","2","4","2","2","799738310078636033","陈","126","","","","","","","","","","","","","","","","","","","true","4","4","ability","776","other","别人","","","","","","","","","","","","","","","","",""
"null","","null","html-keyboard-response","118","241185","0.0-6.0-0.0-8.0-0.5","3","3","3","3","2","4","4","4","3","4","4","2","1","3","1","4","4","2","4","4","2","4","4","4","4","3","4","5","4","1","0","1","1","0","1","1","1","0","1","1","0","1","0","1","5","4","1","1","4","5","1","2","4","2","2","799738310078636033","陈","126","","","","","","","","","","","","","","","","","","","","","","","","","","","","","","","","","","","","","","","","","",""
"698","<p style=""color:white; font-size: 35px;"">拙笨</p>","i","categorize-html","119","241886","0.0-6.0-0.0-8.0-1.5","3","3","3","3","2","4","4","4","3","4","4","2","1","3","1","4","4","2","4","4","2","4","4","4","4","3","4","5","4","1","0","1","1","0","1","1","1","0","1","1","0","1","0","1","5","4","1","1","4","5","1","2","4","2","2","799738310078636033","陈","126","","","","","","","","","","","","","","","","","","","true","4","4","ability","698","negative","拙笨","","","","","","","","","","","","","","","","",""
"null","","null","html-keyboard-response","120","242145","0.0-6.0-0.0-8.0-0.6","3","3","3","3","2","4","4","4","3","4","4","2","1","3","1","4","4","2","4","4","2","4","4","4","4","3","4","5","4","1","0","1","1","0","1","1","1","0","1","1","0","1","0","1","5","4","1","1","4","5","1","2","4","2","2","799738310078636033","陈","126","","","","","","","","","","","","","","","","","","","","","","","","","","","","","","","","","","","","","","","","","",""
"713","<p style=""color:rgb(150, 250, 100); font-size: 35px;"">本人</p>","e","categorize-html","121","242861","0.0-6.0-0.0-8.0-1.6","3","3","3","3","2","4","4","4","3","4","4","2","1","3","1","4","4","2","4","4","2","4","4","4","4","3","4","5","4","1","0","1","1","0","1","1","1","0","1","1","0","1","0","1","5","4","1","1","4","5","1","2","4","2","2","799738310078636033","陈","126","","","","","","","","","","","","","","","","","","","true","4","4","ability","713","self","本人","","","","","","","","","","","","","","","","",""
"null","","null","html-keyboard-response","122","243121","0.0-6.0-0.0-8.0-0.7","3","3","3","3","2","4","4","4","3","4","4","2","1","3","1","4","4","2","4","4","2","4","4","4","4","3","4","5","4","1","0","1","1","0","1","1","1","0","1","1","0","1","0","1","5","4","1","1","4","5","1","2","4","2","2","799738310078636033","陈","126","","","","","","","","","","","","","","","","","","","","","","","","","","","","","","","","","","","","","","","","","",""
"610","<p style=""color:white; font-size: 35px;"">能干</p>","e","categorize-html","123","243733","0.0-6.0-0.0-8.0-1.7","3","3","3","3","2","4","4","4","3","4","4","2","1","3","1","4","4","2","4","4","2","4","4","4","4","3","4","5","4","1","0","1","1","0","1","1","1","0","1","1","0","1","0","1","5","4","1","1","4","5","1","2","4","2","2","799738310078636033","陈","126","","","","","","","","","","","","","","","","","","","true","4","4","ability","610","positive","能干","","","","","","","","","","","","","","","","",""
"null","","null","html-keyboard-response","124","243983","0.0-6.0-0.0-8.0-0.8","3","3","3","3","2","4","4","4","3","4","4","2","1","3","1","4","4","2","4","4","2","4","4","4","4","3","4","5","4","1","0","1","1","0","1","1","1","0","1","1","0","1","0","1","5","4","1","1","4","5","1","2","4","2","2","799738310078636033","陈","126","","","","","","","","","","","","","","","","","","","","","","","","","","","","","","","","","","","","","","","","","",""
"708","<p style=""color:rgb(150, 250, 100); font-size: 35px;"">别人</p>","i","categorize-html","125","244694","0.0-6.0-0.0-8.0-1.8","3","3","3","3","2","4","4","4","3","4","4","2","1","3","1","4","4","2","4","4","2","4","4","4","4","3","4","5","4","1","0","1","1","0","1","1","1","0","1","1","0","1","0","1","5","4","1","1","4","5","1","2","4","2","2","799738310078636033","陈","126","","","","","","","","","","","","","","","","","","","true","4","4","ability","708","other","别人","","","","","","","","","","","","","","","","",""
"null","","null","html-keyboard-response","126","244959","0.0-6.0-0.0-8.0-0.9","3","3","3","3","2","4","4","4","3","4","4","2","1","3","1","4","4","2","4","4","2","4","4","4","4","3","4","5","4","1","0","1","1","0","1","1","1","0","1","1","0","1","0","1","5","4","1","1","4","5","1","2","4","2","2","799738310078636033","陈","126","","","","","","","","","","","","","","","","","","","","","","","","","","","","","","","","","","","","","","","","","",""
"846","<p style=""color:white; font-size: 35px;"">天才</p>","e","categorize-html","127","245807","0.0-6.0-0.0-8.0-1.9","3","3","3","3","2","4","4","4","3","4","4","2","1","3","1","4","4","2","4","4","2","4","4","4","4","3","4","5","4","1","0","1","1","0","1","1","1","0","1","1","0","1","0","1","5","4","1","1","4","5","1","2","4","2","2","799738310078636033","陈","126","","","","","","","","","","","","","","","","","","","true","4","4","ability","846","positive","天才","","","","","","","","","","","","","","","","",""
"null","","null","html-keyboard-response","128","246060","0.0-6.0-0.0-8.0-0.10","3","3","3","3","2","4","4","4","3","4","4","2","1","3","1","4","4","2","4","4","2","4","4","4","4","3","4","5","4","1","0","1","1","0","1","1","1","0","1","1","0","1","0","1","5","4","1","1","4","5","1","2","4","2","2","799738310078636033","陈","126","","","","","","","","","","","","","","","","","","","","","","","","","","","","","","","","","","","","","","","","","",""
"644","<p style=""color:rgb(150, 250, 100); font-size: 35px;"">自己</p>","e","categorize-html","129","246707","0.0-6.0-0.0-8.0-1.10","3","3","3","3","2","4","4","4","3","4","4","2","1","3","1","4","4","2","4","4","2","4","4","4","4","3","4","5","4","1","0","1","1","0","1","1","1","0","1","1","0","1","0","1","5","4","1","1","4","5","1","2","4","2","2","799738310078636033","陈","126","","","","","","","","","","","","","","","","","","","true","4","4","ability","644","self","自己","","","","","","","","","","","","","","","","",""
"null","","null","html-keyboard-response","130","246970","0.0-6.0-0.0-8.0-0.11","3","3","3","3","2","4","4","4","3","4","4","2","1","3","1","4","4","2","4","4","2","4","4","4","4","3","4","5","4","1","0","1","1","0","1","1","1","0","1","1","0","1","0","1","5","4","1","1","4","5","1","2","4","2","2","799738310078636033","陈","126","","","","","","","","","","","","","","","","","","","","","","","","","","","","","","","","","","","","","","","","","",""
"751","<p style=""color:white; font-size: 35px;"">愚钝</p>","i","categorize-html","131","247724","0.0-6.0-0.0-8.0-1.11","3","3","3","3","2","4","4","4","3","4","4","2","1","3","1","4","4","2","4","4","2","4","4","4","4","3","4","5","4","1","0","1","1","0","1","1","1","0","1","1","0","1","0","1","5","4","1","1","4","5","1","2","4","2","2","799738310078636033","陈","126","","","","","","","","","","","","","","","","","","","true","4","4","ability","751","negative","愚钝","","","","","","","","","","","","","","","","",""
"null","","null","html-keyboard-response","132","247977","0.0-6.0-0.0-8.0-0.12","3","3","3","3","2","4","4","4","3","4","4","2","1","3","1","4","4","2","4","4","2","4","4","4","4","3","4","5","4","1","0","1","1","0","1","1","1","0","1","1","0","1","0","1","5","4","1","1","4","5","1","2","4","2","2","799738310078636033","陈","126","","","","","","","","","","","","","","","","","","","","","","","","","","","","","","","","","","","","","","","","","",""
"545","<p style=""color:rgb(150, 250, 100); font-size: 35px;"">他</p>","i","categorize-html","133","248525","0.0-6.0-0.0-8.0-1.12","3","3","3","3","2","4","4","4","3","4","4","2","1","3","1","4","4","2","4","4","2","4","4","4","4","3","4","5","4","1","0","1","1","0","1","1","1","0","1","1","0","1","0","1","5","4","1","1","4","5","1","2","4","2","2","799738310078636033","陈","126","","","","","","","","","","","","","","","","","","","true","4","4","ability","545","other","他","","","","","","","","","","","","","","","","",""
"null","","null","html-keyboard-response","134","248790","0.0-6.0-0.0-8.0-0.13","3","3","3","3","2","4","4","4","3","4","4","2","1","3","1","4","4","2","4","4","2","4","4","4","4","3","4","5","4","1","0","1","1","0","1","1","1","0","1","1","0","1","0","1","5","4","1","1","4","5","1","2","4","2","2","799738310078636033","陈","126","","","","","","","","","","","","","","","","","","","","","","","","","","","","","","","","","","","","","","","","","",""
"588","<p style=""color:white; font-size: 35px;"">蠢笨</p>","i","categorize-html","135","249381","0.0-6.0-0.0-8.0-1.13","3","3","3","3","2","4","4","4","3","4","4","2","1","3","1","4","4","2","4","4","2","4","4","4","4","3","4","5","4","1","0","1","1","0","1","1","1","0","1","1","0","1","0","1","5","4","1","1","4","5","1","2","4","2","2","799738310078636033","陈","126","","","","","","","","","","","","","","","","","","","true","4","4","ability","588","negative","蠢笨","","","","","","","","","","","","","","","","",""
"null","","null","html-keyboard-response","136","249636","0.0-6.0-0.0-8.0-0.14","3","3","3","3","2","4","4","4","3","4","4","2","1","3","1","4","4","2","4","4","2","4","4","4","4","3","4","5","4","1","0","1","1","0","1","1","1","0","1","1","0","1","0","1","5","4","1","1","4","5","1","2","4","2","2","799738310078636033","陈","126","","","","","","","","","","","","","","","","","","","","","","","","","","","","","","","","","","","","","","","","","",""
"772","<p style=""color:rgb(150, 250, 100); font-size: 35px;"">本人的</p>","e","categorize-html","137","250409","0.0-6.0-0.0-8.0-1.14","3","3","3","3","2","4","4","4","3","4","4","2","1","3","1","4","4","2","4","4","2","4","4","4","4","3","4","5","4","1","0","1","1","0","1","1","1","0","1","1","0","1","0","1","5","4","1","1","4","5","1","2","4","2","2","799738310078636033","陈","126","","","","","","","","","","","","","","","","","","","true","4","4","ability","772","self","本人的","","","","","","","","","","","","","","","","",""
"null","","null","html-keyboard-response","138","250672","0.0-6.0-0.0-8.0-0.15","3","3","3","3","2","4","4","4","3","4","4","2","1","3","1","4","4","2","4","4","2","4","4","4","4","3","4","5","4","1","0","1","1","0","1","1","1","0","1","1","0","1","0","1","5","4","1","1","4","5","1","2","4","2","2","799738310078636033","陈","126","","","","","","","","","","","","","","","","","","","","","","","","","","","","","","","","","","","","","","","","","",""
"654","<p style=""color:white; font-size: 35px;"">能干</p>","e","categorize-html","139","251328","0.0-6.0-0.0-8.0-1.15","3","3","3","3","2","4","4","4","3","4","4","2","1","3","1","4","4","2","4","4","2","4","4","4","4","3","4","5","4","1","0","1","1","0","1","1","1","0","1","1","0","1","0","1","5","4","1","1","4","5","1","2","4","2","2","799738310078636033","陈","126","","","","","","","","","","","","","","","","","","","true","4","4","ability","654","positive","能干","","","","","","","","","","","","","","","","",""
"null","","null","html-keyboard-response","140","251598","0.0-6.0-0.0-8.0-0.16","3","3","3","3","2","4","4","4","3","4","4","2","1","3","1","4","4","2","4","4","2","4","4","4","4","3","4","5","4","1","0","1","1","0","1","1","1","0","1","1","0","1","0","1","5","4","1","1","4","5","1","2","4","2","2","799738310078636033","陈","126","","","","","","","","","","","","","","","","","","","","","","","","","","","","","","","","","","","","","","","","","",""
"547","<p style=""color:rgb(150, 250, 100); font-size: 35px;"">我</p>","e","categorize-html","141","252147","0.0-6.0-0.0-8.0-1.16","3","3","3","3","2","4","4","4","3","4","4","2","1","3","1","4","4","2","4","4","2","4","4","4","4","3","4","5","4","1","0","1","1","0","1","1","1","0","1","1","0","1","0","1","5","4","1","1","4","5","1","2","4","2","2","799738310078636033","陈","126","","","","","","","","","","","","","","","","","","","true","4","4","ability","547","self","我","","","","","","","","","","","","","","","","",""
"null","","null","html-keyboard-response","142","252409","0.0-6.0-0.0-8.0-0.17","3","3","3","3","2","4","4","4","3","4","4","2","1","3","1","4","4","2","4","4","2","4","4","4","4","3","4","5","4","1","0","1","1","0","1","1","1","0","1","1","0","1","0","1","5","4","1","1","4","5","1","2","4","2","2","799738310078636033","陈","126","","","","","","","","","","","","","","","","","","","","","","","","","","","","","","","","","","","","","","","","","",""
"651","<p style=""color:white; font-size: 35px;"">全能</p>","e","categorize-html","143","253063","0.0-6.0-0.0-8.0-1.17","3","3","3","3","2","4","4","4","3","4","4","2","1","3","1","4","4","2","4","4","2","4","4","4","4","3","4","5","4","1","0","1","1","0","1","1","1","0","1","1","0","1","0","1","5","4","1","1","4","5","1","2","4","2","2","799738310078636033","陈","126","","","","","","","","","","","","","","","","","","","true","4","4","ability","651","positive","全能","","","","","","","","","","","","","","","","",""
"null","","null","html-keyboard-response","144","253320","0.0-6.0-0.0-8.0-0.18","3","3","3","3","2","4","4","4","3","4","4","2","1","3","1","4","4","2","4","4","2","4","4","4","4","3","4","5","4","1","0","1","1","0","1","1","1","0","1","1","0","1","0","1","5","4","1","1","4","5","1","2","4","2","2","799738310078636033","陈","126","","","","","","","","","","","","","","","","","","","","","","","","","","","","","","","","","","","","","","","","","",""
"853","<p style=""color:rgb(150, 250, 100); font-size: 35px;"">他</p>","i","categorize-html","145","254177","0.0-6.0-0.0-8.0-1.18","3","3","3","3","2","4","4","4","3","4","4","2","1","3","1","4","4","2","4","4","2","4","4","4","4","3","4","5","4","1","0","1","1","0","1","1","1","0","1","1","0","1","0","1","5","4","1","1","4","5","1","2","4","2","2","799738310078636033","陈","126","","","","","","","","","","","","","","","","","","","true","4","4","ability","853","other","他","","","","","","","","","","","","","","","","",""
"null","","null","html-keyboard-response","146","254438","0.0-6.0-0.0-8.0-0.19","3","3","3","3","2","4","4","4","3","4","4","2","1","3","1","4","4","2","4","4","2","4","4","4","4","3","4","5","4","1","0","1","1","0","1","1","1","0","1","1","0","1","0","1","5","4","1","1","4","5","1","2","4","2","2","799738310078636033","陈","126","","","","","","","","","","","","","","","","","","","","","","","","","","","","","","","","","","","","","","","","","",""
"687","<p style=""color:white; font-size: 35px;"">蠢笨</p>","i","categorize-html","147","255127","0.0-6.0-0.0-8.0-1.19","3","3","3","3","2","4","4","4","3","4","4","2","1","3","1","4","4","2","4","4","2","4","4","4","4","3","4","5","4","1","0","1","1","0","1","1","1","0","1","1","0","1","0","1","5","4","1","1","4","5","1","2","4","2","2","799738310078636033","陈","126","","","","","","","","","","","","","","","","","","","true","4","4","ability","687","negative","蠢笨","","","","","","","","","","","","","","","","",""
"null","","null","html-keyboard-response","148","255379","0.0-6.0-0.0-8.0-0.20","3","3","3","3","2","4","4","4","3","4","4","2","1","3","1","4","4","2","4","4","2","4","4","4","4","3","4","5","4","1","0","1","1","0","1","1","1","0","1","1","0","1","0","1","5","4","1","1","4","5","1","2","4","2","2","799738310078636033","陈","126","","","","","","","","","","","","","","","","","","","","","","","","","","","","","","","","","","","","","","","","","",""
"615","<p style=""color:rgb(150, 250, 100); font-size: 35px;"">我的</p>","e","categorize-html","149","255998","0.0-6.0-0.0-8.0-1.20","3","3","3","3","2","4","4","4","3","4","4","2","1","3","1","4","4","2","4","4","2","4","4","4","4","3","4","5","4","1","0","1","1","0","1","1","1","0","1","1","0","1","0","1","5","4","1","1","4","5","1","2","4","2","2","799738310078636033","陈","126","","","","","","","","","","","","","","","","","","","true","4","4","ability","615","self","我的","","","","","","","","","","","","","","","","",""
"null","","null","html-keyboard-response","150","256256","0.0-6.0-0.0-8.0-0.21","3","3","3","3","2","4","4","4","3","4","4","2","1","3","1","4","4","2","4","4","2","4","4","4","4","3","4","5","4","1","0","1","1","0","1","1","1","0","1","1","0","1","0","1","5","4","1","1","4","5","1","2","4","2","2","799738310078636033","陈","126","","","","","","","","","","","","","","","","","","","","","","","","","","","","","","","","","","","","","","","","","",""
"693","<p style=""color:white; font-size: 35px;"">高效</p>","e","categorize-html","151","256952","0.0-6.0-0.0-8.0-1.21","3","3","3","3","2","4","4","4","3","4","4","2","1","3","1","4","4","2","4","4","2","4","4","4","4","3","4","5","4","1","0","1","1","0","1","1","1","0","1","1","0","1","0","1","5","4","1","1","4","5","1","2","4","2","2","799738310078636033","陈","126","","","","","","","","","","","","","","","","","","","true","4","4","ability","693","positive","高效","","","","","","","","","","","","","","","","",""
"null","","null","html-keyboard-response","152","257213","0.0-6.0-0.0-8.0-0.22","3","3","3","3","2","4","4","4","3","4","4","2","1","3","1","4","4","2","4","4","2","4","4","4","4","3","4","5","4","1","0","1","1","0","1","1","1","0","1","1","0","1","0","1","5","4","1","1","4","5","1","2","4","2","2","799738310078636033","陈","126","","","","","","","","","","","","","","","","","","","","","","","","","","","","","","","","","","","","","","","","","",""
"804","<p style=""color:rgb(150, 250, 100); font-size: 35px;"">他的</p>","i","categorize-html","153","258019","0.0-6.0-0.0-8.0-1.22","3","3","3","3","2","4","4","4","3","4","4","2","1","3","1","4","4","2","4","4","2","4","4","4","4","3","4","5","4","1","0","1","1","0","1","1","1","0","1","1","0","1","0","1","5","4","1","1","4","5","1","2","4","2","2","799738310078636033","陈","126","","","","","","","","","","","","","","","","","","","true","4","4","ability","804","other","他的","","","","","","","","","","","","","","","","",""
"null","","null","html-keyboard-response","154","258284","0.0-6.0-0.0-8.0-0.23","3","3","3","3","2","4","4","4","3","4","4","2","1","3","1","4","4","2","4","4","2","4","4","4","4","3","4","5","4","1","0","1","1","0","1","1","1","0","1","1","0","1","0","1","5","4","1","1","4","5","1","2","4","2","2","799738310078636033","陈","126","","","","","","","","","","","","","","","","","","","","","","","","","","","","","","","","","","","","","","","","","",""
"855","<p style=""color:white; font-size: 35px;"">愚钝</p>","i","categorize-html","155","259142","0.0-6.0-0.0-8.0-1.23","3","3","3","3","2","4","4","4","3","4","4","2","1","3","1","4","4","2","4","4","2","4","4","4","4","3","4","5","4","1","0","1","1","0","1","1","1","0","1","1","0","1","0","1","5","4","1","1","4","5","1","2","4","2","2","799738310078636033","陈","126","","","","","","","","","","","","","","","","","","","true","4","4","ability","855","negative","愚钝","","","","","","","","","","","","","","","","",""
"null","","null","html-keyboard-response","156","259398","0.0-6.0-0.0-8.0-0.24","3","3","3","3","2","4","4","4","3","4","4","2","1","3","1","4","4","2","4","4","2","4","4","4","4","3","4","5","4","1","0","1","1","0","1","1","1","0","1","1","0","1","0","1","5","4","1","1","4","5","1","2","4","2","2","799738310078636033","陈","126","","","","","","","","","","","","","","","","","","","","","","","","","","","","","","","","","","","","","","","","","",""
"581","<p style=""color:rgb(150, 250, 100); font-size: 35px;"">他人的</p>","i","categorize-html","157","259981","0.0-6.0-0.0-8.0-1.24","3","3","3","3","2","4","4","4","3","4","4","2","1","3","1","4","4","2","4","4","2","4","4","4","4","3","4","5","4","1","0","1","1","0","1","1","1","0","1","1","0","1","0","1","5","4","1","1","4","5","1","2","4","2","2","799738310078636033","陈","126","","","","","","","","","","","","","","","","","","","true","4","4","ability","581","other","他人的","","","","","","","","","","","","","","","","",""
"null","","null","html-keyboard-response","158","260244","0.0-6.0-0.0-8.0-0.25","3","3","3","3","2","4","4","4","3","4","4","2","1","3","1","4","4","2","4","4","2","4","4","4","4","3","4","5","4","1","0","1","1","0","1","1","1","0","1","1","0","1","0","1","5","4","1","1","4","5","1","2","4","2","2","799738310078636033","陈","126","","","","","","","","","","","","","","","","","","","","","","","","","","","","","","","","","","","","","","","","","",""
"777","<p style=""color:white; font-size: 35px;"">低能</p>","i","categorize-html","159","261023","0.0-6.0-0.0-8.0-1.25","3","3","3","3","2","4","4","4","3","4","4","2","1","3","1","4","4","2","4","4","2","4","4","4","4","3","4","5","4","1","0","1","1","0","1","1","1","0","1","1","0","1","0","1","5","4","1","1","4","5","1","2","4","2","2","799738310078636033","陈","126","","","","","","","","","","","","","","","","","","","true","4","4","ability","777","negative","低能","","","","","","","","","","","","","","","","",""
"null","","null","html-keyboard-response","160","261282","0.0-6.0-0.0-8.0-0.26","3","3","3","3","2","4","4","4","3","4","4","2","1","3","1","4","4","2","4","4","2","4","4","4","4","3","4","5","4","1","0","1","1","0","1","1","1","0","1","1","0","1","0","1","5","4","1","1","4","5","1","2","4","2","2","799738310078636033","陈","126","","","","","","","","","","","","","","","","","","","","","","","","","","","","","","","","","","","","","","","","","",""
"737","<p style=""color:rgb(150, 250, 100); font-size: 35px;"">自己</p>","e","categorize-html","161","262022","0.0-6.0-0.0-8.0-1.26","3","3","3","3","2","4","4","4","3","4","4","2","1","3","1","4","4","2","4","4","2","4","4","4","4","3","4","5","4","1","0","1","1","0","1","1","1","0","1","1","0","1","0","1","5","4","1","1","4","5","1","2","4","2","2","799738310078636033","陈","126","","","","","","","","","","","","","","","","","","","true","4","4","ability","737","self","自己","","","","","","","","","","","","","","","","",""
"null","","null","html-keyboard-response","162","262284","0.0-6.0-0.0-8.0-0.27","3","3","3","3","2","4","4","4","3","4","4","2","1","3","1","4","4","2","4","4","2","4","4","4","4","3","4","5","4","1","0","1","1","0","1","1","1","0","1","1","0","1","0","1","5","4","1","1","4","5","1","2","4","2","2","799738310078636033","陈","126","","","","","","","","","","","","","","","","","","","","","","","","","","","","","","","","","","","","","","","","","",""
"1322","<p style=""color:white; font-size: 35px;"">天才</p>","i","categorize-html","163","264747","0.0-6.0-0.0-8.0-1.27","3","3","3","3","2","4","4","4","3","4","4","2","1","3","1","4","4","2","4","4","2","4","4","4","4","3","4","5","4","1","0","1","1","0","1","1","1","0","1","1","0","1","0","1","5","4","1","1","4","5","1","2","4","2","2","799738310078636033","陈","126","","","","","","","","","","","","","","","","","","","false","4","4","ability","1334.127659574468","positive","天才","","","","","","","","","","","","","","","","",""
"null","","null","html-keyboard-response","164","265010","0.0-6.0-0.0-8.0-0.28","3","3","3","3","2","4","4","4","3","4","4","2","1","3","1","4","4","2","4","4","2","4","4","4","4","3","4","5","4","1","0","1","1","0","1","1","1","0","1","1","0","1","0","1","5","4","1","1","4","5","1","2","4","2","2","799738310078636033","陈","126","","","","","","","","","","","","","","","","","","","","","","","","","","","","","","","","","","","","","","","","","",""
"774","<p style=""color:rgb(150, 250, 100); font-size: 35px;"">他人</p>","i","categorize-html","165","265786","0.0-6.0-0.0-8.0-1.28","3","3","3","3","2","4","4","4","3","4","4","2","1","3","1","4","4","2","4","4","2","4","4","4","4","3","4","5","4","1","0","1","1","0","1","1","1","0","1","1","0","1","0","1","5","4","1","1","4","5","1","2","4","2","2","799738310078636033","陈","126","","","","","","","","","","","","","","","","","","","true","4","4","ability","774","other","他人","","","","","","","","","","","","","","","","",""
"null","","null","html-keyboard-response","166","266041","0.0-6.0-0.0-8.0-0.29","3","3","3","3","2","4","4","4","3","4","4","2","1","3","1","4","4","2","4","4","2","4","4","4","4","3","4","5","4","1","0","1","1","0","1","1","1","0","1","1","0","1","0","1","5","4","1","1","4","5","1","2","4","2","2","799738310078636033","陈","126","","","","","","","","","","","","","","","","","","","","","","","","","","","","","","","","","","","","","","","","","",""
"1301","<p style=""color:white; font-size: 35px;"">高效</p>","e","categorize-html","167","267344","0.0-6.0-0.0-8.0-1.29","3","3","3","3","2","4","4","4","3","4","4","2","1","3","1","4","4","2","4","4","2","4","4","4","4","3","4","5","4","1","0","1","1","0","1","1","1","0","1","1","0","1","0","1","5","4","1","1","4","5","1","2","4","2","2","799738310078636033","陈","126","","","","","","","","","","","","","","","","","","","true","4","4","ability","1301","positive","高效","","","","","","","","","","","","","","","","",""
"null","","null","html-keyboard-response","168","267603","0.0-6.0-0.0-8.0-0.30","3","3","3","3","2","4","4","4","3","4","4","2","1","3","1","4","4","2","4","4","2","4","4","4","4","3","4","5","4","1","0","1","1","0","1","1","1","0","1","1","0","1","0","1","5","4","1","1","4","5","1","2","4","2","2","799738310078636033","陈","126","","","","","","","","","","","","","","","","","","","","","","","","","","","","","","","","","","","","","","","","","",""
"647","<p style=""color:rgb(150, 250, 100); font-size: 35px;"">自己的</p>","e","categorize-html","169","268253","0.0-6.0-0.0-8.0-1.30","3","3","3","3","2","4","4","4","3","4","4","2","1","3","1","4","4","2","4","4","2","4","4","4","4","3","4","5","4","1","0","1","1","0","1","1","1","0","1","1","0","1","0","1","5","4","1","1","4","5","1","2","4","2","2","799738310078636033","陈","126","","","","","","","","","","","","","","","","","","","true","4","4","ability","647","self","自己的","","","","","","","","","","","","","","","","",""
"null","","null","html-keyboard-response","170","268513","0.0-6.0-0.0-8.0-0.31","3","3","3","3","2","4","4","4","3","4","4","2","1","3","1","4","4","2","4","4","2","4","4","4","4","3","4","5","4","1","0","1","1","0","1","1","1","0","1","1","0","1","0","1","5","4","1","1","4","5","1","2","4","2","2","799738310078636033","陈","126","","","","","","","","","","","","","","","","","","","","","","","","","","","","","","","","","","","","","","","","","",""
"849","<p style=""color:white; font-size: 35px;"">废物</p>","i","categorize-html","171","269366","0.0-6.0-0.0-8.0-1.31","3","3","3","3","2","4","4","4","3","4","4","2","1","3","1","4","4","2","4","4","2","4","4","4","4","3","4","5","4","1","0","1","1","0","1","1","1","0","1","1","0","1","0","1","5","4","1","1","4","5","1","2","4","2","2","799738310078636033","陈","126","","","","","","","","","","","","","","","","","","","true","4","4","ability","849","negative","废物","","","","","","","","","","","","","","","","",""
"null","","null","html-keyboard-response","172","269630","0.0-6.0-0.0-8.0-0.32","3","3","3","3","2","4","4","4","3","4","4","2","1","3","1","4","4","2","4","4","2","4","4","4","4","3","4","5","4","1","0","1","1","0","1","1","1","0","1","1","0","1","0","1","5","4","1","1","4","5","1","2","4","2","2","799738310078636033","陈","126","","","","","","","","","","","","","","","","","","","","","","","","","","","","","","","","","","","","","","","","","",""
"658","<p style=""color:rgb(150, 250, 100); font-size: 35px;"">别人的</p>","i","categorize-html","173","270291","0.0-6.0-0.0-8.0-1.32","3","3","3","3","2","4","4","4","3","4","4","2","1","3","1","4","4","2","4","4","2","4","4","4","4","3","4","5","4","1","0","1","1","0","1","1","1","0","1","1","0","1","0","1","5","4","1","1","4","5","1","2","4","2","2","799738310078636033","陈","126","","","","","","","","","","","","","","","","","","","true","4","4","ability","658","other","别人的","","","","","","","","","","","","","","","","",""
"null","","null","html-keyboard-response","174","270553","0.0-6.0-0.0-8.0-0.33","3","3","3","3","2","4","4","4","3","4","4","2","1","3","1","4","4","2","4","4","2","4","4","4","4","3","4","5","4","1","0","1","1","0","1","1","1","0","1","1","0","1","0","1","5","4","1","1","4","5","1","2","4","2","2","799738310078636033","陈","126","","","","","","","","","","","","","","","","","","","","","","","","","","","","","","","","","","","","","","","","","",""
"833","<p style=""color:white; font-size: 35px;"">全才</p>","e","categorize-html","175","271387","0.0-6.0-0.0-8.0-1.33","3","3","3","3","2","4","4","4","3","4","4","2","1","3","1","4","4","2","4","4","2","4","4","4","4","3","4","5","4","1","0","1","1","0","1","1","1","0","1","1","0","1","0","1","5","4","1","1","4","5","1","2","4","2","2","799738310078636033","陈","126","","","","","","","","","","","","","","","","","","","true","4","4","ability","833","positive","全才","","","","","","","","","","","","","","","","",""
"null","","null","html-keyboard-response","176","271667","0.0-6.0-0.0-8.0-0.34","3","3","3","3","2","4","4","4","3","4","4","2","1","3","1","4","4","2","4","4","2","4","4","4","4","3","4","5","4","1","0","1","1","0","1","1","1","0","1","1","0","1","0","1","5","4","1","1","4","5","1","2","4","2","2","799738310078636033","陈","126","","","","","","","","","","","","","","","","","","","","","","","","","","","","","","","","","","","","","","","","","",""
"515","<p style=""color:rgb(150, 250, 100); font-size: 35px;"">自己的</p>","e","categorize-html","177","272185","0.0-6.0-0.0-8.0-1.34","3","3","3","3","2","4","4","4","3","4","4","2","1","3","1","4","4","2","4","4","2","4","4","4","4","3","4","5","4","1","0","1","1","0","1","1","1","0","1","1","0","1","0","1","5","4","1","1","4","5","1","2","4","2","2","799738310078636033","陈","126","","","","","","","","","","","","","","","","","","","true","4","4","ability","515","self","自己的","","","","","","","","","","","","","","","","",""
"null","","null","html-keyboard-response","178","272447","0.0-6.0-0.0-8.0-0.35","3","3","3","3","2","4","4","4","3","4","4","2","1","3","1","4","4","2","4","4","2","4","4","4","4","3","4","5","4","1","0","1","1","0","1","1","1","0","1","1","0","1","0","1","5","4","1","1","4","5","1","2","4","2","2","799738310078636033","陈","126","","","","","","","","","","","","","","","","","","","","","","","","","","","","","","","","","","","","","","","","","",""
"772","<p style=""color:white; font-size: 35px;"">低能</p>","i","categorize-html","179","273223","0.0-6.0-0.0-8.0-1.35","3","3","3","3","2","4","4","4","3","4","4","2","1","3","1","4","4","2","4","4","2","4","4","4","4","3","4","5","4","1","0","1","1","0","1","1","1","0","1","1","0","1","0","1","5","4","1","1","4","5","1","2","4","2","2","799738310078636033","陈","126","","","","","","","","","","","","","","","","","","","true","4","4","ability","772","negative","低能","","","","","","","","","","","","","","","","",""
"null","","null","html-keyboard-response","180","273487","0.0-6.0-0.0-8.0-0.36","3","3","3","3","2","4","4","4","3","4","4","2","1","3","1","4","4","2","4","4","2","4","4","4","4","3","4","5","4","1","0","1","1","0","1","1","1","0","1","1","0","1","0","1","5","4","1","1","4","5","1","2","4","2","2","799738310078636033","陈","126","","","","","","","","","","","","","","","","","","","","","","","","","","","","","","","","","","","","","","","","","",""
"715","<p style=""color:rgb(150, 250, 100); font-size: 35px;"">他人的</p>","i","categorize-html","181","274205","0.0-6.0-0.0-8.0-1.36","3","3","3","3","2","4","4","4","3","4","4","2","1","3","1","4","4","2","4","4","2","4","4","4","4","3","4","5","4","1","0","1","1","0","1","1","1","0","1","1","0","1","0","1","5","4","1","1","4","5","1","2","4","2","2","799738310078636033","陈","126","","","","","","","","","","","","","","","","","","","true","4","4","ability","715","other","他人的","","","","","","","","","","","","","","","","",""
"null","","null","html-keyboard-response","182","274463","0.0-6.0-0.0-8.0-0.37","3","3","3","3","2","4","4","4","3","4","4","2","1","3","1","4","4","2","4","4","2","4","4","4","4","3","4","5","4","1","0","1","1","0","1","1","1","0","1","1","0","1","0","1","5","4","1","1","4","5","1","2","4","2","2","799738310078636033","陈","126","","","","","","","","","","","","","","","","","","","","","","","","","","","","","","","","","","","","","","","","","",""
"603","<p style=""color:white; font-size: 35px;"">精干</p>","e","categorize-html","183","275069","0.0-6.0-0.0-8.0-1.37","3","3","3","3","2","4","4","4","3","4","4","2","1","3","1","4","4","2","4","4","2","4","4","4","4","3","4","5","4","1","0","1","1","0","1","1","1","0","1","1","0","1","0","1","5","4","1","1","4","5","1","2","4","2","2","799738310078636033","陈","126","","","","","","","","","","","","","","","","","","","true","4","4","ability","603","positive","精干","","","","","","","","","","","","","","","","",""
"null","","null","html-keyboard-response","184","275325","0.0-6.0-0.0-8.0-0.38","3","3","3","3","2","4","4","4","3","4","4","2","1","3","1","4","4","2","4","4","2","4","4","4","4","3","4","5","4","1","0","1","1","0","1","1","1","0","1","1","0","1","0","1","5","4","1","1","4","5","1","2","4","2","2","799738310078636033","陈","126","","","","","","","","","","","","","","","","","","","","","","","","","","","","","","","","","","","","","","","","","",""
"599","<p style=""color:rgb(150, 250, 100); font-size: 35px;"">我的</p>","e","categorize-html","185","275926","0.0-6.0-0.0-8.0-1.38","3","3","3","3","2","4","4","4","3","4","4","2","1","3","1","4","4","2","4","4","2","4","4","4","4","3","4","5","4","1","0","1","1","0","1","1","1","0","1","1","0","1","0","1","5","4","1","1","4","5","1","2","4","2","2","799738310078636033","陈","126","","","","","","","","","","","","","","","","","","","true","4","4","ability","599","self","我的","","","","","","","","","","","","","","","","",""
"null","","null","html-keyboard-response","186","276183","0.0-6.0-0.0-8.0-0.39","3","3","3","3","2","4","4","4","3","4","4","2","1","3","1","4","4","2","4","4","2","4","4","4","4","3","4","5","4","1","0","1","1","0","1","1","1","0","1","1","0","1","0","1","5","4","1","1","4","5","1","2","4","2","2","799738310078636033","陈","126","","","","","","","","","","","","","","","","","","","","","","","","","","","","","","","","","","","","","","","","","",""
"1342","<p style=""color:white; font-size: 35px;"">废物</p>","i","categorize-html","187","277528","0.0-6.0-0.0-8.0-1.39","3","3","3","3","2","4","4","4","3","4","4","2","1","3","1","4","4","2","4","4","2","4","4","4","4","3","4","5","4","1","0","1","1","0","1","1","1","0","1","1","0","1","0","1","5","4","1","1","4","5","1","2","4","2","2","799738310078636033","陈","126","","","","","","","","","","","","","","","","","","","true","4","4","ability","1342","negative","废物","","","","","","","","","","","","","","","","",""
"null","","null","html-keyboard-response","188","277793","0.0-6.0-0.0-8.0-0.40","3","3","3","3","2","4","4","4","3","4","4","2","1","3","1","4","4","2","4","4","2","4","4","4","4","3","4","5","4","1","0","1","1","0","1","1","1","0","1","1","0","1","0","1","5","4","1","1","4","5","1","2","4","2","2","799738310078636033","陈","126","","","","","","","","","","","","","","","","","","","","","","","","","","","","","","","","","","","","","","","","","",""
"650","<p style=""color:rgb(150, 250, 100); font-size: 35px;"">别人的</p>","i","categorize-html","189","278445","0.0-6.0-0.0-8.0-1.40","3","3","3","3","2","4","4","4","3","4","4","2","1","3","1","4","4","2","4","4","2","4","4","4","4","3","4","5","4","1","0","1","1","0","1","1","1","0","1","1","0","1","0","1","5","4","1","1","4","5","1","2","4","2","2","799738310078636033","陈","126","","","","","","","","","","","","","","","","","","","true","4","4","ability","650","other","别人的","","","","","","","","","","","","","","","","",""
"null","","null","html-keyboard-response","190","278718","0.0-6.0-0.0-8.0-0.41","3","3","3","3","2","4","4","4","3","4","4","2","1","3","1","4","4","2","4","4","2","4","4","4","4","3","4","5","4","1","0","1","1","0","1","1","1","0","1","1","0","1","0","1","5","4","1","1","4","5","1","2","4","2","2","799738310078636033","陈","126","","","","","","","","","","","","","","","","","","","","","","","","","","","","","","","","","","","","","","","","","",""
"630","<p style=""color:white; font-size: 35px;"">无能</p>","i","categorize-html","191","279351","0.0-6.0-0.0-8.0-1.41","3","3","3","3","2","4","4","4","3","4","4","2","1","3","1","4","4","2","4","4","2","4","4","4","4","3","4","5","4","1","0","1","1","0","1","1","1","0","1","1","0","1","0","1","5","4","1","1","4","5","1","2","4","2","2","799738310078636033","陈","126","","","","","","","","","","","","","","","","","","","true","4","4","ability","630","negative","无能","","","","","","","","","","","","","","","","",""
"null","","null","html-keyboard-response","192","279613","0.0-6.0-0.0-8.0-0.42","3","3","3","3","2","4","4","4","3","4","4","2","1","3","1","4","4","2","4","4","2","4","4","4","4","3","4","5","4","1","0","1","1","0","1","1","1","0","1","1","0","1","0","1","5","4","1","1","4","5","1","2","4","2","2","799738310078636033","陈","126","","","","","","","","","","","","","","","","","","","","","","","","","","","","","","","","","","","","","","","","","",""
"812","<p style=""color:rgb(150, 250, 100); font-size: 35px;"">本人</p>","e","categorize-html","193","280427","0.0-6.0-0.0-8.0-1.42","3","3","3","3","2","4","4","4","3","4","4","2","1","3","1","4","4","2","4","4","2","4","4","4","4","3","4","5","4","1","0","1","1","0","1","1","1","0","1","1","0","1","0","1","5","4","1","1","4","5","1","2","4","2","2","799738310078636033","陈","126","","","","","","","","","","","","","","","","","","","true","4","4","ability","812","self","本人","","","","","","","","","","","","","","","","",""
"null","","null","html-keyboard-response","194","280683","0.0-6.0-0.0-8.0-0.43","3","3","3","3","2","4","4","4","3","4","4","2","1","3","1","4","4","2","4","4","2","4","4","4","4","3","4","5","4","1","0","1","1","0","1","1","1","0","1","1","0","1","0","1","5","4","1","1","4","5","1","2","4","2","2","799738310078636033","陈","126","","","","","","","","","","","","","","","","","","","","","","","","","","","","","","","","","","","","","","","","","",""
