"rt","stimulus","response","trial_type","trial_index","time_elapsed","internal_node_id","ses_1","ses_2","ses_3","ses_4","ses_5","ses_6","ses_7","ses_8","ses_9","ses_10","coreself_1","coreself_2","coreself_3","coreself_4","coreself_5","coreself_6","coreself_7","coreself_8","coreself_9","coreself_10","SGPS_1","SGPS_2","SGPS_3","SGPS_4","SGPS_5","SGPS_6","SGPS_7","SGPS_8","SGPS_9","NPI1","NPI2","NPI3","NPI4","NPI5","NPI6","NPI7","NPI8","NPI9","NPI10","NPI11","NPI12","NPI13","NPI14","NPI15","hsns_1","hsns_2","hsns_3","hsns_4","hsns_5","trap1","hsns_6","hsns_7","hsns_8","hsns_9","hsns_10","subj_idx","friend_name","ParticipantID","value","success","user_agent","responses","item_order","radio_event_ids","radio_event_times","key_event_times","mouse_event_times","straightlining","zigzagging","honeypot","timeout","failed_images","failed_audio","failed_video","view_history","response_type","key_press","avg_frame_time","center_x","center_y","correct_response","correct","identity","Image","word","condition","task_id","screen_id","time_stamp","version_attrib2","version_target2","IAT","RT","varname","summary","version_attrib","version_target","question_order","correct_answer","trap1_item"
"1880","
   <p><div style = ""color: white;font-size:25px;"">您好，欢迎参加本次实验。</div> </p>
   <p><div style = ""color: white;font-size:25px;"">为充分保障您的权利，请确保您已经知晓并同意《参与实验同意书》以及《数据公开知情同意书》。</div></p>
   <p><div style = ""color: white;font-size:25px;"">如果您未见过上述内容，请咨询实验员。</div></p>
   <p><div style = ""color: white;font-size:25px;"">如果您选择继续实验，则表示您已经清楚两份知情同意书的内容并同意。</div></p>
   <p><div style = ""color: pink;font-size:30px;"">请确保您记得day0的实验编号，您将在本次实验输入该编号，若您忘记，请咨询实验员后作答。</div></p>
   <p><div style = ""color: lightblue;font-size:25px;"">请您尽可能认真地作答，我们将依据您在各问卷和按键任务中的作答质量发放报酬。</div></p>
   <p> <div style = ""color: green;font-size:25px;""><按空格键至下页></div> </p>
   "," ","html-keyboard-response","0","1882","0.0-0.0","3","4","4","3","3","3","3","4","3","4","4","3","3","4","4","4","4","3","5","4","2","3","2","2","2","1","4","4","2","0","1","0","1","0","1","0","1","1","0","0","0","1","1","0","4","2","4","3","2","1","4","4","5","3","2","798898667061911554","吴","322","","","","","","","","","","","","","","","","","","","","","","","","","","","","","","","","","","","","","","","","","",""
"","","","call-function","1","1883","0.0-1.0-0.0","3","4","4","3","3","3","3","4","3","4","4","3","3","4","4","4","4","3","5","4","2","3","2","2","2","1","4","4","2","0","1","0","1","0","1","0","1","1","0","0","0","1","1","0","4","2","4","3","2","1","4","4","5","3","2","798898667061911554","吴","322","","","","","","","","","","","","","","","","","","","","","","","","","","","","","","","","","","","","","","","","","",""
"33325","","{""friend_name"":""吴"",""ParticipantID"":""322""}","survey-html-form","2","35210","0.0-1.0-1.0","3","4","4","3","3","3","3","4","3","4","4","3","3","4","4","4","4","3","5","4","2","3","2","2","2","1","4","4","2","0","1","0","1","0","1","0","1","1","0","0","0","1","1","0","4","2","4","3","2","1","4","4","5","3","2","798898667061911554","吴","322","","","","","","","","","","","","","","","","","","","","","","","","","","","","","","","","","","","","","","","","","",""
"","","","fullscreen","3","36946","0.0-2.0","3","4","4","3","3","3","3","4","3","4","4","3","3","4","4","4","4","3","5","4","2","3","2","2","2","1","4","4","2","0","1","0","1","0","1","0","1","1","0","0","0","1","1","0","4","2","4","3","2","1","4","4","5","3","2","798898667061911554","吴","322","","true","{}","","","","","","","","","","","","","","","","","","","","","","","","","","","","","","","","","","","","","","",""
"30149.799999952316","","{""Q01"":""3"",""Q02"":""4"",""Q03"":""4"",""Q04"":""3"",""Q05"":""3"",""Q06"":""3"",""Q07"":""3"",""Q08"":""4"",""Q09"":""3"",""Q10"":""4""}","survey-template","4","67098","0.0-3.0","3","4","4","3","3","3","3","4","3","4","4","3","3","4","4","4","4","3","5","4","2","3","2","2","2","1","4","4","2","0","1","0","1","0","1","0","1","1","0","0","0","1","1","0","4","2","4","3","2","1","4","4","5","3","2","798898667061911554","吴","322","","","","{""Q01"":""3"",""Q02"":""4"",""Q03"":""4"",""Q04"":""3"",""Q05"":""3"",""Q06"":""3"",""Q07"":""3"",""Q08"":""4"",""Q09"":""3"",""Q10"":""4""}","[0,1,2,3,4,5,6,7,8,9]","[""Q01"",""Q02"",""Q03"",""Q04"",""Q05"",""Q06"",""Q07"",""Q08"",""Q09"",""Q10""]","[16848.799999952316,17789.199999928474,19565.299999952316,20616.5,21990.5,23228.299999952316,24441.399999976158,26712.5,28280,29147]","[]","[16848.799999952316,17789.199999928474,19565.299999952316,20616.5,21990.5,23228.299999952316,24441.399999976158,25558.199999928474,26712.5,28280,29147,30148.399999976158]","0.4","0.6666666666666666","0","","","","","","","","","","","","","","","","","","","","","","","","","","","","","",""
"18172","","{""Q01"":""4"",""Q02"":""3"",""Q03"":""3"",""Q04"":""4"",""Q05"":""4"",""Q06"":""4"",""Q07"":""4"",""Q08"":""3"",""Q09"":""5"",""Q10"":""4""}","survey-template","5","85278","0.0-4.0","3","4","4","3","3","3","3","4","3","4","4","3","3","4","4","4","4","3","5","4","2","3","2","2","2","1","4","4","2","0","1","0","1","0","1","0","1","1","0","0","0","1","1","0","4","2","4","3","2","1","4","4","5","3","2","798898667061911554","吴","322","","","","{""Q01"":""4"",""Q02"":""3"",""Q03"":""3"",""Q04"":""4"",""Q05"":""4"",""Q06"":""4"",""Q07"":""4"",""Q08"":""3"",""Q09"":""5"",""Q10"":""4""}","[0,1,2,3,4,5,6,7,8,9]","[""Q01"",""Q02"",""Q03"",""Q04"",""Q05"",""Q06"",""Q07"",""Q08"",""Q09"",""Q10""]","[1832.2999999523163,2755.5,4904.899999976158,7455.5,8575.599999904633,9867.5,10969.099999904633,13688.699999928474,15255.599999904633,17314.299999952316]","[]","[1832.2999999523163,2755.5,4904.899999976158,5753.099999904633,6833.5,7455.5,8575.599999904633,9867.5,10969.099999904633,12213.899999976158,13688.699999928474,15255.599999904633,16667.099999904633,17314.299999952316,18170.599999904633]","0.3","0.3333333333333333","0","","","","","","","","","","","","","","","","","","","","","","","","","","","","","",""
"","","","preload","6","85604","0.0-5.0","3","4","4","3","3","3","3","4","3","4","4","3","3","4","4","4","4","3","5","4","2","3","2","2","2","1","4","4","2","0","1","0","1","0","1","0","1","1","0","0","0","1","1","0","4","2","4","3","2","1","4","4","5","3","2","798898667061911554","吴","322","","true","","","","","","","","","","","false","[]","[]","[]","","","","","","","","","","","","","","","","","","","","","","","","","",""
"3279","","","instructions","7","88884","0.0-6.0","3","4","4","3","3","3","3","4","3","4","4","3","3","4","4","4","4","3","5","4","2","3","2","2","2","1","4","4","2","0","1","0","1","0","1","0","1","1","0","0","0","1","1","0","4","2","4","3","2","1","4","4","5","3","2","798898667061911554","吴","322","","","","","","","","","","","","","","","","","[{""page_index"":0,""viewing_time"":3279}]","","","","","","","","","","","","","","","","","","","","","","","","",""
"57632","","","instructions","8","146517","0.0-7.0-1.0-0.0","3","4","4","3","3","3","3","4","3","4","4","3","3","4","4","4","4","3","5","4","2","3","2","2","2","1","4","4","2","0","1","0","1","0","1","0","1","1","0","0","0","1","1","0","4","2","4","3","2","1","4","4","5","3","2","798898667061911554","吴","322","","","","","","","","","","","","","","","","","[{""page_index"":0,""viewing_time"":50388},{""page_index"":1,""viewing_time"":2062},{""page_index"":2,""viewing_time"":5182}]","","","","","","","","","","","","","","","","","","","","","","","","",""
"1093","","f","psychophysics","9","148616","0.0-7.0-1.0-1.0-0.0-0.0","3","4","4","3","3","3","3","4","3","4","4","3","3","4","4","4","4","3","5","4","2","3","2","2","2","1","4","4","2","0","1","0","1","0","1","0","1","1","0","0","0","1","1","0","4","2","4","3","2","1","4","4","5","3","2","798898667061911554","吴","322","","","","match","","","","","","","","","","","","","","key","f","16.665600000000094","710.7407909492769","395.92595389514173","f","true","match","img/trapezoid.png","梯形","梯形","ALT1_2","prac_ALT1_2","","","","","","","","","","","",""
"null","<span style='color:GreenYellow; font-size: 70px;'>正确! </span>","null","html-keyboard-response","10","149119","0.0-7.0-1.0-1.0-0.0-1.0","3","4","4","3","3","3","3","4","3","4","4","3","3","4","4","4","4","3","5","4","2","3","2","2","2","1","4","4","2","0","1","0","1","0","1","0","1","1","0","0","0","1","1","0","4","2","4","3","2","1","4","4","5","3","2","798898667061911554","吴","322","","","","","","","","","","","","","","","","","","","","","","","","","","","","","","feedback_test","","","","","","","","","","","",""
"660","","f","psychophysics","11","150782","0.0-7.0-1.0-1.0-0.0-0.1","3","4","4","3","3","3","3","4","3","4","4","3","3","4","4","4","4","3","5","4","2","3","2","2","2","1","4","4","2","0","1","0","1","0","1","0","1","1","0","0","0","1","1","0","4","2","4","3","2","1","4","4","5","3","2","798898667061911554","吴","322","","","","match","","","","","","","","","","","","","","key","f","16.667676767676827","710.7407909492769","395.92595389514173","f","true","match","img/square.png","方形","方形","ALT1_2","prac_ALT1_2","","","","","","","","","","","",""
"null","<span style='color:GreenYellow; font-size: 70px;'>正确! </span>","null","html-keyboard-response","12","151284","0.0-7.0-1.0-1.0-0.0-1.1","3","4","4","3","3","3","3","4","3","4","4","3","3","4","4","4","4","3","5","4","2","3","2","2","2","1","4","4","2","0","1","0","1","0","1","0","1","1","0","0","0","1","1","0","4","2","4","3","2","1","4","4","5","3","2","798898667061911554","吴","322","","","","","","","","","","","","","","","","","","","","","","","","","","","","","","feedback_test","","","","","","","","","","","",""
"675","","f","psychophysics","13","152960","0.0-7.0-1.0-1.0-0.0-0.2","3","4","4","3","3","3","3","4","3","4","4","3","3","4","4","4","4","3","5","4","2","3","2","2","2","1","4","4","2","0","1","0","1","0","1","0","1","1","0","0","0","1","1","0","4","2","4","3","2","1","4","4","5","3","2","798898667061911554","吴","322","","","","match","","","","","","","","","","","","","","key","f","16.66565656565651","710.7407909492769","395.92595389514173","f","true","match","img/trapezoid.png","梯形","梯形","ALT1_2","prac_ALT1_2","","","","","","","","","","","",""
"null","<span style='color:GreenYellow; font-size: 70px;'>正确! </span>","null","html-keyboard-response","14","153460","0.0-7.0-1.0-1.0-0.0-1.2","3","4","4","3","3","3","3","4","3","4","4","3","3","4","4","4","4","3","5","4","2","3","2","2","2","1","4","4","2","0","1","0","1","0","1","0","1","1","0","0","0","1","1","0","4","2","4","3","2","1","4","4","5","3","2","798898667061911554","吴","322","","","","","","","","","","","","","","","","","","","","","","","","","","","","","","feedback_test","","","","","","","","","","","",""
"842","","j","psychophysics","15","155304","0.0-7.0-1.0-1.0-0.0-0.3","3","4","4","3","3","3","3","4","3","4","4","3","3","4","4","4","4","3","5","4","2","3","2","2","2","1","4","4","2","0","1","0","1","0","1","0","1","1","0","0","0","1","1","0","4","2","4","3","2","1","4","4","5","3","2","798898667061911554","吴","322","","","","nonmatch","","","","","","","","","","","","","","key","j","16.666972477064327","710.7407909492769","395.92595389514173","j","true","nonmatch","img/circle.png","梯形","圆形","ALT1_2","prac_ALT1_2","","","","","","","","","","","",""
"null","<span style='color:GreenYellow; font-size: 70px;'>正确! </span>","null","html-keyboard-response","16","155805","0.0-7.0-1.0-1.0-0.0-1.3","3","4","4","3","3","3","3","4","3","4","4","3","3","4","4","4","4","3","5","4","2","3","2","2","2","1","4","4","2","0","1","0","1","0","1","0","1","1","0","0","0","1","1","0","4","2","4","3","2","1","4","4","5","3","2","798898667061911554","吴","322","","","","","","","","","","","","","","","","","","","","","","","","","","","","","","feedback_test","","","","","","","","","","","",""
"746","","f","psychophysics","17","157554","0.0-7.0-1.0-1.0-0.0-0.4","3","4","4","3","3","3","3","4","3","4","4","3","3","4","4","4","4","3","5","4","2","3","2","2","2","1","4","4","2","0","1","0","1","0","1","0","1","1","0","0","0","1","1","0","4","2","4","3","2","1","4","4","5","3","2","798898667061911554","吴","322","","","","match","","","","","","","","","","","","","","key","f","16.664423076923132","710.7407909492769","395.92595389514173","j","false","nonmatch","img/square.png","圆形","方形","ALT1_2","prac_ALT1_2","","","","","","","","","","","",""
"null","<span style='color:red; font-size: 70px;'>错误! </span>","null","html-keyboard-response","18","158055","0.0-7.0-1.0-1.0-0.0-1.4","3","4","4","3","3","3","3","4","3","4","4","3","3","4","4","4","4","3","5","4","2","3","2","2","2","1","4","4","2","0","1","0","1","0","1","0","1","1","0","0","0","1","1","0","4","2","4","3","2","1","4","4","5","3","2","798898667061911554","吴","322","","","","","","","","","","","","","","","","","","","","","","","","","","","","","","feedback_test","","","","","","","","","","","",""
"797","","j","psychophysics","19","159855","0.0-7.0-1.0-1.0-0.0-0.5","3","4","4","3","3","3","3","4","3","4","4","3","3","4","4","4","4","3","5","4","2","3","2","2","2","1","4","4","2","0","1","0","1","0","1","0","1","1","0","0","0","1","1","0","4","2","4","3","2","1","4","4","5","3","2","798898667061911554","吴","322","","","","nonmatch","","","","","","","","","","","","","","key","j","16.6654205607475","710.7407909492769","395.92595389514173","j","true","nonmatch","img/trapezoid.png","圆形","梯形","ALT1_2","prac_ALT1_2","","","","","","","","","","","",""
"null","<span style='color:GreenYellow; font-size: 70px;'>正确! </span>","null","html-keyboard-response","20","160356","0.0-7.0-1.0-1.0-0.0-1.5","3","4","4","3","3","3","3","4","3","4","4","3","3","4","4","4","4","3","5","4","2","3","2","2","2","1","4","4","2","0","1","0","1","0","1","0","1","1","0","0","0","1","1","0","4","2","4","3","2","1","4","4","5","3","2","798898667061911554","吴","322","","","","","","","","","","","","","","","","","","","","","","","","","","","","","","feedback_test","","","","","","","","","","","",""
"753","","j","psychophysics","21","162111","0.0-7.0-1.0-1.0-0.0-0.6","3","4","4","3","3","3","3","4","3","4","4","3","3","4","4","4","4","3","5","4","2","3","2","2","2","1","4","4","2","0","1","0","1","0","1","0","1","1","0","0","0","1","1","0","4","2","4","3","2","1","4","4","5","3","2","798898667061911554","吴","322","","","","nonmatch","","","","","","","","","","","","","","key","j","16.663809523809636","710.7407909492769","395.92595389514173","j","true","nonmatch","img/pentagon.png","圆形","五边","ALT1_2","prac_ALT1_2","","","","","","","","","","","",""
"null","<span style='color:GreenYellow; font-size: 70px;'>正确! </span>","null","html-keyboard-response","22","162618","0.0-7.0-1.0-1.0-0.0-1.6","3","4","4","3","3","3","3","4","3","4","4","3","3","4","4","4","4","3","5","4","2","3","2","2","2","1","4","4","2","0","1","0","1","0","1","0","1","1","0","0","0","1","1","0","4","2","4","3","2","1","4","4","5","3","2","798898667061911554","吴","322","","","","","","","","","","","","","","","","","","","","","","","","","","","","","","feedback_test","","","","","","","","","","","",""
"775","","j","psychophysics","23","164395","0.0-7.0-1.0-1.0-0.0-0.7","3","4","4","3","3","3","3","4","3","4","4","3","3","4","4","4","4","3","5","4","2","3","2","2","2","1","4","4","2","0","1","0","1","0","1","0","1","1","0","0","0","1","1","0","4","2","4","3","2","1","4","4","5","3","2","798898667061911554","吴","322","","","","nonmatch","","","","","","","","","","","","","","key","j","16.666037735849113","710.7407909492769","395.92595389514173","j","true","nonmatch","img/pentagon.png","梯形","五边","ALT1_2","prac_ALT1_2","","","","","","","","","","","",""
"null","<span style='color:GreenYellow; font-size: 70px;'>正确! </span>","null","html-keyboard-response","24","164897","0.0-7.0-1.0-1.0-0.0-1.7","3","4","4","3","3","3","3","4","3","4","4","3","3","4","4","4","4","3","5","4","2","3","2","2","2","1","4","4","2","0","1","0","1","0","1","0","1","1","0","0","0","1","1","0","4","2","4","3","2","1","4","4","5","3","2","798898667061911554","吴","322","","","","","","","","","","","","","","","","","","","","","","","","","","","","","","feedback_test","","","","","","","","","","","",""
"582","","f","psychophysics","25","166481","0.0-7.0-1.0-1.0-0.0-0.8","3","4","4","3","3","3","3","4","3","4","4","3","3","4","4","4","4","3","5","4","2","3","2","2","2","1","4","4","2","0","1","0","1","0","1","0","1","1","0","0","0","1","1","0","4","2","4","3","2","1","4","4","5","3","2","798898667061911554","吴","322","","","","match","","","","","","","","","","","","","","key","f","16.665957446808573","710.7407909492769","395.92595389514173","f","true","match","img/circle.png","圆形","圆形","ALT1_2","prac_ALT1_2","","","","","","","","","","","",""
"null","<span style='color:GreenYellow; font-size: 70px;'>正确! </span>","null","html-keyboard-response","26","166984","0.0-7.0-1.0-1.0-0.0-1.8","3","4","4","3","3","3","3","4","3","4","4","3","3","4","4","4","4","3","5","4","2","3","2","2","2","1","4","4","2","0","1","0","1","0","1","0","1","1","0","0","0","1","1","0","4","2","4","3","2","1","4","4","5","3","2","798898667061911554","吴","322","","","","","","","","","","","","","","","","","","","","","","","","","","","","","","feedback_test","","","","","","","","","","","",""
"528","","f","psychophysics","27","168514","0.0-7.0-1.0-1.0-0.0-0.9","3","4","4","3","3","3","3","4","3","4","4","3","3","4","4","4","4","3","5","4","2","3","2","2","2","1","4","4","2","0","1","0","1","0","1","0","1","1","0","0","0","1","1","0","4","2","4","3","2","1","4","4","5","3","2","798898667061911554","吴","322","","","","match","","","","","","","","","","","","","","key","f","16.667032967032775","710.7407909492769","395.92595389514173","f","true","match","img/circle.png","圆形","圆形","ALT1_2","prac_ALT1_2","","","","","","","","","","","",""
"null","<span style='color:GreenYellow; font-size: 70px;'>正确! </span>","null","html-keyboard-response","28","169016","0.0-7.0-1.0-1.0-0.0-1.9","3","4","4","3","3","3","3","4","3","4","4","3","3","4","4","4","4","3","5","4","2","3","2","2","2","1","4","4","2","0","1","0","1","0","1","0","1","1","0","0","0","1","1","0","4","2","4","3","2","1","4","4","5","3","2","798898667061911554","吴","322","","","","","","","","","","","","","","","","","","","","","","","","","","","","","","feedback_test","","","","","","","","","","","",""
"792","","j","psychophysics","29","170810","0.0-7.0-1.0-1.0-0.0-0.10","3","4","4","3","3","3","3","4","3","4","4","3","3","4","4","4","4","3","5","4","2","3","2","2","2","1","4","4","2","0","1","0","1","0","1","0","1","1","0","0","0","1","1","0","4","2","4","3","2","1","4","4","5","3","2","798898667061911554","吴","322","","","","nonmatch","","","","","","","","","","","","","","key","j","16.665420560747773","710.7407909492769","395.92595389514173","j","true","nonmatch","img/trapezoid.png","方形","梯形","ALT1_2","prac_ALT1_2","","","","","","","","","","","",""
"null","<span style='color:GreenYellow; font-size: 70px;'>正确! </span>","null","html-keyboard-response","30","171313","0.0-7.0-1.0-1.0-0.0-1.10","3","4","4","3","3","3","3","4","3","4","4","3","3","4","4","4","4","3","5","4","2","3","2","2","2","1","4","4","2","0","1","0","1","0","1","0","1","1","0","0","0","1","1","0","4","2","4","3","2","1","4","4","5","3","2","798898667061911554","吴","322","","","","","","","","","","","","","","","","","","","","","","","","","","","","","","feedback_test","","","","","","","","","","","",""
"541","","f","psychophysics","31","172856","0.0-7.0-1.0-1.0-0.0-0.11","3","4","4","3","3","3","3","4","3","4","4","3","3","4","4","4","4","3","5","4","2","3","2","2","2","1","4","4","2","0","1","0","1","0","1","0","1","1","0","0","0","1","1","0","4","2","4","3","2","1","4","4","5","3","2","798898667061911554","吴","322","","","","match","","","","","","","","","","","","","","key","f","16.664835164835164","710.7407909492769","395.92595389514173","f","true","match","img/square.png","方形","方形","ALT1_2","prac_ALT1_2","","","","","","","","","","","",""
"null","<span style='color:GreenYellow; font-size: 70px;'>正确! </span>","null","html-keyboard-response","32","173357","0.0-7.0-1.0-1.0-0.0-1.11","3","4","4","3","3","3","3","4","3","4","4","3","3","4","4","4","4","3","5","4","2","3","2","2","2","1","4","4","2","0","1","0","1","0","1","0","1","1","0","0","0","1","1","0","4","2","4","3","2","1","4","4","5","3","2","798898667061911554","吴","322","","","","","","","","","","","","","","","","","","","","","","","","","","","","","","feedback_test","","","","","","","","","","","",""
"622","","j","psychophysics","33","174981","0.0-7.0-1.0-1.0-0.0-0.12","3","4","4","3","3","3","3","4","3","4","4","3","3","4","4","4","4","3","5","4","2","3","2","2","2","1","4","4","2","0","1","0","1","0","1","0","1","1","0","0","0","1","1","0","4","2","4","3","2","1","4","4","5","3","2","798898667061911554","吴","322","","","","nonmatch","","","","","","","","","","","","","","key","j","16.652083333333394","710.7407909492769","395.92595389514173","j","true","nonmatch","img/circle.png","五边","圆形","ALT1_2","prac_ALT1_2","","","","","","","","","","","",""
"null","<span style='color:GreenYellow; font-size: 70px;'>正确! </span>","null","html-keyboard-response","34","175483","0.0-7.0-1.0-1.0-0.0-1.12","3","4","4","3","3","3","3","4","3","4","4","3","3","4","4","4","4","3","5","4","2","3","2","2","2","1","4","4","2","0","1","0","1","0","1","0","1","1","0","0","0","1","1","0","4","2","4","3","2","1","4","4","5","3","2","798898667061911554","吴","322","","","","","","","","","","","","","","","","","","","","","","","","","","","","","","feedback_test","","","","","","","","","","","",""
"751","","f","psychophysics","35","177237","0.0-7.0-1.0-1.0-0.0-0.13","3","4","4","3","3","3","3","4","3","4","4","3","3","4","4","4","4","3","5","4","2","3","2","2","2","1","4","4","2","0","1","0","1","0","1","0","1","1","0","0","0","1","1","0","4","2","4","3","2","1","4","4","5","3","2","798898667061911554","吴","322","","","","match","","","","","","","","","","","","","","key","f","16.665384615384447","710.7407909492769","395.92595389514173","f","true","match","img/pentagon.png","五边","五边","ALT1_2","prac_ALT1_2","","","","","","","","","","","",""
"null","<span style='color:GreenYellow; font-size: 70px;'>正确! </span>","null","html-keyboard-response","36","177738","0.0-7.0-1.0-1.0-0.0-1.13","3","4","4","3","3","3","3","4","3","4","4","3","3","4","4","4","4","3","5","4","2","3","2","2","2","1","4","4","2","0","1","0","1","0","1","0","1","1","0","0","0","1","1","0","4","2","4","3","2","1","4","4","5","3","2","798898667061911554","吴","322","","","","","","","","","","","","","","","","","","","","","","","","","","","","","","feedback_test","","","","","","","","","","","",""
"892","","j","psychophysics","37","179631","0.0-7.0-1.0-1.0-0.0-0.14","3","4","4","3","3","3","3","4","3","4","4","3","3","4","4","4","4","3","5","4","2","3","2","2","2","1","4","4","2","0","1","0","1","0","1","0","1","1","0","0","0","1","1","0","4","2","4","3","2","1","4","4","5","3","2","798898667061911554","吴","322","","","","nonmatch","","","","","","","","","","","","","","key","j","16.666371681416084","710.7407909492769","395.92595389514173","j","true","nonmatch","img/square.png","五边","方形","ALT1_2","prac_ALT1_2","","","","","","","","","","","",""
"null","<span style='color:GreenYellow; font-size: 70px;'>正确! </span>","null","html-keyboard-response","38","180132","0.0-7.0-1.0-1.0-0.0-1.14","3","4","4","3","3","3","3","4","3","4","4","3","3","4","4","4","4","3","5","4","2","3","2","2","2","1","4","4","2","0","1","0","1","0","1","0","1","1","0","0","0","1","1","0","4","2","4","3","2","1","4","4","5","3","2","798898667061911554","吴","322","","","","","","","","","","","","","","","","","","","","","","","","","","","","","","feedback_test","","","","","","","","","","","",""
"991","","f","psychophysics","39","182125","0.0-7.0-1.0-1.0-0.0-0.15","3","4","4","3","3","3","3","4","3","4","4","3","3","4","4","4","4","3","5","4","2","3","2","2","2","1","4","4","2","0","1","0","1","0","1","0","1","1","0","0","0","1","1","0","4","2","4","3","2","1","4","4","5","3","2","798898667061911554","吴","322","","","","match","","","","","","","","","","","","","","key","f","16.662184873949727","710.7407909492769","395.92595389514173","f","true","match","img/square.png","方形","方形","ALT1_2","prac_ALT1_2","","","","","","","","","","","",""
"null","<span style='color:GreenYellow; font-size: 70px;'>正确! </span>","null","html-keyboard-response","40","182627","0.0-7.0-1.0-1.0-0.0-1.15","3","4","4","3","3","3","3","4","3","4","4","3","3","4","4","4","4","3","5","4","2","3","2","2","2","1","4","4","2","0","1","0","1","0","1","0","1","1","0","0","0","1","1","0","4","2","4","3","2","1","4","4","5","3","2","798898667061911554","吴","322","","","","","","","","","","","","","","","","","","","","","","","","","","","","","","feedback_test","","","","","","","","","","","",""
"586","","f","psychophysics","41","184216","0.0-7.0-1.0-1.0-0.0-0.16","3","4","4","3","3","3","3","4","3","4","4","3","3","4","4","4","4","3","5","4","2","3","2","2","2","1","4","4","2","0","1","0","1","0","1","0","1","1","0","0","0","1","1","0","4","2","4","3","2","1","4","4","5","3","2","798898667061911554","吴","322","","","","match","","","","","","","","","","","","","","key","f","16.665957446808573","710.7407909492769","395.92595389514173","f","true","match","img/circle.png","圆形","圆形","ALT1_2","prac_ALT1_2","","","","","","","","","","","",""
"null","<span style='color:GreenYellow; font-size: 70px;'>正确! </span>","null","html-keyboard-response","42","184717","0.0-7.0-1.0-1.0-0.0-1.16","3","4","4","3","3","3","3","4","3","4","4","3","3","4","4","4","4","3","5","4","2","3","2","2","2","1","4","4","2","0","1","0","1","0","1","0","1","1","0","0","0","1","1","0","4","2","4","3","2","1","4","4","5","3","2","798898667061911554","吴","322","","","","","","","","","","","","","","","","","","","","","","","","","","","","","","feedback_test","","","","","","","","","","","",""
"573","","j","psychophysics","43","186291","0.0-7.0-1.0-1.0-0.0-0.17","3","4","4","3","3","3","3","4","3","4","4","3","3","4","4","4","4","3","5","4","2","3","2","2","2","1","4","4","2","0","1","0","1","0","1","0","1","1","0","0","0","1","1","0","4","2","4","3","2","1","4","4","5","3","2","798898667061911554","吴","322","","","","nonmatch","","","","","","","","","","","","","","key","j","16.662765957446684","710.7407909492769","395.92595389514173","j","true","nonmatch","img/trapezoid.png","五边","梯形","ALT1_2","prac_ALT1_2","","","","","","","","","","","",""
"null","<span style='color:GreenYellow; font-size: 70px;'>正确! </span>","null","html-keyboard-response","44","186792","0.0-7.0-1.0-1.0-0.0-1.17","3","4","4","3","3","3","3","4","3","4","4","3","3","4","4","4","4","3","5","4","2","3","2","2","2","1","4","4","2","0","1","0","1","0","1","0","1","1","0","0","0","1","1","0","4","2","4","3","2","1","4","4","5","3","2","798898667061911554","吴","322","","","","","","","","","","","","","","","","","","","","","","","","","","","","","","feedback_test","","","","","","","","","","","",""
"738","","j","psychophysics","45","188533","0.0-7.0-1.0-1.0-0.0-0.18","3","4","4","3","3","3","3","4","3","4","4","3","3","4","4","4","4","3","5","4","2","3","2","2","2","1","4","4","2","0","1","0","1","0","1","0","1","1","0","0","0","1","1","0","4","2","4","3","2","1","4","4","5","3","2","798898667061911554","吴","322","","","","nonmatch","","","","","","","","","","","","","","key","j","16.664077669902856","710.7407909492769","395.92595389514173","j","true","nonmatch","img/circle.png","方形","圆形","ALT1_2","prac_ALT1_2","","","","","","","","","","","",""
"null","<span style='color:GreenYellow; font-size: 70px;'>正确! </span>","null","html-keyboard-response","46","189034","0.0-7.0-1.0-1.0-0.0-1.18","3","4","4","3","3","3","3","4","3","4","4","3","3","4","4","4","4","3","5","4","2","3","2","2","2","1","4","4","2","0","1","0","1","0","1","0","1","1","0","0","0","1","1","0","4","2","4","3","2","1","4","4","5","3","2","798898667061911554","吴","322","","","","","","","","","","","","","","","","","","","","","","","","","","","","","","feedback_test","","","","","","","","","","","",""
"746","","f","psychophysics","47","190781","0.0-7.0-1.0-1.0-0.0-0.19","3","4","4","3","3","3","3","4","3","4","4","3","3","4","4","4","4","3","5","4","2","3","2","2","2","1","4","4","2","0","1","0","1","0","1","0","1","1","0","0","0","1","1","0","4","2","4","3","2","1","4","4","5","3","2","798898667061911554","吴","322","","","","match","","","","","","","","","","","","","","key","f","16.666346153846323","710.7407909492769","395.92595389514173","f","true","match","img/trapezoid.png","梯形","梯形","ALT1_2","prac_ALT1_2","","","","","","","","","","","",""
"null","<span style='color:GreenYellow; font-size: 70px;'>正确! </span>","null","html-keyboard-response","48","191283","0.0-7.0-1.0-1.0-0.0-1.19","3","4","4","3","3","3","3","4","3","4","4","3","3","4","4","4","4","3","5","4","2","3","2","2","2","1","4","4","2","0","1","0","1","0","1","0","1","1","0","0","0","1","1","0","4","2","4","3","2","1","4","4","5","3","2","798898667061911554","吴","322","","","","","","","","","","","","","","","","","","","","","","","","","","","","","","feedback_test","","","","","","","","","","","",""
"656","","j","psychophysics","49","192941","0.0-7.0-1.0-1.0-0.0-0.20","3","4","4","3","3","3","3","4","3","4","4","3","3","4","4","4","4","3","5","4","2","3","2","2","2","1","4","4","2","0","1","0","1","0","1","0","1","1","0","0","0","1","1","0","4","2","4","3","2","1","4","4","5","3","2","798898667061911554","吴","322","","","","nonmatch","","","","","","","","","","","","","","key","j","16.66464646464664","710.7407909492769","395.92595389514173","j","true","nonmatch","img/pentagon.png","方形","五边","ALT1_2","prac_ALT1_2","","","","","","","","","","","",""
"null","<span style='color:GreenYellow; font-size: 70px;'>正确! </span>","null","html-keyboard-response","50","193445","0.0-7.0-1.0-1.0-0.0-1.20","3","4","4","3","3","3","3","4","3","4","4","3","3","4","4","4","4","3","5","4","2","3","2","2","2","1","4","4","2","0","1","0","1","0","1","0","1","1","0","0","0","1","1","0","4","2","4","3","2","1","4","4","5","3","2","798898667061911554","吴","322","","","","","","","","","","","","","","","","","","","","","","","","","","","","","","feedback_test","","","","","","","","","","","",""
"576","","f","psychophysics","51","195023","0.0-7.0-1.0-1.0-0.0-0.21","3","4","4","3","3","3","3","4","3","4","4","3","3","4","4","4","4","3","5","4","2","3","2","2","2","1","4","4","2","0","1","0","1","0","1","0","1","1","0","0","0","1","1","0","4","2","4","3","2","1","4","4","5","3","2","798898667061911554","吴","322","","","","match","","","","","","","","","","","","","","key","f","16.66382978723398","710.7407909492769","395.92595389514173","f","true","match","img/pentagon.png","五边","五边","ALT1_2","prac_ALT1_2","","","","","","","","","","","",""
"null","<span style='color:GreenYellow; font-size: 70px;'>正确! </span>","null","html-keyboard-response","52","195524","0.0-7.0-1.0-1.0-0.0-1.21","3","4","4","3","3","3","3","4","3","4","4","3","3","4","4","4","4","3","5","4","2","3","2","2","2","1","4","4","2","0","1","0","1","0","1","0","1","1","0","0","0","1","1","0","4","2","4","3","2","1","4","4","5","3","2","798898667061911554","吴","322","","","","","","","","","","","","","","","","","","","","","","","","","","","","","","feedback_test","","","","","","","","","","","",""
"527","","j","psychophysics","53","197053","0.0-7.0-1.0-1.0-0.0-0.22","3","4","4","3","3","3","3","4","3","4","4","3","3","4","4","4","4","3","5","4","2","3","2","2","2","1","4","4","2","0","1","0","1","0","1","0","1","1","0","0","0","1","1","0","4","2","4","3","2","1","4","4","5","3","2","798898667061911554","吴","322","","","","nonmatch","","","","","","","","","","","","","","key","j","16.665555555555493","710.7407909492769","395.92595389514173","j","true","nonmatch","img/square.png","梯形","方形","ALT1_2","prac_ALT1_2","","","","","","","","","","","",""
"null","<span style='color:GreenYellow; font-size: 70px;'>正确! </span>","null","html-keyboard-response","54","197555","0.0-7.0-1.0-1.0-0.0-1.22","3","4","4","3","3","3","3","4","3","4","4","3","3","4","4","4","4","3","5","4","2","3","2","2","2","1","4","4","2","0","1","0","1","0","1","0","1","1","0","0","0","1","1","0","4","2","4","3","2","1","4","4","5","3","2","798898667061911554","吴","322","","","","","","","","","","","","","","","","","","","","","","","","","","","","","","feedback_test","","","","","","","","","","","",""
"547","","f","psychophysics","55","199102","0.0-7.0-1.0-1.0-0.0-0.23","3","4","4","3","3","3","3","4","3","4","4","3","3","4","4","4","4","3","5","4","2","3","2","2","2","1","4","4","2","0","1","0","1","0","1","0","1","1","0","0","0","1","1","0","4","2","4","3","2","1","4","4","5","3","2","798898667061911554","吴","322","","","","match","","","","","","","","","","","","","","key","f","16.667032967032775","710.7407909492769","395.92595389514173","f","true","match","img/pentagon.png","五边","五边","ALT1_2","prac_ALT1_2","","","","","","","","","","","",""
"null","<span style='color:GreenYellow; font-size: 70px;'>正确! </span>","null","html-keyboard-response","56","199604","0.0-7.0-1.0-1.0-0.0-1.23","3","4","4","3","3","3","3","4","3","4","4","3","3","4","4","4","4","3","5","4","2","3","2","2","2","1","4","4","2","0","1","0","1","0","1","0","1","1","0","0","0","1","1","0","4","2","4","3","2","1","4","4","5","3","2","798898667061911554","吴","322","","","","","","","","","","","","","","","","","","","","","","","","","","","","","","feedback_test","","","","","","","","","","","",""
"553","","j","psychophysics","57","201162","0.0-7.0-1.0-1.0-0.0-0.24","3","4","4","3","3","3","3","4","3","4","4","3","3","4","4","4","4","3","5","4","2","3","2","2","2","1","4","4","2","0","1","0","1","0","1","0","1","1","0","0","0","1","1","0","4","2","4","3","2","1","4","4","5","3","2","798898667061911554","吴","322","","","","nonmatch","","","","","","","","","","","","","","key","j","16.66413043478267","710.7407909492769","395.92595389514173","j","true","nonmatch","img/trapezoid.png","圆形","梯形","ALT1_2","prac_ALT1_2","","","","","","","","","","","",""
"null","<span style='color:GreenYellow; font-size: 70px;'>正确! </span>","null","html-keyboard-response","58","201664","0.0-7.0-1.0-1.0-0.0-1.24","3","4","4","3","3","3","3","4","3","4","4","3","3","4","4","4","4","3","5","4","2","3","2","2","2","1","4","4","2","0","1","0","1","0","1","0","1","1","0","0","0","1","1","0","4","2","4","3","2","1","4","4","5","3","2","798898667061911554","吴","322","","","","","","","","","","","","","","","","","","","","","","","","","","","","","","feedback_test","","","","","","","","","","","",""
"514","","f","psychophysics","59","203180","0.0-7.0-1.0-1.0-0.0-0.25","3","4","4","3","3","3","3","4","3","4","4","3","3","4","4","4","4","3","5","4","2","3","2","2","2","1","4","4","2","0","1","0","1","0","1","0","1","1","0","0","0","1","1","0","4","2","4","3","2","1","4","4","5","3","2","798898667061911554","吴","322","","","","match","","","","","","","","","","","","","","key","f","16.666666666666668","710.7407909492769","395.92595389514173","j","false","nonmatch","img/circle.png","五边","圆形","ALT1_2","prac_ALT1_2","","","","","","","","","","","",""
"null","<span style='color:red; font-size: 70px;'>错误! </span>","null","html-keyboard-response","60","203682","0.0-7.0-1.0-1.0-0.0-1.25","3","4","4","3","3","3","3","4","3","4","4","3","3","4","4","4","4","3","5","4","2","3","2","2","2","1","4","4","2","0","1","0","1","0","1","0","1","1","0","0","0","1","1","0","4","2","4","3","2","1","4","4","5","3","2","798898667061911554","吴","322","","","","","","","","","","","","","","","","","","","","","","","","","","","","","","feedback_test","","","","","","","","","","","",""
"595","","f","psychophysics","61","205278","0.0-7.0-1.0-1.0-0.0-0.26","3","4","4","3","3","3","3","4","3","4","4","3","3","4","4","4","4","3","5","4","2","3","2","2","2","1","4","4","2","0","1","0","1","0","1","0","1","1","0","0","0","1","1","0","4","2","4","3","2","1","4","4","5","3","2","798898667061911554","吴","322","","","","match","","","","","","","","","","","","","","key","f","16.66526315789486","710.7407909492769","395.92595389514173","f","true","match","img/pentagon.png","五边","五边","ALT1_2","prac_ALT1_2","","","","","","","","","","","",""
"null","<span style='color:GreenYellow; font-size: 70px;'>正确! </span>","null","html-keyboard-response","62","205780","0.0-7.0-1.0-1.0-0.0-1.26","3","4","4","3","3","3","3","4","3","4","4","3","3","4","4","4","4","3","5","4","2","3","2","2","2","1","4","4","2","0","1","0","1","0","1","0","1","1","0","0","0","1","1","0","4","2","4","3","2","1","4","4","5","3","2","798898667061911554","吴","322","","","","","","","","","","","","","","","","","","","","","","","","","","","","","","feedback_test","","","","","","","","","","","",""
"636","","j","psychophysics","63","207418","0.0-7.0-1.0-1.0-0.0-0.27","3","4","4","3","3","3","3","4","3","4","4","3","3","4","4","4","4","3","5","4","2","3","2","2","2","1","4","4","2","0","1","0","1","0","1","0","1","1","0","0","0","1","1","0","4","2","4","3","2","1","4","4","5","3","2","798898667061911554","吴","322","","","","nonmatch","","","","","","","","","","","","","","key","j","16.664948453608247","710.7407909492769","395.92595389514173","j","true","nonmatch","img/pentagon.png","圆形","五边","ALT1_2","prac_ALT1_2","","","","","","","","","","","",""
"null","<span style='color:GreenYellow; font-size: 70px;'>正确! </span>","null","html-keyboard-response","64","207926","0.0-7.0-1.0-1.0-0.0-1.27","3","4","4","3","3","3","3","4","3","4","4","3","3","4","4","4","4","3","5","4","2","3","2","2","2","1","4","4","2","0","1","0","1","0","1","0","1","1","0","0","0","1","1","0","4","2","4","3","2","1","4","4","5","3","2","798898667061911554","吴","322","","","","","","","","","","","","","","","","","","","","","","","","","","","","","","feedback_test","","","","","","","","","","","",""
"759","","f","psychophysics","65","209686","0.0-7.0-1.0-1.0-0.0-0.28","3","4","4","3","3","3","3","4","3","4","4","3","3","4","4","4","4","3","5","4","2","3","2","2","2","1","4","4","2","0","1","0","1","0","1","0","1","1","0","0","0","1","1","0","4","2","4","3","2","1","4","4","5","3","2","798898667061911554","吴","322","","","","match","","","","","","","","","","","","","","key","f","16.665384615384447","710.7407909492769","395.92595389514173","f","true","match","img/trapezoid.png","梯形","梯形","ALT1_2","prac_ALT1_2","","","","","","","","","","","",""
"null","<span style='color:GreenYellow; font-size: 70px;'>正确! </span>","null","html-keyboard-response","66","210188","0.0-7.0-1.0-1.0-0.0-1.28","3","4","4","3","3","3","3","4","3","4","4","3","3","4","4","4","4","3","5","4","2","3","2","2","2","1","4","4","2","0","1","0","1","0","1","0","1","1","0","0","0","1","1","0","4","2","4","3","2","1","4","4","5","3","2","798898667061911554","吴","322","","","","","","","","","","","","","","","","","","","","","","","","","","","","","","feedback_test","","","","","","","","","","","",""
"784","","f","psychophysics","67","211975","0.0-7.0-1.0-1.0-0.0-0.29","3","4","4","3","3","3","3","4","3","4","4","3","3","4","4","4","4","3","5","4","2","3","2","2","2","1","4","4","2","0","1","0","1","0","1","0","1","1","0","0","0","1","1","0","4","2","4","3","2","1","4","4","5","3","2","798898667061911554","吴","322","","","","match","","","","","","","","","","","","","","key","f","16.664150943396173","710.7407909492769","395.92595389514173","f","true","match","img/trapezoid.png","梯形","梯形","ALT1_2","prac_ALT1_2","","","","","","","","","","","",""
"null","<span style='color:GreenYellow; font-size: 70px;'>正确! </span>","null","html-keyboard-response","68","212475","0.0-7.0-1.0-1.0-0.0-1.29","3","4","4","3","3","3","3","4","3","4","4","3","3","4","4","4","4","3","5","4","2","3","2","2","2","1","4","4","2","0","1","0","1","0","1","0","1","1","0","0","0","1","1","0","4","2","4","3","2","1","4","4","5","3","2","798898667061911554","吴","322","","","","","","","","","","","","","","","","","","","","","","","","","","","","","","feedback_test","","","","","","","","","","","",""
"537","","f","psychophysics","69","214013","0.0-7.0-1.0-1.0-0.0-0.30","3","4","4","3","3","3","3","4","3","4","4","3","3","4","4","4","4","3","5","4","2","3","2","2","2","1","4","4","2","0","1","0","1","0","1","0","1","1","0","0","0","1","1","0","4","2","4","3","2","1","4","4","5","3","2","798898667061911554","吴","322","","","","match","","","","","","","","","","","","","","key","f","16.664835164835164","710.7407909492769","395.92595389514173","f","true","match","img/pentagon.png","五边","五边","ALT1_2","prac_ALT1_2","","","","","","","","","","","",""
"null","<span style='color:GreenYellow; font-size: 70px;'>正确! </span>","null","html-keyboard-response","70","214514","0.0-7.0-1.0-1.0-0.0-1.30","3","4","4","3","3","3","3","4","3","4","4","3","3","4","4","4","4","3","5","4","2","3","2","2","2","1","4","4","2","0","1","0","1","0","1","0","1","1","0","0","0","1","1","0","4","2","4","3","2","1","4","4","5","3","2","798898667061911554","吴","322","","","","","","","","","","","","","","","","","","","","","","","","","","","","","","feedback_test","","","","","","","","","","","",""
"725","","j","psychophysics","71","216241","0.0-7.0-1.0-1.0-0.0-0.31","3","4","4","3","3","3","3","4","3","4","4","3","3","4","4","4","4","3","5","4","2","3","2","2","2","1","4","4","2","0","1","0","1","0","1","0","1","1","0","0","0","1","1","0","4","2","4","3","2","1","4","4","5","3","2","798898667061911554","吴","322","","","","nonmatch","","","","","","","","","","","","","","key","j","16.666019417475784","710.7407909492769","395.92595389514173","j","true","nonmatch","img/circle.png","方形","圆形","ALT1_2","prac_ALT1_2","","","","","","","","","","","",""
"null","<span style='color:GreenYellow; font-size: 70px;'>正确! </span>","null","html-keyboard-response","72","216742","0.0-7.0-1.0-1.0-0.0-1.31","3","4","4","3","3","3","3","4","3","4","4","3","3","4","4","4","4","3","5","4","2","3","2","2","2","1","4","4","2","0","1","0","1","0","1","0","1","1","0","0","0","1","1","0","4","2","4","3","2","1","4","4","5","3","2","798898667061911554","吴","322","","","","","","","","","","","","","","","","","","","","","","","","","","","","","","feedback_test","","","","","","","","","","","",""
"641","","f","psychophysics","73","218384","0.0-7.0-1.0-1.0-0.0-0.32","3","4","4","3","3","3","3","4","3","4","4","3","3","4","4","4","4","3","5","4","2","3","2","2","2","1","4","4","2","0","1","0","1","0","1","0","1","1","0","0","0","1","1","0","4","2","4","3","2","1","4","4","5","3","2","798898667061911554","吴","322","","","","match","","","","","","","","","","","","","","key","f","16.663917525773137","710.7407909492769","395.92595389514173","f","true","match","img/circle.png","圆形","圆形","ALT1_2","prac_ALT1_2","","","","","","","","","","","",""
"null","<span style='color:GreenYellow; font-size: 70px;'>正确! </span>","null","html-keyboard-response","74","218891","0.0-7.0-1.0-1.0-0.0-1.32","3","4","4","3","3","3","3","4","3","4","4","3","3","4","4","4","4","3","5","4","2","3","2","2","2","1","4","4","2","0","1","0","1","0","1","0","1","1","0","0","0","1","1","0","4","2","4","3","2","1","4","4","5","3","2","798898667061911554","吴","322","","","","","","","","","","","","","","","","","","","","","","","","","","","","","","feedback_test","","","","","","","","","","","",""
"585","","f","psychophysics","75","220478","0.0-7.0-1.0-1.0-0.0-0.33","3","4","4","3","3","3","3","4","3","4","4","3","3","4","4","4","4","3","5","4","2","3","2","2","2","1","4","4","2","0","1","0","1","0","1","0","1","1","0","0","0","1","1","0","4","2","4","3","2","1","4","4","5","3","2","798898667061911554","吴","322","","","","match","","","","","","","","","","","","","","key","f","16.665957446808573","710.7407909492769","395.92595389514173","f","true","match","img/square.png","方形","方形","ALT1_2","prac_ALT1_2","","","","","","","","","","","",""
"null","<span style='color:GreenYellow; font-size: 70px;'>正确! </span>","null","html-keyboard-response","76","220980","0.0-7.0-1.0-1.0-0.0-1.33","3","4","4","3","3","3","3","4","3","4","4","3","3","4","4","4","4","3","5","4","2","3","2","2","2","1","4","4","2","0","1","0","1","0","1","0","1","1","0","0","0","1","1","0","4","2","4","3","2","1","4","4","5","3","2","798898667061911554","吴","322","","","","","","","","","","","","","","","","","","","","","","","","","","","","","","feedback_test","","","","","","","","","","","",""
"652","","j","psychophysics","77","222634","0.0-7.0-1.0-1.0-0.0-0.34","3","4","4","3","3","3","3","4","3","4","4","3","3","4","4","4","4","3","5","4","2","3","2","2","2","1","4","4","2","0","1","0","1","0","1","0","1","1","0","0","0","1","1","0","4","2","4","3","2","1","4","4","5","3","2","798898667061911554","吴","322","","","","nonmatch","","","","","","","","","","","","","","key","j","16.6653061224491","710.7407909492769","395.92595389514173","j","true","nonmatch","img/square.png","梯形","方形","ALT1_2","prac_ALT1_2","","","","","","","","","","","",""
"null","<span style='color:GreenYellow; font-size: 70px;'>正确! </span>","null","html-keyboard-response","78","223135","0.0-7.0-1.0-1.0-0.0-1.34","3","4","4","3","3","3","3","4","3","4","4","3","3","4","4","4","4","3","5","4","2","3","2","2","2","1","4","4","2","0","1","0","1","0","1","0","1","1","0","0","0","1","1","0","4","2","4","3","2","1","4","4","5","3","2","798898667061911554","吴","322","","","","","","","","","","","","","","","","","","","","","","","","","","","","","","feedback_test","","","","","","","","","","","",""
"687","","j","psychophysics","79","224824","0.0-7.0-1.0-1.0-0.0-0.35","3","4","4","3","3","3","3","4","3","4","4","3","3","4","4","4","4","3","5","4","2","3","2","2","2","1","4","4","2","0","1","0","1","0","1","0","1","1","0","0","0","1","1","0","4","2","4","3","2","1","4","4","5","3","2","798898667061911554","吴","322","","","","nonmatch","","","","","","","","","","","","","","key","j","16.665","710.7407909492769","395.92595389514173","j","true","nonmatch","img/circle.png","梯形","圆形","ALT1_2","prac_ALT1_2","","","","","","","","","","","",""
"null","<span style='color:GreenYellow; font-size: 70px;'>正确! </span>","null","html-keyboard-response","80","225325","0.0-7.0-1.0-1.0-0.0-1.35","3","4","4","3","3","3","3","4","3","4","4","3","3","4","4","4","4","3","5","4","2","3","2","2","2","1","4","4","2","0","1","0","1","0","1","0","1","1","0","0","0","1","1","0","4","2","4","3","2","1","4","4","5","3","2","798898667061911554","吴","322","","","","","","","","","","","","","","","","","","","","","","","","","","","","","","feedback_test","","","","","","","","","","","",""
"527","","f","psychophysics","81","226854","0.0-7.0-1.0-1.0-0.0-0.36","3","4","4","3","3","3","3","4","3","4","4","3","3","4","4","4","4","3","5","4","2","3","2","2","2","1","4","4","2","0","1","0","1","0","1","0","1","1","0","0","0","1","1","0","4","2","4","3","2","1","4","4","5","3","2","798898667061911554","吴","322","","","","match","","","","","","","","","","","","","","key","f","16.664835164835164","710.7407909492769","395.92595389514173","f","true","match","img/square.png","方形","方形","ALT1_2","prac_ALT1_2","","","","","","","","","","","",""
"null","<span style='color:GreenYellow; font-size: 70px;'>正确! </span>","null","html-keyboard-response","82","227355","0.0-7.0-1.0-1.0-0.0-1.36","3","4","4","3","3","3","3","4","3","4","4","3","3","4","4","4","4","3","5","4","2","3","2","2","2","1","4","4","2","0","1","0","1","0","1","0","1","1","0","0","0","1","1","0","4","2","4","3","2","1","4","4","5","3","2","798898667061911554","吴","322","","","","","","","","","","","","","","","","","","","","","","","","","","","","","","feedback_test","","","","","","","","","","","",""
"499","","f","psychophysics","83","228855","0.0-7.0-1.0-1.0-0.0-0.37","3","4","4","3","3","3","3","4","3","4","4","3","3","4","4","4","4","3","5","4","2","3","2","2","2","1","4","4","2","0","1","0","1","0","1","0","1","1","0","0","0","1","1","0","4","2","4","3","2","1","4","4","5","3","2","798898667061911554","吴","322","","","","match","","","","","","","","","","","","","","key","f","16.661797752808923","710.7407909492769","395.92595389514173","f","true","match","img/circle.png","圆形","圆形","ALT1_2","prac_ALT1_2","","","","","","","","","","","",""
"null","<span style='color:GreenYellow; font-size: 70px;'>正确! </span>","null","html-keyboard-response","84","229357","0.0-7.0-1.0-1.0-0.0-1.37","3","4","4","3","3","3","3","4","3","4","4","3","3","4","4","4","4","3","5","4","2","3","2","2","2","1","4","4","2","0","1","0","1","0","1","0","1","1","0","0","0","1","1","0","4","2","4","3","2","1","4","4","5","3","2","798898667061911554","吴","322","","","","","","","","","","","","","","","","","","","","","","","","","","","","","","feedback_test","","","","","","","","","","","",""
"560","","j","psychophysics","85","230919","0.0-7.0-1.0-1.0-0.0-0.38","3","4","4","3","3","3","3","4","3","4","4","3","3","4","4","4","4","3","5","4","2","3","2","2","2","1","4","4","2","0","1","0","1","0","1","0","1","1","0","0","0","1","1","0","4","2","4","3","2","1","4","4","5","3","2","798898667061911554","吴","322","","","","nonmatch","","","","","","","","","","","","","","key","j","16.6655913978494","710.7407909492769","395.92595389514173","f","false","match","img/square.png","方形","方形","ALT1_2","prac_ALT1_2","","","","","","","","","","","",""
"null","<span style='color:red; font-size: 70px;'>错误! </span>","null","html-keyboard-response","86","231420","0.0-7.0-1.0-1.0-0.0-1.38","3","4","4","3","3","3","3","4","3","4","4","3","3","4","4","4","4","3","5","4","2","3","2","2","2","1","4","4","2","0","1","0","1","0","1","0","1","1","0","0","0","1","1","0","4","2","4","3","2","1","4","4","5","3","2","798898667061911554","吴","322","","","","","","","","","","","","","","","","","","","","","","","","","","","","","","feedback_test","","","","","","","","","","","",""
"561","","f","psychophysics","87","232983","0.0-7.0-1.0-1.0-0.0-0.39","3","4","4","3","3","3","3","4","3","4","4","3","3","4","4","4","4","3","5","4","2","3","2","2","2","1","4","4","2","0","1","0","1","0","1","0","1","1","0","0","0","1","1","0","4","2","4","3","2","1","4","4","5","3","2","798898667061911554","吴","322","","","","match","","","","","","","","","","","","","","key","f","16.665217391304473","710.7407909492769","395.92595389514173","j","false","nonmatch","img/pentagon.png","方形","五边","ALT1_2","prac_ALT1_2","","","","","","","","","","","",""
"null","<span style='color:red; font-size: 70px;'>错误! </span>","null","html-keyboard-response","88","233484","0.0-7.0-1.0-1.0-0.0-1.39","3","4","4","3","3","3","3","4","3","4","4","3","3","4","4","4","4","3","5","4","2","3","2","2","2","1","4","4","2","0","1","0","1","0","1","0","1","1","0","0","0","1","1","0","4","2","4","3","2","1","4","4","5","3","2","798898667061911554","吴","322","","","","","","","","","","","","","","","","","","","","","","","","","","","","","","feedback_test","","","","","","","","","","","",""
"743","","j","psychophysics","89","235229","0.0-7.0-1.0-1.0-0.0-0.40","3","4","4","3","3","3","3","4","3","4","4","3","3","4","4","4","4","3","5","4","2","3","2","2","2","1","4","4","2","0","1","0","1","0","1","0","1","1","0","0","0","1","1","0","4","2","4","3","2","1","4","4","5","3","2","798898667061911554","吴","322","","","","nonmatch","","","","","","","","","","","","","","key","j","16.664077669902856","710.7407909492769","395.92595389514173","j","true","nonmatch","img/pentagon.png","梯形","五边","ALT1_2","prac_ALT1_2","","","","","","","","","","","",""
"null","<span style='color:GreenYellow; font-size: 70px;'>正确! </span>","null","html-keyboard-response","90","235729","0.0-7.0-1.0-1.0-0.0-1.40","3","4","4","3","3","3","3","4","3","4","4","3","3","4","4","4","4","3","5","4","2","3","2","2","2","1","4","4","2","0","1","0","1","0","1","0","1","1","0","0","0","1","1","0","4","2","4","3","2","1","4","4","5","3","2","798898667061911554","吴","322","","","","","","","","","","","","","","","","","","","","","","","","","","","","","","feedback_test","","","","","","","","","","","",""
"819","","j","psychophysics","91","237550","0.0-7.0-1.0-1.0-0.0-0.41","3","4","4","3","3","3","3","4","3","4","4","3","3","4","4","4","4","3","5","4","2","3","2","2","2","1","4","4","2","0","1","0","1","0","1","0","1","1","0","0","0","1","1","0","4","2","4","3","2","1","4","4","5","3","2","798898667061911554","吴","322","","","","nonmatch","","","","","","","","","","","","","","key","j","16.665740740740688","710.7407909492769","395.92595389514173","j","true","nonmatch","img/trapezoid.png","方形","梯形","ALT1_2","prac_ALT1_2","","","","","","","","","","","",""
"null","<span style='color:GreenYellow; font-size: 70px;'>正确! </span>","null","html-keyboard-response","92","238055","0.0-7.0-1.0-1.0-0.0-1.41","3","4","4","3","3","3","3","4","3","4","4","3","3","4","4","4","4","3","5","4","2","3","2","2","2","1","4","4","2","0","1","0","1","0","1","0","1","1","0","0","0","1","1","0","4","2","4","3","2","1","4","4","5","3","2","798898667061911554","吴","322","","","","","","","","","","","","","","","","","","","","","","","","","","","","","","feedback_test","","","","","","","","","","","",""
"595","","f","psychophysics","93","239652","0.0-7.0-1.0-1.0-0.0-0.42","3","4","4","3","3","3","3","4","3","4","4","3","3","4","4","4","4","3","5","4","2","3","2","2","2","1","4","4","2","0","1","0","1","0","1","0","1","1","0","0","0","1","1","0","4","2","4","3","2","1","4","4","5","3","2","798898667061911554","吴","322","","","","match","","","","","","","","","","","","","","key","f","16.664210526315852","710.7407909492769","395.92595389514173","f","true","match","img/circle.png","圆形","圆形","ALT1_2","prac_ALT1_2","","","","","","","","","","","",""
"null","<span style='color:GreenYellow; font-size: 70px;'>正确! </span>","null","html-keyboard-response","94","240158","0.0-7.0-1.0-1.0-0.0-1.42","3","4","4","3","3","3","3","4","3","4","4","3","3","4","4","4","4","3","5","4","2","3","2","2","2","1","4","4","2","0","1","0","1","0","1","0","1","1","0","0","0","1","1","0","4","2","4","3","2","1","4","4","5","3","2","798898667061911554","吴","322","","","","","","","","","","","","","","","","","","","","","","","","","","","","","","feedback_test","","","","","","","","","","","",""
"683","","j","psychophysics","95","241844","0.0-7.0-1.0-1.0-0.0-0.43","3","4","4","3","3","3","3","4","3","4","4","3","3","4","4","4","4","3","5","4","2","3","2","2","2","1","4","4","2","0","1","0","1","0","1","0","1","1","0","0","0","1","1","0","4","2","4","3","2","1","4","4","5","3","2","798898667061911554","吴","322","","","","nonmatch","","","","","","","","","","","","","","key","j","16.665999999999766","710.7407909492769","395.92595389514173","j","true","nonmatch","img/trapezoid.png","五边","梯形","ALT1_2","prac_ALT1_2","","","","","","","","","","","",""
"null","<span style='color:GreenYellow; font-size: 70px;'>正确! </span>","null","html-keyboard-response","96","242345","0.0-7.0-1.0-1.0-0.0-1.43","3","4","4","3","3","3","3","4","3","4","4","3","3","4","4","4","4","3","5","4","2","3","2","2","2","1","4","4","2","0","1","0","1","0","1","0","1","1","0","0","0","1","1","0","4","2","4","3","2","1","4","4","5","3","2","798898667061911554","吴","322","","","","","","","","","","","","","","","","","","","","","","","","","","","","","","feedback_test","","","","","","","","","","","",""
"773","","j","psychophysics","97","244120","0.0-7.0-1.0-1.0-0.0-0.44","3","4","4","3","3","3","3","4","3","4","4","3","3","4","4","4","4","3","5","4","2","3","2","2","2","1","4","4","2","0","1","0","1","0","1","0","1","1","0","0","0","1","1","0","4","2","4","3","2","1","4","4","5","3","2","798898667061911554","吴","322","","","","nonmatch","","","","","","","","","","","","","","key","j","16.66509433962264","710.7407909492769","395.92595389514173","j","true","nonmatch","img/square.png","五边","方形","ALT1_2","prac_ALT1_2","","","","","","","","","","","",""
"null","<span style='color:GreenYellow; font-size: 70px;'>正确! </span>","null","html-keyboard-response","98","244622","0.0-7.0-1.0-1.0-0.0-1.44","3","4","4","3","3","3","3","4","3","4","4","3","3","4","4","4","4","3","5","4","2","3","2","2","2","1","4","4","2","0","1","0","1","0","1","0","1","1","0","0","0","1","1","0","4","2","4","3","2","1","4","4","5","3","2","798898667061911554","吴","322","","","","","","","","","","","","","","","","","","","","","","","","","","","","","","feedback_test","","","","","","","","","","","",""
"591","","f","psychophysics","99","246215","0.0-7.0-1.0-1.0-0.0-0.45","3","4","4","3","3","3","3","4","3","4","4","3","3","4","4","4","4","3","5","4","2","3","2","2","2","1","4","4","2","0","1","0","1","0","1","0","1","1","0","0","0","1","1","0","4","2","4","3","2","1","4","4","5","3","2","798898667061911554","吴","322","","","","match","","","","","","","","","","","","","","key","f","16.66702127659556","710.7407909492769","395.92595389514173","f","true","match","img/pentagon.png","五边","五边","ALT1_2","prac_ALT1_2","","","","","","","","","","","",""
"null","<span style='color:GreenYellow; font-size: 70px;'>正确! </span>","null","html-keyboard-response","100","246716","0.0-7.0-1.0-1.0-0.0-1.45","3","4","4","3","3","3","3","4","3","4","4","3","3","4","4","4","4","3","5","4","2","3","2","2","2","1","4","4","2","0","1","0","1","0","1","0","1","1","0","0","0","1","1","0","4","2","4","3","2","1","4","4","5","3","2","798898667061911554","吴","322","","","","","","","","","","","","","","","","","","","","","","","","","","","","","","feedback_test","","","","","","","","","","","",""
"659","","j","psychophysics","101","248376","0.0-7.0-1.0-1.0-0.0-0.46","3","4","4","3","3","3","3","4","3","4","4","3","3","4","4","4","4","3","5","4","2","3","2","2","2","1","4","4","2","0","1","0","1","0","1","0","1","1","0","0","0","1","1","0","4","2","4","3","2","1","4","4","5","3","2","798898667061911554","吴","322","","","","nonmatch","","","","","","","","","","","","","","key","j","16.666326530612125","710.7407909492769","395.92595389514173","j","true","nonmatch","img/square.png","圆形","方形","ALT1_2","prac_ALT1_2","","","","","","","","","","","",""
"null","<span style='color:GreenYellow; font-size: 70px;'>正确! </span>","null","html-keyboard-response","102","248877","0.0-7.0-1.0-1.0-0.0-1.46","3","4","4","3","3","3","3","4","3","4","4","3","3","4","4","4","4","3","5","4","2","3","2","2","2","1","4","4","2","0","1","0","1","0","1","0","1","1","0","0","0","1","1","0","4","2","4","3","2","1","4","4","5","3","2","798898667061911554","吴","322","","","","","","","","","","","","","","","","","","","","","","","","","","","","","","feedback_test","","","","","","","","","","","",""
"658","","j","psychophysics","103","250537","0.0-7.0-1.0-1.0-0.0-0.47","3","4","4","3","3","3","3","4","3","4","4","3","3","4","4","4","4","3","5","4","2","3","2","2","2","1","4","4","2","0","1","0","1","0","1","0","1","1","0","0","0","1","1","0","4","2","4","3","2","1","4","4","5","3","2","798898667061911554","吴","322","","","","nonmatch","","","","","","","","","","","","","","key","j","16.666666666666668","710.7407909492769","395.92595389514173","f","false","match","img/trapezoid.png","梯形","梯形","ALT1_2","prac_ALT1_2","","","","","","","","","","","",""
"null","<span style='color:red; font-size: 70px;'>错误! </span>","null","html-keyboard-response","104","251040","0.0-7.0-1.0-1.0-0.0-1.47","3","4","4","3","3","3","3","4","3","4","4","3","3","4","4","4","4","3","5","4","2","3","2","2","2","1","4","4","2","0","1","0","1","0","1","0","1","1","0","0","0","1","1","0","4","2","4","3","2","1","4","4","5","3","2","798898667061911554","吴","322","","","","","","","","","","","","","","","","","","","","","","","","","","","","","","feedback_test","","","","","","","","","","","",""
"1950","<style>.context{color:white; font-size: 35px; line-height:40px}</style>                          <div><p class='context'>您正确回答了90% 的试次。</p><p class='context'>您的平均反应时为681毫秒。</p><p class='context'>恭喜您完成练习。按空格键进入正式实验。</p><p class='footer' style='font-size: 35px; line-height:40px;'>请在进入正式实验实验之前将您的<span style='color: lightgreen;'>食指</span>放在电脑键盘的相应键位上进行按键。</p>"," ","html-keyboard-response","105","252995","0.0-7.0-1.0-2.0","3","4","4","3","3","3","3","4","3","4","4","3","3","4","4","4","4","3","5","4","2","3","2","2","2","1","4","4","2","0","1","0","1","0","1","0","1","1","0","0","0","1","1","0","4","2","4","3","2","1","4","4","5","3","2","798898667061911554","吴","322","","","","","","","","","","","","","","","","","","","","","","","","","","","","","","","","","","","","","","","","","",""
"1327","
  <p style='color: white; font-size: 22px'>请您将手指放在按键上，准备进入正式的匹配任务。</p>
  <p> <div style = ""color: green""><按空格键进入下一阶段的匹配任务></div></p>
  "," ","html-keyboard-response","106","254331","0.0-7.0-1.0-3.0","3","4","4","3","3","3","3","4","3","4","4","3","3","4","4","4","4","3","5","4","2","3","2","2","2","1","4","4","2","0","1","0","1","0","1","0","1","1","0","0","0","1","1","0","4","2","4","3","2","1","4","4","5","3","2","798898667061911554","吴","322","","","","","","","","","","","","","","","","","","","","","","","","","","","","","","","","","","","","","","","","","",""
"756","","j","psychophysics","107","256088","0.0-7.0-1.0-4.0-0.0-0.0","3","4","4","3","3","3","3","4","3","4","4","3","3","4","4","4","4","3","5","4","2","3","2","2","2","1","4","4","2","0","1","0","1","0","1","0","1","1","0","0","0","1","1","0","4","2","4","3","2","1","4","4","5","3","2","798898667061911554","吴","322","","","","nonmatch","","","","","","","","","","","","","","key","j","16.64903846153846","710.7407909492769","395.92595389514173","j","true","nonmatch","img/pentagon.png","方形","五边","ALT1","formal_ALT1_2","","","","","","","","","","","",""
"null","<span style='color:GreenYellow; font-size: 70px;'>正确! </span>","null","html-keyboard-response","108","256589","0.0-7.0-1.0-4.0-0.0-1.0","3","4","4","3","3","3","3","4","3","4","4","3","3","4","4","4","4","3","5","4","2","3","2","2","2","1","4","4","2","0","1","0","1","0","1","0","1","1","0","0","0","1","1","0","4","2","4","3","2","1","4","4","5","3","2","798898667061911554","吴","322","","","","","","","","","","","","","","","","","","","","","","","","","","","","","","feedback_test","","","","","","","","","","","",""
"746","","f","psychophysics","109","258337","0.0-7.0-1.0-4.0-0.0-0.1","3","4","4","3","3","3","3","4","3","4","4","3","3","4","4","4","4","3","5","4","2","3","2","2","2","1","4","4","2","0","1","0","1","0","1","0","1","1","0","0","0","1","1","0","4","2","4","3","2","1","4","4","5","3","2","798898667061911554","吴","322","","","","match","","","","","","","","","","","","","","key","f","16.665384615384728","710.7407909492769","395.92595389514173","f","true","match","img/square.png","方形","方形","ALT1","formal_ALT1_2","","","","","","","","","","","",""
"null","<span style='color:GreenYellow; font-size: 70px;'>正确! </span>","null","html-keyboard-response","110","258838","0.0-7.0-1.0-4.0-0.0-1.1","3","4","4","3","3","3","3","4","3","4","4","3","3","4","4","4","4","3","5","4","2","3","2","2","2","1","4","4","2","0","1","0","1","0","1","0","1","1","0","0","0","1","1","0","4","2","4","3","2","1","4","4","5","3","2","798898667061911554","吴","322","","","","","","","","","","","","","","","","","","","","","","","","","","","","","","feedback_test","","","","","","","","","","","",""
"780","","f","psychophysics","111","260620","0.0-7.0-1.0-4.0-0.0-0.2","3","4","4","3","3","3","3","4","3","4","4","3","3","4","4","4","4","3","5","4","2","3","2","2","2","1","4","4","2","0","1","0","1","0","1","0","1","1","0","0","0","1","1","0","4","2","4","3","2","1","4","4","5","3","2","798898667061911554","吴","322","","","","match","","","","","","","","","","","","","","key","f","16.664150943395896","710.7407909492769","395.92595389514173","f","true","match","img/trapezoid.png","梯形","梯形","ALT1","formal_ALT1_2","","","","","","","","","","","",""
"null","<span style='color:GreenYellow; font-size: 70px;'>正确! </span>","null","html-keyboard-response","112","261131","0.0-7.0-1.0-4.0-0.0-1.2","3","4","4","3","3","3","3","4","3","4","4","3","3","4","4","4","4","3","5","4","2","3","2","2","2","1","4","4","2","0","1","0","1","0","1","0","1","1","0","0","0","1","1","0","4","2","4","3","2","1","4","4","5","3","2","798898667061911554","吴","322","","","","","","","","","","","","","","","","","","","","","","","","","","","","","","feedback_test","","","","","","","","","","","",""
"721","","j","psychophysics","113","262854","0.0-7.0-1.0-4.0-0.0-0.3","3","4","4","3","3","3","3","4","3","4","4","3","3","4","4","4","4","3","5","4","2","3","2","2","2","1","4","4","2","0","1","0","1","0","1","0","1","1","0","0","0","1","1","0","4","2","4","3","2","1","4","4","5","3","2","798898667061911554","吴","322","","","","nonmatch","","","","","","","","","","","","","","key","j","16.66372549019562","710.7407909492769","395.92595389514173","j","true","nonmatch","img/pentagon.png","圆形","五边","ALT1","formal_ALT1_2","","","","","","","","","","","",""
"null","<span style='color:GreenYellow; font-size: 70px;'>正确! </span>","null","html-keyboard-response","114","263355","0.0-7.0-1.0-4.0-0.0-1.3","3","4","4","3","3","3","3","4","3","4","4","3","3","4","4","4","4","3","5","4","2","3","2","2","2","1","4","4","2","0","1","0","1","0","1","0","1","1","0","0","0","1","1","0","4","2","4","3","2","1","4","4","5","3","2","798898667061911554","吴","322","","","","","","","","","","","","","","","","","","","","","","","","","","","","","","feedback_test","","","","","","","","","","","",""
"712","","j","psychophysics","115","265068","0.0-7.0-1.0-4.0-0.0-0.4","3","4","4","3","3","3","3","4","3","4","4","3","3","4","4","4","4","3","5","4","2","3","2","2","2","1","4","4","2","0","1","0","1","0","1","0","1","1","0","0","0","1","1","0","4","2","4","3","2","1","4","4","5","3","2","798898667061911554","吴","322","","","","nonmatch","","","","","","","","","","","","","","key","j","16.662745098039558","710.7407909492769","395.92595389514173","j","true","nonmatch","img/trapezoid.png","方形","梯形","ALT1","formal_ALT1_2","","","","","","","","","","","",""
"null","<span style='color:GreenYellow; font-size: 70px;'>正确! </span>","null","html-keyboard-response","116","265569","0.0-7.0-1.0-4.0-0.0-1.4","3","4","4","3","3","3","3","4","3","4","4","3","3","4","4","4","4","3","5","4","2","3","2","2","2","1","4","4","2","0","1","0","1","0","1","0","1","1","0","0","0","1","1","0","4","2","4","3","2","1","4","4","5","3","2","798898667061911554","吴","322","","","","","","","","","","","","","","","","","","","","","","","","","","","","","","feedback_test","","","","","","","","","","","",""
"594","","f","psychophysics","117","267165","0.0-7.0-1.0-4.0-0.0-0.5","3","4","4","3","3","3","3","4","3","4","4","3","3","4","4","4","4","3","5","4","2","3","2","2","2","1","4","4","2","0","1","0","1","0","1","0","1","1","0","0","0","1","1","0","4","2","4","3","2","1","4","4","5","3","2","798898667061911554","吴","322","","","","match","","","","","","","","","","","","","","key","f","16.66526315789486","710.7407909492769","395.92595389514173","f","true","match","img/trapezoid.png","梯形","梯形","ALT1","formal_ALT1_2","","","","","","","","","","","",""
"null","<span style='color:GreenYellow; font-size: 70px;'>正确! </span>","null","html-keyboard-response","118","267666","0.0-7.0-1.0-4.0-0.0-1.5","3","4","4","3","3","3","3","4","3","4","4","3","3","4","4","4","4","3","5","4","2","3","2","2","2","1","4","4","2","0","1","0","1","0","1","0","1","1","0","0","0","1","1","0","4","2","4","3","2","1","4","4","5","3","2","798898667061911554","吴","322","","","","","","","","","","","","","","","","","","","","","","","","","","","","","","feedback_test","","","","","","","","","","","",""
"663","","j","psychophysics","119","269331","0.0-7.0-1.0-4.0-0.0-0.6","3","4","4","3","3","3","3","4","3","4","4","3","3","4","4","4","4","3","5","4","2","3","2","2","2","1","4","4","2","0","1","0","1","0","1","0","1","1","0","0","0","1","1","0","4","2","4","3","2","1","4","4","5","3","2","798898667061911554","吴","322","","","","nonmatch","","","","","","","","","","","","","","key","j","16.6656565656568","710.7407909492769","395.92595389514173","j","true","nonmatch","img/square.png","梯形","方形","ALT1","formal_ALT1_2","","","","","","","","","","","",""
"null","<span style='color:GreenYellow; font-size: 70px;'>正确! </span>","null","html-keyboard-response","120","269832","0.0-7.0-1.0-4.0-0.0-1.6","3","4","4","3","3","3","3","4","3","4","4","3","3","4","4","4","4","3","5","4","2","3","2","2","2","1","4","4","2","0","1","0","1","0","1","0","1","1","0","0","0","1","1","0","4","2","4","3","2","1","4","4","5","3","2","798898667061911554","吴","322","","","","","","","","","","","","","","","","","","","","","","","","","","","","","","feedback_test","","","","","","","","","","","",""
"575","","f","psychophysics","121","271409","0.0-7.0-1.0-4.0-0.0-0.7","3","4","4","3","3","3","3","4","3","4","4","3","3","4","4","4","4","3","5","4","2","3","2","2","2","1","4","4","2","0","1","0","1","0","1","0","1","1","0","0","0","1","1","0","4","2","4","3","2","1","4","4","5","3","2","798898667061911554","吴","322","","","","match","","","","","","","","","","","","","","key","f","16.664516129032133","710.7407909492769","395.92595389514173","f","true","match","img/pentagon.png","五边","五边","ALT1","formal_ALT1_2","","","","","","","","","","","",""
"null","<span style='color:GreenYellow; font-size: 70px;'>正确! </span>","null","html-keyboard-response","122","271910","0.0-7.0-1.0-4.0-0.0-1.7","3","4","4","3","3","3","3","4","3","4","4","3","3","4","4","4","4","3","5","4","2","3","2","2","2","1","4","4","2","0","1","0","1","0","1","0","1","1","0","0","0","1","1","0","4","2","4","3","2","1","4","4","5","3","2","798898667061911554","吴","322","","","","","","","","","","","","","","","","","","","","","","","","","","","","","","feedback_test","","","","","","","","","","","",""
"801","","f","psychophysics","123","273714","0.0-7.0-1.0-4.0-0.0-0.8","3","4","4","3","3","3","3","4","3","4","4","3","3","4","4","4","4","3","5","4","2","3","2","2","2","1","4","4","2","0","1","0","1","0","1","0","1","1","0","0","0","1","1","0","4","2","4","3","2","1","4","4","5","3","2","798898667061911554","吴","322","","","","match","","","","","","","","","","","","","","key","f","16.657009345794826","710.7407909492769","395.92595389514173","f","true","match","img/pentagon.png","五边","五边","ALT1","formal_ALT1_2","","","","","","","","","","","",""
"null","<span style='color:GreenYellow; font-size: 70px;'>正确! </span>","null","html-keyboard-response","124","274215","0.0-7.0-1.0-4.0-0.0-1.8","3","4","4","3","3","3","3","4","3","4","4","3","3","4","4","4","4","3","5","4","2","3","2","2","2","1","4","4","2","0","1","0","1","0","1","0","1","1","0","0","0","1","1","0","4","2","4","3","2","1","4","4","5","3","2","798898667061911554","吴","322","","","","","","","","","","","","","","","","","","","","","","","","","","","","","","feedback_test","","","","","","","","","","","",""
"586","","j","psychophysics","125","275803","0.0-7.0-1.0-4.0-0.0-0.9","3","4","4","3","3","3","3","4","3","4","4","3","3","4","4","4","4","3","5","4","2","3","2","2","2","1","4","4","2","0","1","0","1","0","1","0","1","1","0","0","0","1","1","0","4","2","4","3","2","1","4","4","5","3","2","798898667061911554","吴","322","","","","nonmatch","","","","","","","","","","","","","","key","j","16.66382978723429","710.7407909492769","395.92595389514173","j","true","nonmatch","img/trapezoid.png","圆形","梯形","ALT1","formal_ALT1_2","","","","","","","","","","","",""
"null","<span style='color:GreenYellow; font-size: 70px;'>正确! </span>","null","html-keyboard-response","126","276305","0.0-7.0-1.0-4.0-0.0-1.9","3","4","4","3","3","3","3","4","3","4","4","3","3","4","4","4","4","3","5","4","2","3","2","2","2","1","4","4","2","0","1","0","1","0","1","0","1","1","0","0","0","1","1","0","4","2","4","3","2","1","4","4","5","3","2","798898667061911554","吴","322","","","","","","","","","","","","","","","","","","","","","","","","","","","","","","feedback_test","","","","","","","","","","","",""
"536","","j","psychophysics","127","277843","0.0-7.0-1.0-4.0-0.0-0.10","3","4","4","3","3","3","3","4","3","4","4","3","3","4","4","4","4","3","5","4","2","3","2","2","2","1","4","4","2","0","1","0","1","0","1","0","1","1","0","0","0","1","1","0","4","2","4","3","2","1","4","4","5","3","2","798898667061911554","吴","322","","","","nonmatch","","","","","","","","","","","","","","key","j","16.66593406593381","710.7407909492769","395.92595389514173","j","true","nonmatch","img/trapezoid.png","五边","梯形","ALT1","formal_ALT1_2","","","","","","","","","","","",""
"null","<span style='color:GreenYellow; font-size: 70px;'>正确! </span>","null","html-keyboard-response","128","278345","0.0-7.0-1.0-4.0-0.0-1.10","3","4","4","3","3","3","3","4","3","4","4","3","3","4","4","4","4","3","5","4","2","3","2","2","2","1","4","4","2","0","1","0","1","0","1","0","1","1","0","0","0","1","1","0","4","2","4","3","2","1","4","4","5","3","2","798898667061911554","吴","322","","","","","","","","","","","","","","","","","","","","","","","","","","","","","","feedback_test","","","","","","","","","","","",""
"654","","f","psychophysics","129","280000","0.0-7.0-1.0-4.0-0.0-0.11","3","4","4","3","3","3","3","4","3","4","4","3","3","4","4","4","4","3","5","4","2","3","2","2","2","1","4","4","2","0","1","0","1","0","1","0","1","1","0","0","0","1","1","0","4","2","4","3","2","1","4","4","5","3","2","798898667061911554","吴","322","","","","match","","","","","","","","","","","","","","key","f","16.66428571428607","710.7407909492769","395.92595389514173","f","true","match","img/trapezoid.png","梯形","梯形","ALT1","formal_ALT1_2","","","","","","","","","","","",""
"null","<span style='color:GreenYellow; font-size: 70px;'>正确! </span>","null","html-keyboard-response","130","280503","0.0-7.0-1.0-4.0-0.0-1.11","3","4","4","3","3","3","3","4","3","4","4","3","3","4","4","4","4","3","5","4","2","3","2","2","2","1","4","4","2","0","1","0","1","0","1","0","1","1","0","0","0","1","1","0","4","2","4","3","2","1","4","4","5","3","2","798898667061911554","吴","322","","","","","","","","","","","","","","","","","","","","","","","","","","","","","","feedback_test","","","","","","","","","","","",""
"615","","f","psychophysics","131","282119","0.0-7.0-1.0-4.0-0.0-0.12","3","4","4","3","3","3","3","4","3","4","4","3","3","4","4","4","4","3","5","4","2","3","2","2","2","1","4","4","2","0","1","0","1","0","1","0","1","1","0","0","0","1","1","0","4","2","4","3","2","1","4","4","5","3","2","798898667061911554","吴","322","","","","match","","","","","","","","","","","","","","key","f","16.665625000000244","710.7407909492769","395.92595389514173","f","true","match","img/pentagon.png","五边","五边","ALT1","formal_ALT1_2","","","","","","","","","","","",""
"null","<span style='color:GreenYellow; font-size: 70px;'>正确! </span>","null","html-keyboard-response","132","282620","0.0-7.0-1.0-4.0-0.0-1.12","3","4","4","3","3","3","3","4","3","4","4","3","3","4","4","4","4","3","5","4","2","3","2","2","2","1","4","4","2","0","1","0","1","0","1","0","1","1","0","0","0","1","1","0","4","2","4","3","2","1","4","4","5","3","2","798898667061911554","吴","322","","","","","","","","","","","","","","","","","","","","","","","","","","","","","","feedback_test","","","","","","","","","","","",""
"705","","j","psychophysics","133","284327","0.0-7.0-1.0-4.0-0.0-0.13","3","4","4","3","3","3","3","4","3","4","4","3","3","4","4","4","4","3","5","4","2","3","2","2","2","1","4","4","2","0","1","0","1","0","1","0","1","1","0","0","0","1","1","0","4","2","4","3","2","1","4","4","5","3","2","798898667061911554","吴","322","","","","nonmatch","","","","","","","","","","","","","","key","j","16.666336633663253","710.7407909492769","395.92595389514173","j","true","nonmatch","img/square.png","圆形","方形","ALT1","formal_ALT1_2","","","","","","","","","","","",""
"null","<span style='color:GreenYellow; font-size: 70px;'>正确! </span>","null","html-keyboard-response","134","284837","0.0-7.0-1.0-4.0-0.0-1.13","3","4","4","3","3","3","3","4","3","4","4","3","3","4","4","4","4","3","5","4","2","3","2","2","2","1","4","4","2","0","1","0","1","0","1","0","1","1","0","0","0","1","1","0","4","2","4","3","2","1","4","4","5","3","2","798898667061911554","吴","322","","","","","","","","","","","","","","","","","","","","","","","","","","","","","","feedback_test","","","","","","","","","","","",""
"586","","j","psychophysics","135","286425","0.0-7.0-1.0-4.0-0.0-0.14","3","4","4","3","3","3","3","4","3","4","4","3","3","4","4","4","4","3","5","4","2","3","2","2","2","1","4","4","2","0","1","0","1","0","1","0","1","1","0","0","0","1","1","0","4","2","4","3","2","1","4","4","5","3","2","798898667061911554","吴","322","","","","nonmatch","","","","","","","","","","","","","","key","j","16.665957446808882","710.7407909492769","395.92595389514173","f","false","match","img/square.png","方形","方形","ALT1","formal_ALT1_2","","","","","","","","","","","",""
"null","<span style='color:red; font-size: 70px;'>错误! </span>","null","html-keyboard-response","136","286927","0.0-7.0-1.0-4.0-0.0-1.14","3","4","4","3","3","3","3","4","3","4","4","3","3","4","4","4","4","3","5","4","2","3","2","2","2","1","4","4","2","0","1","0","1","0","1","0","1","1","0","0","0","1","1","0","4","2","4","3","2","1","4","4","5","3","2","798898667061911554","吴","322","","","","","","","","","","","","","","","","","","","","","","","","","","","","","","feedback_test","","","","","","","","","","","",""
"694","","f","psychophysics","137","288622","0.0-7.0-1.0-4.0-0.0-0.15","3","4","4","3","3","3","3","4","3","4","4","3","3","4","4","4","4","3","5","4","2","3","2","2","2","1","4","4","2","0","1","0","1","0","1","0","1","1","0","0","0","1","1","0","4","2","4","3","2","1","4","4","5","3","2","798898667061911554","吴","322","","","","match","","","","","","","","","","","","","","key","f","16.665","710.7407909492769","395.92595389514173","f","true","match","img/square.png","方形","方形","ALT1","formal_ALT1_2","","","","","","","","","","","",""
"null","<span style='color:GreenYellow; font-size: 70px;'>正确! </span>","null","html-keyboard-response","138","289123","0.0-7.0-1.0-4.0-0.0-1.15","3","4","4","3","3","3","3","4","3","4","4","3","3","4","4","4","4","3","5","4","2","3","2","2","2","1","4","4","2","0","1","0","1","0","1","0","1","1","0","0","0","1","1","0","4","2","4","3","2","1","4","4","5","3","2","798898667061911554","吴","322","","","","","","","","","","","","","","","","","","","","","","","","","","","","","","feedback_test","","","","","","","","","","","",""
"567","","f","psychophysics","139","290691","0.0-7.0-1.0-4.0-0.0-0.16","3","4","4","3","3","3","3","4","3","4","4","3","3","4","4","4","4","3","5","4","2","3","2","2","2","1","4","4","2","0","1","0","1","0","1","0","1","1","0","0","0","1","1","0","4","2","4","3","2","1","4","4","5","3","2","798898667061911554","吴","322","","","","match","","","","","","","","","","","","","","key","f","16.666666666666668","710.7407909492769","395.92595389514173","f","true","match","img/circle.png","圆形","圆形","ALT1","formal_ALT1_2","","","","","","","","","","","",""
"null","<span style='color:GreenYellow; font-size: 70px;'>正确! </span>","null","html-keyboard-response","140","291208","0.0-7.0-1.0-4.0-0.0-1.16","3","4","4","3","3","3","3","4","3","4","4","3","3","4","4","4","4","3","5","4","2","3","2","2","2","1","4","4","2","0","1","0","1","0","1","0","1","1","0","0","0","1","1","0","4","2","4","3","2","1","4","4","5","3","2","798898667061911554","吴","322","","","","","","","","","","","","","","","","","","","","","","","","","","","","","","feedback_test","","","","","","","","","","","",""
"573","","f","psychophysics","141","292782","0.0-7.0-1.0-4.0-0.0-0.17","3","4","4","3","3","3","3","4","3","4","4","3","3","4","4","4","4","3","5","4","2","3","2","2","2","1","4","4","2","0","1","0","1","0","1","0","1","1","0","0","0","1","1","0","4","2","4","3","2","1","4","4","5","3","2","798898667061911554","吴","322","","","","match","","","","","","","","","","","","","","key","f","16.662765957446684","710.7407909492769","395.92595389514173","f","true","match","img/circle.png","圆形","圆形","ALT1","formal_ALT1_2","","","","","","","","","","","",""
"null","<span style='color:GreenYellow; font-size: 70px;'>正确! </span>","null","html-keyboard-response","142","293284","0.0-7.0-1.0-4.0-0.0-1.17","3","4","4","3","3","3","3","4","3","4","4","3","3","4","4","4","4","3","5","4","2","3","2","2","2","1","4","4","2","0","1","0","1","0","1","0","1","1","0","0","0","1","1","0","4","2","4","3","2","1","4","4","5","3","2","798898667061911554","吴","322","","","","","","","","","","","","","","","","","","","","","","","","","","","","","","feedback_test","","","","","","","","","","","",""
"708","","f","psychophysics","143","294994","0.0-7.0-1.0-4.0-0.0-0.18","3","4","4","3","3","3","3","4","3","4","4","3","3","4","4","4","4","3","5","4","2","3","2","2","2","1","4","4","2","0","1","0","1","0","1","0","1","1","0","0","0","1","1","0","4","2","4","3","2","1","4","4","5","3","2","798898667061911554","吴","322","","","","match","","","","","","","","","","","","","","key","f","16.6647058823534","710.7407909492769","395.92595389514173","j","false","nonmatch","img/circle.png","梯形","圆形","ALT1","formal_ALT1_2","","","","","","","","","","","",""
"null","<span style='color:red; font-size: 70px;'>错误! </span>","null","html-keyboard-response","144","295501","0.0-7.0-1.0-4.0-0.0-1.18","3","4","4","3","3","3","3","4","3","4","4","3","3","4","4","4","4","3","5","4","2","3","2","2","2","1","4","4","2","0","1","0","1","0","1","0","1","1","0","0","0","1","1","0","4","2","4","3","2","1","4","4","5","3","2","798898667061911554","吴","322","","","","","","","","","","","","","","","","","","","","","","","","","","","","","","feedback_test","","","","","","","","","","","",""
"918","","j","psychophysics","145","297421","0.0-7.0-1.0-4.0-0.0-0.19","3","4","4","3","3","3","3","4","3","4","4","3","3","4","4","4","4","3","5","4","2","3","2","2","2","1","4","4","2","0","1","0","1","0","1","0","1","1","0","0","0","1","1","0","4","2","4","3","2","1","4","4","5","3","2","798898667061911554","吴","322","","","","nonmatch","","","","","","","","","","","","","","key","j","16.666666666666668","710.7407909492769","395.92595389514173","j","true","nonmatch","img/circle.png","五边","圆形","ALT1","formal_ALT1_2","","","","","","","","","","","",""
"null","<span style='color:GreenYellow; font-size: 70px;'>正确! </span>","null","html-keyboard-response","146","297922","0.0-7.0-1.0-4.0-0.0-1.19","3","4","4","3","3","3","3","4","3","4","4","3","3","4","4","4","4","3","5","4","2","3","2","2","2","1","4","4","2","0","1","0","1","0","1","0","1","1","0","0","0","1","1","0","4","2","4","3","2","1","4","4","5","3","2","798898667061911554","吴","322","","","","","","","","","","","","","","","","","","","","","","","","","","","","","","feedback_test","","","","","","","","","","","",""
"604","","f","psychophysics","147","299528","0.0-7.0-1.0-4.0-0.0-0.20","3","4","4","3","3","3","3","4","3","4","4","3","3","4","4","4","4","3","5","4","2","3","2","2","2","1","4","4","2","0","1","0","1","0","1","0","1","1","0","0","0","1","1","0","4","2","4","3","2","1","4","4","5","3","2","798898667061911554","吴","322","","","","match","","","","","","","","","","","","","","key","f","16.664583333333212","710.7407909492769","395.92595389514173","f","true","match","img/circle.png","圆形","圆形","ALT1","formal_ALT1_2","","","","","","","","","","","",""
"null","<span style='color:GreenYellow; font-size: 70px;'>正确! </span>","null","html-keyboard-response","148","300037","0.0-7.0-1.0-4.0-0.0-1.20","3","4","4","3","3","3","3","4","3","4","4","3","3","4","4","4","4","3","5","4","2","3","2","2","2","1","4","4","2","0","1","0","1","0","1","0","1","1","0","0","0","1","1","0","4","2","4","3","2","1","4","4","5","3","2","798898667061911554","吴","322","","","","","","","","","","","","","","","","","","","","","","","","","","","","","","feedback_test","","","","","","","","","","","",""
"975","","j","psychophysics","149","302015","0.0-7.0-1.0-4.0-0.0-0.21","3","4","4","3","3","3","3","4","3","4","4","3","3","4","4","4","4","3","5","4","2","3","2","2","2","1","4","4","2","0","1","0","1","0","1","0","1","1","0","0","0","1","1","0","4","2","4","3","2","1","4","4","5","3","2","798898667061911554","吴","322","","","","nonmatch","","","","","","","","","","","","","","key","j","16.665254237288135","710.7407909492769","395.92595389514173","j","true","nonmatch","img/square.png","五边","方形","ALT1","formal_ALT1_2","","","","","","","","","","","",""
"null","<span style='color:GreenYellow; font-size: 70px;'>正确! </span>","null","html-keyboard-response","150","302517","0.0-7.0-1.0-4.0-0.0-1.21","3","4","4","3","3","3","3","4","3","4","4","3","3","4","4","4","4","3","5","4","2","3","2","2","2","1","4","4","2","0","1","0","1","0","1","0","1","1","0","0","0","1","1","0","4","2","4","3","2","1","4","4","5","3","2","798898667061911554","吴","322","","","","","","","","","","","","","","","","","","","","","","","","","","","","","","feedback_test","","","","","","","","","","","",""
"796","","j","psychophysics","151","304316","0.0-7.0-1.0-4.0-0.0-0.22","3","4","4","3","3","3","3","4","3","4","4","3","3","4","4","4","4","3","5","4","2","3","2","2","2","1","4","4","2","0","1","0","1","0","1","0","1","1","0","0","0","1","1","0","4","2","4","3","2","1","4","4","5","3","2","798898667061911554","吴","322","","","","nonmatch","","","","","","","","","","","","","","key","j","16.666355140186806","710.7407909492769","395.92595389514173","j","true","nonmatch","img/pentagon.png","梯形","五边","ALT1","formal_ALT1_2","","","","","","","","","","","",""
"null","<span style='color:GreenYellow; font-size: 70px;'>正确! </span>","null","html-keyboard-response","152","304817","0.0-7.0-1.0-4.0-0.0-1.22","3","4","4","3","3","3","3","4","3","4","4","3","3","4","4","4","4","3","5","4","2","3","2","2","2","1","4","4","2","0","1","0","1","0","1","0","1","1","0","0","0","1","1","0","4","2","4","3","2","1","4","4","5","3","2","798898667061911554","吴","322","","","","","","","","","","","","","","","","","","","","","","","","","","","","","","feedback_test","","","","","","","","","","","",""
"675","","j","psychophysics","153","306493","0.0-7.0-1.0-4.0-0.0-0.23","3","4","4","3","3","3","3","4","3","4","4","3","3","4","4","4","4","3","5","4","2","3","2","2","2","1","4","4","2","0","1","0","1","0","1","0","1","1","0","0","0","1","1","0","4","2","4","3","2","1","4","4","5","3","2","798898667061911554","吴","322","","","","nonmatch","","","","","","","","","","","","","","key","j","16.665","710.7407909492769","395.92595389514173","j","true","nonmatch","img/circle.png","方形","圆形","ALT1","formal_ALT1_2","","","","","","","","","","","",""
"null","<span style='color:GreenYellow; font-size: 70px;'>正确! </span>","null","html-keyboard-response","154","306995","0.0-7.0-1.0-4.0-0.0-1.23","3","4","4","3","3","3","3","4","3","4","4","3","3","4","4","4","4","3","5","4","2","3","2","2","2","1","4","4","2","0","1","0","1","0","1","0","1","1","0","0","0","1","1","0","4","2","4","3","2","1","4","4","5","3","2","798898667061911554","吴","322","","","","","","","","","","","","","","","","","","","","","","","","","","","","","","feedback_test","","","","","","","","","","","",""
"611","","f","psychophysics","155","308609","0.0-7.0-1.0-4.0-0.0-0.24","3","4","4","3","3","3","3","4","3","4","4","3","3","4","4","4","4","3","5","4","2","3","2","2","2","1","4","4","2","0","1","0","1","0","1","0","1","1","0","0","0","1","1","0","4","2","4","3","2","1","4","4","5","3","2","798898667061911554","吴","322","","","","match","","","","","","","","","","","","","","key","f","16.665625000000244","710.7407909492769","395.92595389514173","f","true","match","img/circle.png","圆形","圆形","ALT1","formal_ALT1_2","","","","","","","","","","","",""
"null","<span style='color:GreenYellow; font-size: 70px;'>正确! </span>","null","html-keyboard-response","156","309112","0.0-7.0-1.0-4.0-0.0-1.24","3","4","4","3","3","3","3","4","3","4","4","3","3","4","4","4","4","3","5","4","2","3","2","2","2","1","4","4","2","0","1","0","1","0","1","0","1","1","0","0","0","1","1","0","4","2","4","3","2","1","4","4","5","3","2","798898667061911554","吴","322","","","","","","","","","","","","","","","","","","","","","","","","","","","","","","feedback_test","","","","","","","","","","","",""
"575","","j","psychophysics","157","310690","0.0-7.0-1.0-4.0-0.0-0.25","3","4","4","3","3","3","3","4","3","4","4","3","3","4","4","4","4","3","5","4","2","3","2","2","2","1","4","4","2","0","1","0","1","0","1","0","1","1","0","0","0","1","1","0","4","2","4","3","2","1","4","4","5","3","2","798898667061911554","吴","322","","","","nonmatch","","","","","","","","","","","","","","key","j","16.666666666666668","710.7407909492769","395.92595389514173","j","true","nonmatch","img/circle.png","梯形","圆形","ALT1","formal_ALT1_2","","","","","","","","","","","",""
"null","<span style='color:GreenYellow; font-size: 70px;'>正确! </span>","null","html-keyboard-response","158","311200","0.0-7.0-1.0-4.0-0.0-1.25","3","4","4","3","3","3","3","4","3","4","4","3","3","4","4","4","4","3","5","4","2","3","2","2","2","1","4","4","2","0","1","0","1","0","1","0","1","1","0","0","0","1","1","0","4","2","4","3","2","1","4","4","5","3","2","798898667061911554","吴","322","","","","","","","","","","","","","","","","","","","","","","","","","","","","","","feedback_test","","","","","","","","","","","",""
"641","","j","psychophysics","159","312843","0.0-7.0-1.0-4.0-0.0-0.26","3","4","4","3","3","3","3","4","3","4","4","3","3","4","4","4","4","3","5","4","2","3","2","2","2","1","4","4","2","0","1","0","1","0","1","0","1","1","0","0","0","1","1","0","4","2","4","3","2","1","4","4","5","3","2","798898667061911554","吴","322","","","","nonmatch","","","","","","","","","","","","","","key","j","16.6653061224491","710.7407909492769","395.92595389514173","j","true","nonmatch","img/trapezoid.png","五边","梯形","ALT1","formal_ALT1_2","","","","","","","","","","","",""
"null","<span style='color:GreenYellow; font-size: 70px;'>正确! </span>","null","html-keyboard-response","160","313345","0.0-7.0-1.0-4.0-0.0-1.26","3","4","4","3","3","3","3","4","3","4","4","3","3","4","4","4","4","3","5","4","2","3","2","2","2","1","4","4","2","0","1","0","1","0","1","0","1","1","0","0","0","1","1","0","4","2","4","3","2","1","4","4","5","3","2","798898667061911554","吴","322","","","","","","","","","","","","","","","","","","","","","","","","","","","","","","feedback_test","","","","","","","","","","","",""
"627","","j","psychophysics","161","314973","0.0-7.0-1.0-4.0-0.0-0.27","3","4","4","3","3","3","3","4","3","4","4","3","3","4","4","4","4","3","5","4","2","3","2","2","2","1","4","4","2","0","1","0","1","0","1","0","1","1","0","0","0","1","1","0","4","2","4","3","2","1","4","4","5","3","2","798898667061911554","吴","322","","","","nonmatch","","","","","","","","","","","","","","key","j","16.664583333333212","710.7407909492769","395.92595389514173","j","true","nonmatch","img/square.png","梯形","方形","ALT1","formal_ALT1_2","","","","","","","","","","","",""
"null","<span style='color:GreenYellow; font-size: 70px;'>正确! </span>","null","html-keyboard-response","162","315475","0.0-7.0-1.0-4.0-0.0-1.27","3","4","4","3","3","3","3","4","3","4","4","3","3","4","4","4","4","3","5","4","2","3","2","2","2","1","4","4","2","0","1","0","1","0","1","0","1","1","0","0","0","1","1","0","4","2","4","3","2","1","4","4","5","3","2","798898667061911554","吴","322","","","","","","","","","","","","","","","","","","","","","","","","","","","","","","feedback_test","","","","","","","","","","","",""
"604","","j","psychophysics","163","317082","0.0-7.0-1.0-4.0-0.0-0.28","3","4","4","3","3","3","3","4","3","4","4","3","3","4","4","4","4","3","5","4","2","3","2","2","2","1","4","4","2","0","1","0","1","0","1","0","1","1","0","0","0","1","1","0","4","2","4","3","2","1","4","4","5","3","2","798898667061911554","吴","322","","","","nonmatch","","","","","","","","","","","","","","key","j","16.664210526315543","710.7407909492769","395.92595389514173","j","true","nonmatch","img/square.png","圆形","方形","ALT1","formal_ALT1_2","","","","","","","","","","","",""
"null","<span style='color:GreenYellow; font-size: 70px;'>正确! </span>","null","html-keyboard-response","164","317583","0.0-7.0-1.0-4.0-0.0-1.28","3","4","4","3","3","3","3","4","3","4","4","3","3","4","4","4","4","3","5","4","2","3","2","2","2","1","4","4","2","0","1","0","1","0","1","0","1","1","0","0","0","1","1","0","4","2","4","3","2","1","4","4","5","3","2","798898667061911554","吴","322","","","","","","","","","","","","","","","","","","","","","","","","","","","","","","feedback_test","","","","","","","","","","","",""
"550","","f","psychophysics","165","319134","0.0-7.0-1.0-4.0-0.0-0.29","3","4","4","3","3","3","3","4","3","4","4","3","3","4","4","4","4","3","5","4","2","3","2","2","2","1","4","4","2","0","1","0","1","0","1","0","1","1","0","0","0","1","1","0","4","2","4","3","2","1","4","4","5","3","2","798898667061911554","吴","322","","","","match","","","","","","","","","","","","","","key","f","16.665217391304473","710.7407909492769","395.92595389514173","f","true","match","img/circle.png","圆形","圆形","ALT1","formal_ALT1_2","","","","","","","","","","","",""
"null","<span style='color:GreenYellow; font-size: 70px;'>正确! </span>","null","html-keyboard-response","166","319637","0.0-7.0-1.0-4.0-0.0-1.29","3","4","4","3","3","3","3","4","3","4","4","3","3","4","4","4","4","3","5","4","2","3","2","2","2","1","4","4","2","0","1","0","1","0","1","0","1","1","0","0","0","1","1","0","4","2","4","3","2","1","4","4","5","3","2","798898667061911554","吴","322","","","","","","","","","","","","","","","","","","","","","","","","","","","","","","feedback_test","","","","","","","","","","","",""
"612","","j","psychophysics","167","321251","0.0-7.0-1.0-4.0-0.0-0.30","3","4","4","3","3","3","3","4","3","4","4","3","3","4","4","4","4","3","5","4","2","3","2","2","2","1","4","4","2","0","1","0","1","0","1","0","1","1","0","0","0","1","1","0","4","2","4","3","2","1","4","4","5","3","2","798898667061911554","吴","322","","","","nonmatch","","","","","","","","","","","","","","key","j","16.665624999999636","710.7407909492769","395.92595389514173","j","true","nonmatch","img/pentagon.png","梯形","五边","ALT1","formal_ALT1_2","","","","","","","","","","","",""
"null","<span style='color:GreenYellow; font-size: 70px;'>正确! </span>","null","html-keyboard-response","168","321752","0.0-7.0-1.0-4.0-0.0-1.30","3","4","4","3","3","3","3","4","3","4","4","3","3","4","4","4","4","3","5","4","2","3","2","2","2","1","4","4","2","0","1","0","1","0","1","0","1","1","0","0","0","1","1","0","4","2","4","3","2","1","4","4","5","3","2","798898667061911554","吴","322","","","","","","","","","","","","","","","","","","","","","","","","","","","","","","feedback_test","","","","","","","","","","","",""
"564","","j","psychophysics","169","323317","0.0-7.0-1.0-4.0-0.0-0.31","3","4","4","3","3","3","3","4","3","4","4","3","3","4","4","4","4","3","5","4","2","3","2","2","2","1","4","4","2","0","1","0","1","0","1","0","1","1","0","0","0","1","1","0","4","2","4","3","2","1","4","4","5","3","2","798898667061911554","吴","322","","","","nonmatch","","","","","","","","","","","","","","key","j","16.666666666666668","710.7407909492769","395.92595389514173","j","true","nonmatch","img/trapezoid.png","圆形","梯形","ALT1","formal_ALT1_2","","","","","","","","","","","",""
"null","<span style='color:GreenYellow; font-size: 70px;'>正确! </span>","null","html-keyboard-response","170","323819","0.0-7.0-1.0-4.0-0.0-1.31","3","4","4","3","3","3","3","4","3","4","4","3","3","4","4","4","4","3","5","4","2","3","2","2","2","1","4","4","2","0","1","0","1","0","1","0","1","1","0","0","0","1","1","0","4","2","4","3","2","1","4","4","5","3","2","798898667061911554","吴","322","","","","","","","","","","","","","","","","","","","","","","","","","","","","","","feedback_test","","","","","","","","","","","",""
"579","","j","psychophysics","171","325399","0.0-7.0-1.0-4.0-0.0-0.32","3","4","4","3","3","3","3","4","3","4","4","3","3","4","4","4","4","3","5","4","2","3","2","2","2","1","4","4","2","0","1","0","1","0","1","0","1","1","0","0","0","1","1","0","4","2","4","3","2","1","4","4","5","3","2","798898667061911554","吴","322","","","","nonmatch","","","","","","","","","","","","","","key","j","16.66702127659525","710.7407909492769","395.92595389514173","j","true","nonmatch","img/circle.png","五边","圆形","ALT1","formal_ALT1_2","","","","","","","","","","","",""
"null","<span style='color:GreenYellow; font-size: 70px;'>正确! </span>","null","html-keyboard-response","172","325913","0.0-7.0-1.0-4.0-0.0-1.32","3","4","4","3","3","3","3","4","3","4","4","3","3","4","4","4","4","3","5","4","2","3","2","2","2","1","4","4","2","0","1","0","1","0","1","0","1","1","0","0","0","1","1","0","4","2","4","3","2","1","4","4","5","3","2","798898667061911554","吴","322","","","","","","","","","","","","","","","","","","","","","","","","","","","","","","feedback_test","","","","","","","","","","","",""
"653","","f","psychophysics","173","327569","0.0-7.0-1.0-4.0-0.0-0.33","3","4","4","3","3","3","3","4","3","4","4","3","3","4","4","4","4","3","5","4","2","3","2","2","2","1","4","4","2","0","1","0","1","0","1","0","1","1","0","0","0","1","1","0","4","2","4","3","2","1","4","4","5","3","2","798898667061911554","吴","322","","","","match","","","","","","","","","","","","","","key","f","16.66428571428607","710.7407909492769","395.92595389514173","f","true","match","img/pentagon.png","五边","五边","ALT1","formal_ALT1_2","","","","","","","","","","","",""
"null","<span style='color:GreenYellow; font-size: 70px;'>正确! </span>","null","html-keyboard-response","174","328071","0.0-7.0-1.0-4.0-0.0-1.33","3","4","4","3","3","3","3","4","3","4","4","3","3","4","4","4","4","3","5","4","2","3","2","2","2","1","4","4","2","0","1","0","1","0","1","0","1","1","0","0","0","1","1","0","4","2","4","3","2","1","4","4","5","3","2","798898667061911554","吴","322","","","","","","","","","","","","","","","","","","","","","","","","","","","","","","feedback_test","","","","","","","","","","","",""
"655","","j","psychophysics","175","329729","0.0-7.0-1.0-4.0-0.0-0.34","3","4","4","3","3","3","3","4","3","4","4","3","3","4","4","4","4","3","5","4","2","3","2","2","2","1","4","4","2","0","1","0","1","0","1","0","1","1","0","0","0","1","1","0","4","2","4","3","2","1","4","4","5","3","2","798898667061911554","吴","322","","","","nonmatch","","","","","","","","","","","","","","key","j","16.66224489795942","710.7407909492769","395.92595389514173","f","false","match","img/square.png","方形","方形","ALT1","formal_ALT1_2","","","","","","","","","","","",""
"null","<span style='color:red; font-size: 70px;'>错误! </span>","null","html-keyboard-response","176","330230","0.0-7.0-1.0-4.0-0.0-1.34","3","4","4","3","3","3","3","4","3","4","4","3","3","4","4","4","4","3","5","4","2","3","2","2","2","1","4","4","2","0","1","0","1","0","1","0","1","1","0","0","0","1","1","0","4","2","4","3","2","1","4","4","5","3","2","798898667061911554","吴","322","","","","","","","","","","","","","","","","","","","","","","","","","","","","","","feedback_test","","","","","","","","","","","",""
"644","","j","psychophysics","177","331876","0.0-7.0-1.0-4.0-0.0-0.35","3","4","4","3","3","3","3","4","3","4","4","3","3","4","4","4","4","3","5","4","2","3","2","2","2","1","4","4","2","0","1","0","1","0","1","0","1","1","0","0","0","1","1","0","4","2","4","3","2","1","4","4","5","3","2","798898667061911554","吴","322","","","","nonmatch","","","","","","","","","","","","","","key","j","16.666326530612125","710.7407909492769","395.92595389514173","j","true","nonmatch","img/pentagon.png","圆形","五边","ALT1","formal_ALT1_2","","","","","","","","","","","",""
