"rt","stimulus","response","trial_type","trial_index","time_elapsed","internal_node_id","ses_1","ses_2","ses_3","ses_4","ses_5","ses_6","ses_7","ses_8","ses_9","ses_10","coreself_1","coreself_2","coreself_3","coreself_4","coreself_5","coreself_6","coreself_7","coreself_8","coreself_9","coreself_10","SGPS_1","SGPS_2","SGPS_3","SGPS_4","SGPS_5","SGPS_6","SGPS_7","SGPS_8","SGPS_9","NPI1","NPI2","NPI3","NPI4","NPI5","NPI6","NPI7","NPI8","NPI9","NPI10","NPI11","NPI12","NPI13","NPI14","NPI15","hsns_1","hsns_2","hsns_3","hsns_4","hsns_5","trap1","hsns_6","hsns_7","hsns_8","hsns_9","hsns_10","subj_idx","friend_name","ParticipantID","value","success","user_agent","responses","item_order","radio_event_ids","radio_event_times","key_event_times","mouse_event_times","straightlining","zigzagging","honeypot","timeout","failed_images","failed_audio","failed_video","view_history","response_type","key_press","avg_frame_time","center_x","center_y","correct_response","correct","identity","Image","word","condition","task_id","screen_id","time_stamp","version_attrib2","version_target2","IAT","RT","varname","summary","version_attrib","version_target","question_order","correct_answer","trap1_item"
"13963","
   <p><div style = ""color: white;font-size:25px;"">您好，欢迎参加本次实验。</div> </p>
   <p><div style = ""color: white;font-size:25px;"">为充分保障您的权利，请确保您已经知晓并同意《参与实验同意书》以及《数据公开知情同意书》。</div></p>
   <p><div style = ""color: white;font-size:25px;"">如果您未见过上述内容，请咨询实验员。</div></p>
   <p><div style = ""color: white;font-size:25px;"">如果您选择继续实验，则表示您已经清楚两份知情同意书的内容并同意。</div></p>
   <p><div style = ""color: pink;font-size:30px;"">请确保您记得day0的实验编号，您将在本次实验输入该编号，若您忘记，请咨询实验员后作答。</div></p>
   <p><div style = ""color: lightblue;font-size:25px;"">请您尽可能认真地作答，我们将依据您在各问卷和按键任务中的作答质量发放报酬。</div></p>
   <p> <div style = ""color: green;font-size:25px;""><按空格键至下页></div> </p>
   "," ","html-keyboard-response","0","13966","0.0-0.0","3","4","4","3","4","3","4","4","3","3","5","4","3","4","4","4","5","4","5","5","2","2","3","1","2","2","1","2","2","1","0","0","1","0","1","0","1","1","0","1","0","0","0","0","4","1","2","1","3","5","4","4","4","5","2","779748154852773890","余","458","","","","","","","","","","","","","","","","","","","","","","","","","","","","","","","","","","","","","","","","","",""
"","","","call-function","1","13971","0.0-1.0-0.0","3","4","4","3","4","3","4","4","3","3","5","4","3","4","4","4","5","4","5","5","2","2","3","1","2","2","1","2","2","1","0","0","1","0","1","0","1","1","0","1","0","0","0","0","4","1","2","1","3","5","4","4","4","5","2","779748154852773890","余","458","","","","","","","","","","","","","","","","","","","","","","","","","","","","","","","","","","","","","","","","","",""
"14831","","{""friend_name"":""余"",""ParticipantID"":""458""}","survey-html-form","2","28802","0.0-1.0-1.0","3","4","4","3","4","3","4","4","3","3","5","4","3","4","4","4","5","4","5","5","2","2","3","1","2","2","1","2","2","1","0","0","1","0","1","0","1","1","0","1","0","0","0","0","4","1","2","1","3","5","4","4","4","5","2","779748154852773890","余","458","","","","","","","","","","","","","","","","","","","","","","","","","","","","","","","","","","","","","","","","","",""
"","","","fullscreen","3","34046","0.0-2.0","3","4","4","3","4","3","4","4","3","3","5","4","3","4","4","4","5","4","5","5","2","2","3","1","2","2","1","2","2","1","0","0","1","0","1","0","1","1","0","1","0","0","0","0","4","1","2","1","3","5","4","4","4","5","2","779748154852773890","余","458","","true","{}","","","","","","","","","","","","","","","","","","","","","","","","","","","","","","","","","","","","","","",""
"27070","","{""Q01"":""3"",""Q02"":""4"",""Q03"":""4"",""Q04"":""3"",""Q05"":""4"",""Q06"":""3"",""Q07"":""4"",""Q08"":""4"",""Q09"":""3"",""Q10"":""3""}","survey-template","4","61116","0.0-3.0","3","4","4","3","4","3","4","4","3","3","5","4","3","4","4","4","5","4","5","5","2","2","3","1","2","2","1","2","2","1","0","0","1","0","1","0","1","1","0","1","0","0","0","0","4","1","2","1","3","5","4","4","4","5","2","779748154852773890","余","458","","","","{""Q01"":""3"",""Q02"":""4"",""Q03"":""4"",""Q04"":""3"",""Q05"":""4"",""Q06"":""3"",""Q07"":""4"",""Q08"":""4"",""Q09"":""3"",""Q10"":""3""}","[0,1,2,3,4,5,6,7,8,9]","[""Q01"",""Q02"",""Q03"",""Q04"",""Q05"",""Q06"",""Q07"",""Q08"",""Q09"",""Q10""]","[4315,6509,8840,11021,15120,17137,18514,20504,22248,25528]","[]","[4315,6509,8840,11021,15120,17137,18514,20504,22248,23649,25528,27070]","0.3","0.5555555555555556","0","","","","","","","","","","","","","","","","","","","","","","","","","","","","","",""
"24315","","{""Q01"":""5"",""Q02"":""4"",""Q03"":""3"",""Q04"":""4"",""Q05"":""4"",""Q06"":""4"",""Q07"":""5"",""Q08"":""4"",""Q09"":""5"",""Q10"":""5""}","survey-template","5","85445","0.0-4.0","3","4","4","3","4","3","4","4","3","3","5","4","3","4","4","4","5","4","5","5","2","2","3","1","2","2","1","2","2","1","0","0","1","0","1","0","1","1","0","1","0","0","0","0","4","1","2","1","3","5","4","4","4","5","2","779748154852773890","余","458","","","","{""Q01"":""5"",""Q02"":""4"",""Q03"":""3"",""Q04"":""4"",""Q05"":""4"",""Q06"":""4"",""Q07"":""5"",""Q08"":""4"",""Q09"":""5"",""Q10"":""5""}","[0,1,2,3,4,5,6,7,8,9]","[""Q01"",""Q02"",""Q03"",""Q04"",""Q05"",""Q06"",""Q07"",""Q08"",""Q09"",""Q10""]","[3231,5283,7840,10474,12349,14087,16184,18153,20722,22263]","[]","[3231,5283,7840,10474,12349,14087,16184,18153,20722,22263,24315]","0.3","0.4444444444444444","0","","","","","","","","","","","","","","","","","","","","","","","","","","","","","",""
"","","","preload","6","85846","0.0-5.0","3","4","4","3","4","3","4","4","3","3","5","4","3","4","4","4","5","4","5","5","2","2","3","1","2","2","1","2","2","1","0","0","1","0","1","0","1","1","0","1","0","0","0","0","4","1","2","1","3","5","4","4","4","5","2","779748154852773890","余","458","","true","","","","","","","","","","","false","[]","[]","[]","","","","","","","","","","","","","","","","","","","","","","","","","",""
"12385","","","instructions","7","98231","0.0-6.0","3","4","4","3","4","3","4","4","3","3","5","4","3","4","4","4","5","4","5","5","2","2","3","1","2","2","1","2","2","1","0","0","1","0","1","0","1","1","0","1","0","0","0","0","4","1","2","1","3","5","4","4","4","5","2","779748154852773890","余","458","","","","","","","","","","","","","","","","","[{""page_index"":0,""viewing_time"":12385}]","","","","","","","","","","","","","","","","","","","","","","","","",""
"21498","","","instructions","8","119729","0.0-7.0-1.0-0.0","3","4","4","3","4","3","4","4","3","3","5","4","3","4","4","4","5","4","5","5","2","2","3","1","2","2","1","2","2","1","0","0","1","0","1","0","1","1","0","1","0","0","0","0","4","1","2","1","3","5","4","4","4","5","2","779748154852773890","余","458","","","","","","","","","","","","","","","","","[{""page_index"":0,""viewing_time"":13350},{""page_index"":1,""viewing_time"":4632},{""page_index"":2,""viewing_time"":3516}]","","","","","","","","","","","","","","","","","","","","","","","","",""
"822","","j","psychophysics","9","121556","0.0-7.0-1.0-1.0-0.0-0.0","3","4","4","3","4","3","4","4","3","3","5","4","3","4","4","4","5","4","5","5","2","2","3","1","2","2","1","2","2","1","0","0","1","0","1","0","1","1","0","1","0","0","0","0","4","1","2","1","3","5","4","4","4","5","2","779748154852773890","余","458","","","","nonmatch","","","","","","","","","","","","","","key","j","18.285714285714285","720","446","j","true","nonmatch","img/diamond.png","五边","菱形","ALT1_2","prac_ALT1_2","","","","","","","","","","","",""
"null","<span style='color:GreenYellow; font-size: 70px;'>正确! </span>","null","html-keyboard-response","10","122084","0.0-7.0-1.0-1.0-0.0-1.0","3","4","4","3","4","3","4","4","3","3","5","4","3","4","4","4","5","4","5","5","2","2","3","1","2","2","1","2","2","1","0","0","1","0","1","0","1","1","0","1","0","0","0","0","4","1","2","1","3","5","4","4","4","5","2","779748154852773890","余","458","","","","","","","","","","","","","","","","","","","","","","","","","","","","","","feedback_test","","","","","","","","","","","",""
"677","","j","psychophysics","11","123761","0.0-7.0-1.0-1.0-0.0-0.1","3","4","4","3","4","3","4","4","3","3","5","4","3","4","4","4","5","4","5","5","2","2","3","1","2","2","1","2","2","1","0","0","1","0","1","0","1","1","0","1","0","0","0","0","4","1","2","1","3","5","4","4","4","5","2","779748154852773890","余","458","","","","nonmatch","","","","","","","","","","","","","","key","j","17.080083333333278","720","446","j","true","nonmatch","img/ellipse.png","五边","椭圆","ALT1_2","prac_ALT1_2","","","","","","","","","","","",""
"null","<span style='color:GreenYellow; font-size: 70px;'>正确! </span>","null","html-keyboard-response","12","124262","0.0-7.0-1.0-1.0-0.0-1.1","3","4","4","3","4","3","4","4","3","3","5","4","3","4","4","4","5","4","5","5","2","2","3","1","2","2","1","2","2","1","0","0","1","0","1","0","1","1","0","1","0","0","0","0","4","1","2","1","3","5","4","4","4","5","2","779748154852773890","余","458","","","","","","","","","","","","","","","","","","","","","","","","","","","","","","feedback_test","","","","","","","","","","","",""
"719","","j","psychophysics","13","125990","0.0-7.0-1.0-1.0-0.0-0.2","3","4","4","3","4","3","4","4","3","3","5","4","3","4","4","4","5","4","5","5","2","2","3","1","2","2","1","2","2","1","0","0","1","0","1","0","1","1","0","1","0","0","0","0","4","1","2","1","3","5","4","4","4","5","2","779748154852773890","余","458","","","","nonmatch","","","","","","","","","","","","","","key","j","16.69988118811876","720","446","j","true","nonmatch","img/diamond.png","椭圆","菱形","ALT1_2","prac_ALT1_2","","","","","","","","","","","",""
"null","<span style='color:GreenYellow; font-size: 70px;'>正确! </span>","null","html-keyboard-response","14","126493","0.0-7.0-1.0-1.0-0.0-1.2","3","4","4","3","4","3","4","4","3","3","5","4","3","4","4","4","5","4","5","5","2","2","3","1","2","2","1","2","2","1","0","0","1","0","1","0","1","1","0","1","0","0","0","0","4","1","2","1","3","5","4","4","4","5","2","779748154852773890","余","458","","","","","","","","","","","","","","","","","","","","","","","","","","","","","","feedback_test","","","","","","","","","","","",""
"545","","j","psychophysics","15","128043","0.0-7.0-1.0-1.0-0.0-0.3","3","4","4","3","4","3","4","4","3","3","5","4","3","4","4","4","5","4","5","5","2","2","3","1","2","2","1","2","2","1","0","0","1","0","1","0","1","1","0","1","0","0","0","0","4","1","2","1","3","5","4","4","4","5","2","779748154852773890","余","458","","","","nonmatch","","","","","","","","","","","","","","key","j","16.684782608695652","720","446","j","true","nonmatch","img/ellipse.png","方形","椭圆","ALT1_2","prac_ALT1_2","","","","","","","","","","","",""
"null","<span style='color:GreenYellow; font-size: 70px;'>正确! </span>","null","html-keyboard-response","16","128548","0.0-7.0-1.0-1.0-0.0-1.3","3","4","4","3","4","3","4","4","3","3","5","4","3","4","4","4","5","4","5","5","2","2","3","1","2","2","1","2","2","1","0","0","1","0","1","0","1","1","0","1","0","0","0","0","4","1","2","1","3","5","4","4","4","5","2","779748154852773890","余","458","","","","","","","","","","","","","","","","","","","","","","","","","","","","","","feedback_test","","","","","","","","","","","",""
"640","","f","psychophysics","17","130189","0.0-7.0-1.0-1.0-0.0-0.4","3","4","4","3","4","3","4","4","3","3","5","4","3","4","4","4","5","4","5","5","2","2","3","1","2","2","1","2","2","1","0","0","1","0","1","0","1","1","0","1","0","0","0","0","4","1","2","1","3","5","4","4","4","5","2","779748154852773890","余","458","","","","match","","","","","","","","","","","","","","key","f","16.5979381443299","720","446","f","true","match","img/pentagon.png","五边","五边","ALT1_2","prac_ALT1_2","","","","","","","","","","","",""
"null","<span style='color:GreenYellow; font-size: 70px;'>正确! </span>","null","html-keyboard-response","18","130697","0.0-7.0-1.0-1.0-0.0-1.4","3","4","4","3","4","3","4","4","3","3","5","4","3","4","4","4","5","4","5","5","2","2","3","1","2","2","1","2","2","1","0","0","1","0","1","0","1","1","0","1","0","0","0","0","4","1","2","1","3","5","4","4","4","5","2","779748154852773890","余","458","","","","","","","","","","","","","","","","","","","","","","","","","","","","","","feedback_test","","","","","","","","","","","",""
"873","","f","psychophysics","19","132590","0.0-7.0-1.0-1.0-0.0-0.5","3","4","4","3","4","3","4","4","3","3","5","4","3","4","4","4","5","4","5","5","2","2","3","1","2","2","1","2","2","1","0","0","1","0","1","0","1","1","0","1","0","0","0","0","4","1","2","1","3","5","4","4","4","5","2","779748154852773890","余","458","","","","match","","","","","","","","","","","","","","key","f","16.607142857142858","720","446","f","true","match","img/diamond.png","菱形","菱形","ALT1_2","prac_ALT1_2","","","","","","","","","","","",""
"null","<span style='color:GreenYellow; font-size: 70px;'>正确! </span>","null","html-keyboard-response","20","133099","0.0-7.0-1.0-1.0-0.0-1.5","3","4","4","3","4","3","4","4","3","3","5","4","3","4","4","4","5","4","5","5","2","2","3","1","2","2","1","2","2","1","0","0","1","0","1","0","1","1","0","1","0","0","0","0","4","1","2","1","3","5","4","4","4","5","2","779748154852773890","余","458","","","","","","","","","","","","","","","","","","","","","","","","","","","","","","feedback_test","","","","","","","","","","","",""
"578","","j","psychophysics","21","134684","0.0-7.0-1.0-1.0-0.0-0.6","3","4","4","3","4","3","4","4","3","3","5","4","3","4","4","4","5","4","5","5","2","2","3","1","2","2","1","2","2","1","0","0","1","0","1","0","1","1","0","1","0","0","0","0","4","1","2","1","3","5","4","4","4","5","2","779748154852773890","余","458","","","","nonmatch","","","","","","","","","","","","","","key","j","16.537634408602152","720","446","j","true","nonmatch","img/ellipse.png","菱形","椭圆","ALT1_2","prac_ALT1_2","","","","","","","","","","","",""
"null","<span style='color:GreenYellow; font-size: 70px;'>正确! </span>","null","html-keyboard-response","22","135200","0.0-7.0-1.0-1.0-0.0-1.6","3","4","4","3","4","3","4","4","3","3","5","4","3","4","4","4","5","4","5","5","2","2","3","1","2","2","1","2","2","1","0","0","1","0","1","0","1","1","0","1","0","0","0","0","4","1","2","1","3","5","4","4","4","5","2","779748154852773890","余","458","","","","","","","","","","","","","","","","","","","","","","","","","","","","","","feedback_test","","","","","","","","","","","",""
"668","","f","psychophysics","23","136870","0.0-7.0-1.0-1.0-0.0-0.7","3","4","4","3","4","3","4","4","3","3","5","4","3","4","4","4","5","4","5","5","2","2","3","1","2","2","1","2","2","1","0","0","1","0","1","0","1","1","0","1","0","0","0","0","4","1","2","1","3","5","4","4","4","5","2","779748154852773890","余","458","","","","match","","","","","","","","","","","","","","key","f","16.724489795918366","720","446","f","true","match","img/diamond.png","菱形","菱形","ALT1_2","prac_ALT1_2","","","","","","","","","","","",""
"null","<span style='color:GreenYellow; font-size: 70px;'>正确! </span>","null","html-keyboard-response","24","137385","0.0-7.0-1.0-1.0-0.0-1.7","3","4","4","3","4","3","4","4","3","3","5","4","3","4","4","4","5","4","5","5","2","2","3","1","2","2","1","2","2","1","0","0","1","0","1","0","1","1","0","1","0","0","0","0","4","1","2","1","3","5","4","4","4","5","2","779748154852773890","余","458","","","","","","","","","","","","","","","","","","","","","","","","","","","","","","feedback_test","","","","","","","","","","","",""
"594","","f","psychophysics","25","139002","0.0-7.0-1.0-1.0-0.0-0.8","3","4","4","3","4","3","4","4","3","3","5","4","3","4","4","4","5","4","5","5","2","2","3","1","2","2","1","2","2","1","0","0","1","0","1","0","1","1","0","1","0","0","0","0","4","1","2","1","3","5","4","4","4","5","2","779748154852773890","余","458","","","","match","","","","","","","","","","","","","","key","f","16.486333333333278","720","446","f","true","match","img/square.png","方形","方形","ALT1_2","prac_ALT1_2","","","","","","","","","","","",""
"null","<span style='color:GreenYellow; font-size: 70px;'>正确! </span>","null","html-keyboard-response","26","139506","0.0-7.0-1.0-1.0-0.0-1.8","3","4","4","3","4","3","4","4","3","3","5","4","3","4","4","4","5","4","5","5","2","2","3","1","2","2","1","2","2","1","0","0","1","0","1","0","1","1","0","1","0","0","0","0","4","1","2","1","3","5","4","4","4","5","2","779748154852773890","余","458","","","","","","","","","","","","","","","","","","","","","","","","","","","","","","feedback_test","","","","","","","","","","","",""
"561","","f","psychophysics","27","141082","0.0-7.0-1.0-1.0-0.0-0.9","3","4","4","3","4","3","4","4","3","3","5","4","3","4","4","4","5","4","5","5","2","2","3","1","2","2","1","2","2","1","0","0","1","0","1","0","1","1","0","1","0","0","0","0","4","1","2","1","3","5","4","4","4","5","2","779748154852773890","余","458","","","","match","","","","","","","","","","","","","","key","f","16.450574468085023","720","446","f","true","match","img/ellipse.png","椭圆","椭圆","ALT1_2","prac_ALT1_2","","","","","","","","","","","",""
"null","<span style='color:GreenYellow; font-size: 70px;'>正确! </span>","null","html-keyboard-response","28","141582","0.0-7.0-1.0-1.0-0.0-1.9","3","4","4","3","4","3","4","4","3","3","5","4","3","4","4","4","5","4","5","5","2","2","3","1","2","2","1","2","2","1","0","0","1","0","1","0","1","1","0","1","0","0","0","0","4","1","2","1","3","5","4","4","4","5","2","779748154852773890","余","458","","","","","","","","","","","","","","","","","","","","","","","","","","","","","","feedback_test","","","","","","","","","","","",""
"624","","f","psychophysics","29","143208","0.0-7.0-1.0-1.0-0.0-0.10","3","4","4","3","4","3","4","4","3","3","5","4","3","4","4","4","5","4","5","5","2","2","3","1","2","2","1","2","2","1","0","0","1","0","1","0","1","1","0","1","0","0","0","0","4","1","2","1","3","5","4","4","4","5","2","779748154852773890","余","458","","","","match","","","","","","","","","","","","","","key","f","16.614583333333332","720","446","f","true","match","img/square.png","方形","方形","ALT1_2","prac_ALT1_2","","","","","","","","","","","",""
"null","<span style='color:GreenYellow; font-size: 70px;'>正确! </span>","null","html-keyboard-response","30","143721","0.0-7.0-1.0-1.0-0.0-1.10","3","4","4","3","4","3","4","4","3","3","5","4","3","4","4","4","5","4","5","5","2","2","3","1","2","2","1","2","2","1","0","0","1","0","1","0","1","1","0","1","0","0","0","0","4","1","2","1","3","5","4","4","4","5","2","779748154852773890","余","458","","","","","","","","","","","","","","","","","","","","","","","","","","","","","","feedback_test","","","","","","","","","","","",""
"598","","f","psychophysics","31","145337","0.0-7.0-1.0-1.0-0.0-0.11","3","4","4","3","4","3","4","4","3","3","5","4","3","4","4","4","5","4","5","5","2","2","3","1","2","2","1","2","2","1","0","0","1","0","1","0","1","1","0","1","0","0","0","0","4","1","2","1","3","5","4","4","4","5","2","779748154852773890","余","458","","","","match","","","","","","","","","","","","","","key","f","17.373626373626372","720","446","f","true","match","img/ellipse.png","椭圆","椭圆","ALT1_2","prac_ALT1_2","","","","","","","","","","","",""
"null","<span style='color:GreenYellow; font-size: 70px;'>正确! </span>","null","html-keyboard-response","32","145842","0.0-7.0-1.0-1.0-0.0-1.11","3","4","4","3","4","3","4","4","3","3","5","4","3","4","4","4","5","4","5","5","2","2","3","1","2","2","1","2","2","1","0","0","1","0","1","0","1","1","0","1","0","0","0","0","4","1","2","1","3","5","4","4","4","5","2","779748154852773890","余","458","","","","","","","","","","","","","","","","","","","","","","","","","","","","","","feedback_test","","","","","","","","","","","",""
"573","","f","psychophysics","33","147421","0.0-7.0-1.0-1.0-0.0-0.12","3","4","4","3","4","3","4","4","3","3","5","4","3","4","4","4","5","4","5","5","2","2","3","1","2","2","1","2","2","1","0","0","1","0","1","0","1","1","0","1","0","0","0","0","4","1","2","1","3","5","4","4","4","5","2","779748154852773890","余","458","","","","match","","","","","","","","","","","","","","key","f","16.912087912087912","720","446","j","false","nonmatch","img/square.png","菱形","方形","ALT1_2","prac_ALT1_2","","","","","","","","","","","",""
"null","<span style='color:red; font-size: 70px;'>错误! </span>","null","html-keyboard-response","34","147933","0.0-7.0-1.0-1.0-0.0-1.12","3","4","4","3","4","3","4","4","3","3","5","4","3","4","4","4","5","4","5","5","2","2","3","1","2","2","1","2","2","1","0","0","1","0","1","0","1","1","0","1","0","0","0","0","4","1","2","1","3","5","4","4","4","5","2","779748154852773890","余","458","","","","","","","","","","","","","","","","","","","","","","","","","","","","","","feedback_test","","","","","","","","","","","",""
"911","","j","psychophysics","35","149846","0.0-7.0-1.0-1.0-0.0-0.13","3","4","4","3","4","3","4","4","3","3","5","4","3","4","4","4","5","4","5","5","2","2","3","1","2","2","1","2","2","1","0","0","1","0","1","0","1","1","0","1","0","0","0","0","4","1","2","1","3","5","4","4","4","5","2","779748154852773890","余","458","","","","nonmatch","","","","","","","","","","","","","","key","j","16.646017699115045","720","446","j","true","nonmatch","img/pentagon.png","菱形","五边","ALT1_2","prac_ALT1_2","","","","","","","","","","","",""
"null","<span style='color:GreenYellow; font-size: 70px;'>正确! </span>","null","html-keyboard-response","36","150347","0.0-7.0-1.0-1.0-0.0-1.13","3","4","4","3","4","3","4","4","3","3","5","4","3","4","4","4","5","4","5","5","2","2","3","1","2","2","1","2","2","1","0","0","1","0","1","0","1","1","0","1","0","0","0","0","4","1","2","1","3","5","4","4","4","5","2","779748154852773890","余","458","","","","","","","","","","","","","","","","","","","","","","","","","","","","","","feedback_test","","","","","","","","","","","",""
"673","","j","psychophysics","37","152052","0.0-7.0-1.0-1.0-0.0-0.14","3","4","4","3","4","3","4","4","3","3","5","4","3","4","4","4","5","4","5","5","2","2","3","1","2","2","1","2","2","1","0","0","1","0","1","0","1","1","0","1","0","0","0","0","4","1","2","1","3","5","4","4","4","5","2","779748154852773890","余","458","","","","nonmatch","","","","","","","","","","","","","","key","j","16.574257425742573","720","446","j","true","nonmatch","img/pentagon.png","椭圆","五边","ALT1_2","prac_ALT1_2","","","","","","","","","","","",""
"null","<span style='color:GreenYellow; font-size: 70px;'>正确! </span>","null","html-keyboard-response","38","152561","0.0-7.0-1.0-1.0-0.0-1.14","3","4","4","3","4","3","4","4","3","3","5","4","3","4","4","4","5","4","5","5","2","2","3","1","2","2","1","2","2","1","0","0","1","0","1","0","1","1","0","1","0","0","0","0","4","1","2","1","3","5","4","4","4","5","2","779748154852773890","余","458","","","","","","","","","","","","","","","","","","","","","","","","","","","","","","feedback_test","","","","","","","","","","","",""
"673","","j","psychophysics","39","154241","0.0-7.0-1.0-1.0-0.0-0.15","3","4","4","3","4","3","4","4","3","3","5","4","3","4","4","4","5","4","5","5","2","2","3","1","2","2","1","2","2","1","0","0","1","0","1","0","1","1","0","1","0","0","0","0","4","1","2","1","3","5","4","4","4","5","2","779748154852773890","余","458","","","","nonmatch","","","","","","","","","","","","","","key","j","16.636363636363637","720","446","j","true","nonmatch","img/pentagon.png","方形","五边","ALT1_2","prac_ALT1_2","","","","","","","","","","","",""
"null","<span style='color:GreenYellow; font-size: 70px;'>正确! </span>","null","html-keyboard-response","40","154741","0.0-7.0-1.0-1.0-0.0-1.15","3","4","4","3","4","3","4","4","3","3","5","4","3","4","4","4","5","4","5","5","2","2","3","1","2","2","1","2","2","1","0","0","1","0","1","0","1","1","0","1","0","0","0","0","4","1","2","1","3","5","4","4","4","5","2","779748154852773890","余","458","","","","","","","","","","","","","","","","","","","","","","","","","","","","","","feedback_test","","","","","","","","","","","",""
"629","","f","psychophysics","41","156376","0.0-7.0-1.0-1.0-0.0-0.16","3","4","4","3","4","3","4","4","3","3","5","4","3","4","4","4","5","4","5","5","2","2","3","1","2","2","1","2","2","1","0","0","1","0","1","0","1","1","0","1","0","0","0","0","4","1","2","1","3","5","4","4","4","5","2","779748154852773890","余","458","","","","match","","","","","","","","","","","","","","key","f","16.642105263157895","720","446","f","true","match","img/diamond.png","菱形","菱形","ALT1_2","prac_ALT1_2","","","","","","","","","","","",""
"null","<span style='color:GreenYellow; font-size: 70px;'>正确! </span>","null","html-keyboard-response","42","156892","0.0-7.0-1.0-1.0-0.0-1.16","3","4","4","3","4","3","4","4","3","3","5","4","3","4","4","4","5","4","5","5","2","2","3","1","2","2","1","2","2","1","0","0","1","0","1","0","1","1","0","1","0","0","0","0","4","1","2","1","3","5","4","4","4","5","2","779748154852773890","余","458","","","","","","","","","","","","","","","","","","","","","","","","","","","","","","feedback_test","","","","","","","","","","","",""
"658","","f","psychophysics","43","158572","0.0-7.0-1.0-1.0-0.0-0.17","3","4","4","3","4","3","4","4","3","3","5","4","3","4","4","4","5","4","5","5","2","2","3","1","2","2","1","2","2","1","0","0","1","0","1","0","1","1","0","1","0","0","0","0","4","1","2","1","3","5","4","4","4","5","2","779748154852773890","余","458","","","","match","","","","","","","","","","","","","","key","f","16.606060606060606","720","446","f","true","match","img/square.png","方形","方形","ALT1_2","prac_ALT1_2","","","","","","","","","","","",""
"null","<span style='color:GreenYellow; font-size: 70px;'>正确! </span>","null","html-keyboard-response","44","159073","0.0-7.0-1.0-1.0-0.0-1.17","3","4","4","3","4","3","4","4","3","3","5","4","3","4","4","4","5","4","5","5","2","2","3","1","2","2","1","2","2","1","0","0","1","0","1","0","1","1","0","1","0","0","0","0","4","1","2","1","3","5","4","4","4","5","2","779748154852773890","余","458","","","","","","","","","","","","","","","","","","","","","","","","","","","","","","feedback_test","","","","","","","","","","","",""
"702","","f","psychophysics","45","160776","0.0-7.0-1.0-1.0-0.0-0.18","3","4","4","3","4","3","4","4","3","3","5","4","3","4","4","4","5","4","5","5","2","2","3","1","2","2","1","2","2","1","0","0","1","0","1","0","1","1","0","1","0","0","0","0","4","1","2","1","3","5","4","4","4","5","2","779748154852773890","余","458","","","","match","","","","","","","","","","","","","","key","f","16.66","720","446","f","true","match","img/pentagon.png","五边","五边","ALT1_2","prac_ALT1_2","","","","","","","","","","","",""
"null","<span style='color:GreenYellow; font-size: 70px;'>正确! </span>","null","html-keyboard-response","46","161289","0.0-7.0-1.0-1.0-0.0-1.18","3","4","4","3","4","3","4","4","3","3","5","4","3","4","4","4","5","4","5","5","2","2","3","1","2","2","1","2","2","1","0","0","1","0","1","0","1","1","0","1","0","0","0","0","4","1","2","1","3","5","4","4","4","5","2","779748154852773890","余","458","","","","","","","","","","","","","","","","","","","","","","","","","","","","","","feedback_test","","","","","","","","","","","",""
"639","","f","psychophysics","47","162933","0.0-7.0-1.0-1.0-0.0-0.19","3","4","4","3","4","3","4","4","3","3","5","4","3","4","4","4","5","4","5","5","2","2","3","1","2","2","1","2","2","1","0","0","1","0","1","0","1","1","0","1","0","0","0","0","4","1","2","1","3","5","4","4","4","5","2","779748154852773890","余","458","","","","match","","","","","","","","","","","","","","key","f","16.653061224489797","720","446","f","true","match","img/pentagon.png","五边","五边","ALT1_2","prac_ALT1_2","","","","","","","","","","","",""
"null","<span style='color:GreenYellow; font-size: 70px;'>正确! </span>","null","html-keyboard-response","48","163445","0.0-7.0-1.0-1.0-0.0-1.19","3","4","4","3","4","3","4","4","3","3","5","4","3","4","4","4","5","4","5","5","2","2","3","1","2","2","1","2","2","1","0","0","1","0","1","0","1","1","0","1","0","0","0","0","4","1","2","1","3","5","4","4","4","5","2","779748154852773890","余","458","","","","","","","","","","","","","","","","","","","","","","","","","","","","","","feedback_test","","","","","","","","","","","",""
"649","","f","psychophysics","49","165110","0.0-7.0-1.0-1.0-0.0-0.20","3","4","4","3","4","3","4","4","3","3","5","4","3","4","4","4","5","4","5","5","2","2","3","1","2","2","1","2","2","1","0","0","1","0","1","0","1","1","0","1","0","0","0","0","4","1","2","1","3","5","4","4","4","5","2","779748154852773890","余","458","","","","match","","","","","","","","","","","","","","key","f","16.822916666666668","720","446","f","true","match","img/ellipse.png","椭圆","椭圆","ALT1_2","prac_ALT1_2","","","","","","","","","","","",""
"null","<span style='color:GreenYellow; font-size: 70px;'>正确! </span>","null","html-keyboard-response","50","165619","0.0-7.0-1.0-1.0-0.0-1.20","3","4","4","3","4","3","4","4","3","3","5","4","3","4","4","4","5","4","5","5","2","2","3","1","2","2","1","2","2","1","0","0","1","0","1","0","1","1","0","1","0","0","0","0","4","1","2","1","3","5","4","4","4","5","2","779748154852773890","余","458","","","","","","","","","","","","","","","","","","","","","","","","","","","","","","feedback_test","","","","","","","","","","","",""
"708","","j","psychophysics","51","167333","0.0-7.0-1.0-1.0-0.0-0.21","3","4","4","3","4","3","4","4","3","3","5","4","3","4","4","4","5","4","5","5","2","2","3","1","2","2","1","2","2","1","0","0","1","0","1","0","1","1","0","1","0","0","0","0","4","1","2","1","3","5","4","4","4","5","2","779748154852773890","余","458","","","","nonmatch","","","","","","","","","","","","","","key","j","16.666666666666668","720","446","j","true","nonmatch","img/square.png","五边","方形","ALT1_2","prac_ALT1_2","","","","","","","","","","","",""
"null","<span style='color:GreenYellow; font-size: 70px;'>正确! </span>","null","html-keyboard-response","52","167837","0.0-7.0-1.0-1.0-0.0-1.21","3","4","4","3","4","3","4","4","3","3","5","4","3","4","4","4","5","4","5","5","2","2","3","1","2","2","1","2","2","1","0","0","1","0","1","0","1","1","0","1","0","0","0","0","4","1","2","1","3","5","4","4","4","5","2","779748154852773890","余","458","","","","","","","","","","","","","","","","","","","","","","","","","","","","","","feedback_test","","","","","","","","","","","",""
"646","","f","psychophysics","53","169487","0.0-7.0-1.0-1.0-0.0-0.22","3","4","4","3","4","3","4","4","3","3","5","4","3","4","4","4","5","4","5","5","2","2","3","1","2","2","1","2","2","1","0","0","1","0","1","0","1","1","0","1","0","0","0","0","4","1","2","1","3","5","4","4","4","5","2","779748154852773890","余","458","","","","match","","","","","","","","","","","","","","key","f","17.060510638297817","720","446","j","false","nonmatch","img/diamond.png","方形","菱形","ALT1_2","prac_ALT1_2","","","","","","","","","","","",""
"null","<span style='color:red; font-size: 70px;'>错误! </span>","null","html-keyboard-response","54","169991","0.0-7.0-1.0-1.0-0.0-1.22","3","4","4","3","4","3","4","4","3","3","5","4","3","4","4","4","5","4","5","5","2","2","3","1","2","2","1","2","2","1","0","0","1","0","1","0","1","1","0","1","0","0","0","0","4","1","2","1","3","5","4","4","4","5","2","779748154852773890","余","458","","","","","","","","","","","","","","","","","","","","","","","","","","","","","","feedback_test","","","","","","","","","","","",""
"568","","j","psychophysics","55","171597","0.0-7.0-1.0-1.0-0.0-0.23","3","4","4","3","4","3","4","4","3","3","5","4","3","4","4","4","5","4","5","5","2","2","3","1","2","2","1","2","2","1","0","0","1","0","1","0","1","1","0","1","0","0","0","0","4","1","2","1","3","5","4","4","4","5","2","779748154852773890","余","458","","","","nonmatch","","","","","","","","","","","","","","key","j","16.75531914893617","720","446","j","true","nonmatch","img/square.png","椭圆","方形","ALT1_2","prac_ALT1_2","","","","","","","","","","","",""
"null","<span style='color:GreenYellow; font-size: 70px;'>正确! </span>","null","html-keyboard-response","56","172097","0.0-7.0-1.0-1.0-0.0-1.23","3","4","4","3","4","3","4","4","3","3","5","4","3","4","4","4","5","4","5","5","2","2","3","1","2","2","1","2","2","1","0","0","1","0","1","0","1","1","0","1","0","0","0","0","4","1","2","1","3","5","4","4","4","5","2","779748154852773890","余","458","","","","","","","","","","","","","","","","","","","","","","","","","","","","","","feedback_test","","","","","","","","","","","",""
"717","","j","psychophysics","57","173814","0.0-7.0-1.0-1.0-0.0-0.24","3","4","4","3","4","3","4","4","3","3","5","4","3","4","4","4","5","4","5","5","2","2","3","1","2","2","1","2","2","1","0","0","1","0","1","0","1","1","0","1","0","0","0","0","4","1","2","1","3","5","4","4","4","5","2","779748154852773890","余","458","","","","nonmatch","","","","","","","","","","","","","","key","j","16.544554455445546","720","446","j","true","nonmatch","img/pentagon.png","方形","五边","ALT1_2","prac_ALT1_2","","","","","","","","","","","",""
"null","<span style='color:GreenYellow; font-size: 70px;'>正确! </span>","null","html-keyboard-response","58","174321","0.0-7.0-1.0-1.0-0.0-1.24","3","4","4","3","4","3","4","4","3","3","5","4","3","4","4","4","5","4","5","5","2","2","3","1","2","2","1","2","2","1","0","0","1","0","1","0","1","1","0","1","0","0","0","0","4","1","2","1","3","5","4","4","4","5","2","779748154852773890","余","458","","","","","","","","","","","","","","","","","","","","","","","","","","","","","","feedback_test","","","","","","","","","","","",""
"660","","f","psychophysics","59","175983","0.0-7.0-1.0-1.0-0.0-0.25","3","4","4","3","4","3","4","4","3","3","5","4","3","4","4","4","5","4","5","5","2","2","3","1","2","2","1","2","2","1","0","0","1","0","1","0","1","1","0","1","0","0","0","0","4","1","2","1","3","5","4","4","4","5","2","779748154852773890","余","458","","","","match","","","","","","","","","","","","","","key","f","17.147368421052633","720","446","f","true","match","img/ellipse.png","椭圆","椭圆","ALT1_2","prac_ALT1_2","","","","","","","","","","","",""
"null","<span style='color:GreenYellow; font-size: 70px;'>正确! </span>","null","html-keyboard-response","60","176490","0.0-7.0-1.0-1.0-0.0-1.25","3","4","4","3","4","3","4","4","3","3","5","4","3","4","4","4","5","4","5","5","2","2","3","1","2","2","1","2","2","1","0","0","1","0","1","0","1","1","0","1","0","0","0","0","4","1","2","1","3","5","4","4","4","5","2","779748154852773890","余","458","","","","","","","","","","","","","","","","","","","","","","","","","","","","","","feedback_test","","","","","","","","","","","",""
"713","","f","psychophysics","61","178212","0.0-7.0-1.0-1.0-0.0-0.26","3","4","4","3","4","3","4","4","3","3","5","4","3","4","4","4","5","4","5","5","2","2","3","1","2","2","1","2","2","1","0","0","1","0","1","0","1","1","0","1","0","0","0","0","4","1","2","1","3","5","4","4","4","5","2","779748154852773890","余","458","","","","match","","","","","","","","","","","","","","key","f","16.725490196078432","720","446","f","true","match","img/square.png","方形","方形","ALT1_2","prac_ALT1_2","","","","","","","","","","","",""
"null","<span style='color:GreenYellow; font-size: 70px;'>正确! </span>","null","html-keyboard-response","62","178738","0.0-7.0-1.0-1.0-0.0-1.26","3","4","4","3","4","3","4","4","3","3","5","4","3","4","4","4","5","4","5","5","2","2","3","1","2","2","1","2","2","1","0","0","1","0","1","0","1","1","0","1","0","0","0","0","4","1","2","1","3","5","4","4","4","5","2","779748154852773890","余","458","","","","","","","","","","","","","","","","","","","","","","","","","","","","","","feedback_test","","","","","","","","","","","",""
"589","","f","psychophysics","63","180334","0.0-7.0-1.0-1.0-0.0-0.27","3","4","4","3","4","3","4","4","3","3","5","4","3","4","4","4","5","4","5","5","2","2","3","1","2","2","1","2","2","1","0","0","1","0","1","0","1","1","0","1","0","0","0","0","4","1","2","1","3","5","4","4","4","5","2","779748154852773890","余","458","","","","match","","","","","","","","","","","","","","key","f","16.73404255319149","720","446","f","true","match","img/pentagon.png","五边","五边","ALT1_2","prac_ALT1_2","","","","","","","","","","","",""
"null","<span style='color:GreenYellow; font-size: 70px;'>正确! </span>","null","html-keyboard-response","64","180846","0.0-7.0-1.0-1.0-0.0-1.27","3","4","4","3","4","3","4","4","3","3","5","4","3","4","4","4","5","4","5","5","2","2","3","1","2","2","1","2","2","1","0","0","1","0","1","0","1","1","0","1","0","0","0","0","4","1","2","1","3","5","4","4","4","5","2","779748154852773890","余","458","","","","","","","","","","","","","","","","","","","","","","","","","","","","","","feedback_test","","","","","","","","","","","",""
"844","","j","psychophysics","65","182699","0.0-7.0-1.0-1.0-0.0-0.28","3","4","4","3","4","3","4","4","3","3","5","4","3","4","4","4","5","4","5","5","2","2","3","1","2","2","1","2","2","1","0","0","1","0","1","0","1","1","0","1","0","0","0","0","4","1","2","1","3","5","4","4","4","5","2","779748154852773890","余","458","","","","nonmatch","","","","","","","","","","","","","","key","j","16.87037037037037","720","446","f","false","match","img/diamond.png","菱形","菱形","ALT1_2","prac_ALT1_2","","","","","","","","","","","",""
"null","<span style='color:red; font-size: 70px;'>错误! </span>","null","html-keyboard-response","66","183215","0.0-7.0-1.0-1.0-0.0-1.28","3","4","4","3","4","3","4","4","3","3","5","4","3","4","4","4","5","4","5","5","2","2","3","1","2","2","1","2","2","1","0","0","1","0","1","0","1","1","0","1","0","0","0","0","4","1","2","1","3","5","4","4","4","5","2","779748154852773890","余","458","","","","","","","","","","","","","","","","","","","","","","","","","","","","","","feedback_test","","","","","","","","","","","",""
"544","","f","psychophysics","67","184762","0.0-7.0-1.0-1.0-0.0-0.29","3","4","4","3","4","3","4","4","3","3","5","4","3","4","4","4","5","4","5","5","2","2","3","1","2","2","1","2","2","1","0","0","1","0","1","0","1","1","0","1","0","0","0","0","4","1","2","1","3","5","4","4","4","5","2","779748154852773890","余","458","","","","match","","","","","","","","","","","","","","key","f","16.64835164835165","720","446","f","true","match","img/square.png","方形","方形","ALT1_2","prac_ALT1_2","","","","","","","","","","","",""
"null","<span style='color:GreenYellow; font-size: 70px;'>正确! </span>","null","html-keyboard-response","68","185276","0.0-7.0-1.0-1.0-0.0-1.29","3","4","4","3","4","3","4","4","3","3","5","4","3","4","4","4","5","4","5","5","2","2","3","1","2","2","1","2","2","1","0","0","1","0","1","0","1","1","0","1","0","0","0","0","4","1","2","1","3","5","4","4","4","5","2","779748154852773890","余","458","","","","","","","","","","","","","","","","","","","","","","","","","","","","","","feedback_test","","","","","","","","","","","",""
"642","","j","psychophysics","69","186918","0.0-7.0-1.0-1.0-0.0-0.30","3","4","4","3","4","3","4","4","3","3","5","4","3","4","4","4","5","4","5","5","2","2","3","1","2","2","1","2","2","1","0","0","1","0","1","0","1","1","0","1","0","0","0","0","4","1","2","1","3","5","4","4","4","5","2","779748154852773890","余","458","","","","nonmatch","","","","","","","","","","","","","","key","j","16.649484536082475","720","446","j","true","nonmatch","img/square.png","椭圆","方形","ALT1_2","prac_ALT1_2","","","","","","","","","","","",""
"null","<span style='color:GreenYellow; font-size: 70px;'>正确! </span>","null","html-keyboard-response","70","187421","0.0-7.0-1.0-1.0-0.0-1.30","3","4","4","3","4","3","4","4","3","3","5","4","3","4","4","4","5","4","5","5","2","2","3","1","2","2","1","2","2","1","0","0","1","0","1","0","1","1","0","1","0","0","0","0","4","1","2","1","3","5","4","4","4","5","2","779748154852773890","余","458","","","","","","","","","","","","","","","","","","","","","","","","","","","","","","feedback_test","","","","","","","","","","","",""
"797","","j","psychophysics","71","189236","0.0-7.0-1.0-1.0-0.0-0.31","3","4","4","3","4","3","4","4","3","3","5","4","3","4","4","4","5","4","5","5","2","2","3","1","2","2","1","2","2","1","0","0","1","0","1","0","1","1","0","1","0","0","0","0","4","1","2","1","3","5","4","4","4","5","2","779748154852773890","余","458","","","","nonmatch","","","","","","","","","","","","","","key","j","16.648168224298992","720","446","j","true","nonmatch","img/pentagon.png","菱形","五边","ALT1_2","prac_ALT1_2","","","","","","","","","","","",""
"null","<span style='color:GreenYellow; font-size: 70px;'>正确! </span>","null","html-keyboard-response","72","189740","0.0-7.0-1.0-1.0-0.0-1.31","3","4","4","3","4","3","4","4","3","3","5","4","3","4","4","4","5","4","5","5","2","2","3","1","2","2","1","2","2","1","0","0","1","0","1","0","1","1","0","1","0","0","0","0","4","1","2","1","3","5","4","4","4","5","2","779748154852773890","余","458","","","","","","","","","","","","","","","","","","","","","","","","","","","","","","feedback_test","","","","","","","","","","","",""
"657","","f","psychophysics","73","191426","0.0-7.0-1.0-1.0-0.0-0.32","3","4","4","3","4","3","4","4","3","3","5","4","3","4","4","4","5","4","5","5","2","2","3","1","2","2","1","2","2","1","0","0","1","0","1","0","1","1","0","1","0","0","0","0","4","1","2","1","3","5","4","4","4","5","2","779748154852773890","余","458","","","","match","","","","","","","","","","","","","","key","f","16.7","720","446","f","true","match","img/ellipse.png","椭圆","椭圆","ALT1_2","prac_ALT1_2","","","","","","","","","","","",""
"null","<span style='color:GreenYellow; font-size: 70px;'>正确! </span>","null","html-keyboard-response","74","191941","0.0-7.0-1.0-1.0-0.0-1.32","3","4","4","3","4","3","4","4","3","3","5","4","3","4","4","4","5","4","5","5","2","2","3","1","2","2","1","2","2","1","0","0","1","0","1","0","1","1","0","1","0","0","0","0","4","1","2","1","3","5","4","4","4","5","2","779748154852773890","余","458","","","","","","","","","","","","","","","","","","","","","","","","","","","","","","feedback_test","","","","","","","","","","","",""
"642","","f","psychophysics","75","193589","0.0-7.0-1.0-1.0-0.0-0.33","3","4","4","3","4","3","4","4","3","3","5","4","3","4","4","4","5","4","5","5","2","2","3","1","2","2","1","2","2","1","0","0","1","0","1","0","1","1","0","1","0","0","0","0","4","1","2","1","3","5","4","4","4","5","2","779748154852773890","余","458","","","","match","","","","","","","","","","","","","","key","f","16.602040816326532","720","446","f","true","match","img/ellipse.png","椭圆","椭圆","ALT1_2","prac_ALT1_2","","","","","","","","","","","",""
"null","<span style='color:GreenYellow; font-size: 70px;'>正确! </span>","null","html-keyboard-response","76","194097","0.0-7.0-1.0-1.0-0.0-1.33","3","4","4","3","4","3","4","4","3","3","5","4","3","4","4","4","5","4","5","5","2","2","3","1","2","2","1","2","2","1","0","0","1","0","1","0","1","1","0","1","0","0","0","0","4","1","2","1","3","5","4","4","4","5","2","779748154852773890","余","458","","","","","","","","","","","","","","","","","","","","","","","","","","","","","","feedback_test","","","","","","","","","","","",""
"610","","j","psychophysics","77","195707","0.0-7.0-1.0-1.0-0.0-0.34","3","4","4","3","4","3","4","4","3","3","5","4","3","4","4","4","5","4","5","5","2","2","3","1","2","2","1","2","2","1","0","0","1","0","1","0","1","1","0","1","0","0","0","0","4","1","2","1","3","5","4","4","4","5","2","779748154852773890","余","458","","","","nonmatch","","","","","","","","","","","","","","key","j","16.59375","720","446","j","true","nonmatch","img/square.png","菱形","方形","ALT1_2","prac_ALT1_2","","","","","","","","","","","",""
"null","<span style='color:GreenYellow; font-size: 70px;'>正确! </span>","null","html-keyboard-response","78","196217","0.0-7.0-1.0-1.0-0.0-1.34","3","4","4","3","4","3","4","4","3","3","5","4","3","4","4","4","5","4","5","5","2","2","3","1","2","2","1","2","2","1","0","0","1","0","1","0","1","1","0","1","0","0","0","0","4","1","2","1","3","5","4","4","4","5","2","779748154852773890","余","458","","","","","","","","","","","","","","","","","","","","","","","","","","","","","","feedback_test","","","","","","","","","","","",""
"637","","f","psychophysics","79","197884","0.0-7.0-1.0-1.0-0.0-0.35","3","4","4","3","4","3","4","4","3","3","5","4","3","4","4","4","5","4","5","5","2","2","3","1","2","2","1","2","2","1","0","0","1","0","1","0","1","1","0","1","0","0","0","0","4","1","2","1","3","5","4","4","4","5","2","779748154852773890","余","458","","","","match","","","","","","","","","","","","","","key","f","16.49484536082474","720","446","f","true","match","img/pentagon.png","五边","五边","ALT1_2","prac_ALT1_2","","","","","","","","","","","",""
"null","<span style='color:GreenYellow; font-size: 70px;'>正确! </span>","null","html-keyboard-response","80","198393","0.0-7.0-1.0-1.0-0.0-1.35","3","4","4","3","4","3","4","4","3","3","5","4","3","4","4","4","5","4","5","5","2","2","3","1","2","2","1","2","2","1","0","0","1","0","1","0","1","1","0","1","0","0","0","0","4","1","2","1","3","5","4","4","4","5","2","779748154852773890","余","458","","","","","","","","","","","","","","","","","","","","","","","","","","","","","","feedback_test","","","","","","","","","","","",""
"594","","j","psychophysics","81","199989","0.0-7.0-1.0-1.0-0.0-0.36","3","4","4","3","4","3","4","4","3","3","5","4","3","4","4","4","5","4","5","5","2","2","3","1","2","2","1","2","2","1","0","0","1","0","1","0","1","1","0","1","0","0","0","0","4","1","2","1","3","5","4","4","4","5","2","779748154852773890","余","458","","","","nonmatch","","","","","","","","","","","","","","key","j","16.79787234042553","720","446","j","true","nonmatch","img/diamond.png","椭圆","菱形","ALT1_2","prac_ALT1_2","","","","","","","","","","","",""
"null","<span style='color:GreenYellow; font-size: 70px;'>正确! </span>","null","html-keyboard-response","82","200489","0.0-7.0-1.0-1.0-0.0-1.36","3","4","4","3","4","3","4","4","3","3","5","4","3","4","4","4","5","4","5","5","2","2","3","1","2","2","1","2","2","1","0","0","1","0","1","0","1","1","0","1","0","0","0","0","4","1","2","1","3","5","4","4","4","5","2","779748154852773890","余","458","","","","","","","","","","","","","","","","","","","","","","","","","","","","","","feedback_test","","","","","","","","","","","",""
"688","","j","psychophysics","83","202179","0.0-7.0-1.0-1.0-0.0-0.37","3","4","4","3","4","3","4","4","3","3","5","4","3","4","4","4","5","4","5","5","2","2","3","1","2","2","1","2","2","1","0","0","1","0","1","0","1","1","0","1","0","0","0","0","4","1","2","1","3","5","4","4","4","5","2","779748154852773890","余","458","","","","nonmatch","","","","","","","","","","","","","","key","j","16.74851020408155","720","446","j","true","nonmatch","img/pentagon.png","椭圆","五边","ALT1_2","prac_ALT1_2","","","","","","","","","","","",""
"null","<span style='color:GreenYellow; font-size: 70px;'>正确! </span>","null","html-keyboard-response","84","202679","0.0-7.0-1.0-1.0-0.0-1.37","3","4","4","3","4","3","4","4","3","3","5","4","3","4","4","4","5","4","5","5","2","2","3","1","2","2","1","2","2","1","0","0","1","0","1","0","1","1","0","1","0","0","0","0","4","1","2","1","3","5","4","4","4","5","2","779748154852773890","余","458","","","","","","","","","","","","","","","","","","","","","","","","","","","","","","feedback_test","","","","","","","","","","","",""
"631","","j","psychophysics","85","204319","0.0-7.0-1.0-1.0-0.0-0.38","3","4","4","3","4","3","4","4","3","3","5","4","3","4","4","4","5","4","5","5","2","2","3","1","2","2","1","2","2","1","0","0","1","0","1","0","1","1","0","1","0","0","0","0","4","1","2","1","3","5","4","4","4","5","2","779748154852773890","余","458","","","","nonmatch","","","","","","","","","","","","","","key","j","16.670103092783506","720","446","j","true","nonmatch","img/ellipse.png","方形","椭圆","ALT1_2","prac_ALT1_2","","","","","","","","","","","",""
"null","<span style='color:GreenYellow; font-size: 70px;'>正确! </span>","null","html-keyboard-response","86","204835","0.0-7.0-1.0-1.0-0.0-1.38","3","4","4","3","4","3","4","4","3","3","5","4","3","4","4","4","5","4","5","5","2","2","3","1","2","2","1","2","2","1","0","0","1","0","1","0","1","1","0","1","0","0","0","0","4","1","2","1","3","5","4","4","4","5","2","779748154852773890","余","458","","","","","","","","","","","","","","","","","","","","","","","","","","","","","","feedback_test","","","","","","","","","","","",""
"816","","j","psychophysics","87","206657","0.0-7.0-1.0-1.0-0.0-0.39","3","4","4","3","4","3","4","4","3","3","5","4","3","4","4","4","5","4","5","5","2","2","3","1","2","2","1","2","2","1","0","0","1","0","1","0","1","1","0","1","0","0","0","0","4","1","2","1","3","5","4","4","4","5","2","779748154852773890","余","458","","","","nonmatch","","","","","","","","","","","","","","key","j","16.885714285714286","720","446","j","true","nonmatch","img/diamond.png","五边","菱形","ALT1_2","prac_ALT1_2","","","","","","","","","","","",""
"null","<span style='color:GreenYellow; font-size: 70px;'>正确! </span>","null","html-keyboard-response","88","207168","0.0-7.0-1.0-1.0-0.0-1.39","3","4","4","3","4","3","4","4","3","3","5","4","3","4","4","4","5","4","5","5","2","2","3","1","2","2","1","2","2","1","0","0","1","0","1","0","1","1","0","1","0","0","0","0","4","1","2","1","3","5","4","4","4","5","2","779748154852773890","余","458","","","","","","","","","","","","","","","","","","","","","","","","","","","","","","feedback_test","","","","","","","","","","","",""
"658","","j","psychophysics","89","208834","0.0-7.0-1.0-1.0-0.0-0.40","3","4","4","3","4","3","4","4","3","3","5","4","3","4","4","4","5","4","5","5","2","2","3","1","2","2","1","2","2","1","0","0","1","0","1","0","1","1","0","1","0","0","0","0","4","1","2","1","3","5","4","4","4","5","2","779748154852773890","余","458","","","","nonmatch","","","","","","","","","","","","","","key","j","16.581632653061224","720","446","j","true","nonmatch","img/square.png","五边","方形","ALT1_2","prac_ALT1_2","","","","","","","","","","","",""
"null","<span style='color:GreenYellow; font-size: 70px;'>正确! </span>","null","html-keyboard-response","90","209334","0.0-7.0-1.0-1.0-0.0-1.40","3","4","4","3","4","3","4","4","3","3","5","4","3","4","4","4","5","4","5","5","2","2","3","1","2","2","1","2","2","1","0","0","1","0","1","0","1","1","0","1","0","0","0","0","4","1","2","1","3","5","4","4","4","5","2","779748154852773890","余","458","","","","","","","","","","","","","","","","","","","","","","","","","","","","","","feedback_test","","","","","","","","","","","",""
"703","","f","psychophysics","91","211053","0.0-7.0-1.0-1.0-0.0-0.41","3","4","4","3","4","3","4","4","3","3","5","4","3","4","4","4","5","4","5","5","2","2","3","1","2","2","1","2","2","1","0","0","1","0","1","0","1","1","0","1","0","0","0","0","4","1","2","1","3","5","4","4","4","5","2","779748154852773890","余","458","","","","match","","","","","","","","","","","","","","key","f","16.485148514851485","720","446","f","true","match","img/square.png","方形","方形","ALT1_2","prac_ALT1_2","","","","","","","","","","","",""
"null","<span style='color:GreenYellow; font-size: 70px;'>正确! </span>","null","html-keyboard-response","92","211567","0.0-7.0-1.0-1.0-0.0-1.41","3","4","4","3","4","3","4","4","3","3","5","4","3","4","4","4","5","4","5","5","2","2","3","1","2","2","1","2","2","1","0","0","1","0","1","0","1","1","0","1","0","0","0","0","4","1","2","1","3","5","4","4","4","5","2","779748154852773890","余","458","","","","","","","","","","","","","","","","","","","","","","","","","","","","","","feedback_test","","","","","","","","","","","",""
"875","","j","psychophysics","93","213453","0.0-7.0-1.0-1.0-0.0-0.42","3","4","4","3","4","3","4","4","3","3","5","4","3","4","4","4","5","4","5","5","2","2","3","1","2","2","1","2","2","1","0","0","1","0","1","0","1","1","0","1","0","0","0","0","4","1","2","1","3","5","4","4","4","5","2","779748154852773890","余","458","","","","nonmatch","","","","","","","","","","","","","","key","j","16.824436363636316","720","446","j","true","nonmatch","img/ellipse.png","菱形","椭圆","ALT1_2","prac_ALT1_2","","","","","","","","","","","",""
"null","<span style='color:GreenYellow; font-size: 70px;'>正确! </span>","null","html-keyboard-response","94","213962","0.0-7.0-1.0-1.0-0.0-1.42","3","4","4","3","4","3","4","4","3","3","5","4","3","4","4","4","5","4","5","5","2","2","3","1","2","2","1","2","2","1","0","0","1","0","1","0","1","1","0","1","0","0","0","0","4","1","2","1","3","5","4","4","4","5","2","779748154852773890","余","458","","","","","","","","","","","","","","","","","","","","","","","","","","","","","","feedback_test","","","","","","","","","","","",""
"930","","f","psychophysics","95","215898","0.0-7.0-1.0-1.0-0.0-0.43","3","4","4","3","4","3","4","4","3","3","5","4","3","4","4","4","5","4","5","5","2","2","3","1","2","2","1","2","2","1","0","0","1","0","1","0","1","1","0","1","0","0","0","0","4","1","2","1","3","5","4","4","4","5","2","779748154852773890","余","458","","","","match","","","","","","","","","","","","","","key","f","16.617391304347827","720","446","f","true","match","img/pentagon.png","五边","五边","ALT1_2","prac_ALT1_2","","","","","","","","","","","",""
"null","<span style='color:GreenYellow; font-size: 70px;'>正确! </span>","null","html-keyboard-response","96","216409","0.0-7.0-1.0-1.0-0.0-1.43","3","4","4","3","4","3","4","4","3","3","5","4","3","4","4","4","5","4","5","5","2","2","3","1","2","2","1","2","2","1","0","0","1","0","1","0","1","1","0","1","0","0","0","0","4","1","2","1","3","5","4","4","4","5","2","779748154852773890","余","458","","","","","","","","","","","","","","","","","","","","","","","","","","","","","","feedback_test","","","","","","","","","","","",""
"591","","j","psychophysics","97","218014","0.0-7.0-1.0-1.0-0.0-0.44","3","4","4","3","4","3","4","4","3","3","5","4","3","4","4","4","5","4","5","5","2","2","3","1","2","2","1","2","2","1","0","0","1","0","1","0","1","1","0","1","0","0","0","0","4","1","2","1","3","5","4","4","4","5","2","779748154852773890","余","458","","","","nonmatch","","","","","","","","","","","","","","key","j","16.80851063829787","720","446","j","true","nonmatch","img/ellipse.png","五边","椭圆","ALT1_2","prac_ALT1_2","","","","","","","","","","","",""
"null","<span style='color:GreenYellow; font-size: 70px;'>正确! </span>","null","html-keyboard-response","98","218527","0.0-7.0-1.0-1.0-0.0-1.44","3","4","4","3","4","3","4","4","3","3","5","4","3","4","4","4","5","4","5","5","2","2","3","1","2","2","1","2","2","1","0","0","1","0","1","0","1","1","0","1","0","0","0","0","4","1","2","1","3","5","4","4","4","5","2","779748154852773890","余","458","","","","","","","","","","","","","","","","","","","","","","","","","","","","","","feedback_test","","","","","","","","","","","",""
"635","","f","psychophysics","99","220167","0.0-7.0-1.0-1.0-0.0-0.45","3","4","4","3","4","3","4","4","3","3","5","4","3","4","4","4","5","4","5","5","2","2","3","1","2","2","1","2","2","1","0","0","1","0","1","0","1","1","0","1","0","0","0","0","4","1","2","1","3","5","4","4","4","5","2","779748154852773890","余","458","","","","match","","","","","","","","","","","","","","key","f","16.894736842105264","720","446","f","true","match","img/diamond.png","菱形","菱形","ALT1_2","prac_ALT1_2","","","","","","","","","","","",""
"null","<span style='color:GreenYellow; font-size: 70px;'>正确! </span>","null","html-keyboard-response","100","220680","0.0-7.0-1.0-1.0-0.0-1.45","3","4","4","3","4","3","4","4","3","3","5","4","3","4","4","4","5","4","5","5","2","2","3","1","2","2","1","2","2","1","0","0","1","0","1","0","1","1","0","1","0","0","0","0","4","1","2","1","3","5","4","4","4","5","2","779748154852773890","余","458","","","","","","","","","","","","","","","","","","","","","","","","","","","","","","feedback_test","","","","","","","","","","","",""
"856","","j","psychophysics","101","222543","0.0-7.0-1.0-1.0-0.0-0.46","3","4","4","3","4","3","4","4","3","3","5","4","3","4","4","4","5","4","5","5","2","2","3","1","2","2","1","2","2","1","0","0","1","0","1","0","1","1","0","1","0","0","0","0","4","1","2","1","3","5","4","4","4","5","2","779748154852773890","余","458","","","","nonmatch","","","","","","","","","","","","","","key","j","16.62727272727273","720","446","f","false","match","img/diamond.png","菱形","菱形","ALT1_2","prac_ALT1_2","","","","","","","","","","","",""
"null","<span style='color:red; font-size: 70px;'>错误! </span>","null","html-keyboard-response","102","223055","0.0-7.0-1.0-1.0-0.0-1.46","3","4","4","3","4","3","4","4","3","3","5","4","3","4","4","4","5","4","5","5","2","2","3","1","2","2","1","2","2","1","0","0","1","0","1","0","1","1","0","1","0","0","0","0","4","1","2","1","3","5","4","4","4","5","2","779748154852773890","余","458","","","","","","","","","","","","","","","","","","","","","","","","","","","","","","feedback_test","","","","","","","","","","","",""
"609","","j","psychophysics","103","224671","0.0-7.0-1.0-1.0-0.0-0.47","3","4","4","3","4","3","4","4","3","3","5","4","3","4","4","4","5","4","5","5","2","2","3","1","2","2","1","2","2","1","0","0","1","0","1","0","1","1","0","1","0","0","0","0","4","1","2","1","3","5","4","4","4","5","2","779748154852773890","余","458","","","","nonmatch","","","","","","","","","","","","","","key","j","16.621052631578948","720","446","j","true","nonmatch","img/diamond.png","方形","菱形","ALT1_2","prac_ALT1_2","","","","","","","","","","","",""
"null","<span style='color:GreenYellow; font-size: 70px;'>正确! </span>","null","html-keyboard-response","104","225176","0.0-7.0-1.0-1.0-0.0-1.47","3","4","4","3","4","3","4","4","3","3","5","4","3","4","4","4","5","4","5","5","2","2","3","1","2","2","1","2","2","1","0","0","1","0","1","0","1","1","0","1","0","0","0","0","4","1","2","1","3","5","4","4","4","5","2","779748154852773890","余","458","","","","","","","","","","","","","","","","","","","","","","","","","","","","","","feedback_test","","","","","","","","","","","",""
"30373","<style>.context{color:white; font-size: 35px; line-height:40px}</style>                          <div><p class='context'>您正确回答了92% 的试次。</p><p class='context'>您的平均反应时为674毫秒。</p><p class='context'>恭喜您完成练习。按空格键进入正式实验。</p><p class='footer' style='font-size: 35px; line-height:40px;'>请在进入正式实验实验之前将您的<span style='color: lightgreen;'>食指</span>放在电脑键盘的相应键位上进行按键。</p>"," ","html-keyboard-response","105","255549","0.0-7.0-1.0-2.0","3","4","4","3","4","3","4","4","3","3","5","4","3","4","4","4","5","4","5","5","2","2","3","1","2","2","1","2","2","1","0","0","1","0","1","0","1","1","0","1","0","0","0","0","4","1","2","1","3","5","4","4","4","5","2","779748154852773890","余","458","","","","","","","","","","","","","","","","","","","","","","","","","","","","","","","","","","","","","","","","","",""
"2797","
  <p style='color: white; font-size: 22px'>请您将手指放在按键上，准备进入正式的匹配任务。</p>
  <p> <div style = ""color: green""><按空格键进入下一阶段的匹配任务></div></p>
  "," ","html-keyboard-response","106","258359","0.0-7.0-1.0-3.0","3","4","4","3","4","3","4","4","3","3","5","4","3","4","4","4","5","4","5","5","2","2","3","1","2","2","1","2","2","1","0","0","1","0","1","0","1","1","0","1","0","0","0","0","4","1","2","1","3","5","4","4","4","5","2","779748154852773890","余","458","","","","","","","","","","","","","","","","","","","","","","","","","","","","","","","","","","","","","","","","","",""
"null","","null","psychophysics","107","260575","0.0-7.0-1.0-4.0-0.0-0.0","3","4","4","3","4","3","4","4","3","3","5","4","3","4","4","4","5","4","5","5","2","2","3","1","2","2","1","2","2","1","0","0","1","0","1","0","1","1","0","1","0","0","0","0","4","1","2","1","3","5","4","4","4","5","2","779748154852773890","余","458","","","","null","","","","","","","","","","","","","","key","null","16.77266153846151","720","446","f","false","match","img/diamond.png","菱形","菱形","ALT1","formal_ALT1_2","","","","","","","","","","","",""
"null","<span class='add_' style='color:yellow; font-size: 70px;'> 太慢! </span>","null","html-keyboard-response","108","261088","0.0-7.0-1.0-4.0-0.0-1.0","3","4","4","3","4","3","4","4","3","3","5","4","3","4","4","4","5","4","5","5","2","2","3","1","2","2","1","2","2","1","0","0","1","0","1","0","1","1","0","1","0","0","0","0","4","1","2","1","3","5","4","4","4","5","2","779748154852773890","余","458","","","","","","","","","","","","","","","","","","","","","","","","","","","","","","feedback_test","","","","","","","","","","","",""
"609","","f","psychophysics","109","262716","0.0-7.0-1.0-4.0-0.0-0.1","3","4","4","3","4","3","4","4","3","3","5","4","3","4","4","4","5","4","5","5","2","2","3","1","2","2","1","2","2","1","0","0","1","0","1","0","1","1","0","1","0","0","0","0","4","1","2","1","3","5","4","4","4","5","2","779748154852773890","余","458","","","","match","","","","","","","","","","","","","","key","f","16.625","720","446","f","true","match","img/ellipse.png","椭圆","椭圆","ALT1","formal_ALT1_2","","","","","","","","","","","",""
"null","<span style='color:GreenYellow; font-size: 70px;'>正确! </span>","null","html-keyboard-response","110","263223","0.0-7.0-1.0-4.0-0.0-1.1","3","4","4","3","4","3","4","4","3","3","5","4","3","4","4","4","5","4","5","5","2","2","3","1","2","2","1","2","2","1","0","0","1","0","1","0","1","1","0","1","0","0","0","0","4","1","2","1","3","5","4","4","4","5","2","779748154852773890","余","458","","","","","","","","","","","","","","","","","","","","","","","","","","","","","","feedback_test","","","","","","","","","","","",""
"630","","j","psychophysics","111","264863","0.0-7.0-1.0-4.0-0.0-0.2","3","4","4","3","4","3","4","4","3","3","5","4","3","4","4","4","5","4","5","5","2","2","3","1","2","2","1","2","2","1","0","0","1","0","1","0","1","1","0","1","0","0","0","0","4","1","2","1","3","5","4","4","4","5","2","779748154852773890","余","458","","","","nonmatch","","","","","","","","","","","","","","key","j","16.760416666666668","720","446","j","true","nonmatch","img/ellipse.png","菱形","椭圆","ALT1","formal_ALT1_2","","","","","","","","","","","",""
"null","<span style='color:GreenYellow; font-size: 70px;'>正确! </span>","null","html-keyboard-response","112","265367","0.0-7.0-1.0-4.0-0.0-1.2","3","4","4","3","4","3","4","4","3","3","5","4","3","4","4","4","5","4","5","5","2","2","3","1","2","2","1","2","2","1","0","0","1","0","1","0","1","1","0","1","0","0","0","0","4","1","2","1","3","5","4","4","4","5","2","779748154852773890","余","458","","","","","","","","","","","","","","","","","","","","","","","","","","","","","","feedback_test","","","","","","","","","","","",""
"591","","f","psychophysics","113","266959","0.0-7.0-1.0-4.0-0.0-0.3","3","4","4","3","4","3","4","4","3","3","5","4","3","4","4","4","5","4","5","5","2","2","3","1","2","2","1","2","2","1","0","0","1","0","1","0","1","1","0","1","0","0","0","0","4","1","2","1","3","5","4","4","4","5","2","779748154852773890","余","458","","","","match","","","","","","","","","","","","","","key","f","16.63157894736842","720","446","f","true","match","img/square.png","方形","方形","ALT1","formal_ALT1_2","","","","","","","","","","","",""
"null","<span style='color:GreenYellow; font-size: 70px;'>正确! </span>","null","html-keyboard-response","114","267472","0.0-7.0-1.0-4.0-0.0-1.3","3","4","4","3","4","3","4","4","3","3","5","4","3","4","4","4","5","4","5","5","2","2","3","1","2","2","1","2","2","1","0","0","1","0","1","0","1","1","0","1","0","0","0","0","4","1","2","1","3","5","4","4","4","5","2","779748154852773890","余","458","","","","","","","","","","","","","","","","","","","","","","","","","","","","","","feedback_test","","","","","","","","","","","",""
"632","","f","psychophysics","115","269123","0.0-7.0-1.0-4.0-0.0-0.4","3","4","4","3","4","3","4","4","3","3","5","4","3","4","4","4","5","4","5","5","2","2","3","1","2","2","1","2","2","1","0","0","1","0","1","0","1","1","0","1","0","0","0","0","4","1","2","1","3","5","4","4","4","5","2","779748154852773890","余","458","","","","match","","","","","","","","","","","","","","key","f","16.663265306122447","720","446","f","true","match","img/pentagon.png","五边","五边","ALT1","formal_ALT1_2","","","","","","","","","","","",""
"null","<span style='color:GreenYellow; font-size: 70px;'>正确! </span>","null","html-keyboard-response","116","269627","0.0-7.0-1.0-4.0-0.0-1.4","3","4","4","3","4","3","4","4","3","3","5","4","3","4","4","4","5","4","5","5","2","2","3","1","2","2","1","2","2","1","0","0","1","0","1","0","1","1","0","1","0","0","0","0","4","1","2","1","3","5","4","4","4","5","2","779748154852773890","余","458","","","","","","","","","","","","","","","","","","","","","","","","","","","","","","feedback_test","","","","","","","","","","","",""
"594","","f","psychophysics","117","271222","0.0-7.0-1.0-4.0-0.0-0.5","3","4","4","3","4","3","4","4","3","3","5","4","3","4","4","4","5","4","5","5","2","2","3","1","2","2","1","2","2","1","0","0","1","0","1","0","1","1","0","1","0","0","0","0","4","1","2","1","3","5","4","4","4","5","2","779748154852773890","余","458","","","","match","","","","","","","","","","","","","","key","f","16.638297872340427","720","446","j","false","nonmatch","img/ellipse.png","五边","椭圆","ALT1","formal_ALT1_2","","","","","","","","","","","",""
"null","<span style='color:red; font-size: 70px;'>错误! </span>","null","html-keyboard-response","118","271722","0.0-7.0-1.0-4.0-0.0-1.5","3","4","4","3","4","3","4","4","3","3","5","4","3","4","4","4","5","4","5","5","2","2","3","1","2","2","1","2","2","1","0","0","1","0","1","0","1","1","0","1","0","0","0","0","4","1","2","1","3","5","4","4","4","5","2","779748154852773890","余","458","","","","","","","","","","","","","","","","","","","","","","","","","","","","","","feedback_test","","","","","","","","","","","",""
"613","","f","psychophysics","119","273341","0.0-7.0-1.0-4.0-0.0-0.6","3","4","4","3","4","3","4","4","3","3","5","4","3","4","4","4","5","4","5","5","2","2","3","1","2","2","1","2","2","1","0","0","1","0","1","0","1","1","0","1","0","0","0","0","4","1","2","1","3","5","4","4","4","5","2","779748154852773890","余","458","","","","match","","","","","","","","","","","","","","key","f","16.670212765957448","720","446","f","true","match","img/pentagon.png","五边","五边","ALT1","formal_ALT1_2","","","","","","","","","","","",""
"null","<span style='color:GreenYellow; font-size: 70px;'>正确! </span>","null","html-keyboard-response","120","273842","0.0-7.0-1.0-4.0-0.0-1.6","3","4","4","3","4","3","4","4","3","3","5","4","3","4","4","4","5","4","5","5","2","2","3","1","2","2","1","2","2","1","0","0","1","0","1","0","1","1","0","1","0","0","0","0","4","1","2","1","3","5","4","4","4","5","2","779748154852773890","余","458","","","","","","","","","","","","","","","","","","","","","","","","","","","","","","feedback_test","","","","","","","","","","","",""
"673","","j","psychophysics","121","275534","0.0-7.0-1.0-4.0-0.0-0.7","3","4","4","3","4","3","4","4","3","3","5","4","3","4","4","4","5","4","5","5","2","2","3","1","2","2","1","2","2","1","0","0","1","0","1","0","1","1","0","1","0","0","0","0","4","1","2","1","3","5","4","4","4","5","2","779748154852773890","余","458","","","","nonmatch","","","","","","","","","","","","","","key","j","16.56455445544573","720","446","j","true","nonmatch","img/pentagon.png","菱形","五边","ALT1","formal_ALT1_2","","","","","","","","","","","",""
"null","<span style='color:GreenYellow; font-size: 70px;'>正确! </span>","null","html-keyboard-response","122","276035","0.0-7.0-1.0-4.0-0.0-1.7","3","4","4","3","4","3","4","4","3","3","5","4","3","4","4","4","5","4","5","5","2","2","3","1","2","2","1","2","2","1","0","0","1","0","1","0","1","1","0","1","0","0","0","0","4","1","2","1","3","5","4","4","4","5","2","779748154852773890","余","458","","","","","","","","","","","","","","","","","","","","","","","","","","","","","","feedback_test","","","","","","","","","","","",""
"875","","j","psychophysics","123","277917","0.0-7.0-1.0-4.0-0.0-0.8","3","4","4","3","4","3","4","4","3","3","5","4","3","4","4","4","5","4","5","5","2","2","3","1","2","2","1","2","2","1","0","0","1","0","1","0","1","1","0","1","0","0","0","0","4","1","2","1","3","5","4","4","4","5","2","779748154852773890","余","458","","","","nonmatch","","","","","","","","","","","","","","key","j","16.98148148148148","720","446","j","true","nonmatch","img/pentagon.png","方形","五边","ALT1","formal_ALT1_2","","","","","","","","","","","",""
"null","<span style='color:GreenYellow; font-size: 70px;'>正确! </span>","null","html-keyboard-response","124","278428","0.0-7.0-1.0-4.0-0.0-1.8","3","4","4","3","4","3","4","4","3","3","5","4","3","4","4","4","5","4","5","5","2","2","3","1","2","2","1","2","2","1","0","0","1","0","1","0","1","1","0","1","0","0","0","0","4","1","2","1","3","5","4","4","4","5","2","779748154852773890","余","458","","","","","","","","","","","","","","","","","","","","","","","","","","","","","","feedback_test","","","","","","","","","","","",""
"765","","f","psychophysics","125","280200","0.0-7.0-1.0-4.0-0.0-0.9","3","4","4","3","4","3","4","4","3","3","5","4","3","4","4","4","5","4","5","5","2","2","3","1","2","2","1","2","2","1","0","0","1","0","1","0","1","1","0","1","0","0","0","0","4","1","2","1","3","5","4","4","4","5","2","779748154852773890","余","458","","","","match","","","","","","","","","","","","","","key","f","16.511314285714512","720","446","f","true","match","img/square.png","方形","方形","ALT1","formal_ALT1_2","","","","","","","","","","","",""
"null","<span style='color:GreenYellow; font-size: 70px;'>正确! </span>","null","html-keyboard-response","126","280730","0.0-7.0-1.0-4.0-0.0-1.9","3","4","4","3","4","3","4","4","3","3","5","4","3","4","4","4","5","4","5","5","2","2","3","1","2","2","1","2","2","1","0","0","1","0","1","0","1","1","0","1","0","0","0","0","4","1","2","1","3","5","4","4","4","5","2","779748154852773890","余","458","","","","","","","","","","","","","","","","","","","","","","","","","","","","","","feedback_test","","","","","","","","","","","",""
"578","","f","psychophysics","127","282343","0.0-7.0-1.0-4.0-0.0-0.10","3","4","4","3","4","3","4","4","3","3","5","4","3","4","4","4","5","4","5","5","2","2","3","1","2","2","1","2","2","1","0","0","1","0","1","0","1","1","0","1","0","0","0","0","4","1","2","1","3","5","4","4","4","5","2","779748154852773890","余","458","","","","match","","","","","","","","","","","","","","key","f","17.13067391304345","720","446","f","true","match","img/ellipse.png","椭圆","椭圆","ALT1","formal_ALT1_2","","","","","","","","","","","",""
"null","<span style='color:GreenYellow; font-size: 70px;'>正确! </span>","null","html-keyboard-response","128","282847","0.0-7.0-1.0-4.0-0.0-1.10","3","4","4","3","4","3","4","4","3","3","5","4","3","4","4","4","5","4","5","5","2","2","3","1","2","2","1","2","2","1","0","0","1","0","1","0","1","1","0","1","0","0","0","0","4","1","2","1","3","5","4","4","4","5","2","779748154852773890","余","458","","","","","","","","","","","","","","","","","","","","","","","","","","","","","","feedback_test","","","","","","","","","","","",""
"736","","f","psychophysics","129","284595","0.0-7.0-1.0-4.0-0.0-0.11","3","4","4","3","4","3","4","4","3","3","5","4","3","4","4","4","5","4","5","5","2","2","3","1","2","2","1","2","2","1","0","0","1","0","1","0","1","1","0","1","0","0","0","0","4","1","2","1","3","5","4","4","4","5","2","779748154852773890","余","458","","","","match","","","","","","","","","","","","","","key","f","16.92079207920792","720","446","j","false","nonmatch","img/square.png","菱形","方形","ALT1","formal_ALT1_2","","","","","","","","","","","",""
"null","<span style='color:red; font-size: 70px;'>错误! </span>","null","html-keyboard-response","130","285107","0.0-7.0-1.0-4.0-0.0-1.11","3","4","4","3","4","3","4","4","3","3","5","4","3","4","4","4","5","4","5","5","2","2","3","1","2","2","1","2","2","1","0","0","1","0","1","0","1","1","0","1","0","0","0","0","4","1","2","1","3","5","4","4","4","5","2","779748154852773890","余","458","","","","","","","","","","","","","","","","","","","","","","","","","","","","","","feedback_test","","","","","","","","","","","",""
"636","","f","psychophysics","131","286744","0.0-7.0-1.0-4.0-0.0-0.12","3","4","4","3","4","3","4","4","3","3","5","4","3","4","4","4","5","4","5","5","2","2","3","1","2","2","1","2","2","1","0","0","1","0","1","0","1","1","0","1","0","0","0","0","4","1","2","1","3","5","4","4","4","5","2","779748154852773890","余","458","","","","match","","","","","","","","","","","","","","key","f","16.628865979381445","720","446","f","true","match","img/pentagon.png","五边","五边","ALT1","formal_ALT1_2","","","","","","","","","","","",""
"null","<span style='color:GreenYellow; font-size: 70px;'>正确! </span>","null","html-keyboard-response","132","287252","0.0-7.0-1.0-4.0-0.0-1.12","3","4","4","3","4","3","4","4","3","3","5","4","3","4","4","4","5","4","5","5","2","2","3","1","2","2","1","2","2","1","0","0","1","0","1","0","1","1","0","1","0","0","0","0","4","1","2","1","3","5","4","4","4","5","2","779748154852773890","余","458","","","","","","","","","","","","","","","","","","","","","","","","","","","","","","feedback_test","","","","","","","","","","","",""
"651","","f","psychophysics","133","288912","0.0-7.0-1.0-4.0-0.0-0.13","3","4","4","3","4","3","4","4","3","3","5","4","3","4","4","4","5","4","5","5","2","2","3","1","2","2","1","2","2","1","0","0","1","0","1","0","1","1","0","1","0","0","0","0","4","1","2","1","3","5","4","4","4","5","2","779748154852773890","余","458","","","","match","","","","","","","","","","","","","","key","f","16.646464646464647","720","446","f","true","match","img/square.png","方形","方形","ALT1","formal_ALT1_2","","","","","","","","","","","",""
"null","<span style='color:GreenYellow; font-size: 70px;'>正确! </span>","null","html-keyboard-response","134","289423","0.0-7.0-1.0-4.0-0.0-1.13","3","4","4","3","4","3","4","4","3","3","5","4","3","4","4","4","5","4","5","5","2","2","3","1","2","2","1","2","2","1","0","0","1","0","1","0","1","1","0","1","0","0","0","0","4","1","2","1","3","5","4","4","4","5","2","779748154852773890","余","458","","","","","","","","","","","","","","","","","","","","","","","","","","","","","","feedback_test","","","","","","","","","","","",""
"721","","f","psychophysics","135","291149","0.0-7.0-1.0-4.0-0.0-0.14","3","4","4","3","4","3","4","4","3","3","5","4","3","4","4","4","5","4","5","5","2","2","3","1","2","2","1","2","2","1","0","0","1","0","1","0","1","1","0","1","0","0","0","0","4","1","2","1","3","5","4","4","4","5","2","779748154852773890","余","458","","","","match","","","","","","","","","","","","","","key","f","17.03030303030303","720","446","f","true","match","img/diamond.png","菱形","菱形","ALT1","formal_ALT1_2","","","","","","","","","","","",""
"null","<span style='color:GreenYellow; font-size: 70px;'>正确! </span>","null","html-keyboard-response","136","291649","0.0-7.0-1.0-4.0-0.0-1.14","3","4","4","3","4","3","4","4","3","3","5","4","3","4","4","4","5","4","5","5","2","2","3","1","2","2","1","2","2","1","0","0","1","0","1","0","1","1","0","1","0","0","0","0","4","1","2","1","3","5","4","4","4","5","2","779748154852773890","余","458","","","","","","","","","","","","","","","","","","","","","","","","","","","","","","feedback_test","","","","","","","","","","","",""
"698","","j","psychophysics","137","293357","0.0-7.0-1.0-4.0-0.0-0.15","3","4","4","3","4","3","4","4","3","3","5","4","3","4","4","4","5","4","5","5","2","2","3","1","2","2","1","2","2","1","0","0","1","0","1","0","1","1","0","1","0","0","0","0","4","1","2","1","3","5","4","4","4","5","2","779748154852773890","余","458","","","","nonmatch","","","","","","","","","","","","","","key","j","17.040816326530614","720","446","j","true","nonmatch","img/diamond.png","五边","菱形","ALT1","formal_ALT1_2","","","","","","","","","","","",""
"null","<span style='color:GreenYellow; font-size: 70px;'>正确! </span>","null","html-keyboard-response","138","293868","0.0-7.0-1.0-4.0-0.0-1.15","3","4","4","3","4","3","4","4","3","3","5","4","3","4","4","4","5","4","5","5","2","2","3","1","2","2","1","2","2","1","0","0","1","0","1","0","1","1","0","1","0","0","0","0","4","1","2","1","3","5","4","4","4","5","2","779748154852773890","余","458","","","","","","","","","","","","","","","","","","","","","","","","","","","","","","feedback_test","","","","","","","","","","","",""
"667","","j","psychophysics","139","295555","0.0-7.0-1.0-4.0-0.0-0.16","3","4","4","3","4","3","4","4","3","3","5","4","3","4","4","4","5","4","5","5","2","2","3","1","2","2","1","2","2","1","0","0","1","0","1","0","1","1","0","1","0","0","0","0","4","1","2","1","3","5","4","4","4","5","2","779748154852773890","余","458","","","","nonmatch","","","","","","","","","","","","","","key","j","16.622448979591837","720","446","j","true","nonmatch","img/diamond.png","椭圆","菱形","ALT1","formal_ALT1_2","","","","","","","","","","","",""
"null","<span style='color:GreenYellow; font-size: 70px;'>正确! </span>","null","html-keyboard-response","140","296071","0.0-7.0-1.0-4.0-0.0-1.16","3","4","4","3","4","3","4","4","3","3","5","4","3","4","4","4","5","4","5","5","2","2","3","1","2","2","1","2","2","1","0","0","1","0","1","0","1","1","0","1","0","0","0","0","4","1","2","1","3","5","4","4","4","5","2","779748154852773890","余","458","","","","","","","","","","","","","","","","","","","","","","","","","","","","","","feedback_test","","","","","","","","","","","",""
"757","","j","psychophysics","141","297829","0.0-7.0-1.0-4.0-0.0-0.17","3","4","4","3","4","3","4","4","3","3","5","4","3","4","4","4","5","4","5","5","2","2","3","1","2","2","1","2","2","1","0","0","1","0","1","0","1","1","0","1","0","0","0","0","4","1","2","1","3","5","4","4","4","5","2","779748154852773890","余","458","","","","nonmatch","","","","","","","","","","","","","","key","j","16.59244660194172","720","446","j","true","nonmatch","img/ellipse.png","方形","椭圆","ALT1","formal_ALT1_2","","","","","","","","","","","",""
"null","<span style='color:GreenYellow; font-size: 70px;'>正确! </span>","null","html-keyboard-response","142","298341","0.0-7.0-1.0-4.0-0.0-1.17","3","4","4","3","4","3","4","4","3","3","5","4","3","4","4","4","5","4","5","5","2","2","3","1","2","2","1","2","2","1","0","0","1","0","1","0","1","1","0","1","0","0","0","0","4","1","2","1","3","5","4","4","4","5","2","779748154852773890","余","458","","","","","","","","","","","","","","","","","","","","","","","","","","","","","","feedback_test","","","","","","","","","","","",""
"610","","f","psychophysics","143","299954","0.0-7.0-1.0-4.0-0.0-0.18","3","4","4","3","4","3","4","4","3","3","5","4","3","4","4","4","5","4","5","5","2","2","3","1","2","2","1","2","2","1","0","0","1","0","1","0","1","1","0","1","0","0","0","0","4","1","2","1","3","5","4","4","4","5","2","779748154852773890","余","458","","","","match","","","","","","","","","","","","","","key","f","16.595744680851062","720","446","f","true","match","img/ellipse.png","椭圆","椭圆","ALT1","formal_ALT1_2","","","","","","","","","","","",""
"null","<span style='color:GreenYellow; font-size: 70px;'>正确! </span>","null","html-keyboard-response","144","300454","0.0-7.0-1.0-4.0-0.0-1.18","3","4","4","3","4","3","4","4","3","3","5","4","3","4","4","4","5","4","5","5","2","2","3","1","2","2","1","2","2","1","0","0","1","0","1","0","1","1","0","1","0","0","0","0","4","1","2","1","3","5","4","4","4","5","2","779748154852773890","余","458","","","","","","","","","","","","","","","","","","","","","","","","","","","","","","feedback_test","","","","","","","","","","","",""
"740","","j","psychophysics","145","302197","0.0-7.0-1.0-4.0-0.0-0.19","3","4","4","3","4","3","4","4","3","3","5","4","3","4","4","4","5","4","5","5","2","2","3","1","2","2","1","2","2","1","0","0","1","0","1","0","1","1","0","1","0","0","0","0","4","1","2","1","3","5","4","4","4","5","2","779748154852773890","余","458","","","","nonmatch","","","","","","","","","","","","","","key","j","16.735294117647058","720","446","j","true","nonmatch","img/square.png","五边","方形","ALT1","formal_ALT1_2","","","","","","","","","","","",""
"null","<span style='color:GreenYellow; font-size: 70px;'>正确! </span>","null","html-keyboard-response","146","302707","0.0-7.0-1.0-4.0-0.0-1.19","3","4","4","3","4","3","4","4","3","3","5","4","3","4","4","4","5","4","5","5","2","2","3","1","2","2","1","2","2","1","0","0","1","0","1","0","1","1","0","1","0","0","0","0","4","1","2","1","3","5","4","4","4","5","2","779748154852773890","余","458","","","","","","","","","","","","","","","","","","","","","","","","","","","","","","feedback_test","","","","","","","","","","","",""
"662","","j","psychophysics","147","304376","0.0-7.0-1.0-4.0-0.0-0.20","3","4","4","3","4","3","4","4","3","3","5","4","3","4","4","4","5","4","5","5","2","2","3","1","2","2","1","2","2","1","0","0","1","0","1","0","1","1","0","1","0","0","0","0","4","1","2","1","3","5","4","4","4","5","2","779748154852773890","余","458","","","","nonmatch","","","","","","","","","","","","","","key","j","16.642857142857142","720","446","j","true","nonmatch","img/pentagon.png","椭圆","五边","ALT1","formal_ALT1_2","","","","","","","","","","","",""
"null","<span style='color:GreenYellow; font-size: 70px;'>正确! </span>","null","html-keyboard-response","148","304884","0.0-7.0-1.0-4.0-0.0-1.20","3","4","4","3","4","3","4","4","3","3","5","4","3","4","4","4","5","4","5","5","2","2","3","1","2","2","1","2","2","1","0","0","1","0","1","0","1","1","0","1","0","0","0","0","4","1","2","1","3","5","4","4","4","5","2","779748154852773890","余","458","","","","","","","","","","","","","","","","","","","","","","","","","","","","","","feedback_test","","","","","","","","","","","",""
"609","","f","psychophysics","149","306495","0.0-7.0-1.0-4.0-0.0-0.21","3","4","4","3","4","3","4","4","3","3","5","4","3","4","4","4","5","4","5","5","2","2","3","1","2","2","1","2","2","1","0","0","1","0","1","0","1","1","0","1","0","0","0","0","4","1","2","1","3","5","4","4","4","5","2","779748154852773890","余","458","","","","match","","","","","","","","","","","","","","key","f","16.648936170212767","720","446","f","true","match","img/diamond.png","菱形","菱形","ALT1","formal_ALT1_2","","","","","","","","","","","",""
"null","<span style='color:GreenYellow; font-size: 70px;'>正确! </span>","null","html-keyboard-response","150","307009","0.0-7.0-1.0-4.0-0.0-1.21","3","4","4","3","4","3","4","4","3","3","5","4","3","4","4","4","5","4","5","5","2","2","3","1","2","2","1","2","2","1","0","0","1","0","1","0","1","1","0","1","0","0","0","0","4","1","2","1","3","5","4","4","4","5","2","779748154852773890","余","458","","","","","","","","","","","","","","","","","","","","","","","","","","","","","","feedback_test","","","","","","","","","","","",""
"580","","j","psychophysics","151","308610","0.0-7.0-1.0-4.0-0.0-0.22","3","4","4","3","4","3","4","4","3","3","5","4","3","4","4","4","5","4","5","5","2","2","3","1","2","2","1","2","2","1","0","0","1","0","1","0","1","1","0","1","0","0","0","0","4","1","2","1","3","5","4","4","4","5","2","779748154852773890","余","458","","","","nonmatch","","","","","","","","","","","","","","key","j","16.642105263157895","720","446","j","true","nonmatch","img/square.png","椭圆","方形","ALT1","formal_ALT1_2","","","","","","","","","","","",""
"null","<span style='color:GreenYellow; font-size: 70px;'>正确! </span>","null","html-keyboard-response","152","309110","0.0-7.0-1.0-4.0-0.0-1.22","3","4","4","3","4","3","4","4","3","3","5","4","3","4","4","4","5","4","5","5","2","2","3","1","2","2","1","2","2","1","0","0","1","0","1","0","1","1","0","1","0","0","0","0","4","1","2","1","3","5","4","4","4","5","2","779748154852773890","余","458","","","","","","","","","","","","","","","","","","","","","","","","","","","","","","feedback_test","","","","","","","","","","","",""
"610","","j","psychophysics","153","310736","0.0-7.0-1.0-4.0-0.0-0.23","3","4","4","3","4","3","4","4","3","3","5","4","3","4","4","4","5","4","5","5","2","2","3","1","2","2","1","2","2","1","0","0","1","0","1","0","1","1","0","1","0","0","0","0","4","1","2","1","3","5","4","4","4","5","2","779748154852773890","余","458","","","","nonmatch","","","","","","","","","","","","","","key","j","16.645833333333332","720","446","j","true","nonmatch","img/diamond.png","方形","菱形","ALT1","formal_ALT1_2","","","","","","","","","","","",""
"null","<span style='color:GreenYellow; font-size: 70px;'>正确! </span>","null","html-keyboard-response","154","311240","0.0-7.0-1.0-4.0-0.0-1.23","3","4","4","3","4","3","4","4","3","3","5","4","3","4","4","4","5","4","5","5","2","2","3","1","2","2","1","2","2","1","0","0","1","0","1","0","1","1","0","1","0","0","0","0","4","1","2","1","3","5","4","4","4","5","2","779748154852773890","余","458","","","","","","","","","","","","","","","","","","","","","","","","","","","","","","feedback_test","","","","","","","","","","","",""
"580","","f","psychophysics","155","312829","0.0-7.0-1.0-4.0-0.0-0.24","3","4","4","3","4","3","4","4","3","3","5","4","3","4","4","4","5","4","5","5","2","2","3","1","2","2","1","2","2","1","0","0","1","0","1","0","1","1","0","1","0","0","0","0","4","1","2","1","3","5","4","4","4","5","2","779748154852773890","余","458","","","","match","","","","","","","","","","","","","","key","f","16.580645161290324","720","446","f","true","match","img/diamond.png","菱形","菱形","ALT1","formal_ALT1_2","","","","","","","","","","","",""
"null","<span style='color:GreenYellow; font-size: 70px;'>正确! </span>","null","html-keyboard-response","156","313336","0.0-7.0-1.0-4.0-0.0-1.24","3","4","4","3","4","3","4","4","3","3","5","4","3","4","4","4","5","4","5","5","2","2","3","1","2","2","1","2","2","1","0","0","1","0","1","0","1","1","0","1","0","0","0","0","4","1","2","1","3","5","4","4","4","5","2","779748154852773890","余","458","","","","","","","","","","","","","","","","","","","","","","","","","","","","","","feedback_test","","","","","","","","","","","",""
"584","","j","psychophysics","157","314945","0.0-7.0-1.0-4.0-0.0-0.25","3","4","4","3","4","3","4","4","3","3","5","4","3","4","4","4","5","4","5","5","2","2","3","1","2","2","1","2","2","1","0","0","1","0","1","0","1","1","0","1","0","0","0","0","4","1","2","1","3","5","4","4","4","5","2","779748154852773890","余","458","","","","nonmatch","","","","","","","","","","","","","","key","j","16.74736842105263","720","446","j","true","nonmatch","img/ellipse.png","方形","椭圆","ALT1","formal_ALT1_2","","","","","","","","","","","",""
"null","<span style='color:GreenYellow; font-size: 70px;'>正确! </span>","null","html-keyboard-response","158","315448","0.0-7.0-1.0-4.0-0.0-1.25","3","4","4","3","4","3","4","4","3","3","5","4","3","4","4","4","5","4","5","5","2","2","3","1","2","2","1","2","2","1","0","0","1","0","1","0","1","1","0","1","0","0","0","0","4","1","2","1","3","5","4","4","4","5","2","779748154852773890","余","458","","","","","","","","","","","","","","","","","","","","","","","","","","","","","","feedback_test","","","","","","","","","","","",""
"735","","j","psychophysics","159","317197","0.0-7.0-1.0-4.0-0.0-0.26","3","4","4","3","4","3","4","4","3","3","5","4","3","4","4","4","5","4","5","5","2","2","3","1","2","2","1","2","2","1","0","0","1","0","1","0","1","1","0","1","0","0","0","0","4","1","2","1","3","5","4","4","4","5","2","779748154852773890","余","458","","","","nonmatch","","","","","","","","","","","","","","key","j","16.538653846154027","720","446","j","true","nonmatch","img/pentagon.png","方形","五边","ALT1","formal_ALT1_2","","","","","","","","","","","",""
"null","<span style='color:GreenYellow; font-size: 70px;'>正确! </span>","null","html-keyboard-response","160","317710","0.0-7.0-1.0-4.0-0.0-1.26","3","4","4","3","4","3","4","4","3","3","5","4","3","4","4","4","5","4","5","5","2","2","3","1","2","2","1","2","2","1","0","0","1","0","1","0","1","1","0","1","0","0","0","0","4","1","2","1","3","5","4","4","4","5","2","779748154852773890","余","458","","","","","","","","","","","","","","","","","","","","","","","","","","","","","","feedback_test","","","","","","","","","","","",""
"677","","f","psychophysics","161","319392","0.0-7.0-1.0-4.0-0.0-0.27","3","4","4","3","4","3","4","4","3","3","5","4","3","4","4","4","5","4","5","5","2","2","3","1","2","2","1","2","2","1","0","0","1","0","1","0","1","1","0","1","0","0","0","0","4","1","2","1","3","5","4","4","4","5","2","779748154852773890","余","458","","","","match","","","","","","","","","","","","","","key","f","16.623111111111353","720","446","j","false","nonmatch","img/pentagon.png","菱形","五边","ALT1","formal_ALT1_2","","","","","","","","","","","",""
"null","<span style='color:red; font-size: 70px;'>错误! </span>","null","html-keyboard-response","162","319893","0.0-7.0-1.0-4.0-0.0-1.27","3","4","4","3","4","3","4","4","3","3","5","4","3","4","4","4","5","4","5","5","2","2","3","1","2","2","1","2","2","1","0","0","1","0","1","0","1","1","0","1","0","0","0","0","4","1","2","1","3","5","4","4","4","5","2","779748154852773890","余","458","","","","","","","","","","","","","","","","","","","","","","","","","","","","","","feedback_test","","","","","","","","","","","",""
"530","","j","psychophysics","163","321434","0.0-7.0-1.0-4.0-0.0-0.28","3","4","4","3","4","3","4","4","3","3","5","4","3","4","4","4","5","4","5","5","2","2","3","1","2","2","1","2","2","1","0","0","1","0","1","0","1","1","0","1","0","0","0","0","4","1","2","1","3","5","4","4","4","5","2","779748154852773890","余","458","","","","nonmatch","","","","","","","","","","","","","","key","j","16.677777777777777","720","446","j","true","nonmatch","img/square.png","椭圆","方形","ALT1","formal_ALT1_2","","","","","","","","","","","",""
"null","<span style='color:GreenYellow; font-size: 70px;'>正确! </span>","null","html-keyboard-response","164","321946","0.0-7.0-1.0-4.0-0.0-1.28","3","4","4","3","4","3","4","4","3","3","5","4","3","4","4","4","5","4","5","5","2","2","3","1","2","2","1","2","2","1","0","0","1","0","1","0","1","1","0","1","0","0","0","0","4","1","2","1","3","5","4","4","4","5","2","779748154852773890","余","458","","","","","","","","","","","","","","","","","","","","","","","","","","","","","","feedback_test","","","","","","","","","","","",""
"512","","j","psychophysics","165","323471","0.0-7.0-1.0-4.0-0.0-0.29","3","4","4","3","4","3","4","4","3","3","5","4","3","4","4","4","5","4","5","5","2","2","3","1","2","2","1","2","2","1","0","0","1","0","1","0","1","1","0","1","0","0","0","0","4","1","2","1","3","5","4","4","4","5","2","779748154852773890","余","458","","","","nonmatch","","","","","","","","","","","","","","key","j","16.535032967033228","720","446","j","true","nonmatch","img/square.png","菱形","方形","ALT1","formal_ALT1_2","","","","","","","","","","","",""
"null","<span style='color:GreenYellow; font-size: 70px;'>正确! </span>","null","html-keyboard-response","166","323981","0.0-7.0-1.0-4.0-0.0-1.29","3","4","4","3","4","3","4","4","3","3","5","4","3","4","4","4","5","4","5","5","2","2","3","1","2","2","1","2","2","1","0","0","1","0","1","0","1","1","0","1","0","0","0","0","4","1","2","1","3","5","4","4","4","5","2","779748154852773890","余","458","","","","","","","","","","","","","","","","","","","","","","","","","","","","","","feedback_test","","","","","","","","","","","",""
"703","","f","psychophysics","167","325694","0.0-7.0-1.0-4.0-0.0-0.30","3","4","4","3","4","3","4","4","3","3","5","4","3","4","4","4","5","4","5","5","2","2","3","1","2","2","1","2","2","1","0","0","1","0","1","0","1","1","0","1","0","0","0","0","4","1","2","1","3","5","4","4","4","5","2","779748154852773890","余","458","","","","match","","","","","","","","","","","","","","key","f","16.686274509803923","720","446","f","true","match","img/square.png","方形","方形","ALT1","formal_ALT1_2","","","","","","","","","","","",""
"null","<span style='color:GreenYellow; font-size: 70px;'>正确! </span>","null","html-keyboard-response","168","326210","0.0-7.0-1.0-4.0-0.0-1.30","3","4","4","3","4","3","4","4","3","3","5","4","3","4","4","4","5","4","5","5","2","2","3","1","2","2","1","2","2","1","0","0","1","0","1","0","1","1","0","1","0","0","0","0","4","1","2","1","3","5","4","4","4","5","2","779748154852773890","余","458","","","","","","","","","","","","","","","","","","","","","","","","","","","","","","feedback_test","","","","","","","","","","","",""
"558","","f","psychophysics","169","327788","0.0-7.0-1.0-4.0-0.0-0.31","3","4","4","3","4","3","4","4","3","3","5","4","3","4","4","4","5","4","5","5","2","2","3","1","2","2","1","2","2","1","0","0","1","0","1","0","1","1","0","1","0","0","0","0","4","1","2","1","3","5","4","4","4","5","2","779748154852773890","余","458","","","","match","","","","","","","","","","","","","","key","f","17.18888888888889","720","446","f","true","match","img/pentagon.png","五边","五边","ALT1","formal_ALT1_2","","","","","","","","","","","",""
"null","<span style='color:GreenYellow; font-size: 70px;'>正确! </span>","null","html-keyboard-response","170","328301","0.0-7.0-1.0-4.0-0.0-1.31","3","4","4","3","4","3","4","4","3","3","5","4","3","4","4","4","5","4","5","5","2","2","3","1","2","2","1","2","2","1","0","0","1","0","1","0","1","1","0","1","0","0","0","0","4","1","2","1","3","5","4","4","4","5","2","779748154852773890","余","458","","","","","","","","","","","","","","","","","","","","","","","","","","","","","","feedback_test","","","","","","","","","","","",""
"705","","j","psychophysics","171","330009","0.0-7.0-1.0-4.0-0.0-0.32","3","4","4","3","4","3","4","4","3","3","5","4","3","4","4","4","5","4","5","5","2","2","3","1","2","2","1","2","2","1","0","0","1","0","1","0","1","1","0","1","0","0","0","0","4","1","2","1","3","5","4","4","4","5","2","779748154852773890","余","458","","","","nonmatch","","","","","","","","","","","","","","key","j","16.858585858585858","720","446","j","true","nonmatch","img/diamond.png","椭圆","菱形","ALT1","formal_ALT1_2","","","","","","","","","","","",""
"null","<span style='color:GreenYellow; font-size: 70px;'>正确! </span>","null","html-keyboard-response","172","330521","0.0-7.0-1.0-4.0-0.0-1.32","3","4","4","3","4","3","4","4","3","3","5","4","3","4","4","4","5","4","5","5","2","2","3","1","2","2","1","2","2","1","0","0","1","0","1","0","1","1","0","1","0","0","0","0","4","1","2","1","3","5","4","4","4","5","2","779748154852773890","余","458","","","","","","","","","","","","","","","","","","","","","","","","","","","","","","feedback_test","","","","","","","","","","","",""
"830","","j","psychophysics","173","332353","0.0-7.0-1.0-4.0-0.0-0.33","3","4","4","3","4","3","4","4","3","3","5","4","3","4","4","4","5","4","5","5","2","2","3","1","2","2","1","2","2","1","0","0","1","0","1","0","1","1","0","1","0","0","0","0","4","1","2","1","3","5","4","4","4","5","2","779748154852773890","余","458","","","","nonmatch","","","","","","","","","","","","","","key","j","16.633211009174484","720","446","j","true","nonmatch","img/ellipse.png","菱形","椭圆","ALT1","formal_ALT1_2","","","","","","","","","","","",""
"null","<span style='color:GreenYellow; font-size: 70px;'>正确! </span>","null","html-keyboard-response","174","332876","0.0-7.0-1.0-4.0-0.0-1.33","3","4","4","3","4","3","4","4","3","3","5","4","3","4","4","4","5","4","5","5","2","2","3","1","2","2","1","2","2","1","0","0","1","0","1","0","1","1","0","1","0","0","0","0","4","1","2","1","3","5","4","4","4","5","2","779748154852773890","余","458","","","","","","","","","","","","","","","","","","","","","","","","","","","","","","feedback_test","","","","","","","","","","","",""
"602","","f","psychophysics","175","334491","0.0-7.0-1.0-4.0-0.0-0.34","3","4","4","3","4","3","4","4","3","3","5","4","3","4","4","4","5","4","5","5","2","2","3","1","2","2","1","2","2","1","0","0","1","0","1","0","1","1","0","1","0","0","0","0","4","1","2","1","3","5","4","4","4","5","2","779748154852773890","余","458","","","","match","","","","","","","","","","","","","","key","f","16.52577319587629","720","446","f","true","match","img/diamond.png","菱形","菱形","ALT1","formal_ALT1_2","","","","","","","","","","","",""
"null","<span style='color:GreenYellow; font-size: 70px;'>正确! </span>","null","html-keyboard-response","176","334997","0.0-7.0-1.0-4.0-0.0-1.34","3","4","4","3","4","3","4","4","3","3","5","4","3","4","4","4","5","4","5","5","2","2","3","1","2","2","1","2","2","1","0","0","1","0","1","0","1","1","0","1","0","0","0","0","4","1","2","1","3","5","4","4","4","5","2","779748154852773890","余","458","","","","","","","","","","","","","","","","","","","","","","","","","","","","","","feedback_test","","","","","","","","","","","",""
"589","","f","psychophysics","177","336595","0.0-7.0-1.0-4.0-0.0-0.35","3","4","4","3","4","3","4","4","3","3","5","4","3","4","4","4","5","4","5","5","2","2","3","1","2","2","1","2","2","1","0","0","1","0","1","0","1","1","0","1","0","0","0","0","4","1","2","1","3","5","4","4","4","5","2","779748154852773890","余","458","","","","match","","","","","","","","","","","","","","key","f","16.63157894736842","720","446","f","true","match","img/ellipse.png","椭圆","椭圆","ALT1","formal_ALT1_2","","","","","","","","","","","",""
"null","<span style='color:GreenYellow; font-size: 70px;'>正确! </span>","null","html-keyboard-response","178","337103","0.0-7.0-1.0-4.0-0.0-1.35","3","4","4","3","4","3","4","4","3","3","5","4","3","4","4","4","5","4","5","5","2","2","3","1","2","2","1","2","2","1","0","0","1","0","1","0","1","1","0","1","0","0","0","0","4","1","2","1","3","5","4","4","4","5","2","779748154852773890","余","458","","","","","","","","","","","","","","","","","","","","","","","","","","","","","","feedback_test","","","","","","","","","","","",""
"721","","f","psychophysics","179","338831","0.0-7.0-1.0-4.0-0.0-0.36","3","4","4","3","4","3","4","4","3","3","5","4","3","4","4","4","5","4","5","5","2","2","3","1","2","2","1","2","2","1","0","0","1","0","1","0","1","1","0","1","0","0","0","0","4","1","2","1","3","5","4","4","4","5","2","779748154852773890","余","458","","","","match","","","","","","","","","","","","","","key","f","16.54901960784314","720","446","f","true","match","img/square.png","方形","方形","ALT1","formal_ALT1_2","","","","","","","","","","","",""
"null","<span style='color:GreenYellow; font-size: 70px;'>正确! </span>","null","html-keyboard-response","180","339335","0.0-7.0-1.0-4.0-0.0-1.36","3","4","4","3","4","3","4","4","3","3","5","4","3","4","4","4","5","4","5","5","2","2","3","1","2","2","1","2","2","1","0","0","1","0","1","0","1","1","0","1","0","0","0","0","4","1","2","1","3","5","4","4","4","5","2","779748154852773890","余","458","","","","","","","","","","","","","","","","","","","","","","","","","","","","","","feedback_test","","","","","","","","","","","",""
"722","","f","psychophysics","181","341059","0.0-7.0-1.0-4.0-0.0-0.37","3","4","4","3","4","3","4","4","3","3","5","4","3","4","4","4","5","4","5","5","2","2","3","1","2","2","1","2","2","1","0","0","1","0","1","0","1","1","0","1","0","0","0","0","4","1","2","1","3","5","4","4","4","5","2","779748154852773890","余","458","","","","match","","","","","","","","","","","","","","key","f","16.71","720","446","f","true","match","img/pentagon.png","五边","五边","ALT1","formal_ALT1_2","","","","","","","","","","","",""
"null","<span style='color:GreenYellow; font-size: 70px;'>正确! </span>","null","html-keyboard-response","182","341568","0.0-7.0-1.0-4.0-0.0-1.37","3","4","4","3","4","3","4","4","3","3","5","4","3","4","4","4","5","4","5","5","2","2","3","1","2","2","1","2","2","1","0","0","1","0","1","0","1","1","0","1","0","0","0","0","4","1","2","1","3","5","4","4","4","5","2","779748154852773890","余","458","","","","","","","","","","","","","","","","","","","","","","","","","","","","","","feedback_test","","","","","","","","","","","",""
