"rt","stimulus","response","trial_type","trial_index","time_elapsed","internal_node_id","ses_1","ses_2","ses_3","ses_4","ses_5","ses_6","ses_7","ses_8","ses_9","ses_10","coreself_1","coreself_2","coreself_3","coreself_4","coreself_5","coreself_6","coreself_7","coreself_8","coreself_9","coreself_10","SGPS_1","SGPS_2","SGPS_3","SGPS_4","SGPS_5","SGPS_6","SGPS_7","SGPS_8","SGPS_9","NPI1","NPI2","NPI3","NPI4","NPI5","NPI6","NPI7","NPI8","NPI9","NPI10","NPI11","NPI12","NPI13","NPI14","NPI15","hsns_1","hsns_2","hsns_3","hsns_4","hsns_5","trap1","hsns_6","hsns_7","hsns_8","hsns_9","hsns_10","subj_idx","friend_name","ParticipantID","value","success","user_agent","responses","item_order","radio_event_ids","radio_event_times","key_event_times","mouse_event_times","straightlining","zigzagging","honeypot","timeout","failed_images","failed_audio","failed_video","view_history","response_type","key_press","avg_frame_time","center_x","center_y","correct_response","correct","identity","Image","word","condition","task_id","screen_id","time_stamp","version_attrib2","version_target2","IAT","RT","varname","summary","version_attrib","version_target","question_order","correct_answer","trap1_item"
"26093","
   <p><div style = ""color: white;font-size:25px;"">您好，欢迎参加本次实验。</div> </p>
   <p><div style = ""color: white;font-size:25px;"">为充分保障您的权利，请确保您已经知晓并同意《参与实验同意书》以及《数据公开知情同意书》。</div></p>
   <p><div style = ""color: white;font-size:25px;"">如果您未见过上述内容，请咨询实验员。</div></p>
   <p><div style = ""color: white;font-size:25px;"">如果您选择继续实验，则表示您已经清楚两份知情同意书的内容并同意。</div></p>
   <p><div style = ""color: pink;font-size:30px;"">请确保您记得day0的实验编号，您将在本次实验输入该编号，若您忘记，请咨询实验员后作答。</div></p>
   <p><div style = ""color: lightblue;font-size:25px;"">请您尽可能认真地作答，我们将依据您在各问卷和按键任务中的作答质量发放报酬。</div></p>
   <p> <div style = ""color: green;font-size:25px;""><按空格键至下页></div> </p>
   "," ","html-keyboard-response","0","26098","0.0-0.0","4","4","4","4","4","4","4","3","4","4","5","5","5","5","5","5","5","5","5","5","1","1","1","1","1","1","1","1","1","0","0","1","1","0","0","0","1","0","1","1","0","1","0","1","5","1","1","1","2","1","2","3","2","5","2","718592959586500608","陈","389","","","","","","","","","","","","","","","","","","","","","","","","","","","","","","","","","","","","","","","","","",""
"","","","call-function","1","26099","0.0-1.0-0.0","4","4","4","4","4","4","4","3","4","4","5","5","5","5","5","5","5","5","5","5","1","1","1","1","1","1","1","1","1","0","0","1","1","0","0","0","1","0","1","1","0","1","0","1","5","1","1","1","2","1","2","3","2","5","2","718592959586500608","陈","389","","","","","","","","","","","","","","","","","","","","","","","","","","","","","","","","","","","","","","","","","",""
"12997","","{""friend_name"":""陈"",""ParticipantID"":""389""}","survey-html-form","2","39097","0.0-1.0-1.0","4","4","4","4","4","4","4","3","4","4","5","5","5","5","5","5","5","5","5","5","1","1","1","1","1","1","1","1","1","0","0","1","1","0","0","0","1","0","1","1","0","1","0","1","5","1","1","1","2","1","2","3","2","5","2","718592959586500608","陈","389","","","","","","","","","","","","","","","","","","","","","","","","","","","","","","","","","","","","","","","","","",""
"","","","fullscreen","3","40559","0.0-2.0","4","4","4","4","4","4","4","3","4","4","5","5","5","5","5","5","5","5","5","5","1","1","1","1","1","1","1","1","1","0","0","1","1","0","0","0","1","0","1","1","0","1","0","1","5","1","1","1","2","1","2","3","2","5","2","718592959586500608","陈","389","","true","","","","","","","","","","","","","","","","","","","","","","","","","","","","","","","","","","","","","","","",""
"27422.205000009853","","{""Q01"":""4"",""Q02"":""4"",""Q03"":""4"",""Q04"":""4"",""Q05"":""4"",""Q06"":""4"",""Q07"":""4"",""Q08"":""3"",""Q09"":""4"",""Q10"":""4""}","survey-template","4","67988","0.0-3.0","4","4","4","4","4","4","4","3","4","4","5","5","5","5","5","5","5","5","5","5","1","1","1","1","1","1","1","1","1","0","0","1","1","0","0","0","1","0","1","1","0","1","0","1","5","1","1","1","2","1","2","3","2","5","2","718592959586500608","陈","389","","","","{""Q01"":""4"",""Q02"":""4"",""Q03"":""4"",""Q04"":""4"",""Q05"":""4"",""Q06"":""4"",""Q07"":""4"",""Q08"":""3"",""Q09"":""4"",""Q10"":""4""}","[0,1,2,3,4,5,6,7,8,9]","[""Q01"",""Q02"",""Q03"",""Q04"",""Q06"",""Q06"",""Q05"",""Q07"",""Q08"",""Q08"",""Q09"",""Q10"",""Q08"",""Q08""]","[7268.565000005765,8005.1300000050105,8830.375000019558,9940.6650000019,10652.679999999236,10829.92000001832,12021.050000010291,14076.419999997597,15749.050000013085,16644.34500000789,17308.749999996508,18749.33500000043,20420.95500000869,25077.080000017304]","[]","[6276.800000021467,7076.525000011316,7268.565000005765,8005.1300000050105,8830.375000019558,9940.6650000019,10652.679999999236,10829.92000001832,11604.730000020936,12021.050000010291,14076.419999997597,15749.050000013085,16644.34500000789,17308.749999996508,17677.945000003092,18749.33500000043,20420.95500000869,25077.080000017304,27420.750000019325]","0.5","0.5555555555555556","0","","","","","","","","","","","","","","","","","","","","","","","","","","","","","",""
"17441.044999985024","","{""Q01"":""5"",""Q02"":""5"",""Q03"":""5"",""Q04"":""5"",""Q05"":""5"",""Q06"":""5"",""Q07"":""5"",""Q08"":""5"",""Q09"":""5"",""Q10"":""5""}","survey-template","5","85435","0.0-4.0","4","4","4","4","4","4","4","3","4","4","5","5","5","5","5","5","5","5","5","5","1","1","1","1","1","1","1","1","1","0","0","1","1","0","0","0","1","0","1","1","0","1","0","1","5","1","1","1","2","1","2","3","2","5","2","718592959586500608","陈","389","","","","{""Q01"":""5"",""Q02"":""5"",""Q03"":""5"",""Q04"":""5"",""Q05"":""5"",""Q06"":""5"",""Q07"":""5"",""Q08"":""5"",""Q09"":""5"",""Q10"":""5""}","[0,1,2,3,4,5,6,7,8,9]","[""Q01"",""Q03"",""Q03"",""Q02"",""Q04"",""Q05"",""Q07"",""Q06"",""Q08"",""Q09"",""Q10""]","[1711.8599999812432,2776.324999984354,4016.234999988228,4583.985000004759,5912.094999977853,7568.254999991041,9816.019999998389,10695.810000004712,11936.07999998494,12944.35499998508,14536.364999978105]","[]","[1711.8599999812432,2776.324999984354,4016.234999988228,4583.985000004759,5912.094999977853,7568.254999991041,8640.439999988303,9576.404999999795,9816.019999998389,10695.810000004712,11936.07999998494,12944.35499998508,14536.364999978105,16496.09000000055,17440.19500000286]","0.6","0.7777777777777778","0","","","","","","","","","","","","","","","","","","","","","","","","","","","","","",""
"","","","preload","6","86039","0.0-5.0","4","4","4","4","4","4","4","3","4","4","5","5","5","5","5","5","5","5","5","5","1","1","1","1","1","1","1","1","1","0","0","1","1","0","0","0","1","0","1","1","0","1","0","1","5","1","1","1","2","1","2","3","2","5","2","718592959586500608","陈","389","","true","","","","","","","","","","","false","[]","[]","[]","","","","","","","","","","","","","","","","","","","","","","","","","",""
"6143","","","instructions","7","92186","0.0-6.0","4","4","4","4","4","4","4","3","4","4","5","5","5","5","5","5","5","5","5","5","1","1","1","1","1","1","1","1","1","0","0","1","1","0","0","0","1","0","1","1","0","1","0","1","5","1","1","1","2","1","2","3","2","5","2","718592959586500608","陈","389","","","","","","","","","","","","","","","","","[{""page_index"":0,""viewing_time"":6143}]","","","","","","","","","","","","","","","","","","","","","","","","",""
"11686","","","instructions","8","103874","0.0-7.0-1.0-0.0","4","4","4","4","4","4","4","3","4","4","5","5","5","5","5","5","5","5","5","5","1","1","1","1","1","1","1","1","1","0","0","1","1","0","0","0","1","0","1","1","0","1","0","1","5","1","1","1","2","1","2","3","2","5","2","718592959586500608","陈","389","","","","","","","","","","","","","","","","","[{""page_index"":0,""viewing_time"":8782},{""page_index"":1,""viewing_time"":1544},{""page_index"":2,""viewing_time"":1361}]","","","","","","","","","","","","","","","","","","","","","","","","",""
"695","","j","psychophysics","9","105572","0.0-7.0-1.0-1.0-0.0-0.0","4","4","4","4","4","4","4","3","4","4","5","5","5","5","5","5","5","5","5","5","1","1","1","1","1","1","1","1","1","0","0","1","1","0","0","0","1","0","1","1","0","1","0","1","5","1","1","1","2","1","2","3","2","5","2","718592959586500608","陈","389","","","","match","","","","","","","","","","","","","","key","j","16.666560000000025","768","428","j","true","match","img/triangle.png","三角","三角","ALT1_2","prac_ALT1_2","","","","","","","","","","","",""
"null","<span style='color:GreenYellow; font-size: 70px;'>正确! </span>","null","html-keyboard-response","10","106073","0.0-7.0-1.0-1.0-0.0-1.0","4","4","4","4","4","4","4","3","4","4","5","5","5","5","5","5","5","5","5","5","1","1","1","1","1","1","1","1","1","0","0","1","1","0","0","0","1","0","1","1","0","1","0","1","5","1","1","1","2","1","2","3","2","5","2","718592959586500608","陈","389","","","","","","","","","","","","","","","","","","","","","","","","","","","","","","feedback_test","","","","","","","","","","","",""
"627","","j","psychophysics","11","107703","0.0-7.0-1.0-1.0-0.0-0.1","4","4","4","4","4","4","4","3","4","4","5","5","5","5","5","5","5","5","5","5","1","1","1","1","1","1","1","1","1","0","0","1","1","0","0","0","1","0","1","1","0","1","0","1","5","1","1","1","2","1","2","3","2","5","2","718592959586500608","陈","389","","","","match","","","","","","","","","","","","","","key","j","16.665083333333314","768","428","f","false","nonmatch","img/triangle.png","椭圆","三角","ALT1_2","prac_ALT1_2","","","","","","","","","","","",""
"null","<span style='color:red; font-size: 70px;'>错误! </span>","null","html-keyboard-response","12","108205","0.0-7.0-1.0-1.0-0.0-1.1","4","4","4","4","4","4","4","3","4","4","5","5","5","5","5","5","5","5","5","5","1","1","1","1","1","1","1","1","1","0","0","1","1","0","0","0","1","0","1","1","0","1","0","1","5","1","1","1","2","1","2","3","2","5","2","718592959586500608","陈","389","","","","","","","","","","","","","","","","","","","","","","","","","","","","","","feedback_test","","","","","","","","","","","",""
"743","","j","psychophysics","13","109951","0.0-7.0-1.0-1.0-0.0-0.2","4","4","4","4","4","4","4","3","4","4","5","5","5","5","5","5","5","5","5","5","1","1","1","1","1","1","1","1","1","0","0","1","1","0","0","0","1","0","1","1","0","1","0","1","5","1","1","1","2","1","2","3","2","5","2","718592959586500608","陈","389","","","","match","","","","","","","","","","","","","","key","j","16.671578431372588","768","428","j","true","match","img/square.png","方形","方形","ALT1_2","prac_ALT1_2","","","","","","","","","","","",""
"null","<span style='color:GreenYellow; font-size: 70px;'>正确! </span>","null","html-keyboard-response","14","110452","0.0-7.0-1.0-1.0-0.0-1.2","4","4","4","4","4","4","4","3","4","4","5","5","5","5","5","5","5","5","5","5","1","1","1","1","1","1","1","1","1","0","0","1","1","0","0","0","1","0","1","1","0","1","0","1","5","1","1","1","2","1","2","3","2","5","2","718592959586500608","陈","389","","","","","","","","","","","","","","","","","","","","","","","","","","","","","","feedback_test","","","","","","","","","","","",""
"609","","j","psychophysics","15","112062","0.0-7.0-1.0-1.0-0.0-0.3","4","4","4","4","4","4","4","3","4","4","5","5","5","5","5","5","5","5","5","5","1","1","1","1","1","1","1","1","1","0","0","1","1","0","0","0","1","0","1","1","0","1","0","1","5","1","1","1","2","1","2","3","2","5","2","718592959586500608","陈","389","","","","match","","","","","","","","","","","","","","key","j","16.66680208333325","768","428","j","true","match","img/ellipse.png","椭圆","椭圆","ALT1_2","prac_ALT1_2","","","","","","","","","","","",""
"null","<span style='color:GreenYellow; font-size: 70px;'>正确! </span>","null","html-keyboard-response","16","112579","0.0-7.0-1.0-1.0-0.0-1.3","4","4","4","4","4","4","4","3","4","4","5","5","5","5","5","5","5","5","5","5","1","1","1","1","1","1","1","1","1","0","0","1","1","0","0","0","1","0","1","1","0","1","0","1","5","1","1","1","2","1","2","3","2","5","2","718592959586500608","陈","389","","","","","","","","","","","","","","","","","","","","","","","","","","","","","","feedback_test","","","","","","","","","","","",""
"597","","j","psychophysics","17","114179","0.0-7.0-1.0-1.0-0.0-0.4","4","4","4","4","4","4","4","3","4","4","5","5","5","5","5","5","5","5","5","5","1","1","1","1","1","1","1","1","1","0","0","1","1","0","0","0","1","0","1","1","0","1","0","1","5","1","1","1","2","1","2","3","2","5","2","718592959586500608","陈","389","","","","match","","","","","","","","","","","","","","key","j","16.66454736842103","768","428","j","true","match","img/ellipse.png","椭圆","椭圆","ALT1_2","prac_ALT1_2","","","","","","","","","","","",""
"null","<span style='color:GreenYellow; font-size: 70px;'>正确! </span>","null","html-keyboard-response","18","114680","0.0-7.0-1.0-1.0-0.0-1.4","4","4","4","4","4","4","4","3","4","4","5","5","5","5","5","5","5","5","5","5","1","1","1","1","1","1","1","1","1","0","0","1","1","0","0","0","1","0","1","1","0","1","0","1","5","1","1","1","2","1","2","3","2","5","2","718592959586500608","陈","389","","","","","","","","","","","","","","","","","","","","","","","","","","","","","","feedback_test","","","","","","","","","","","",""
"622","","j","psychophysics","19","116305","0.0-7.0-1.0-1.0-0.0-0.5","4","4","4","4","4","4","4","3","4","4","5","5","5","5","5","5","5","5","5","5","1","1","1","1","1","1","1","1","1","0","0","1","1","0","0","0","1","0","1","1","0","1","0","1","5","1","1","1","2","1","2","3","2","5","2","718592959586500608","陈","389","","","","match","","","","","","","","","","","","","","key","j","16.667729166666657","768","428","j","true","match","img/triangle.png","三角","三角","ALT1_2","prac_ALT1_2","","","","","","","","","","","",""
"null","<span style='color:GreenYellow; font-size: 70px;'>正确! </span>","null","html-keyboard-response","20","116806","0.0-7.0-1.0-1.0-0.0-1.5","4","4","4","4","4","4","4","3","4","4","5","5","5","5","5","5","5","5","5","5","1","1","1","1","1","1","1","1","1","0","0","1","1","0","0","0","1","0","1","1","0","1","0","1","5","1","1","1","2","1","2","3","2","5","2","718592959586500608","陈","389","","","","","","","","","","","","","","","","","","","","","","","","","","","","","","feedback_test","","","","","","","","","","","",""
"784","","j","psychophysics","21","118591","0.0-7.0-1.0-1.0-0.0-0.6","4","4","4","4","4","4","4","3","4","4","5","5","5","5","5","5","5","5","5","5","1","1","1","1","1","1","1","1","1","0","0","1","1","0","0","0","1","0","1","1","0","1","0","1","5","1","1","1","2","1","2","3","2","5","2","718592959586500608","陈","389","","","","match","","","","","","","","","","","","","","key","j","16.666084905660338","768","428","j","true","match","img/hexagon.png","六边","六边","ALT1_2","prac_ALT1_2","","","","","","","","","","","",""
"null","<span style='color:GreenYellow; font-size: 70px;'>正确! </span>","null","html-keyboard-response","22","119092","0.0-7.0-1.0-1.0-0.0-1.6","4","4","4","4","4","4","4","3","4","4","5","5","5","5","5","5","5","5","5","5","1","1","1","1","1","1","1","1","1","0","0","1","1","0","0","0","1","0","1","1","0","1","0","1","5","1","1","1","2","1","2","3","2","5","2","718592959586500608","陈","389","","","","","","","","","","","","","","","","","","","","","","","","","","","","","","feedback_test","","","","","","","","","","","",""
"641","","f","psychophysics","23","120735","0.0-7.0-1.0-1.0-0.0-0.7","4","4","4","4","4","4","4","3","4","4","5","5","5","5","5","5","5","5","5","5","1","1","1","1","1","1","1","1","1","0","0","1","1","0","0","0","1","0","1","1","0","1","0","1","5","1","1","1","2","1","2","3","2","5","2","718592959586500608","陈","389","","","","nonmatch","","","","","","","","","","","","","","key","f","16.666453608247505","768","428","f","true","nonmatch","img/square.png","三角","方形","ALT1_2","prac_ALT1_2","","","","","","","","","","","",""
"null","<span style='color:GreenYellow; font-size: 70px;'>正确! </span>","null","html-keyboard-response","24","121237","0.0-7.0-1.0-1.0-0.0-1.7","4","4","4","4","4","4","4","3","4","4","5","5","5","5","5","5","5","5","5","5","1","1","1","1","1","1","1","1","1","0","0","1","1","0","0","0","1","0","1","1","0","1","0","1","5","1","1","1","2","1","2","3","2","5","2","718592959586500608","陈","389","","","","","","","","","","","","","","","","","","","","","","","","","","","","","","feedback_test","","","","","","","","","","","",""
"755","","f","psychophysics","25","122993","0.0-7.0-1.0-1.0-0.0-0.8","4","4","4","4","4","4","4","3","4","4","5","5","5","5","5","5","5","5","5","5","1","1","1","1","1","1","1","1","1","0","0","1","1","0","0","0","1","0","1","1","0","1","0","1","5","1","1","1","2","1","2","3","2","5","2","718592959586500608","陈","389","","","","nonmatch","","","","","","","","","","","","","","key","f","16.663605769230763","768","428","f","true","nonmatch","img/ellipse.png","方形","椭圆","ALT1_2","prac_ALT1_2","","","","","","","","","","","",""
"null","<span style='color:GreenYellow; font-size: 70px;'>正确! </span>","null","html-keyboard-response","26","123495","0.0-7.0-1.0-1.0-0.0-1.8","4","4","4","4","4","4","4","3","4","4","5","5","5","5","5","5","5","5","5","5","1","1","1","1","1","1","1","1","1","0","0","1","1","0","0","0","1","0","1","1","0","1","0","1","5","1","1","1","2","1","2","3","2","5","2","718592959586500608","陈","389","","","","","","","","","","","","","","","","","","","","","","","","","","","","","","feedback_test","","","","","","","","","","","",""
"895","","f","psychophysics","27","125394","0.0-7.0-1.0-1.0-0.0-0.9","4","4","4","4","4","4","4","3","4","4","5","5","5","5","5","5","5","5","5","5","1","1","1","1","1","1","1","1","1","0","0","1","1","0","0","0","1","0","1","1","0","1","0","1","5","1","1","1","2","1","2","3","2","5","2","718592959586500608","陈","389","","","","nonmatch","","","","","","","","","","","","","","key","f","16.666442477876146","768","428","f","true","nonmatch","img/triangle.png","六边","三角","ALT1_2","prac_ALT1_2","","","","","","","","","","","",""
"null","<span style='color:GreenYellow; font-size: 70px;'>正确! </span>","null","html-keyboard-response","28","125895","0.0-7.0-1.0-1.0-0.0-1.9","4","4","4","4","4","4","4","3","4","4","5","5","5","5","5","5","5","5","5","5","1","1","1","1","1","1","1","1","1","0","0","1","1","0","0","0","1","0","1","1","0","1","0","1","5","1","1","1","2","1","2","3","2","5","2","718592959586500608","陈","389","","","","","","","","","","","","","","","","","","","","","","","","","","","","","","feedback_test","","","","","","","","","","","",""
"590","","f","psychophysics","29","127488","0.0-7.0-1.0-1.0-0.0-0.10","4","4","4","4","4","4","4","3","4","4","5","5","5","5","5","5","5","5","5","5","1","1","1","1","1","1","1","1","1","0","0","1","1","0","0","0","1","0","1","1","0","1","0","1","5","1","1","1","2","1","2","3","2","5","2","718592959586500608","陈","389","","","","nonmatch","","","","","","","","","","","","","","key","f","16.667157894736892","768","428","f","true","nonmatch","img/square.png","六边","方形","ALT1_2","prac_ALT1_2","","","","","","","","","","","",""
"null","<span style='color:GreenYellow; font-size: 70px;'>正确! </span>","null","html-keyboard-response","30","127990","0.0-7.0-1.0-1.0-0.0-1.10","4","4","4","4","4","4","4","3","4","4","5","5","5","5","5","5","5","5","5","5","1","1","1","1","1","1","1","1","1","0","0","1","1","0","0","0","1","0","1","1","0","1","0","1","5","1","1","1","2","1","2","3","2","5","2","718592959586500608","陈","389","","","","","","","","","","","","","","","","","","","","","","","","","","","","","","feedback_test","","","","","","","","","","","",""
"642","","f","psychophysics","31","129635","0.0-7.0-1.0-1.0-0.0-0.11","4","4","4","4","4","4","4","3","4","4","5","5","5","5","5","5","5","5","5","5","1","1","1","1","1","1","1","1","1","0","0","1","1","0","0","0","1","0","1","1","0","1","0","1","5","1","1","1","2","1","2","3","2","5","2","718592959586500608","陈","389","","","","nonmatch","","","","","","","","","","","","","","key","f","16.665690721649487","768","428","f","true","nonmatch","img/triangle.png","方形","三角","ALT1_2","prac_ALT1_2","","","","","","","","","","","",""
"null","<span style='color:GreenYellow; font-size: 70px;'>正确! </span>","null","html-keyboard-response","32","130136","0.0-7.0-1.0-1.0-0.0-1.11","4","4","4","4","4","4","4","3","4","4","5","5","5","5","5","5","5","5","5","5","1","1","1","1","1","1","1","1","1","0","0","1","1","0","0","0","1","0","1","1","0","1","0","1","5","1","1","1","2","1","2","3","2","5","2","718592959586500608","陈","389","","","","","","","","","","","","","","","","","","","","","","","","","","","","","","feedback_test","","","","","","","","","","","",""
"583","","j","psychophysics","33","131721","0.0-7.0-1.0-1.0-0.0-0.12","4","4","4","4","4","4","4","3","4","4","5","5","5","5","5","5","5","5","5","5","1","1","1","1","1","1","1","1","1","0","0","1","1","0","0","0","1","0","1","1","0","1","0","1","5","1","1","1","2","1","2","3","2","5","2","718592959586500608","陈","389","","","","match","","","","","","","","","","","","","","key","j","16.66506451612898","768","428","j","true","match","img/ellipse.png","椭圆","椭圆","ALT1_2","prac_ALT1_2","","","","","","","","","","","",""
"null","<span style='color:GreenYellow; font-size: 70px;'>正确! </span>","null","html-keyboard-response","34","132223","0.0-7.0-1.0-1.0-0.0-1.12","4","4","4","4","4","4","4","3","4","4","5","5","5","5","5","5","5","5","5","5","1","1","1","1","1","1","1","1","1","0","0","1","1","0","0","0","1","0","1","1","0","1","0","1","5","1","1","1","2","1","2","3","2","5","2","718592959586500608","陈","389","","","","","","","","","","","","","","","","","","","","","","","","","","","","","","feedback_test","","","","","","","","","","","",""
"627","","f","psychophysics","35","133852","0.0-7.0-1.0-1.0-0.0-0.13","4","4","4","4","4","4","4","3","4","4","5","5","5","5","5","5","5","5","5","5","1","1","1","1","1","1","1","1","1","0","0","1","1","0","0","0","1","0","1","1","0","1","0","1","5","1","1","1","2","1","2","3","2","5","2","718592959586500608","陈","389","","","","nonmatch","","","","","","","","","","","","","","key","f","16.665520833333176","768","428","f","true","nonmatch","img/ellipse.png","六边","椭圆","ALT1_2","prac_ALT1_2","","","","","","","","","","","",""
"null","<span style='color:GreenYellow; font-size: 70px;'>正确! </span>","null","html-keyboard-response","36","134356","0.0-7.0-1.0-1.0-0.0-1.13","4","4","4","4","4","4","4","3","4","4","5","5","5","5","5","5","5","5","5","5","1","1","1","1","1","1","1","1","1","0","0","1","1","0","0","0","1","0","1","1","0","1","0","1","5","1","1","1","2","1","2","3","2","5","2","718592959586500608","陈","389","","","","","","","","","","","","","","","","","","","","","","","","","","","","","","feedback_test","","","","","","","","","","","",""
"673","","f","psychophysics","37","136030","0.0-7.0-1.0-1.0-0.0-0.14","4","4","4","4","4","4","4","3","4","4","5","5","5","5","5","5","5","5","5","5","1","1","1","1","1","1","1","1","1","0","0","1","1","0","0","0","1","0","1","1","0","1","0","1","5","1","1","1","2","1","2","3","2","5","2","718592959586500608","陈","389","","","","nonmatch","","","","","","","","","","","","","","key","f","16.666323232323382","768","428","f","true","nonmatch","img/hexagon.png","椭圆","六边","ALT1_2","prac_ALT1_2","","","","","","","","","","","",""
"null","<span style='color:GreenYellow; font-size: 70px;'>正确! </span>","null","html-keyboard-response","38","136533","0.0-7.0-1.0-1.0-0.0-1.14","4","4","4","4","4","4","4","3","4","4","5","5","5","5","5","5","5","5","5","5","1","1","1","1","1","1","1","1","1","0","0","1","1","0","0","0","1","0","1","1","0","1","0","1","5","1","1","1","2","1","2","3","2","5","2","718592959586500608","陈","389","","","","","","","","","","","","","","","","","","","","","","","","","","","","","","feedback_test","","","","","","","","","","","",""
"617","","j","psychophysics","39","138151","0.0-7.0-1.0-1.0-0.0-0.15","4","4","4","4","4","4","4","3","4","4","5","5","5","5","5","5","5","5","5","5","1","1","1","1","1","1","1","1","1","0","0","1","1","0","0","0","1","0","1","1","0","1","0","1","5","1","1","1","2","1","2","3","2","5","2","718592959586500608","陈","389","","","","match","","","","","","","","","","","","","","key","j","16.667374999999993","768","428","j","true","match","img/triangle.png","三角","三角","ALT1_2","prac_ALT1_2","","","","","","","","","","","",""
"null","<span style='color:GreenYellow; font-size: 70px;'>正确! </span>","null","html-keyboard-response","40","138653","0.0-7.0-1.0-1.0-0.0-1.15","4","4","4","4","4","4","4","3","4","4","5","5","5","5","5","5","5","5","5","5","1","1","1","1","1","1","1","1","1","0","0","1","1","0","0","0","1","0","1","1","0","1","0","1","5","1","1","1","2","1","2","3","2","5","2","718592959586500608","陈","389","","","","","","","","","","","","","","","","","","","","","","","","","","","","","","feedback_test","","","","","","","","","","","",""
"640","","f","psychophysics","41","140295","0.0-7.0-1.0-1.0-0.0-0.16","4","4","4","4","4","4","4","3","4","4","5","5","5","5","5","5","5","5","5","5","1","1","1","1","1","1","1","1","1","0","0","1","1","0","0","0","1","0","1","1","0","1","0","1","5","1","1","1","2","1","2","3","2","5","2","718592959586500608","陈","389","","","","nonmatch","","","","","","","","","","","","","","key","f","16.66326804123711","768","428","f","true","nonmatch","img/hexagon.png","三角","六边","ALT1_2","prac_ALT1_2","","","","","","","","","","","",""
"null","<span style='color:GreenYellow; font-size: 70px;'>正确! </span>","null","html-keyboard-response","42","140795","0.0-7.0-1.0-1.0-0.0-1.16","4","4","4","4","4","4","4","3","4","4","5","5","5","5","5","5","5","5","5","5","1","1","1","1","1","1","1","1","1","0","0","1","1","0","0","0","1","0","1","1","0","1","0","1","5","1","1","1","2","1","2","3","2","5","2","718592959586500608","陈","389","","","","","","","","","","","","","","","","","","","","","","","","","","","","","","feedback_test","","","","","","","","","","","",""
"740","","f","psychophysics","43","142538","0.0-7.0-1.0-1.0-0.0-0.17","4","4","4","4","4","4","4","3","4","4","5","5","5","5","5","5","5","5","5","5","1","1","1","1","1","1","1","1","1","0","0","1","1","0","0","0","1","0","1","1","0","1","0","1","5","1","1","1","2","1","2","3","2","5","2","718592959586500608","陈","389","","","","nonmatch","","","","","","","","","","","","","","key","f","16.66805769230772","768","428","f","true","nonmatch","img/hexagon.png","方形","六边","ALT1_2","prac_ALT1_2","","","","","","","","","","","",""
"null","<span style='color:GreenYellow; font-size: 70px;'>正确! </span>","null","html-keyboard-response","44","143039","0.0-7.0-1.0-1.0-0.0-1.17","4","4","4","4","4","4","4","3","4","4","5","5","5","5","5","5","5","5","5","5","1","1","1","1","1","1","1","1","1","0","0","1","1","0","0","0","1","0","1","1","0","1","0","1","5","1","1","1","2","1","2","3","2","5","2","718592959586500608","陈","389","","","","","","","","","","","","","","","","","","","","","","","","","","","","","","feedback_test","","","","","","","","","","","",""
"609","","j","psychophysics","45","144650","0.0-7.0-1.0-1.0-0.0-0.18","4","4","4","4","4","4","4","3","4","4","5","5","5","5","5","5","5","5","5","5","1","1","1","1","1","1","1","1","1","0","0","1","1","0","0","0","1","0","1","1","0","1","0","1","5","1","1","1","2","1","2","3","2","5","2","718592959586500608","陈","389","","","","match","","","","","","","","","","","","","","key","j","16.666000000000196","768","428","j","true","match","img/square.png","方形","方形","ALT1_2","prac_ALT1_2","","","","","","","","","","","",""
"null","<span style='color:GreenYellow; font-size: 70px;'>正确! </span>","null","html-keyboard-response","46","145151","0.0-7.0-1.0-1.0-0.0-1.18","4","4","4","4","4","4","4","3","4","4","5","5","5","5","5","5","5","5","5","5","1","1","1","1","1","1","1","1","1","0","0","1","1","0","0","0","1","0","1","1","0","1","0","1","5","1","1","1","2","1","2","3","2","5","2","718592959586500608","陈","389","","","","","","","","","","","","","","","","","","","","","","","","","","","","","","feedback_test","","","","","","","","","","","",""
"728","","f","psychophysics","47","146881","0.0-7.0-1.0-1.0-0.0-0.19","4","4","4","4","4","4","4","3","4","4","5","5","5","5","5","5","5","5","5","5","1","1","1","1","1","1","1","1","1","0","0","1","1","0","0","0","1","0","1","1","0","1","0","1","5","1","1","1","2","1","2","3","2","5","2","718592959586500608","陈","389","","","","nonmatch","","","","","","","","","","","","","","key","f","16.664588235294122","768","428","f","true","nonmatch","img/ellipse.png","三角","椭圆","ALT1_2","prac_ALT1_2","","","","","","","","","","","",""
"null","<span style='color:GreenYellow; font-size: 70px;'>正确! </span>","null","html-keyboard-response","48","147382","0.0-7.0-1.0-1.0-0.0-1.19","4","4","4","4","4","4","4","3","4","4","5","5","5","5","5","5","5","5","5","5","1","1","1","1","1","1","1","1","1","0","0","1","1","0","0","0","1","0","1","1","0","1","0","1","5","1","1","1","2","1","2","3","2","5","2","718592959586500608","陈","389","","","","","","","","","","","","","","","","","","","","","","","","","","","","","","feedback_test","","","","","","","","","","","",""
"678","","j","psychophysics","49","149062","0.0-7.0-1.0-1.0-0.0-0.20","4","4","4","4","4","4","4","3","4","4","5","5","5","5","5","5","5","5","5","5","1","1","1","1","1","1","1","1","1","0","0","1","1","0","0","0","1","0","1","1","0","1","0","1","5","1","1","1","2","1","2","3","2","5","2","718592959586500608","陈","389","","","","match","","","","","","","","","","","","","","key","j","16.665449999999836","768","428","j","true","match","img/square.png","方形","方形","ALT1_2","prac_ALT1_2","","","","","","","","","","","",""
"null","<span style='color:GreenYellow; font-size: 70px;'>正确! </span>","null","html-keyboard-response","50","149563","0.0-7.0-1.0-1.0-0.0-1.20","4","4","4","4","4","4","4","3","4","4","5","5","5","5","5","5","5","5","5","5","1","1","1","1","1","1","1","1","1","0","0","1","1","0","0","0","1","0","1","1","0","1","0","1","5","1","1","1","2","1","2","3","2","5","2","718592959586500608","陈","389","","","","","","","","","","","","","","","","","","","","","","","","","","","","","","feedback_test","","","","","","","","","","","",""
"695","","j","psychophysics","51","151261","0.0-7.0-1.0-1.0-0.0-0.21","4","4","4","4","4","4","4","3","4","4","5","5","5","5","5","5","5","5","5","5","1","1","1","1","1","1","1","1","1","0","0","1","1","0","0","0","1","0","1","1","0","1","0","1","5","1","1","1","2","1","2","3","2","5","2","718592959586500608","陈","389","","","","match","","","","","","","","","","","","","","key","j","16.66558415841572","768","428","j","true","match","img/hexagon.png","六边","六边","ALT1_2","prac_ALT1_2","","","","","","","","","","","",""
"null","<span style='color:GreenYellow; font-size: 70px;'>正确! </span>","null","html-keyboard-response","52","151762","0.0-7.0-1.0-1.0-0.0-1.21","4","4","4","4","4","4","4","3","4","4","5","5","5","5","5","5","5","5","5","5","1","1","1","1","1","1","1","1","1","0","0","1","1","0","0","0","1","0","1","1","0","1","0","1","5","1","1","1","2","1","2","3","2","5","2","718592959586500608","陈","389","","","","","","","","","","","","","","","","","","","","","","","","","","","","","","feedback_test","","","","","","","","","","","",""
"554","","j","psychophysics","53","153320","0.0-7.0-1.0-1.0-0.0-0.22","4","4","4","4","4","4","4","3","4","4","5","5","5","5","5","5","5","5","5","5","1","1","1","1","1","1","1","1","1","0","0","1","1","0","0","0","1","0","1","1","0","1","0","1","5","1","1","1","2","1","2","3","2","5","2","718592959586500608","陈","389","","","","match","","","","","","","","","","","","","","key","j","16.664946236559416","768","428","j","true","match","img/hexagon.png","六边","六边","ALT1_2","prac_ALT1_2","","","","","","","","","","","",""
"null","<span style='color:GreenYellow; font-size: 70px;'>正确! </span>","null","html-keyboard-response","54","153821","0.0-7.0-1.0-1.0-0.0-1.22","4","4","4","4","4","4","4","3","4","4","5","5","5","5","5","5","5","5","5","5","1","1","1","1","1","1","1","1","1","0","0","1","1","0","0","0","1","0","1","1","0","1","0","1","5","1","1","1","2","1","2","3","2","5","2","718592959586500608","陈","389","","","","","","","","","","","","","","","","","","","","","","","","","","","","","","feedback_test","","","","","","","","","","","",""
"602","","f","psychophysics","55","155425","0.0-7.0-1.0-1.0-0.0-0.23","4","4","4","4","4","4","4","3","4","4","5","5","5","5","5","5","5","5","5","5","1","1","1","1","1","1","1","1","1","0","0","1","1","0","0","0","1","0","1","1","0","1","0","1","5","1","1","1","2","1","2","3","2","5","2","718592959586500608","陈","389","","","","nonmatch","","","","","","","","","","","","","","key","f","16.6659473684212","768","428","f","true","nonmatch","img/square.png","椭圆","方形","ALT1_2","prac_ALT1_2","","","","","","","","","","","",""
"null","<span style='color:GreenYellow; font-size: 70px;'>正确! </span>","null","html-keyboard-response","56","155927","0.0-7.0-1.0-1.0-0.0-1.23","4","4","4","4","4","4","4","3","4","4","5","5","5","5","5","5","5","5","5","5","1","1","1","1","1","1","1","1","1","0","0","1","1","0","0","0","1","0","1","1","0","1","0","1","5","1","1","1","2","1","2","3","2","5","2","718592959586500608","陈","389","","","","","","","","","","","","","","","","","","","","","","","","","","","","","","feedback_test","","","","","","","","","","","",""
"562","","f","psychophysics","57","157494","0.0-7.0-1.0-1.0-0.0-0.24","4","4","4","4","4","4","4","3","4","4","5","5","5","5","5","5","5","5","5","5","1","1","1","1","1","1","1","1","1","0","0","1","1","0","0","0","1","0","1","1","0","1","0","1","5","1","1","1","2","1","2","3","2","5","2","718592959586500608","陈","389","","","","nonmatch","","","","","","","","","","","","","","key","f","16.670268817204526","768","428","f","true","nonmatch","img/triangle.png","六边","三角","ALT1_2","prac_ALT1_2","","","","","","","","","","","",""
"null","<span style='color:GreenYellow; font-size: 70px;'>正确! </span>","null","html-keyboard-response","58","157996","0.0-7.0-1.0-1.0-0.0-1.24","4","4","4","4","4","4","4","3","4","4","5","5","5","5","5","5","5","5","5","5","1","1","1","1","1","1","1","1","1","0","0","1","1","0","0","0","1","0","1","1","0","1","0","1","5","1","1","1","2","1","2","3","2","5","2","718592959586500608","陈","389","","","","","","","","","","","","","","","","","","","","","","","","","","","","","","feedback_test","","","","","","","","","","","",""
"586","","j","psychophysics","59","159583","0.0-7.0-1.0-1.0-0.0-0.25","4","4","4","4","4","4","4","3","4","4","5","5","5","5","5","5","5","5","5","5","1","1","1","1","1","1","1","1","1","0","0","1","1","0","0","0","1","0","1","1","0","1","0","1","5","1","1","1","2","1","2","3","2","5","2","718592959586500608","陈","389","","","","match","","","","","","","","","","","","","","key","j","16.66975531914888","768","428","j","true","match","img/triangle.png","三角","三角","ALT1_2","prac_ALT1_2","","","","","","","","","","","",""
"null","<span style='color:GreenYellow; font-size: 70px;'>正确! </span>","null","html-keyboard-response","60","160085","0.0-7.0-1.0-1.0-0.0-1.25","4","4","4","4","4","4","4","3","4","4","5","5","5","5","5","5","5","5","5","5","1","1","1","1","1","1","1","1","1","0","0","1","1","0","0","0","1","0","1","1","0","1","0","1","5","1","1","1","2","1","2","3","2","5","2","718592959586500608","陈","389","","","","","","","","","","","","","","","","","","","","","","","","","","","","","","feedback_test","","","","","","","","","","","",""
"592","","f","psychophysics","61","161680","0.0-7.0-1.0-1.0-0.0-0.26","4","4","4","4","4","4","4","3","4","4","5","5","5","5","5","5","5","5","5","5","1","1","1","1","1","1","1","1","1","0","0","1","1","0","0","0","1","0","1","1","0","1","0","1","5","1","1","1","2","1","2","3","2","5","2","718592959586500608","陈","389","","","","nonmatch","","","","","","","","","","","","","","key","f","16.664542553191225","768","428","f","true","nonmatch","img/square.png","六边","方形","ALT1_2","prac_ALT1_2","","","","","","","","","","","",""
"null","<span style='color:GreenYellow; font-size: 70px;'>正确! </span>","null","html-keyboard-response","62","162181","0.0-7.0-1.0-1.0-0.0-1.26","4","4","4","4","4","4","4","3","4","4","5","5","5","5","5","5","5","5","5","5","1","1","1","1","1","1","1","1","1","0","0","1","1","0","0","0","1","0","1","1","0","1","0","1","5","1","1","1","2","1","2","3","2","5","2","718592959586500608","陈","389","","","","","","","","","","","","","","","","","","","","","","","","","","","","","","feedback_test","","","","","","","","","","","",""
"567","","f","psychophysics","63","163750","0.0-7.0-1.0-1.0-0.0-0.27","4","4","4","4","4","4","4","3","4","4","5","5","5","5","5","5","5","5","5","5","1","1","1","1","1","1","1","1","1","0","0","1","1","0","0","0","1","0","1","1","0","1","0","1","5","1","1","1","2","1","2","3","2","5","2","718592959586500608","陈","389","","","","nonmatch","","","","","","","","","","","","","","key","f","16.664935483871044","768","428","f","true","nonmatch","img/hexagon.png","椭圆","六边","ALT1_2","prac_ALT1_2","","","","","","","","","","","",""
"null","<span style='color:GreenYellow; font-size: 70px;'>正确! </span>","null","html-keyboard-response","64","164252","0.0-7.0-1.0-1.0-0.0-1.27","4","4","4","4","4","4","4","3","4","4","5","5","5","5","5","5","5","5","5","5","1","1","1","1","1","1","1","1","1","0","0","1","1","0","0","0","1","0","1","1","0","1","0","1","5","1","1","1","2","1","2","3","2","5","2","718592959586500608","陈","389","","","","","","","","","","","","","","","","","","","","","","","","","","","","","","feedback_test","","","","","","","","","","","",""
"561","","j","psychophysics","65","165814","0.0-7.0-1.0-1.0-0.0-0.28","4","4","4","4","4","4","4","3","4","4","5","5","5","5","5","5","5","5","5","5","1","1","1","1","1","1","1","1","1","0","0","1","1","0","0","0","1","0","1","1","0","1","0","1","5","1","1","1","2","1","2","3","2","5","2","718592959586500608","陈","389","","","","match","","","","","","","","","","","","","","key","j","16.663358695652278","768","428","j","true","match","img/triangle.png","三角","三角","ALT1_2","prac_ALT1_2","","","","","","","","","","","",""
"null","<span style='color:GreenYellow; font-size: 70px;'>正确! </span>","null","html-keyboard-response","66","166316","0.0-7.0-1.0-1.0-0.0-1.28","4","4","4","4","4","4","4","3","4","4","5","5","5","5","5","5","5","5","5","5","1","1","1","1","1","1","1","1","1","0","0","1","1","0","0","0","1","0","1","1","0","1","0","1","5","1","1","1","2","1","2","3","2","5","2","718592959586500608","陈","389","","","","","","","","","","","","","","","","","","","","","","","","","","","","","","feedback_test","","","","","","","","","","","",""
"599","","j","psychophysics","67","167916","0.0-7.0-1.0-1.0-0.0-0.29","4","4","4","4","4","4","4","3","4","4","5","5","5","5","5","5","5","5","5","5","1","1","1","1","1","1","1","1","1","0","0","1","1","0","0","0","1","0","1","1","0","1","0","1","5","1","1","1","2","1","2","3","2","5","2","718592959586500608","陈","389","","","","match","","","","","","","","","","","","","","key","j","16.66396842105253","768","428","j","true","match","img/hexagon.png","六边","六边","ALT1_2","prac_ALT1_2","","","","","","","","","","","",""
"null","<span style='color:GreenYellow; font-size: 70px;'>正确! </span>","null","html-keyboard-response","68","168418","0.0-7.0-1.0-1.0-0.0-1.29","4","4","4","4","4","4","4","3","4","4","5","5","5","5","5","5","5","5","5","5","1","1","1","1","1","1","1","1","1","0","0","1","1","0","0","0","1","0","1","1","0","1","0","1","5","1","1","1","2","1","2","3","2","5","2","718592959586500608","陈","389","","","","","","","","","","","","","","","","","","","","","","","","","","","","","","feedback_test","","","","","","","","","","","",""
"576","","j","psychophysics","69","169998","0.0-7.0-1.0-1.0-0.0-0.30","4","4","4","4","4","4","4","3","4","4","5","5","5","5","5","5","5","5","5","5","1","1","1","1","1","1","1","1","1","0","0","1","1","0","0","0","1","0","1","1","0","1","0","1","5","1","1","1","2","1","2","3","2","5","2","718592959586500608","陈","389","","","","match","","","","","","","","","","","","","","key","j","16.66570967741959","768","428","j","true","match","img/square.png","方形","方形","ALT1_2","prac_ALT1_2","","","","","","","","","","","",""
"null","<span style='color:GreenYellow; font-size: 70px;'>正确! </span>","null","html-keyboard-response","70","170501","0.0-7.0-1.0-1.0-0.0-1.30","4","4","4","4","4","4","4","3","4","4","5","5","5","5","5","5","5","5","5","5","1","1","1","1","1","1","1","1","1","0","0","1","1","0","0","0","1","0","1","1","0","1","0","1","5","1","1","1","2","1","2","3","2","5","2","718592959586500608","陈","389","","","","","","","","","","","","","","","","","","","","","","","","","","","","","","feedback_test","","","","","","","","","","","",""
"593","","j","psychophysics","71","172095","0.0-7.0-1.0-1.0-0.0-0.31","4","4","4","4","4","4","4","3","4","4","5","5","5","5","5","5","5","5","5","5","1","1","1","1","1","1","1","1","1","0","0","1","1","0","0","0","1","0","1","1","0","1","0","1","5","1","1","1","2","1","2","3","2","5","2","718592959586500608","陈","389","","","","match","","","","","","","","","","","","","","key","j","16.665191489361607","768","428","j","true","match","img/hexagon.png","六边","六边","ALT1_2","prac_ALT1_2","","","","","","","","","","","",""
"null","<span style='color:GreenYellow; font-size: 70px;'>正确! </span>","null","html-keyboard-response","72","172598","0.0-7.0-1.0-1.0-0.0-1.31","4","4","4","4","4","4","4","3","4","4","5","5","5","5","5","5","5","5","5","5","1","1","1","1","1","1","1","1","1","0","0","1","1","0","0","0","1","0","1","1","0","1","0","1","5","1","1","1","2","1","2","3","2","5","2","718592959586500608","陈","389","","","","","","","","","","","","","","","","","","","","","","","","","","","","","","feedback_test","","","","","","","","","","","",""
"644","","j","psychophysics","73","174243","0.0-7.0-1.0-1.0-0.0-0.32","4","4","4","4","4","4","4","3","4","4","5","5","5","5","5","5","5","5","5","5","1","1","1","1","1","1","1","1","1","0","0","1","1","0","0","0","1","0","1","1","0","1","0","1","5","1","1","1","2","1","2","3","2","5","2","718592959586500608","陈","389","","","","match","","","","","","","","","","","","","","key","j","16.666371134020682","768","428","j","true","match","img/hexagon.png","六边","六边","ALT1_2","prac_ALT1_2","","","","","","","","","","","",""
"null","<span style='color:GreenYellow; font-size: 70px;'>正确! </span>","null","html-keyboard-response","74","174744","0.0-7.0-1.0-1.0-0.0-1.32","4","4","4","4","4","4","4","3","4","4","5","5","5","5","5","5","5","5","5","5","1","1","1","1","1","1","1","1","1","0","0","1","1","0","0","0","1","0","1","1","0","1","0","1","5","1","1","1","2","1","2","3","2","5","2","718592959586500608","陈","389","","","","","","","","","","","","","","","","","","","","","","","","","","","","","","feedback_test","","","","","","","","","","","",""
"532","","f","psychophysics","75","176278","0.0-7.0-1.0-1.0-0.0-0.33","4","4","4","4","4","4","4","3","4","4","5","5","5","5","5","5","5","5","5","5","1","1","1","1","1","1","1","1","1","0","0","1","1","0","0","0","1","0","1","1","0","1","0","1","5","1","1","1","2","1","2","3","2","5","2","718592959586500608","陈","389","","","","nonmatch","","","","","","","","","","","","","","key","f","16.66592307692294","768","428","f","true","nonmatch","img/triangle.png","椭圆","三角","ALT1_2","prac_ALT1_2","","","","","","","","","","","",""
"null","<span style='color:GreenYellow; font-size: 70px;'>正确! </span>","null","html-keyboard-response","76","176779","0.0-7.0-1.0-1.0-0.0-1.33","4","4","4","4","4","4","4","3","4","4","5","5","5","5","5","5","5","5","5","5","1","1","1","1","1","1","1","1","1","0","0","1","1","0","0","0","1","0","1","1","0","1","0","1","5","1","1","1","2","1","2","3","2","5","2","718592959586500608","陈","389","","","","","","","","","","","","","","","","","","","","","","","","","","","","","","feedback_test","","","","","","","","","","","",""
"564","","j","psychophysics","77","178346","0.0-7.0-1.0-1.0-0.0-0.34","4","4","4","4","4","4","4","3","4","4","5","5","5","5","5","5","5","5","5","5","1","1","1","1","1","1","1","1","1","0","0","1","1","0","0","0","1","0","1","1","0","1","0","1","5","1","1","1","2","1","2","3","2","5","2","718592959586500608","陈","389","","","","match","","","","","","","","","","","","","","key","j","16.6658172043011","768","428","j","true","match","img/ellipse.png","椭圆","椭圆","ALT1_2","prac_ALT1_2","","","","","","","","","","","",""
"null","<span style='color:GreenYellow; font-size: 70px;'>正确! </span>","null","html-keyboard-response","78","178847","0.0-7.0-1.0-1.0-0.0-1.34","4","4","4","4","4","4","4","3","4","4","5","5","5","5","5","5","5","5","5","5","1","1","1","1","1","1","1","1","1","0","0","1","1","0","0","0","1","0","1","1","0","1","0","1","5","1","1","1","2","1","2","3","2","5","2","718592959586500608","陈","389","","","","","","","","","","","","","","","","","","","","","","","","","","","","","","feedback_test","","","","","","","","","","","",""
"552","","f","psychophysics","79","180401","0.0-7.0-1.0-1.0-0.0-0.35","4","4","4","4","4","4","4","3","4","4","5","5","5","5","5","5","5","5","5","5","1","1","1","1","1","1","1","1","1","0","0","1","1","0","0","0","1","0","1","1","0","1","0","1","5","1","1","1","2","1","2","3","2","5","2","718592959586500608","陈","389","","","","nonmatch","","","","","","","","","","","","","","key","f","16.663206521739284","768","428","f","true","nonmatch","img/ellipse.png","方形","椭圆","ALT1_2","prac_ALT1_2","","","","","","","","","","","",""
"null","<span style='color:GreenYellow; font-size: 70px;'>正确! </span>","null","html-keyboard-response","80","180902","0.0-7.0-1.0-1.0-0.0-1.35","4","4","4","4","4","4","4","3","4","4","5","5","5","5","5","5","5","5","5","5","1","1","1","1","1","1","1","1","1","0","0","1","1","0","0","0","1","0","1","1","0","1","0","1","5","1","1","1","2","1","2","3","2","5","2","718592959586500608","陈","389","","","","","","","","","","","","","","","","","","","","","","","","","","","","","","feedback_test","","","","","","","","","","","",""
"642","","f","psychophysics","81","182547","0.0-7.0-1.0-1.0-0.0-0.36","4","4","4","4","4","4","4","3","4","4","5","5","5","5","5","5","5","5","5","5","1","1","1","1","1","1","1","1","1","0","0","1","1","0","0","0","1","0","1","1","0","1","0","1","5","1","1","1","2","1","2","3","2","5","2","718592959586500608","陈","389","","","","nonmatch","","","","","","","","","","","","","","key","f","16.663907216494596","768","428","f","true","nonmatch","img/hexagon.png","方形","六边","ALT1_2","prac_ALT1_2","","","","","","","","","","","",""
"null","<span style='color:GreenYellow; font-size: 70px;'>正确! </span>","null","html-keyboard-response","82","183048","0.0-7.0-1.0-1.0-0.0-1.36","4","4","4","4","4","4","4","3","4","4","5","5","5","5","5","5","5","5","5","5","1","1","1","1","1","1","1","1","1","0","0","1","1","0","0","0","1","0","1","1","0","1","0","1","5","1","1","1","2","1","2","3","2","5","2","718592959586500608","陈","389","","","","","","","","","","","","","","","","","","","","","","","","","","","","","","feedback_test","","","","","","","","","","","",""
"644","","f","psychophysics","83","184695","0.0-7.0-1.0-1.0-0.0-0.37","4","4","4","4","4","4","4","3","4","4","5","5","5","5","5","5","5","5","5","5","1","1","1","1","1","1","1","1","1","0","0","1","1","0","0","0","1","0","1","1","0","1","0","1","5","1","1","1","2","1","2","3","2","5","2","718592959586500608","陈","389","","","","nonmatch","","","","","","","","","","","","","","key","f","16.66686597938161","768","428","f","true","nonmatch","img/triangle.png","方形","三角","ALT1_2","prac_ALT1_2","","","","","","","","","","","",""
"null","<span style='color:GreenYellow; font-size: 70px;'>正确! </span>","null","html-keyboard-response","84","185197","0.0-7.0-1.0-1.0-0.0-1.37","4","4","4","4","4","4","4","3","4","4","5","5","5","5","5","5","5","5","5","5","1","1","1","1","1","1","1","1","1","0","0","1","1","0","0","0","1","0","1","1","0","1","0","1","5","1","1","1","2","1","2","3","2","5","2","718592959586500608","陈","389","","","","","","","","","","","","","","","","","","","","","","","","","","","","","","feedback_test","","","","","","","","","","","",""
"577","","f","psychophysics","85","186776","0.0-7.0-1.0-1.0-0.0-0.38","4","4","4","4","4","4","4","3","4","4","5","5","5","5","5","5","5","5","5","5","1","1","1","1","1","1","1","1","1","0","0","1","1","0","0","0","1","0","1","1","0","1","0","1","5","1","1","1","2","1","2","3","2","5","2","718592959586500608","陈","389","","","","nonmatch","","","","","","","","","","","","","","key","f","16.663204301075424","768","428","f","true","nonmatch","img/square.png","椭圆","方形","ALT1_2","prac_ALT1_2","","","","","","","","","","","",""
"null","<span style='color:GreenYellow; font-size: 70px;'>正确! </span>","null","html-keyboard-response","86","187278","0.0-7.0-1.0-1.0-0.0-1.38","4","4","4","4","4","4","4","3","4","4","5","5","5","5","5","5","5","5","5","5","1","1","1","1","1","1","1","1","1","0","0","1","1","0","0","0","1","0","1","1","0","1","0","1","5","1","1","1","2","1","2","3","2","5","2","718592959586500608","陈","389","","","","","","","","","","","","","","","","","","","","","","","","","","","","","","feedback_test","","","","","","","","","","","",""
"553","","f","psychophysics","87","188833","0.0-7.0-1.0-1.0-0.0-0.39","4","4","4","4","4","4","4","3","4","4","5","5","5","5","5","5","5","5","5","5","1","1","1","1","1","1","1","1","1","0","0","1","1","0","0","0","1","0","1","1","0","1","0","1","5","1","1","1","2","1","2","3","2","5","2","718592959586500608","陈","389","","","","nonmatch","","","","","","","","","","","","","","key","f","16.666397849462427","768","428","f","true","nonmatch","img/ellipse.png","六边","椭圆","ALT1_2","prac_ALT1_2","","","","","","","","","","","",""
"null","<span style='color:GreenYellow; font-size: 70px;'>正确! </span>","null","html-keyboard-response","88","189335","0.0-7.0-1.0-1.0-0.0-1.39","4","4","4","4","4","4","4","3","4","4","5","5","5","5","5","5","5","5","5","5","1","1","1","1","1","1","1","1","1","0","0","1","1","0","0","0","1","0","1","1","0","1","0","1","5","1","1","1","2","1","2","3","2","5","2","718592959586500608","陈","389","","","","","","","","","","","","","","","","","","","","","","","","","","","","","","feedback_test","","","","","","","","","","","",""
"574","","f","psychophysics","89","190912","0.0-7.0-1.0-1.0-0.0-0.40","4","4","4","4","4","4","4","3","4","4","5","5","5","5","5","5","5","5","5","5","1","1","1","1","1","1","1","1","1","0","0","1","1","0","0","0","1","0","1","1","0","1","0","1","5","1","1","1","2","1","2","3","2","5","2","718592959586500608","陈","389","","","","nonmatch","","","","","","","","","","","","","","key","f","16.6658172043011","768","428","f","true","nonmatch","img/hexagon.png","三角","六边","ALT1_2","prac_ALT1_2","","","","","","","","","","","",""
"null","<span style='color:GreenYellow; font-size: 70px;'>正确! </span>","null","html-keyboard-response","90","191415","0.0-7.0-1.0-1.0-0.0-1.40","4","4","4","4","4","4","4","3","4","4","5","5","5","5","5","5","5","5","5","5","1","1","1","1","1","1","1","1","1","0","0","1","1","0","0","0","1","0","1","1","0","1","0","1","5","1","1","1","2","1","2","3","2","5","2","718592959586500608","陈","389","","","","","","","","","","","","","","","","","","","","","","","","","","","","","","feedback_test","","","","","","","","","","","",""
"606","","j","psychophysics","91","193024","0.0-7.0-1.0-1.0-0.0-0.41","4","4","4","4","4","4","4","3","4","4","5","5","5","5","5","5","5","5","5","5","1","1","1","1","1","1","1","1","1","0","0","1","1","0","0","0","1","0","1","1","0","1","0","1","5","1","1","1","2","1","2","3","2","5","2","718592959586500608","陈","389","","","","match","","","","","","","","","","","","","","key","j","16.666326315789544","768","428","j","true","match","img/square.png","方形","方形","ALT1_2","prac_ALT1_2","","","","","","","","","","","",""
"null","<span style='color:GreenYellow; font-size: 70px;'>正确! </span>","null","html-keyboard-response","92","193525","0.0-7.0-1.0-1.0-0.0-1.41","4","4","4","4","4","4","4","3","4","4","5","5","5","5","5","5","5","5","5","5","1","1","1","1","1","1","1","1","1","0","0","1","1","0","0","0","1","0","1","1","0","1","0","1","5","1","1","1","2","1","2","3","2","5","2","718592959586500608","陈","389","","","","","","","","","","","","","","","","","","","","","","","","","","","","","","feedback_test","","","","","","","","","","","",""
"538","","f","psychophysics","93","195065","0.0-7.0-1.0-1.0-0.0-0.42","4","4","4","4","4","4","4","3","4","4","5","5","5","5","5","5","5","5","5","5","1","1","1","1","1","1","1","1","1","0","0","1","1","0","0","0","1","0","1","1","0","1","0","1","5","1","1","1","2","1","2","3","2","5","2","718592959586500608","陈","389","","","","nonmatch","","","","","","","","","","","","","","key","f","16.66764130434793","768","428","f","true","nonmatch","img/square.png","三角","方形","ALT1_2","prac_ALT1_2","","","","","","","","","","","",""
"null","<span style='color:GreenYellow; font-size: 70px;'>正确! </span>","null","html-keyboard-response","94","195567","0.0-7.0-1.0-1.0-0.0-1.42","4","4","4","4","4","4","4","3","4","4","5","5","5","5","5","5","5","5","5","5","1","1","1","1","1","1","1","1","1","0","0","1","1","0","0","0","1","0","1","1","0","1","0","1","5","1","1","1","2","1","2","3","2","5","2","718592959586500608","陈","389","","","","","","","","","","","","","","","","","","","","","","","","","","","","","","feedback_test","","","","","","","","","","","",""
"546","","f","psychophysics","95","197114","0.0-7.0-1.0-1.0-0.0-0.43","4","4","4","4","4","4","4","3","4","4","5","5","5","5","5","5","5","5","5","5","1","1","1","1","1","1","1","1","1","0","0","1","1","0","0","0","1","0","1","1","0","1","0","1","5","1","1","1","2","1","2","3","2","5","2","718592959586500608","陈","389","","","","nonmatch","","","","","","","","","","","","","","key","f","16.6644891304348","768","428","f","true","nonmatch","img/ellipse.png","三角","椭圆","ALT1_2","prac_ALT1_2","","","","","","","","","","","",""
"null","<span style='color:GreenYellow; font-size: 70px;'>正确! </span>","null","html-keyboard-response","96","197614","0.0-7.0-1.0-1.0-0.0-1.43","4","4","4","4","4","4","4","3","4","4","5","5","5","5","5","5","5","5","5","5","1","1","1","1","1","1","1","1","1","0","0","1","1","0","0","0","1","0","1","1","0","1","0","1","5","1","1","1","2","1","2","3","2","5","2","718592959586500608","陈","389","","","","","","","","","","","","","","","","","","","","","","","","","","","","","","feedback_test","","","","","","","","","","","",""
"585","","j","psychophysics","97","199201","0.0-7.0-1.0-1.0-0.0-0.44","4","4","4","4","4","4","4","3","4","4","5","5","5","5","5","5","5","5","5","5","1","1","1","1","1","1","1","1","1","0","0","1","1","0","0","0","1","0","1","1","0","1","0","1","5","1","1","1","2","1","2","3","2","5","2","718592959586500608","陈","389","","","","match","","","","","","","","","","","","","","key","j","16.666202127659492","768","428","j","true","match","img/square.png","方形","方形","ALT1_2","prac_ALT1_2","","","","","","","","","","","",""
"null","<span style='color:GreenYellow; font-size: 70px;'>正确! </span>","null","html-keyboard-response","98","199703","0.0-7.0-1.0-1.0-0.0-1.44","4","4","4","4","4","4","4","3","4","4","5","5","5","5","5","5","5","5","5","5","1","1","1","1","1","1","1","1","1","0","0","1","1","0","0","0","1","0","1","1","0","1","0","1","5","1","1","1","2","1","2","3","2","5","2","718592959586500608","陈","389","","","","","","","","","","","","","","","","","","","","","","","","","","","","","","feedback_test","","","","","","","","","","","",""
"573","","j","psychophysics","99","201279","0.0-7.0-1.0-1.0-0.0-0.45","4","4","4","4","4","4","4","3","4","4","5","5","5","5","5","5","5","5","5","5","1","1","1","1","1","1","1","1","1","0","0","1","1","0","0","0","1","0","1","1","0","1","0","1","5","1","1","1","2","1","2","3","2","5","2","718592959586500608","陈","389","","","","match","","","","","","","","","","","","","","key","j","16.66555913978523","768","428","j","true","match","img/triangle.png","三角","三角","ALT1_2","prac_ALT1_2","","","","","","","","","","","",""
"null","<span style='color:GreenYellow; font-size: 70px;'>正确! </span>","null","html-keyboard-response","100","201780","0.0-7.0-1.0-1.0-0.0-1.45","4","4","4","4","4","4","4","3","4","4","5","5","5","5","5","5","5","5","5","5","1","1","1","1","1","1","1","1","1","0","0","1","1","0","0","0","1","0","1","1","0","1","0","1","5","1","1","1","2","1","2","3","2","5","2","718592959586500608","陈","389","","","","","","","","","","","","","","","","","","","","","","","","","","","","","","feedback_test","","","","","","","","","","","",""
"570","","f","psychophysics","101","203353","0.0-7.0-1.0-1.0-0.0-0.46","4","4","4","4","4","4","4","3","4","4","5","5","5","5","5","5","5","5","5","5","1","1","1","1","1","1","1","1","1","0","0","1","1","0","0","0","1","0","1","1","0","1","0","1","5","1","1","1","2","1","2","3","2","5","2","718592959586500608","陈","389","","","","nonmatch","","","","","","","","","","","","","","key","f","16.666892473118363","768","428","j","false","match","img/ellipse.png","椭圆","椭圆","ALT1_2","prac_ALT1_2","","","","","","","","","","","",""
"null","<span style='color:red; font-size: 70px;'>错误! </span>","null","html-keyboard-response","102","203853","0.0-7.0-1.0-1.0-0.0-1.46","4","4","4","4","4","4","4","3","4","4","5","5","5","5","5","5","5","5","5","5","1","1","1","1","1","1","1","1","1","0","0","1","1","0","0","0","1","0","1","1","0","1","0","1","5","1","1","1","2","1","2","3","2","5","2","718592959586500608","陈","389","","","","","","","","","","","","","","","","","","","","","","","","","","","","","","feedback_test","","","","","","","","","","","",""
"607","","j","psychophysics","103","205462","0.0-7.0-1.0-1.0-0.0-0.47","4","4","4","4","4","4","4","3","4","4","5","5","5","5","5","5","5","5","5","5","1","1","1","1","1","1","1","1","1","0","0","1","1","0","0","0","1","0","1","1","0","1","0","1","5","1","1","1","2","1","2","3","2","5","2","718592959586500608","陈","389","","","","match","","","","","","","","","","","","","","key","j","16.66565263157888","768","428","j","true","match","img/ellipse.png","椭圆","椭圆","ALT1_2","prac_ALT1_2","","","","","","","","","","","",""
"null","<span style='color:GreenYellow; font-size: 70px;'>正确! </span>","null","html-keyboard-response","104","205965","0.0-7.0-1.0-1.0-0.0-1.47","4","4","4","4","4","4","4","3","4","4","5","5","5","5","5","5","5","5","5","5","1","1","1","1","1","1","1","1","1","0","0","1","1","0","0","0","1","0","1","1","0","1","0","1","5","1","1","1","2","1","2","3","2","5","2","718592959586500608","陈","389","","","","","","","","","","","","","","","","","","","","","","","","","","","","","","feedback_test","","","","","","","","","","","",""
"54768","<style>.context{color:white; font-size: 35px; line-height:40px}</style>                          <div><p class='context'>您正确回答了96% 的试次。</p><p class='context'>您的平均反应时为624毫秒。</p><p class='context'>恭喜您完成练习。按空格键进入正式实验。</p><p class='footer' style='font-size: 35px; line-height:40px;'>请在进入正式实验实验之前将您的<span style='color: lightgreen;'>食指</span>放在电脑键盘的相应键位上进行按键。</p>"," ","html-keyboard-response","105","260739","0.0-7.0-1.0-2.0","4","4","4","4","4","4","4","3","4","4","5","5","5","5","5","5","5","5","5","5","1","1","1","1","1","1","1","1","1","0","0","1","1","0","0","0","1","0","1","1","0","1","0","1","5","1","1","1","2","1","2","3","2","5","2","718592959586500608","陈","389","","","","","","","","","","","","","","","","","","","","","","","","","","","","","","","","","","","","","","","","","",""
"1204","
  <p style='color: white; font-size: 22px'>请您将手指放在按键上，准备进入正式的匹配任务。</p>
  <p> <div style = ""color: green""><按空格键进入下一阶段的匹配任务></div></p>
  "," ","html-keyboard-response","106","261947","0.0-7.0-1.0-3.0","4","4","4","4","4","4","4","3","4","4","5","5","5","5","5","5","5","5","5","5","1","1","1","1","1","1","1","1","1","0","0","1","1","0","0","0","1","0","1","1","0","1","0","1","5","1","1","1","2","1","2","3","2","5","2","718592959586500608","陈","389","","","","","","","","","","","","","","","","","","","","","","","","","","","","","","","","","","","","","","","","","",""
"608","","f","psychophysics","107","263557","0.0-7.0-1.0-4.0-0.0-0.0","4","4","4","4","4","4","4","3","4","4","5","5","5","5","5","5","5","5","5","5","1","1","1","1","1","1","1","1","1","0","0","1","1","0","0","0","1","0","1","1","0","1","0","1","5","1","1","1","2","1","2","3","2","5","2","718592959586500608","陈","389","","","","nonmatch","","","","","","","","","","","","","","key","f","16.667562500000106","768","428","f","true","nonmatch","img/square.png","椭圆","方形","ALT1","formal_ALT1_2","","","","","","","","","","","",""
"null","<span style='color:GreenYellow; font-size: 70px;'>正确! </span>","null","html-keyboard-response","108","264060","0.0-7.0-1.0-4.0-0.0-1.0","4","4","4","4","4","4","4","3","4","4","5","5","5","5","5","5","5","5","5","5","1","1","1","1","1","1","1","1","1","0","0","1","1","0","0","0","1","0","1","1","0","1","0","1","5","1","1","1","2","1","2","3","2","5","2","718592959586500608","陈","389","","","","","","","","","","","","","","","","","","","","","","","","","","","","","","feedback_test","","","","","","","","","","","",""
"609","","f","psychophysics","109","265670","0.0-7.0-1.0-4.0-0.0-0.1","4","4","4","4","4","4","4","3","4","4","5","5","5","5","5","5","5","5","5","5","1","1","1","1","1","1","1","1","1","0","0","1","1","0","0","0","1","0","1","1","0","1","0","1","5","1","1","1","2","1","2","3","2","5","2","718592959586500608","陈","389","","","","nonmatch","","","","","","","","","","","","","","key","f","16.664357894736856","768","428","f","true","nonmatch","img/ellipse.png","三角","椭圆","ALT1","formal_ALT1_2","","","","","","","","","","","",""
"null","<span style='color:GreenYellow; font-size: 70px;'>正确! </span>","null","html-keyboard-response","110","266171","0.0-7.0-1.0-4.0-0.0-1.1","4","4","4","4","4","4","4","3","4","4","5","5","5","5","5","5","5","5","5","5","1","1","1","1","1","1","1","1","1","0","0","1","1","0","0","0","1","0","1","1","0","1","0","1","5","1","1","1","2","1","2","3","2","5","2","718592959586500608","陈","389","","","","","","","","","","","","","","","","","","","","","","","","","","","","","","feedback_test","","","","","","","","","","","",""
"678","","j","psychophysics","111","267851","0.0-7.0-1.0-4.0-0.0-0.2","4","4","4","4","4","4","4","3","4","4","5","5","5","5","5","5","5","5","5","5","1","1","1","1","1","1","1","1","1","0","0","1","1","0","0","0","1","0","1","1","0","1","0","1","5","1","1","1","2","1","2","3","2","5","2","718592959586500608","陈","389","","","","match","","","","","","","","","","","","","","key","j","16.666494949495025","768","428","j","true","match","img/hexagon.png","六边","六边","ALT1","formal_ALT1_2","","","","","","","","","","","",""
"null","<span style='color:GreenYellow; font-size: 70px;'>正确! </span>","null","html-keyboard-response","112","268353","0.0-7.0-1.0-4.0-0.0-1.2","4","4","4","4","4","4","4","3","4","4","5","5","5","5","5","5","5","5","5","5","1","1","1","1","1","1","1","1","1","0","0","1","1","0","0","0","1","0","1","1","0","1","0","1","5","1","1","1","2","1","2","3","2","5","2","718592959586500608","陈","389","","","","","","","","","","","","","","","","","","","","","","","","","","","","","","feedback_test","","","","","","","","","","","",""
"551","","j","psychophysics","113","269905","0.0-7.0-1.0-4.0-0.0-0.3","4","4","4","4","4","4","4","3","4","4","5","5","5","5","5","5","5","5","5","5","1","1","1","1","1","1","1","1","1","0","0","1","1","0","0","0","1","0","1","1","0","1","0","1","5","1","1","1","2","1","2","3","2","5","2","718592959586500608","陈","389","","","","match","","","","","","","","","","","","","","key","j","16.665043478260962","768","428","j","true","match","img/square.png","方形","方形","ALT1","formal_ALT1_2","","","","","","","","","","","",""
"null","<span style='color:GreenYellow; font-size: 70px;'>正确! </span>","null","html-keyboard-response","114","270406","0.0-7.0-1.0-4.0-0.0-1.3","4","4","4","4","4","4","4","3","4","4","5","5","5","5","5","5","5","5","5","5","1","1","1","1","1","1","1","1","1","0","0","1","1","0","0","0","1","0","1","1","0","1","0","1","5","1","1","1","2","1","2","3","2","5","2","718592959586500608","陈","389","","","","","","","","","","","","","","","","","","","","","","","","","","","","","","feedback_test","","","","","","","","","","","",""
"584","","f","psychophysics","115","271991","0.0-7.0-1.0-4.0-0.0-0.4","4","4","4","4","4","4","4","3","4","4","5","5","5","5","5","5","5","5","5","5","1","1","1","1","1","1","1","1","1","0","0","1","1","0","0","0","1","0","1","1","0","1","0","1","5","1","1","1","2","1","2","3","2","5","2","718592959586500608","陈","389","","","","nonmatch","","","","","","","","","","","","","","key","f","16.666127659574254","768","428","f","true","nonmatch","img/hexagon.png","椭圆","六边","ALT1","formal_ALT1_2","","","","","","","","","","","",""
"null","<span style='color:GreenYellow; font-size: 70px;'>正确! </span>","null","html-keyboard-response","116","272492","0.0-7.0-1.0-4.0-0.0-1.4","4","4","4","4","4","4","4","3","4","4","5","5","5","5","5","5","5","5","5","5","1","1","1","1","1","1","1","1","1","0","0","1","1","0","0","0","1","0","1","1","0","1","0","1","5","1","1","1","2","1","2","3","2","5","2","718592959586500608","陈","389","","","","","","","","","","","","","","","","","","","","","","","","","","","","","","feedback_test","","","","","","","","","","","",""
"604","","f","psychophysics","117","274098","0.0-7.0-1.0-4.0-0.0-0.5","4","4","4","4","4","4","4","3","4","4","5","5","5","5","5","5","5","5","5","5","1","1","1","1","1","1","1","1","1","0","0","1","1","0","0","0","1","0","1","1","0","1","0","1","5","1","1","1","2","1","2","3","2","5","2","718592959586500608","陈","389","","","","nonmatch","","","","","","","","","","","","","","key","f","16.669726315788974","768","428","f","true","nonmatch","img/triangle.png","六边","三角","ALT1","formal_ALT1_2","","","","","","","","","","","",""
"null","<span style='color:GreenYellow; font-size: 70px;'>正确! </span>","null","html-keyboard-response","118","274600","0.0-7.0-1.0-4.0-0.0-1.5","4","4","4","4","4","4","4","3","4","4","5","5","5","5","5","5","5","5","5","5","1","1","1","1","1","1","1","1","1","0","0","1","1","0","0","0","1","0","1","1","0","1","0","1","5","1","1","1","2","1","2","3","2","5","2","718592959586500608","陈","389","","","","","","","","","","","","","","","","","","","","","","","","","","","","","","feedback_test","","","","","","","","","","","",""
"596","","j","psychophysics","119","276199","0.0-7.0-1.0-4.0-0.0-0.6","4","4","4","4","4","4","4","3","4","4","5","5","5","5","5","5","5","5","5","5","1","1","1","1","1","1","1","1","1","0","0","1","1","0","0","0","1","0","1","1","0","1","0","1","5","1","1","1","2","1","2","3","2","5","2","718592959586500608","陈","389","","","","match","","","","","","","","","","","","","","key","j","16.66696842105287","768","428","j","true","match","img/hexagon.png","六边","六边","ALT1","formal_ALT1_2","","","","","","","","","","","",""
"null","<span style='color:GreenYellow; font-size: 70px;'>正确! </span>","null","html-keyboard-response","120","276701","0.0-7.0-1.0-4.0-0.0-1.6","4","4","4","4","4","4","4","3","4","4","5","5","5","5","5","5","5","5","5","5","1","1","1","1","1","1","1","1","1","0","0","1","1","0","0","0","1","0","1","1","0","1","0","1","5","1","1","1","2","1","2","3","2","5","2","718592959586500608","陈","389","","","","","","","","","","","","","","","","","","","","","","","","","","","","","","feedback_test","","","","","","","","","","","",""
"557","","j","psychophysics","121","278260","0.0-7.0-1.0-4.0-0.0-0.7","4","4","4","4","4","4","4","3","4","4","5","5","5","5","5","5","5","5","5","5","1","1","1","1","1","1","1","1","1","0","0","1","1","0","0","0","1","0","1","1","0","1","0","1","5","1","1","1","2","1","2","3","2","5","2","718592959586500608","陈","389","","","","match","","","","","","","","","","","","","","key","j","16.665612903225828","768","428","j","true","match","img/square.png","方形","方形","ALT1","formal_ALT1_2","","","","","","","","","","","",""
"null","<span style='color:GreenYellow; font-size: 70px;'>正确! </span>","null","html-keyboard-response","122","278762","0.0-7.0-1.0-4.0-0.0-1.7","4","4","4","4","4","4","4","3","4","4","5","5","5","5","5","5","5","5","5","5","1","1","1","1","1","1","1","1","1","0","0","1","1","0","0","0","1","0","1","1","0","1","0","1","5","1","1","1","2","1","2","3","2","5","2","718592959586500608","陈","389","","","","","","","","","","","","","","","","","","","","","","","","","","","","","","feedback_test","","","","","","","","","","","",""
"540","","f","psychophysics","123","280302","0.0-7.0-1.0-4.0-0.0-0.8","4","4","4","4","4","4","4","3","4","4","5","5","5","5","5","5","5","5","5","5","1","1","1","1","1","1","1","1","1","0","0","1","1","0","0","0","1","0","1","1","0","1","0","1","5","1","1","1","2","1","2","3","2","5","2","718592959586500608","陈","389","","","","nonmatch","","","","","","","","","","","","","","key","f","16.66689010989049","768","428","f","true","nonmatch","img/square.png","三角","方形","ALT1","formal_ALT1_2","","","","","","","","","","","",""
"null","<span style='color:GreenYellow; font-size: 70px;'>正确! </span>","null","html-keyboard-response","124","280803","0.0-7.0-1.0-4.0-0.0-1.8","4","4","4","4","4","4","4","3","4","4","5","5","5","5","5","5","5","5","5","5","1","1","1","1","1","1","1","1","1","0","0","1","1","0","0","0","1","0","1","1","0","1","0","1","5","1","1","1","2","1","2","3","2","5","2","718592959586500608","陈","389","","","","","","","","","","","","","","","","","","","","","","","","","","","","","","feedback_test","","","","","","","","","","","",""
"568","","f","psychophysics","125","282373","0.0-7.0-1.0-4.0-0.0-0.9","4","4","4","4","4","4","4","3","4","4","5","5","5","5","5","5","5","5","5","5","1","1","1","1","1","1","1","1","1","0","0","1","1","0","0","0","1","0","1","1","0","1","0","1","5","1","1","1","2","1","2","3","2","5","2","718592959586500608","陈","389","","","","nonmatch","","","","","","","","","","","","","","key","f","16.66818279569896","768","428","f","true","nonmatch","img/triangle.png","椭圆","三角","ALT1","formal_ALT1_2","","","","","","","","","","","",""
"null","<span style='color:GreenYellow; font-size: 70px;'>正确! </span>","null","html-keyboard-response","126","282876","0.0-7.0-1.0-4.0-0.0-1.9","4","4","4","4","4","4","4","3","4","4","5","5","5","5","5","5","5","5","5","5","1","1","1","1","1","1","1","1","1","0","0","1","1","0","0","0","1","0","1","1","0","1","0","1","5","1","1","1","2","1","2","3","2","5","2","718592959586500608","陈","389","","","","","","","","","","","","","","","","","","","","","","","","","","","","","","feedback_test","","","","","","","","","","","",""
"559","","j","psychophysics","127","284437","0.0-7.0-1.0-4.0-0.0-0.10","4","4","4","4","4","4","4","3","4","4","5","5","5","5","5","5","5","5","5","5","1","1","1","1","1","1","1","1","1","0","0","1","1","0","0","0","1","0","1","1","0","1","0","1","5","1","1","1","2","1","2","3","2","5","2","718592959586500608","陈","389","","","","match","","","","","","","","","","","","","","key","j","16.66406451612936","768","428","j","true","match","img/triangle.png","三角","三角","ALT1","formal_ALT1_2","","","","","","","","","","","",""
"null","<span style='color:GreenYellow; font-size: 70px;'>正确! </span>","null","html-keyboard-response","128","284938","0.0-7.0-1.0-4.0-0.0-1.10","4","4","4","4","4","4","4","3","4","4","5","5","5","5","5","5","5","5","5","5","1","1","1","1","1","1","1","1","1","0","0","1","1","0","0","0","1","0","1","1","0","1","0","1","5","1","1","1","2","1","2","3","2","5","2","718592959586500608","陈","389","","","","","","","","","","","","","","","","","","","","","","","","","","","","","","feedback_test","","","","","","","","","","","",""
"631","","f","psychophysics","129","286570","0.0-7.0-1.0-4.0-0.0-0.11","4","4","4","4","4","4","4","3","4","4","5","5","5","5","5","5","5","5","5","5","1","1","1","1","1","1","1","1","1","0","0","1","1","0","0","0","1","0","1","1","0","1","0","1","5","1","1","1","2","1","2","3","2","5","2","718592959586500608","陈","389","","","","nonmatch","","","","","","","","","","","","","","key","f","16.664876288659368","768","428","f","true","nonmatch","img/hexagon.png","方形","六边","ALT1","formal_ALT1_2","","","","","","","","","","","",""
"null","<span style='color:GreenYellow; font-size: 70px;'>正确! </span>","null","html-keyboard-response","130","287071","0.0-7.0-1.0-4.0-0.0-1.11","4","4","4","4","4","4","4","3","4","4","5","5","5","5","5","5","5","5","5","5","1","1","1","1","1","1","1","1","1","0","0","1","1","0","0","0","1","0","1","1","0","1","0","1","5","1","1","1","2","1","2","3","2","5","2","718592959586500608","陈","389","","","","","","","","","","","","","","","","","","","","","","","","","","","","","","feedback_test","","","","","","","","","","","",""
"667","","j","psychophysics","131","288739","0.0-7.0-1.0-4.0-0.0-0.12","4","4","4","4","4","4","4","3","4","4","5","5","5","5","5","5","5","5","5","5","1","1","1","1","1","1","1","1","1","0","0","1","1","0","0","0","1","0","1","1","0","1","0","1","5","1","1","1","2","1","2","3","2","5","2","718592959586500608","陈","389","","","","match","","","","","","","","","","","","","","key","j","16.663898989899234","768","428","j","true","match","img/ellipse.png","椭圆","椭圆","ALT1","formal_ALT1_2","","","","","","","","","","","",""
"null","<span style='color:GreenYellow; font-size: 70px;'>正确! </span>","null","html-keyboard-response","132","289241","0.0-7.0-1.0-4.0-0.0-1.12","4","4","4","4","4","4","4","3","4","4","5","5","5","5","5","5","5","5","5","5","1","1","1","1","1","1","1","1","1","0","0","1","1","0","0","0","1","0","1","1","0","1","0","1","5","1","1","1","2","1","2","3","2","5","2","718592959586500608","陈","389","","","","","","","","","","","","","","","","","","","","","","","","","","","","","","feedback_test","","","","","","","","","","","",""
"606","","j","psychophysics","133","290849","0.0-7.0-1.0-4.0-0.0-0.13","4","4","4","4","4","4","4","3","4","4","5","5","5","5","5","5","5","5","5","5","1","1","1","1","1","1","1","1","1","0","0","1","1","0","0","0","1","0","1","1","0","1","0","1","5","1","1","1","2","1","2","3","2","5","2","718592959586500608","陈","389","","","","match","","","","","","","","","","","","","","key","j","16.664747368421185","768","428","j","true","match","img/ellipse.png","椭圆","椭圆","ALT1","formal_ALT1_2","","","","","","","","","","","",""
"null","<span style='color:GreenYellow; font-size: 70px;'>正确! </span>","null","html-keyboard-response","134","291350","0.0-7.0-1.0-4.0-0.0-1.13","4","4","4","4","4","4","4","3","4","4","5","5","5","5","5","5","5","5","5","5","1","1","1","1","1","1","1","1","1","0","0","1","1","0","0","0","1","0","1","1","0","1","0","1","5","1","1","1","2","1","2","3","2","5","2","718592959586500608","陈","389","","","","","","","","","","","","","","","","","","","","","","","","","","","","","","feedback_test","","","","","","","","","","","",""
"620","","j","psychophysics","135","292972","0.0-7.0-1.0-4.0-0.0-0.14","4","4","4","4","4","4","4","3","4","4","5","5","5","5","5","5","5","5","5","5","1","1","1","1","1","1","1","1","1","0","0","1","1","0","0","0","1","0","1","1","0","1","0","1","5","1","1","1","2","1","2","3","2","5","2","718592959586500608","陈","389","","","","match","","","","","","","","","","","","","","key","j","16.66788659793848","768","428","j","true","match","img/hexagon.png","六边","六边","ALT1","formal_ALT1_2","","","","","","","","","","","",""
"null","<span style='color:GreenYellow; font-size: 70px;'>正确! </span>","null","html-keyboard-response","136","293474","0.0-7.0-1.0-4.0-0.0-1.14","4","4","4","4","4","4","4","3","4","4","5","5","5","5","5","5","5","5","5","5","1","1","1","1","1","1","1","1","1","0","0","1","1","0","0","0","1","0","1","1","0","1","0","1","5","1","1","1","2","1","2","3","2","5","2","718592959586500608","陈","389","","","","","","","","","","","","","","","","","","","","","","","","","","","","","","feedback_test","","","","","","","","","","","",""
"681","","f","psychophysics","137","295156","0.0-7.0-1.0-4.0-0.0-0.15","4","4","4","4","4","4","4","3","4","4","5","5","5","5","5","5","5","5","5","5","1","1","1","1","1","1","1","1","1","0","0","1","1","0","0","0","1","0","1","1","0","1","0","1","5","1","1","1","2","1","2","3","2","5","2","718592959586500608","陈","389","","","","nonmatch","","","","","","","","","","","","","","key","f","16.66671000000031","768","428","f","true","nonmatch","img/square.png","六边","方形","ALT1","formal_ALT1_2","","","","","","","","","","","",""
"null","<span style='color:GreenYellow; font-size: 70px;'>正确! </span>","null","html-keyboard-response","138","295658","0.0-7.0-1.0-4.0-0.0-1.15","4","4","4","4","4","4","4","3","4","4","5","5","5","5","5","5","5","5","5","5","1","1","1","1","1","1","1","1","1","0","0","1","1","0","0","0","1","0","1","1","0","1","0","1","5","1","1","1","2","1","2","3","2","5","2","718592959586500608","陈","389","","","","","","","","","","","","","","","","","","","","","","","","","","","","","","feedback_test","","","","","","","","","","","",""
"524","","j","psychophysics","139","297184","0.0-7.0-1.0-4.0-0.0-0.16","4","4","4","4","4","4","4","3","4","4","5","5","5","5","5","5","5","5","5","5","1","1","1","1","1","1","1","1","1","0","0","1","1","0","0","0","1","0","1","1","0","1","0","1","5","1","1","1","2","1","2","3","2","5","2","718592959586500608","陈","389","","","","match","","","","","","","","","","","","","","key","j","16.665788888889235","768","428","j","true","match","img/square.png","方形","方形","ALT1","formal_ALT1_2","","","","","","","","","","","",""
"null","<span style='color:GreenYellow; font-size: 70px;'>正确! </span>","null","html-keyboard-response","140","297685","0.0-7.0-1.0-4.0-0.0-1.16","4","4","4","4","4","4","4","3","4","4","5","5","5","5","5","5","5","5","5","5","1","1","1","1","1","1","1","1","1","0","0","1","1","0","0","0","1","0","1","1","0","1","0","1","5","1","1","1","2","1","2","3","2","5","2","718592959586500608","陈","389","","","","","","","","","","","","","","","","","","","","","","","","","","","","","","feedback_test","","","","","","","","","","","",""
"529","","f","psychophysics","141","299215","0.0-7.0-1.0-4.0-0.0-0.17","4","4","4","4","4","4","4","3","4","4","5","5","5","5","5","5","5","5","5","5","1","1","1","1","1","1","1","1","1","0","0","1","1","0","0","0","1","0","1","1","0","1","0","1","5","1","1","1","2","1","2","3","2","5","2","718592959586500608","陈","389","","","","nonmatch","","","","","","","","","","","","","","key","f","16.665700000000005","768","428","f","true","nonmatch","img/hexagon.png","三角","六边","ALT1","formal_ALT1_2","","","","","","","","","","","",""
"null","<span style='color:GreenYellow; font-size: 70px;'>正确! </span>","null","html-keyboard-response","142","299717","0.0-7.0-1.0-4.0-0.0-1.17","4","4","4","4","4","4","4","3","4","4","5","5","5","5","5","5","5","5","5","5","1","1","1","1","1","1","1","1","1","0","0","1","1","0","0","0","1","0","1","1","0","1","0","1","5","1","1","1","2","1","2","3","2","5","2","718592959586500608","陈","389","","","","","","","","","","","","","","","","","","","","","","","","","","","","","","feedback_test","","","","","","","","","","","",""
"636","","f","psychophysics","143","301355","0.0-7.0-1.0-4.0-0.0-0.18","4","4","4","4","4","4","4","3","4","4","5","5","5","5","5","5","5","5","5","5","1","1","1","1","1","1","1","1","1","0","0","1","1","0","0","0","1","0","1","1","0","1","0","1","5","1","1","1","2","1","2","3","2","5","2","718592959586500608","陈","389","","","","nonmatch","","","","","","","","","","","","","","key","f","16.664195876288318","768","428","f","true","nonmatch","img/triangle.png","方形","三角","ALT1","formal_ALT1_2","","","","","","","","","","","",""
"null","<span style='color:GreenYellow; font-size: 70px;'>正确! </span>","null","html-keyboard-response","144","301856","0.0-7.0-1.0-4.0-0.0-1.18","4","4","4","4","4","4","4","3","4","4","5","5","5","5","5","5","5","5","5","5","1","1","1","1","1","1","1","1","1","0","0","1","1","0","0","0","1","0","1","1","0","1","0","1","5","1","1","1","2","1","2","3","2","5","2","718592959586500608","陈","389","","","","","","","","","","","","","","","","","","","","","","","","","","","","","","feedback_test","","","","","","","","","","","",""
"615","","f","psychophysics","145","303474","0.0-7.0-1.0-4.0-0.0-0.19","4","4","4","4","4","4","4","3","4","4","5","5","5","5","5","5","5","5","5","5","1","1","1","1","1","1","1","1","1","0","0","1","1","0","0","0","1","0","1","1","0","1","0","1","5","1","1","1","2","1","2","3","2","5","2","718592959586500608","陈","389","","","","nonmatch","","","","","","","","","","","","","","key","f","16.664427083333067","768","428","f","true","nonmatch","img/ellipse.png","六边","椭圆","ALT1","formal_ALT1_2","","","","","","","","","","","",""
"null","<span style='color:GreenYellow; font-size: 70px;'>正确! </span>","null","html-keyboard-response","146","303975","0.0-7.0-1.0-4.0-0.0-1.19","4","4","4","4","4","4","4","3","4","4","5","5","5","5","5","5","5","5","5","5","1","1","1","1","1","1","1","1","1","0","0","1","1","0","0","0","1","0","1","1","0","1","0","1","5","1","1","1","2","1","2","3","2","5","2","718592959586500608","陈","389","","","","","","","","","","","","","","","","","","","","","","","","","","","","","","feedback_test","","","","","","","","","","","",""
"536","","j","psychophysics","147","305513","0.0-7.0-1.0-4.0-0.0-0.20","4","4","4","4","4","4","4","3","4","4","5","5","5","5","5","5","5","5","5","5","1","1","1","1","1","1","1","1","1","0","0","1","1","0","0","0","1","0","1","1","0","1","0","1","5","1","1","1","2","1","2","3","2","5","2","718592959586500608","陈","389","","","","match","","","","","","","","","","","","","","key","j","16.669879120879468","768","428","j","true","match","img/triangle.png","三角","三角","ALT1","formal_ALT1_2","","","","","","","","","","","",""
"null","<span style='color:GreenYellow; font-size: 70px;'>正确! </span>","null","html-keyboard-response","148","306015","0.0-7.0-1.0-4.0-0.0-1.20","4","4","4","4","4","4","4","3","4","4","5","5","5","5","5","5","5","5","5","5","1","1","1","1","1","1","1","1","1","0","0","1","1","0","0","0","1","0","1","1","0","1","0","1","5","1","1","1","2","1","2","3","2","5","2","718592959586500608","陈","389","","","","","","","","","","","","","","","","","","","","","","","","","","","","","","feedback_test","","","","","","","","","","","",""
"499","","j","psychophysics","149","307515","0.0-7.0-1.0-4.0-0.0-0.21","4","4","4","4","4","4","4","3","4","4","5","5","5","5","5","5","5","5","5","5","1","1","1","1","1","1","1","1","1","0","0","1","1","0","0","0","1","0","1","1","0","1","0","1","5","1","1","1","2","1","2","3","2","5","2","718592959586500608","陈","389","","","","match","","","","","","","","","","","","","","key","j","16.665101123595704","768","428","j","true","match","img/ellipse.png","椭圆","椭圆","ALT1","formal_ALT1_2","","","","","","","","","","","",""
"null","<span style='color:GreenYellow; font-size: 70px;'>正确! </span>","null","html-keyboard-response","150","308016","0.0-7.0-1.0-4.0-0.0-1.21","4","4","4","4","4","4","4","3","4","4","5","5","5","5","5","5","5","5","5","5","1","1","1","1","1","1","1","1","1","0","0","1","1","0","0","0","1","0","1","1","0","1","0","1","5","1","1","1","2","1","2","3","2","5","2","718592959586500608","陈","389","","","","","","","","","","","","","","","","","","","","","","","","","","","","","","feedback_test","","","","","","","","","","","",""
"566","","j","psychophysics","151","309583","0.0-7.0-1.0-4.0-0.0-0.22","4","4","4","4","4","4","4","3","4","4","5","5","5","5","5","5","5","5","5","5","1","1","1","1","1","1","1","1","1","0","0","1","1","0","0","0","1","0","1","1","0","1","0","1","5","1","1","1","2","1","2","3","2","5","2","718592959586500608","陈","389","","","","match","","","","","","","","","","","","","","key","j","16.664999999999925","768","428","j","true","match","img/triangle.png","三角","三角","ALT1","formal_ALT1_2","","","","","","","","","","","",""
"null","<span style='color:GreenYellow; font-size: 70px;'>正确! </span>","null","html-keyboard-response","152","310085","0.0-7.0-1.0-4.0-0.0-1.22","4","4","4","4","4","4","4","3","4","4","5","5","5","5","5","5","5","5","5","5","1","1","1","1","1","1","1","1","1","0","0","1","1","0","0","0","1","0","1","1","0","1","0","1","5","1","1","1","2","1","2","3","2","5","2","718592959586500608","陈","389","","","","","","","","","","","","","","","","","","","","","","","","","","","","","","feedback_test","","","","","","","","","","","",""
"585","","f","psychophysics","153","311673","0.0-7.0-1.0-4.0-0.0-0.23","4","4","4","4","4","4","4","3","4","4","5","5","5","5","5","5","5","5","5","5","1","1","1","1","1","1","1","1","1","0","0","1","1","0","0","0","1","0","1","1","0","1","0","1","5","1","1","1","2","1","2","3","2","5","2","718592959586500608","陈","389","","","","nonmatch","","","","","","","","","","","","","","key","f","16.666542553191785","768","428","f","true","nonmatch","img/ellipse.png","方形","椭圆","ALT1","formal_ALT1_2","","","","","","","","","","","",""
"null","<span style='color:GreenYellow; font-size: 70px;'>正确! </span>","null","html-keyboard-response","154","312174","0.0-7.0-1.0-4.0-0.0-1.23","4","4","4","4","4","4","4","3","4","4","5","5","5","5","5","5","5","5","5","5","1","1","1","1","1","1","1","1","1","0","0","1","1","0","0","0","1","0","1","1","0","1","0","1","5","1","1","1","2","1","2","3","2","5","2","718592959586500608","陈","389","","","","","","","","","","","","","","","","","","","","","","","","","","","","","","feedback_test","","","","","","","","","","","",""
"729","","j","psychophysics","155","313906","0.0-7.0-1.0-4.0-0.0-0.24","4","4","4","4","4","4","4","3","4","4","5","5","5","5","5","5","5","5","5","5","1","1","1","1","1","1","1","1","1","0","0","1","1","0","0","0","1","0","1","1","0","1","0","1","5","1","1","1","2","1","2","3","2","5","2","718592959586500608","陈","389","","","","match","","","","","","","","","","","","","","key","j","16.66795145631067","768","428","j","true","match","img/hexagon.png","六边","六边","ALT1","formal_ALT1_2","","","","","","","","","","","",""
"null","<span style='color:GreenYellow; font-size: 70px;'>正确! </span>","null","html-keyboard-response","156","314409","0.0-7.0-1.0-4.0-0.0-1.24","4","4","4","4","4","4","4","3","4","4","5","5","5","5","5","5","5","5","5","5","1","1","1","1","1","1","1","1","1","0","0","1","1","0","0","0","1","0","1","1","0","1","0","1","5","1","1","1","2","1","2","3","2","5","2","718592959586500608","陈","389","","","","","","","","","","","","","","","","","","","","","","","","","","","","","","feedback_test","","","","","","","","","","","",""
"1059","","f","psychophysics","157","316470","0.0-7.0-1.0-4.0-0.0-0.25","4","4","4","4","4","4","4","3","4","4","5","5","5","5","5","5","5","5","5","5","1","1","1","1","1","1","1","1","1","0","0","1","1","0","0","0","1","0","1","1","0","1","0","1","5","1","1","1","2","1","2","3","2","5","2","718592959586500608","陈","389","","","","nonmatch","","","","","","","","","","","","","","key","f","16.666325203251905","768","428","f","true","nonmatch","img/hexagon.png","三角","六边","ALT1","formal_ALT1_2","","","","","","","","","","","",""
"null","<span style='color:GreenYellow; font-size: 70px;'>正确! </span>","null","html-keyboard-response","158","316973","0.0-7.0-1.0-4.0-0.0-1.25","4","4","4","4","4","4","4","3","4","4","5","5","5","5","5","5","5","5","5","5","1","1","1","1","1","1","1","1","1","0","0","1","1","0","0","0","1","0","1","1","0","1","0","1","5","1","1","1","2","1","2","3","2","5","2","718592959586500608","陈","389","","","","","","","","","","","","","","","","","","","","","","","","","","","","","","feedback_test","","","","","","","","","","","",""
"669","","f","psychophysics","159","318643","0.0-7.0-1.0-4.0-0.0-0.26","4","4","4","4","4","4","4","3","4","4","5","5","5","5","5","5","5","5","5","5","1","1","1","1","1","1","1","1","1","0","0","1","1","0","0","0","1","0","1","1","0","1","0","1","5","1","1","1","2","1","2","3","2","5","2","718592959586500608","陈","389","","","","nonmatch","","","","","","","","","","","","","","key","f","16.66750505050548","768","428","f","true","nonmatch","img/hexagon.png","方形","六边","ALT1","formal_ALT1_2","","","","","","","","","","","",""
"null","<span style='color:GreenYellow; font-size: 70px;'>正确! </span>","null","html-keyboard-response","160","319144","0.0-7.0-1.0-4.0-0.0-1.26","4","4","4","4","4","4","4","3","4","4","5","5","5","5","5","5","5","5","5","5","1","1","1","1","1","1","1","1","1","0","0","1","1","0","0","0","1","0","1","1","0","1","0","1","5","1","1","1","2","1","2","3","2","5","2","718592959586500608","陈","389","","","","","","","","","","","","","","","","","","","","","","","","","","","","","","feedback_test","","","","","","","","","","","",""
"673","","f","psychophysics","161","320818","0.0-7.0-1.0-4.0-0.0-0.27","4","4","4","4","4","4","4","3","4","4","5","5","5","5","5","5","5","5","5","5","1","1","1","1","1","1","1","1","1","0","0","1","1","0","0","0","1","0","1","1","0","1","0","1","5","1","1","1","2","1","2","3","2","5","2","718592959586500608","陈","389","","","","nonmatch","","","","","","","","","","","","","","key","f","16.66717000000004","768","428","f","true","nonmatch","img/ellipse.png","方形","椭圆","ALT1","formal_ALT1_2","","","","","","","","","","","",""
"null","<span style='color:GreenYellow; font-size: 70px;'>正确! </span>","null","html-keyboard-response","162","321321","0.0-7.0-1.0-4.0-0.0-1.27","4","4","4","4","4","4","4","3","4","4","5","5","5","5","5","5","5","5","5","5","1","1","1","1","1","1","1","1","1","0","0","1","1","0","0","0","1","0","1","1","0","1","0","1","5","1","1","1","2","1","2","3","2","5","2","718592959586500608","陈","389","","","","","","","","","","","","","","","","","","","","","","","","","","","","","","feedback_test","","","","","","","","","","","",""
"733","","f","psychophysics","163","323058","0.0-7.0-1.0-4.0-0.0-0.28","4","4","4","4","4","4","4","3","4","4","5","5","5","5","5","5","5","5","5","5","1","1","1","1","1","1","1","1","1","0","0","1","1","0","0","0","1","0","1","1","0","1","0","1","5","1","1","1","2","1","2","3","2","5","2","718592959586500608","陈","389","","","","nonmatch","","","","","","","","","","","","","","key","f","16.668854368931967","768","428","f","true","nonmatch","img/square.png","三角","方形","ALT1","formal_ALT1_2","","","","","","","","","","","",""
"null","<span style='color:GreenYellow; font-size: 70px;'>正确! </span>","null","html-keyboard-response","164","323560","0.0-7.0-1.0-4.0-0.0-1.28","4","4","4","4","4","4","4","3","4","4","5","5","5","5","5","5","5","5","5","5","1","1","1","1","1","1","1","1","1","0","0","1","1","0","0","0","1","0","1","1","0","1","0","1","5","1","1","1","2","1","2","3","2","5","2","718592959586500608","陈","389","","","","","","","","","","","","","","","","","","","","","","","","","","","","","","feedback_test","","","","","","","","","","","",""
"683","","j","psychophysics","165","325246","0.0-7.0-1.0-4.0-0.0-0.29","4","4","4","4","4","4","4","3","4","4","5","5","5","5","5","5","5","5","5","5","1","1","1","1","1","1","1","1","1","0","0","1","1","0","0","0","1","0","1","1","0","1","0","1","5","1","1","1","2","1","2","3","2","5","2","718592959586500608","陈","389","","","","match","","","","","","","","","","","","","","key","j","16.666600000000326","768","428","j","true","match","img/hexagon.png","六边","六边","ALT1","formal_ALT1_2","","","","","","","","","","","",""
"null","<span style='color:GreenYellow; font-size: 70px;'>正确! </span>","null","html-keyboard-response","166","325747","0.0-7.0-1.0-4.0-0.0-1.29","4","4","4","4","4","4","4","3","4","4","5","5","5","5","5","5","5","5","5","5","1","1","1","1","1","1","1","1","1","0","0","1","1","0","0","0","1","0","1","1","0","1","0","1","5","1","1","1","2","1","2","3","2","5","2","718592959586500608","陈","389","","","","","","","","","","","","","","","","","","","","","","","","","","","","","","feedback_test","","","","","","","","","","","",""
"638","","f","psychophysics","167","327387","0.0-7.0-1.0-4.0-0.0-0.30","4","4","4","4","4","4","4","3","4","4","5","5","5","5","5","5","5","5","5","5","1","1","1","1","1","1","1","1","1","0","0","1","1","0","0","0","1","0","1","1","0","1","0","1","5","1","1","1","2","1","2","3","2","5","2","718592959586500608","陈","389","","","","nonmatch","","","","","","","","","","","","","","key","f","16.66539175257737","768","428","f","true","nonmatch","img/triangle.png","椭圆","三角","ALT1","formal_ALT1_2","","","","","","","","","","","",""
"null","<span style='color:GreenYellow; font-size: 70px;'>正确! </span>","null","html-keyboard-response","168","327889","0.0-7.0-1.0-4.0-0.0-1.30","4","4","4","4","4","4","4","3","4","4","5","5","5","5","5","5","5","5","5","5","1","1","1","1","1","1","1","1","1","0","0","1","1","0","0","0","1","0","1","1","0","1","0","1","5","1","1","1","2","1","2","3","2","5","2","718592959586500608","陈","389","","","","","","","","","","","","","","","","","","","","","","","","","","","","","","feedback_test","","","","","","","","","","","",""
"519","","j","psychophysics","169","329410","0.0-7.0-1.0-4.0-0.0-0.31","4","4","4","4","4","4","4","3","4","4","5","5","5","5","5","5","5","5","5","5","1","1","1","1","1","1","1","1","1","0","0","1","1","0","0","0","1","0","1","1","0","1","0","1","5","1","1","1","2","1","2","3","2","5","2","718592959586500608","陈","389","","","","match","","","","","","","","","","","","","","key","j","16.66743333333353","768","428","j","true","match","img/ellipse.png","椭圆","椭圆","ALT1","formal_ALT1_2","","","","","","","","","","","",""
"null","<span style='color:GreenYellow; font-size: 70px;'>正确! </span>","null","html-keyboard-response","170","329911","0.0-7.0-1.0-4.0-0.0-1.31","4","4","4","4","4","4","4","3","4","4","5","5","5","5","5","5","5","5","5","5","1","1","1","1","1","1","1","1","1","0","0","1","1","0","0","0","1","0","1","1","0","1","0","1","5","1","1","1","2","1","2","3","2","5","2","718592959586500608","陈","389","","","","","","","","","","","","","","","","","","","","","","","","","","","","","","feedback_test","","","","","","","","","","","",""
"586","","f","psychophysics","171","331499","0.0-7.0-1.0-4.0-0.0-0.32","4","4","4","4","4","4","4","3","4","4","5","5","5","5","5","5","5","5","5","5","1","1","1","1","1","1","1","1","1","0","0","1","1","0","0","0","1","0","1","1","0","1","0","1","5","1","1","1","2","1","2","3","2","5","2","718592959586500608","陈","389","","","","nonmatch","","","","","","","","","","","","","","key","f","16.665168421053156","768","428","f","true","nonmatch","img/ellipse.png","六边","椭圆","ALT1","formal_ALT1_2","","","","","","","","","","","",""
"null","<span style='color:GreenYellow; font-size: 70px;'>正确! </span>","null","html-keyboard-response","172","332000","0.0-7.0-1.0-4.0-0.0-1.32","4","4","4","4","4","4","4","3","4","4","5","5","5","5","5","5","5","5","5","5","1","1","1","1","1","1","1","1","1","0","0","1","1","0","0","0","1","0","1","1","0","1","0","1","5","1","1","1","2","1","2","3","2","5","2","718592959586500608","陈","389","","","","","","","","","","","","","","","","","","","","","","","","","","","","","","feedback_test","","","","","","","","","","","",""
"591","","j","psychophysics","173","333596","0.0-7.0-1.0-4.0-0.0-0.33","4","4","4","4","4","4","4","3","4","4","5","5","5","5","5","5","5","5","5","5","1","1","1","1","1","1","1","1","1","0","0","1","1","0","0","0","1","0","1","1","0","1","0","1","5","1","1","1","2","1","2","3","2","5","2","718592959586500608","陈","389","","","","match","","","","","","","","","","","","","","key","j","16.666478723403998","768","428","j","true","match","img/hexagon.png","六边","六边","ALT1","formal_ALT1_2","","","","","","","","","","","",""
"null","<span style='color:GreenYellow; font-size: 70px;'>正确! </span>","null","html-keyboard-response","174","334098","0.0-7.0-1.0-4.0-0.0-1.33","4","4","4","4","4","4","4","3","4","4","5","5","5","5","5","5","5","5","5","5","1","1","1","1","1","1","1","1","1","0","0","1","1","0","0","0","1","0","1","1","0","1","0","1","5","1","1","1","2","1","2","3","2","5","2","718592959586500608","陈","389","","","","","","","","","","","","","","","","","","","","","","","","","","","","","","feedback_test","","","","","","","","","","","",""
"639","","j","psychophysics","175","335739","0.0-7.0-1.0-4.0-0.0-0.34","4","4","4","4","4","4","4","3","4","4","5","5","5","5","5","5","5","5","5","5","1","1","1","1","1","1","1","1","1","0","0","1","1","0","0","0","1","0","1","1","0","1","0","1","5","1","1","1","2","1","2","3","2","5","2","718592959586500608","陈","389","","","","match","","","","","","","","","","","","","","key","j","16.66515463917485","768","428","j","true","match","img/ellipse.png","椭圆","椭圆","ALT1","formal_ALT1_2","","","","","","","","","","","",""
"null","<span style='color:GreenYellow; font-size: 70px;'>正确! </span>","null","html-keyboard-response","176","336243","0.0-7.0-1.0-4.0-0.0-1.34","4","4","4","4","4","4","4","3","4","4","5","5","5","5","5","5","5","5","5","5","1","1","1","1","1","1","1","1","1","0","0","1","1","0","0","0","1","0","1","1","0","1","0","1","5","1","1","1","2","1","2","3","2","5","2","718592959586500608","陈","389","","","","","","","","","","","","","","","","","","","","","","","","","","","","","","feedback_test","","","","","","","","","","","",""
"622","","f","psychophysics","177","337867","0.0-7.0-1.0-4.0-0.0-0.35","4","4","4","4","4","4","4","3","4","4","5","5","5","5","5","5","5","5","5","5","1","1","1","1","1","1","1","1","1","0","0","1","1","0","0","0","1","0","1","1","0","1","0","1","5","1","1","1","2","1","2","3","2","5","2","718592959586500608","陈","389","","","","nonmatch","","","","","","","","","","","","","","key","f","16.666371134020384","768","428","f","true","nonmatch","img/square.png","椭圆","方形","ALT1","formal_ALT1_2","","","","","","","","","","","",""
"null","<span style='color:GreenYellow; font-size: 70px;'>正确! </span>","null","html-keyboard-response","178","338367","0.0-7.0-1.0-4.0-0.0-1.35","4","4","4","4","4","4","4","3","4","4","5","5","5","5","5","5","5","5","5","5","1","1","1","1","1","1","1","1","1","0","0","1","1","0","0","0","1","0","1","1","0","1","0","1","5","1","1","1","2","1","2","3","2","5","2","718592959586500608","陈","389","","","","","","","","","","","","","","","","","","","","","","","","","","","","","","feedback_test","","","","","","","","","","","",""
"671","","f","psychophysics","179","340040","0.0-7.0-1.0-4.0-0.0-0.36","4","4","4","4","4","4","4","3","4","4","5","5","5","5","5","5","5","5","5","5","1","1","1","1","1","1","1","1","1","0","0","1","1","0","0","0","1","0","1","1","0","1","0","1","5","1","1","1","2","1","2","3","2","5","2","718592959586500608","陈","389","","","","nonmatch","","","","","","","","","","","","","","key","f","16.66317171717211","768","428","f","true","nonmatch","img/triangle.png","六边","三角","ALT1","formal_ALT1_2","","","","","","","","","","","",""
"null","<span style='color:GreenYellow; font-size: 70px;'>正确! </span>","null","html-keyboard-response","180","340541","0.0-7.0-1.0-4.0-0.0-1.36","4","4","4","4","4","4","4","3","4","4","5","5","5","5","5","5","5","5","5","5","1","1","1","1","1","1","1","1","1","0","0","1","1","0","0","0","1","0","1","1","0","1","0","1","5","1","1","1","2","1","2","3","2","5","2","718592959586500608","陈","389","","","","","","","","","","","","","","","","","","","","","","","","","","","","","","feedback_test","","","","","","","","","","","",""
