"rt","stimulus","response","trial_type","trial_index","time_elapsed","internal_node_id","ses_1","ses_2","ses_3","ses_4","ses_5","ses_6","ses_7","ses_8","ses_9","ses_10","coreself_1","coreself_2","coreself_3","coreself_4","coreself_5","coreself_6","coreself_7","coreself_8","coreself_9","coreself_10","SGPS_1","SGPS_2","SGPS_3","SGPS_4","SGPS_5","SGPS_6","SGPS_7","SGPS_8","SGPS_9","NPI1","NPI2","NPI3","NPI4","NPI5","NPI6","NPI7","NPI8","NPI9","NPI10","NPI11","NPI12","NPI13","NPI14","NPI15","hsns_1","hsns_2","hsns_3","hsns_4","hsns_5","trap1","hsns_6","hsns_7","hsns_8","hsns_9","hsns_10","subj_idx","friend_name","ParticipantID","value","success","user_agent","responses","item_order","radio_event_ids","radio_event_times","key_event_times","mouse_event_times","straightlining","zigzagging","honeypot","timeout","failed_images","failed_audio","failed_video","view_history","response_type","key_press","avg_frame_time","center_x","center_y","correct_response","correct","identity","Image","word","condition","task_id","screen_id","time_stamp","version_attrib","version_target","IAT","RT","varname","summary","version_attrib2","version_target2","question_order","correct_answer","trap1_item"
"13495","
   <p><div style = ""color: white;font-size:25px;"">您好，欢迎参加本次实验。</div> </p>
   <p><div style = ""color: white;font-size:25px;"">为充分保障您的权利，请确保您已经知晓并同意《参与实验同意书》以及《数据公开知情同意书》。</div></p>
   <p><div style = ""color: white;font-size:25px;"">如果您未见过上述内容，请咨询实验员。</div></p>
   <p><div style = ""color: white;font-size:25px;"">如果您选择继续实验，则表示您已经清楚两份知情同意书的内容并同意。</div></p>
   <p><div style = ""color: pink;font-size:30px;"">请确保您记得day0的实验编号，您将在本次实验输入该编号，若您忘记，请咨询实验员后作答。</div></p>
   <p><div style = ""color: lightblue;font-size:25px;"">请您尽可能认真地作答，我们将依据您在各问卷和按键任务中的作答质量发放报酬。</div></p>
   <p> <div style = ""color: green;font-size:25px;""><按空格键至下页></div> </p>
   "," ","html-keyboard-response","0","13498","0.0-0.0","3","3","4","3","3","3","3","2","3","3","4","4","4","4","4","4","5","4","4","5","4","4","5","3","4","4","3","2","4","1","0","1","1","0","0","1","1","0","1","1","0","1","0","1","4","3","3","3","4","2","3","2","3","3","2","672081135265644544","冯","562","","","","","","","","","","","","","","","","","","","","","","","","","","","","","","","","","","","","","","","","","",""
"","","","call-function","1","13502","0.0-1.0-0.0","3","3","4","3","3","3","3","2","3","3","4","4","4","4","4","4","5","4","4","5","4","4","5","3","4","4","3","2","4","1","0","1","1","0","0","1","1","0","1","1","0","1","0","1","4","3","3","3","4","2","3","2","3","3","2","672081135265644544","冯","562","","","","","","","","","","","","","","","","","","","","","","","","","","","","","","","","","","","","","","","","","",""
"20191","","{""friend_name"":""冯"",""ParticipantID"":""562""}","survey-html-form","2","33695","0.0-1.0-1.0","3","3","4","3","3","3","3","2","3","3","4","4","4","4","4","4","5","4","4","5","4","4","5","3","4","4","3","2","4","1","0","1","1","0","0","1","1","0","1","1","0","1","0","1","4","3","3","3","4","2","3","2","3","3","2","672081135265644544","冯","562","","","","","","","","","","","","","","","","","","","","","","","","","","","","","","","","","","","","","","","","","",""
"","","","fullscreen","3","43223","0.0-2.0","3","3","4","3","3","3","3","2","3","3","4","4","4","4","4","4","5","4","4","5","4","4","5","3","4","4","3","2","4","1","0","1","1","0","0","1","1","0","1","1","0","1","0","1","4","3","3","3","4","2","3","2","3","3","2","672081135265644544","冯","562","","true","{}","","","","","","","","","","","","","","","","","","","","","","","","","","","","","","","","","","","","","","",""
"33870.09999999404","","{""Q01"":""3"",""Q02"":""3"",""Q03"":""4"",""Q04"":""3"",""Q05"":""3"",""Q06"":""3"",""Q07"":""3"",""Q08"":""2"",""Q09"":""3"",""Q10"":""3""}","survey-template","4","77093","0.0-3.0","3","3","4","3","3","3","3","2","3","3","4","4","4","4","4","4","5","4","4","5","4","4","5","3","4","4","3","2","4","1","0","1","1","0","0","1","1","0","1","1","0","1","0","1","4","3","3","3","4","2","3","2","3","3","2","672081135265644544","冯","562","","","","{""Q01"":""3"",""Q02"":""3"",""Q03"":""4"",""Q04"":""3"",""Q05"":""3"",""Q06"":""3"",""Q07"":""3"",""Q08"":""2"",""Q09"":""3"",""Q10"":""3""}","[0,1,2,3,4,5,6,7,8,9]","[""Q01"",""Q02"",""Q03"",""Q04"",""Q05"",""Q06"",""Q07"",""Q08"",""Q09"",""Q10""]","[9900.89999999106,11753.199999988079,14860.39999999106,16981.59999999404,19092.29999999702,20917,22441,26220.79999999702,29687,31240.79999999702]","[]","[8273.39999999106,9900.89999999106,11753.199999988079,14860.39999999106,16981.59999999404,19092.29999999702,20917,22441,24116.19999998808,26220.79999999702,28217.59999999404,29687,31240.79999999702,33868.19999998808]","0.6","0.3333333333333333","0","","","","","","","","","","","","","","","","","","","","","","","","","","","","","",""
"27590.80000001192","","{""Q01"":""4"",""Q02"":""4"",""Q03"":""4"",""Q04"":""4"",""Q05"":""4"",""Q06"":""4"",""Q07"":""5"",""Q08"":""4"",""Q09"":""4"",""Q10"":""5""}","survey-template","5","104700","0.0-4.0","3","3","4","3","3","3","3","2","3","3","4","4","4","4","4","4","5","4","4","5","4","4","5","3","4","4","3","2","4","1","0","1","1","0","0","1","1","0","1","1","0","1","0","1","4","3","3","3","4","2","3","2","3","3","2","672081135265644544","冯","562","","","","{""Q01"":""4"",""Q02"":""4"",""Q03"":""4"",""Q04"":""4"",""Q05"":""4"",""Q06"":""4"",""Q07"":""5"",""Q08"":""4"",""Q09"":""4"",""Q10"":""5""}","[0,1,2,3,4,5,6,7,8,9]","[""Q01"",""Q02"",""Q03"",""Q04"",""Q05"",""Q06"",""Q07"",""Q08"",""Q09"",""Q10""]","[3522.1000000089407,6179.300000011921,8111.800000011921,10622.40000000596,12938,16434.20000000298,19892,22118.60000000894,24165.5,26142.20000000298]","[]","[3522.1000000089407,6179.300000011921,8111.800000011921,10622.40000000596,12938,16434.20000000298,19892,22118.60000000894,24165.5,26142.20000000298,27588.30000001192]","0.4","0.1111111111111111","0","","","","","","","","","","","","","","","","","","","","","","","","","","","","","",""
"","","","preload","6","106398","0.0-5.0","3","3","4","3","3","3","3","2","3","3","4","4","4","4","4","4","5","4","4","5","4","4","5","3","4","4","3","2","4","1","0","1","1","0","0","1","1","0","1","1","0","1","0","1","4","3","3","3","4","2","3","2","3","3","2","672081135265644544","冯","562","","true","","","","","","","","","","","false","[]","[]","[]","","","","","","","","","","","","","","","","","","","","","","","","","",""
"19361","","","instructions","7","125760","0.0-6.0","3","3","4","3","3","3","3","2","3","3","4","4","4","4","4","4","5","4","4","5","4","4","5","3","4","4","3","2","4","1","0","1","1","0","0","1","1","0","1","1","0","1","0","1","4","3","3","3","4","2","3","2","3","3","2","672081135265644544","冯","562","","","","","","","","","","","","","","","","","[{""page_index"":0,""viewing_time"":19361}]","","","","","","","","","","","","","","","","","","","","","","","","",""
"42296","","","instructions","8","168063","0.0-7.0-0.0-0.0","3","3","4","3","3","3","3","2","3","3","4","4","4","4","4","4","5","4","4","5","4","4","5","3","4","4","3","2","4","1","0","1","1","0","0","1","1","0","1","1","0","1","0","1","4","3","3","3","4","2","3","2","3","3","2","672081135265644544","冯","562","","","","","","","","","","","","","","","","","[{""page_index"":0,""viewing_time"":27460},{""page_index"":1,""viewing_time"":12253},{""page_index"":2,""viewing_time"":2582}]","","","","","","","","","","","","","","","","","","","","","","","","",""
"null","","null","psychophysics","9","170300","0.0-7.0-0.0-1.0-0.0-0.0","3","3","4","3","3","3","3","2","3","3","4","4","4","4","4","4","5","4","4","5","4","4","5","3","4","4","3","2","4","1","0","1","1","0","0","1","1","0","1","1","0","1","0","1","4","3","3","3","4","2","3","2","3","3","2","672081135265644544","冯","562","","","","null","","","","","","","","","","","","","","key","null","16.661310606060646","768","428","j","false","nonmatch","img/pentagon.png","圆形","五边","ALT1_1","prac_ALT1_1","","","","","","","","","","","",""
"null","<span class='add_' style='color:yellow; font-size: 70px;'> 太慢! </span>","null","html-keyboard-response","10","170807","0.0-7.0-0.0-1.0-0.0-1.0","3","3","4","3","3","3","3","2","3","3","4","4","4","4","4","4","5","4","4","5","4","4","5","3","4","4","3","2","4","1","0","1","1","0","0","1","1","0","1","1","0","1","0","1","4","3","3","3","4","2","3","2","3","3","2","672081135265644544","冯","562","","","","","","","","","","","","","","","","","","","","","","","","","","","","","","feedback_test","","","","","","","","","","","",""
"793","","f","psychophysics","11","172608","0.0-7.0-0.0-1.0-0.0-0.1","3","3","4","3","3","3","3","2","3","3","4","4","4","4","4","4","5","4","4","5","4","4","5","3","4","4","3","2","4","1","0","1","1","0","0","1","1","0","1","1","0","1","0","1","4","3","3","3","4","2","3","2","3","3","2","672081135265644544","冯","562","","","","match","","","","","","","","","","","","","","key","f","16.819603773584877","768","428","f","true","match","img/trapezoid.png","梯形","梯形","ALT1_1","prac_ALT1_1","","","","","","","","","","","",""
"null","<span style='color:GreenYellow; font-size: 70px;'>正确! </span>","null","html-keyboard-response","12","173117","0.0-7.0-0.0-1.0-0.0-1.1","3","3","4","3","3","3","3","2","3","3","4","4","4","4","4","4","5","4","4","5","4","4","5","3","4","4","3","2","4","1","0","1","1","0","0","1","1","0","1","1","0","1","0","1","4","3","3","3","4","2","3","2","3","3","2","672081135265644544","冯","562","","","","","","","","","","","","","","","","","","","","","","","","","","","","","","feedback_test","","","","","","","","","","","",""
"686","","f","psychophysics","13","174806","0.0-7.0-0.0-1.0-0.0-0.2","3","3","4","3","3","3","3","2","3","3","4","4","4","4","4","4","5","4","4","5","4","4","5","3","4","4","3","2","4","1","0","1","1","0","0","1","1","0","1","1","0","1","0","1","4","3","3","3","4","2","3","2","3","3","2","672081135265644544","冯","562","","","","match","","","","","","","","","","","","","","key","f","16.663554455445546","768","428","f","true","match","img/trapezoid.png","梯形","梯形","ALT1_1","prac_ALT1_1","","","","","","","","","","","",""
"null","<span style='color:GreenYellow; font-size: 70px;'>正确! </span>","null","html-keyboard-response","14","175312","0.0-7.0-0.0-1.0-0.0-1.2","3","3","4","3","3","3","3","2","3","3","4","4","4","4","4","4","5","4","4","5","4","4","5","3","4","4","3","2","4","1","0","1","1","0","0","1","1","0","1","1","0","1","0","1","4","3","3","3","4","2","3","2","3","3","2","672081135265644544","冯","562","","","","","","","","","","","","","","","","","","","","","","","","","","","","","","feedback_test","","","","","","","","","","","",""
"692","","j","psychophysics","15","177011","0.0-7.0-0.0-1.0-0.0-0.3","3","3","4","3","3","3","3","2","3","3","4","4","4","4","4","4","5","4","4","5","4","4","5","3","4","4","3","2","4","1","0","1","1","0","0","1","1","0","1","1","0","1","0","1","4","3","3","3","4","2","3","2","3","3","2","672081135265644544","冯","562","","","","nonmatch","","","","","","","","","","","","","","key","j","16.66158415841591","768","428","j","true","nonmatch","img/circle.png","三角","圆形","ALT1_1","prac_ALT1_1","","","","","","","","","","","",""
"null","<span style='color:GreenYellow; font-size: 70px;'>正确! </span>","null","html-keyboard-response","16","177518","0.0-7.0-0.0-1.0-0.0-1.3","3","3","4","3","3","3","3","2","3","3","4","4","4","4","4","4","5","4","4","5","4","4","5","3","4","4","3","2","4","1","0","1","1","0","0","1","1","0","1","1","0","1","0","1","4","3","3","3","4","2","3","2","3","3","2","672081135265644544","冯","562","","","","","","","","","","","","","","","","","","","","","","","","","","","","","","feedback_test","","","","","","","","","","","",""
"782","","j","psychophysics","17","179303","0.0-7.0-0.0-1.0-0.0-0.4","3","3","4","3","3","3","3","2","3","3","4","4","4","4","4","4","5","4","4","5","4","4","5","3","4","4","3","2","4","1","0","1","1","0","0","1","1","0","1","1","0","1","0","1","4","3","3","3","4","2","3","2","3","3","2","672081135265644544","冯","562","","","","nonmatch","","","","","","","","","","","","","","key","j","16.637685714285666","768","428","f","false","match","img/pentagon.png","五边","五边","ALT1_1","prac_ALT1_1","","","","","","","","","","","",""
"null","<span style='color:red; font-size: 70px;'>错误! </span>","null","html-keyboard-response","18","179809","0.0-7.0-0.0-1.0-0.0-1.4","3","3","4","3","3","3","3","2","3","3","4","4","4","4","4","4","5","4","4","5","4","4","5","3","4","4","3","2","4","1","0","1","1","0","0","1","1","0","1","1","0","1","0","1","4","3","3","3","4","2","3","2","3","3","2","672081135265644544","冯","562","","","","","","","","","","","","","","","","","","","","","","","","","","","","","","feedback_test","","","","","","","","","","","",""
"732","","j","psychophysics","19","181549","0.0-7.0-0.0-1.0-0.0-0.5","3","3","4","3","3","3","3","2","3","3","4","4","4","4","4","4","5","4","4","5","4","4","5","3","4","4","3","2","4","1","0","1","1","0","0","1","1","0","1","1","0","1","0","1","4","3","3","3","4","2","3","2","3","3","2","672081135265644544","冯","562","","","","nonmatch","","","","","","","","","","","","","","key","j","16.66444660194198","768","428","f","false","match","img/triangle.png","三角","三角","ALT1_1","prac_ALT1_1","","","","","","","","","","","",""
"null","<span style='color:red; font-size: 70px;'>错误! </span>","null","html-keyboard-response","20","182051","0.0-7.0-0.0-1.0-0.0-1.5","3","3","4","3","3","3","3","2","3","3","4","4","4","4","4","4","5","4","4","5","4","4","5","3","4","4","3","2","4","1","0","1","1","0","0","1","1","0","1","1","0","1","0","1","4","3","3","3","4","2","3","2","3","3","2","672081135265644544","冯","562","","","","","","","","","","","","","","","","","","","","","","","","","","","","","","feedback_test","","","","","","","","","","","",""
"777","","f","psychophysics","21","183830","0.0-7.0-0.0-1.0-0.0-0.6","3","3","4","3","3","3","3","2","3","3","4","4","4","4","4","4","5","4","4","5","4","4","5","3","4","4","3","2","4","1","0","1","1","0","0","1","1","0","1","1","0","1","0","1","4","3","3","3","4","2","3","2","3","3","2","672081135265644544","冯","562","","","","match","","","","","","","","","","","","","","key","f","16.529838095238112","768","428","j","false","nonmatch","img/circle.png","梯形","圆形","ALT1_1","prac_ALT1_1","","","","","","","","","","","",""
"null","<span style='color:red; font-size: 70px;'>错误! </span>","null","html-keyboard-response","22","184333","0.0-7.0-0.0-1.0-0.0-1.6","3","3","4","3","3","3","3","2","3","3","4","4","4","4","4","4","5","4","4","5","4","4","5","3","4","4","3","2","4","1","0","1","1","0","0","1","1","0","1","1","0","1","0","1","4","3","3","3","4","2","3","2","3","3","2","672081135265644544","冯","562","","","","","","","","","","","","","","","","","","","","","","","","","","","","","","feedback_test","","","","","","","","","","","",""
"843","","f","psychophysics","23","186179","0.0-7.0-0.0-1.0-0.0-0.7","3","3","4","3","3","3","3","2","3","3","4","4","4","4","4","4","5","4","4","5","4","4","5","3","4","4","3","2","4","1","0","1","1","0","0","1","1","0","1","1","0","1","0","1","4","3","3","3","4","2","3","2","3","3","2","672081135265644544","冯","562","","","","match","","","","","","","","","","","","","","key","f","16.663809090909094","768","428","f","true","match","img/pentagon.png","五边","五边","ALT1_1","prac_ALT1_1","","","","","","","","","","","",""
"null","<span style='color:GreenYellow; font-size: 70px;'>正确! </span>","null","html-keyboard-response","24","186681","0.0-7.0-0.0-1.0-0.0-1.7","3","3","4","3","3","3","3","2","3","3","4","4","4","4","4","4","5","4","4","5","4","4","5","3","4","4","3","2","4","1","0","1","1","0","0","1","1","0","1","1","0","1","0","1","4","3","3","3","4","2","3","2","3","3","2","672081135265644544","冯","562","","","","","","","","","","","","","","","","","","","","","","","","","","","","","","feedback_test","","","","","","","","","","","",""
"711","","f","psychophysics","25","188395","0.0-7.0-0.0-1.0-0.0-0.8","3","3","4","3","3","3","3","2","3","3","4","4","4","4","4","4","5","4","4","5","4","4","5","3","4","4","3","2","4","1","0","1","1","0","0","1","1","0","1","1","0","1","0","1","4","3","3","3","4","2","3","2","3","3","2","672081135265644544","冯","562","","","","match","","","","","","","","","","","","","","key","f","16.663578431372525","768","428","j","false","nonmatch","img/pentagon.png","梯形","五边","ALT1_1","prac_ALT1_1","","","","","","","","","","","",""
"null","<span style='color:red; font-size: 70px;'>错误! </span>","null","html-keyboard-response","26","188902","0.0-7.0-0.0-1.0-0.0-1.8","3","3","4","3","3","3","3","2","3","3","4","4","4","4","4","4","5","4","4","5","4","4","5","3","4","4","3","2","4","1","0","1","1","0","0","1","1","0","1","1","0","1","0","1","4","3","3","3","4","2","3","2","3","3","2","672081135265644544","冯","562","","","","","","","","","","","","","","","","","","","","","","","","","","","","","","feedback_test","","","","","","","","","","","",""
"880","","j","psychophysics","27","190791","0.0-7.0-0.0-1.0-0.0-0.9","3","3","4","3","3","3","3","2","3","3","4","4","4","4","4","4","5","4","4","5","4","4","5","3","4","4","3","2","4","1","0","1","1","0","0","1","1","0","1","1","0","1","0","1","4","3","3","3","4","2","3","2","3","3","2","672081135265644544","冯","562","","","","nonmatch","","","","","","","","","","","","","","key","j","16.661580357142675","768","428","j","true","nonmatch","img/circle.png","五边","圆形","ALT1_1","prac_ALT1_1","","","","","","","","","","","",""
"null","<span style='color:GreenYellow; font-size: 70px;'>正确! </span>","null","html-keyboard-response","28","191306","0.0-7.0-0.0-1.0-0.0-1.9","3","3","4","3","3","3","3","2","3","3","4","4","4","4","4","4","5","4","4","5","4","4","5","3","4","4","3","2","4","1","0","1","1","0","0","1","1","0","1","1","0","1","0","1","4","3","3","3","4","2","3","2","3","3","2","672081135265644544","冯","562","","","","","","","","","","","","","","","","","","","","","","","","","","","","","","feedback_test","","","","","","","","","","","",""
"849","","f","psychophysics","29","193163","0.0-7.0-0.0-1.0-0.0-0.10","3","3","4","3","3","3","3","2","3","3","4","4","4","4","4","4","5","4","4","5","4","4","5","3","4","4","3","2","4","1","0","1","1","0","0","1","1","0","1","1","0","1","0","1","4","3","3","3","4","2","3","2","3","3","2","672081135265644544","冯","562","","","","match","","","","","","","","","","","","","","key","f","16.659900000000064","768","428","f","true","match","img/triangle.png","三角","三角","ALT1_1","prac_ALT1_1","","","","","","","","","","","",""
"null","<span style='color:GreenYellow; font-size: 70px;'>正确! </span>","null","html-keyboard-response","30","193667","0.0-7.0-0.0-1.0-0.0-1.10","3","3","4","3","3","3","3","2","3","3","4","4","4","4","4","4","5","4","4","5","4","4","5","3","4","4","3","2","4","1","0","1","1","0","0","1","1","0","1","1","0","1","0","1","4","3","3","3","4","2","3","2","3","3","2","672081135265644544","冯","562","","","","","","","","","","","","","","","","","","","","","","","","","","","","","","feedback_test","","","","","","","","","","","",""
"686","","j","psychophysics","31","195371","0.0-7.0-0.0-1.0-0.0-0.11","3","3","4","3","3","3","3","2","3","3","4","4","4","4","4","4","5","4","4","5","4","4","5","3","4","4","3","2","4","1","0","1","1","0","0","1","1","0","1","1","0","1","0","1","4","3","3","3","4","2","3","2","3","3","2","672081135265644544","冯","562","","","","nonmatch","","","","","","","","","","","","","","key","j","16.661663366336718","768","428","j","true","nonmatch","img/triangle.png","圆形","三角","ALT1_1","prac_ALT1_1","","","","","","","","","","","",""
"null","<span style='color:GreenYellow; font-size: 70px;'>正确! </span>","null","html-keyboard-response","32","195873","0.0-7.0-0.0-1.0-0.0-1.11","3","3","4","3","3","3","3","2","3","3","4","4","4","4","4","4","5","4","4","5","4","4","5","3","4","4","3","2","4","1","0","1","1","0","0","1","1","0","1","1","0","1","0","1","4","3","3","3","4","2","3","2","3","3","2","672081135265644544","冯","562","","","","","","","","","","","","","","","","","","","","","","","","","","","","","","feedback_test","","","","","","","","","","","",""
"908","","f","psychophysics","33","197788","0.0-7.0-0.0-1.0-0.0-0.12","3","3","4","3","3","3","3","2","3","3","4","4","4","4","4","4","5","4","4","5","4","4","5","3","4","4","3","2","4","1","0","1","1","0","0","1","1","0","1","1","0","1","0","1","4","3","3","3","4","2","3","2","3","3","2","672081135265644544","冯","562","","","","match","","","","","","","","","","","","","","key","f","16.665763157894713","768","428","f","true","match","img/circle.png","圆形","圆形","ALT1_1","prac_ALT1_1","","","","","","","","","","","",""
"null","<span style='color:GreenYellow; font-size: 70px;'>正确! </span>","null","html-keyboard-response","34","198295","0.0-7.0-0.0-1.0-0.0-1.12","3","3","4","3","3","3","3","2","3","3","4","4","4","4","4","4","5","4","4","5","4","4","5","3","4","4","3","2","4","1","0","1","1","0","0","1","1","0","1","1","0","1","0","1","4","3","3","3","4","2","3","2","3","3","2","672081135265644544","冯","562","","","","","","","","","","","","","","","","","","","","","","","","","","","","","","feedback_test","","","","","","","","","","","",""
"742","","j","psychophysics","35","200041","0.0-7.0-0.0-1.0-0.0-0.13","3","3","4","3","3","3","3","2","3","3","4","4","4","4","4","4","5","4","4","5","4","4","5","3","4","4","3","2","4","1","0","1","1","0","0","1","1","0","1","1","0","1","0","1","4","3","3","3","4","2","3","2","3","3","2","672081135265644544","冯","562","","","","nonmatch","","","","","","","","","","","","","","key","j","16.66388461538456","768","428","j","true","nonmatch","img/trapezoid.png","五边","梯形","ALT1_1","prac_ALT1_1","","","","","","","","","","","",""
"null","<span style='color:GreenYellow; font-size: 70px;'>正确! </span>","null","html-keyboard-response","36","200547","0.0-7.0-0.0-1.0-0.0-1.13","3","3","4","3","3","3","3","2","3","3","4","4","4","4","4","4","5","4","4","5","4","4","5","3","4","4","3","2","4","1","0","1","1","0","0","1","1","0","1","1","0","1","0","1","4","3","3","3","4","2","3","2","3","3","2","672081135265644544","冯","562","","","","","","","","","","","","","","","","","","","","","","","","","","","","","","feedback_test","","","","","","","","","","","",""
"727","","f","psychophysics","37","202277","0.0-7.0-0.0-1.0-0.0-0.14","3","3","4","3","3","3","3","2","3","3","4","4","4","4","4","4","5","4","4","5","4","4","5","3","4","4","3","2","4","1","0","1","1","0","0","1","1","0","1","1","0","1","0","1","4","3","3","3","4","2","3","2","3","3","2","672081135265644544","冯","562","","","","match","","","","","","","","","","","","","","key","f","16.663912621359238","768","428","f","true","match","img/circle.png","圆形","圆形","ALT1_1","prac_ALT1_1","","","","","","","","","","","",""
"null","<span style='color:GreenYellow; font-size: 70px;'>正确! </span>","null","html-keyboard-response","38","202779","0.0-7.0-0.0-1.0-0.0-1.14","3","3","4","3","3","3","3","2","3","3","4","4","4","4","4","4","5","4","4","5","4","4","5","3","4","4","3","2","4","1","0","1","1","0","0","1","1","0","1","1","0","1","0","1","4","3","3","3","4","2","3","2","3","3","2","672081135265644544","冯","562","","","","","","","","","","","","","","","","","","","","","","","","","","","","","","feedback_test","","","","","","","","","","","",""
"588","","f","psychophysics","39","204374","0.0-7.0-0.0-1.0-0.0-0.15","3","3","4","3","3","3","3","2","3","3","4","4","4","4","4","4","5","4","4","5","4","4","5","3","4","4","3","2","4","1","0","1","1","0","0","1","1","0","1","1","0","1","0","1","4","3","3","3","4","2","3","2","3","3","2","672081135265644544","冯","562","","","","match","","","","","","","","","","","","","","key","f","16.665284210526213","768","428","f","true","match","img/circle.png","圆形","圆形","ALT1_1","prac_ALT1_1","","","","","","","","","","","",""
"null","<span style='color:GreenYellow; font-size: 70px;'>正确! </span>","null","html-keyboard-response","40","204882","0.0-7.0-0.0-1.0-0.0-1.15","3","3","4","3","3","3","3","2","3","3","4","4","4","4","4","4","5","4","4","5","4","4","5","3","4","4","3","2","4","1","0","1","1","0","0","1","1","0","1","1","0","1","0","1","4","3","3","3","4","2","3","2","3","3","2","672081135265644544","冯","562","","","","","","","","","","","","","","","","","","","","","","","","","","","","","","feedback_test","","","","","","","","","","","",""
"630","","j","psychophysics","41","206519","0.0-7.0-0.0-1.0-0.0-0.16","3","3","4","3","3","3","3","2","3","3","4","4","4","4","4","4","5","4","4","5","4","4","5","3","4","4","3","2","4","1","0","1","1","0","0","1","1","0","1","1","0","1","0","1","4","3","3","3","4","2","3","2","3","3","2","672081135265644544","冯","562","","","","nonmatch","","","","","","","","","","","","","","key","j","16.66339175257719","768","428","j","true","nonmatch","img/triangle.png","梯形","三角","ALT1_1","prac_ALT1_1","","","","","","","","","","","",""
"null","<span style='color:GreenYellow; font-size: 70px;'>正确! </span>","null","html-keyboard-response","42","207021","0.0-7.0-0.0-1.0-0.0-1.16","3","3","4","3","3","3","3","2","3","3","4","4","4","4","4","4","5","4","4","5","4","4","5","3","4","4","3","2","4","1","0","1","1","0","0","1","1","0","1","1","0","1","0","1","4","3","3","3","4","2","3","2","3","3","2","672081135265644544","冯","562","","","","","","","","","","","","","","","","","","","","","","","","","","","","","","feedback_test","","","","","","","","","","","",""
"742","","f","psychophysics","43","208770","0.0-7.0-0.0-1.0-0.0-0.17","3","3","4","3","3","3","3","2","3","3","4","4","4","4","4","4","5","4","4","5","4","4","5","3","4","4","3","2","4","1","0","1","1","0","0","1","1","0","1","1","0","1","0","1","4","3","3","3","4","2","3","2","3","3","2","672081135265644544","冯","562","","","","match","","","","","","","","","","","","","","key","f","16.66424999999995","768","428","j","false","nonmatch","img/triangle.png","五边","三角","ALT1_1","prac_ALT1_1","","","","","","","","","","","",""
"null","<span style='color:red; font-size: 70px;'>错误! </span>","null","html-keyboard-response","44","209283","0.0-7.0-0.0-1.0-0.0-1.17","3","3","4","3","3","3","3","2","3","3","4","4","4","4","4","4","5","4","4","5","4","4","5","3","4","4","3","2","4","1","0","1","1","0","0","1","1","0","1","1","0","1","0","1","4","3","3","3","4","2","3","2","3","3","2","672081135265644544","冯","562","","","","","","","","","","","","","","","","","","","","","","","","","","","","","","feedback_test","","","","","","","","","","","",""
"698","","f","psychophysics","45","210983","0.0-7.0-0.0-1.0-0.0-0.18","3","3","4","3","3","3","3","2","3","3","4","4","4","4","4","4","5","4","4","5","4","4","5","3","4","4","3","2","4","1","0","1","1","0","0","1","1","0","1","1","0","1","0","1","4","3","3","3","4","2","3","2","3","3","2","672081135265644544","冯","562","","","","match","","","","","","","","","","","","","","key","f","16.663415841584204","768","428","f","true","match","img/pentagon.png","五边","五边","ALT1_1","prac_ALT1_1","","","","","","","","","","","",""
"null","<span style='color:GreenYellow; font-size: 70px;'>正确! </span>","null","html-keyboard-response","46","211489","0.0-7.0-0.0-1.0-0.0-1.18","3","3","4","3","3","3","3","2","3","3","4","4","4","4","4","4","5","4","4","5","4","4","5","3","4","4","3","2","4","1","0","1","1","0","0","1","1","0","1","1","0","1","0","1","4","3","3","3","4","2","3","2","3","3","2","672081135265644544","冯","562","","","","","","","","","","","","","","","","","","","","","","","","","","","","","","feedback_test","","","","","","","","","","","",""
"850","","j","psychophysics","47","213346","0.0-7.0-0.0-1.0-0.0-0.19","3","3","4","3","3","3","3","2","3","3","4","4","4","4","4","4","5","4","4","5","4","4","5","3","4","4","3","2","4","1","0","1","1","0","0","1","1","0","1","1","0","1","0","1","4","3","3","3","4","2","3","2","3","3","2","672081135265644544","冯","562","","","","nonmatch","","","","","","","","","","","","","","key","j","16.664127272727306","768","428","j","true","nonmatch","img/pentagon.png","三角","五边","ALT1_1","prac_ALT1_1","","","","","","","","","","","",""
"null","<span style='color:GreenYellow; font-size: 70px;'>正确! </span>","null","html-keyboard-response","48","213856","0.0-7.0-0.0-1.0-0.0-1.19","3","3","4","3","3","3","3","2","3","3","4","4","4","4","4","4","5","4","4","5","4","4","5","3","4","4","3","2","4","1","0","1","1","0","0","1","1","0","1","1","0","1","0","1","4","3","3","3","4","2","3","2","3","3","2","672081135265644544","冯","562","","","","","","","","","","","","","","","","","","","","","","","","","","","","","","feedback_test","","","","","","","","","","","",""
"656","","f","psychophysics","49","215519","0.0-7.0-0.0-1.0-0.0-0.20","3","3","4","3","3","3","3","2","3","3","4","4","4","4","4","4","5","4","4","5","4","4","5","3","4","4","3","2","4","1","0","1","1","0","0","1","1","0","1","1","0","1","0","1","4","3","3","3","4","2","3","2","3","3","2","672081135265644544","冯","562","","","","match","","","","","","","","","","","","","","key","f","16.66154545454533","768","428","j","false","nonmatch","img/trapezoid.png","圆形","梯形","ALT1_1","prac_ALT1_1","","","","","","","","","","","",""
"null","<span style='color:red; font-size: 70px;'>错误! </span>","null","html-keyboard-response","50","216021","0.0-7.0-0.0-1.0-0.0-1.20","3","3","4","3","3","3","3","2","3","3","4","4","4","4","4","4","5","4","4","5","4","4","5","3","4","4","3","2","4","1","0","1","1","0","0","1","1","0","1","1","0","1","0","1","4","3","3","3","4","2","3","2","3","3","2","672081135265644544","冯","562","","","","","","","","","","","","","","","","","","","","","","","","","","","","","","feedback_test","","","","","","","","","","","",""
"771","","f","psychophysics","51","217800","0.0-7.0-0.0-1.0-0.0-0.21","3","3","4","3","3","3","3","2","3","3","4","4","4","4","4","4","5","4","4","5","4","4","5","3","4","4","3","2","4","1","0","1","1","0","0","1","1","0","1","1","0","1","0","1","4","3","3","3","4","2","3","2","3","3","2","672081135265644544","冯","562","","","","match","","","","","","","","","","","","","","key","f","16.655839622641512","768","428","f","true","match","img/trapezoid.png","梯形","梯形","ALT1_1","prac_ALT1_1","","","","","","","","","","","",""
"null","<span style='color:GreenYellow; font-size: 70px;'>正确! </span>","null","html-keyboard-response","52","218302","0.0-7.0-0.0-1.0-0.0-1.21","3","3","4","3","3","3","3","2","3","3","4","4","4","4","4","4","5","4","4","5","4","4","5","3","4","4","3","2","4","1","0","1","1","0","0","1","1","0","1","1","0","1","0","1","4","3","3","3","4","2","3","2","3","3","2","672081135265644544","冯","562","","","","","","","","","","","","","","","","","","","","","","","","","","","","","","feedback_test","","","","","","","","","","","",""
"752","","j","psychophysics","53","220061","0.0-7.0-0.0-1.0-0.0-0.22","3","3","4","3","3","3","3","2","3","3","4","4","4","4","4","4","5","4","4","5","4","4","5","3","4","4","3","2","4","1","0","1","1","0","0","1","1","0","1","1","0","1","0","1","4","3","3","3","4","2","3","2","3","3","2","672081135265644544","冯","562","","","","nonmatch","","","","","","","","","","","","","","key","j","16.66329411764723","768","428","j","true","nonmatch","img/trapezoid.png","三角","梯形","ALT1_1","prac_ALT1_1","","","","","","","","","","","",""
"null","<span style='color:GreenYellow; font-size: 70px;'>正确! </span>","null","html-keyboard-response","54","220563","0.0-7.0-0.0-1.0-0.0-1.22","3","3","4","3","3","3","3","2","3","3","4","4","4","4","4","4","5","4","4","5","4","4","5","3","4","4","3","2","4","1","0","1","1","0","0","1","1","0","1","1","0","1","0","1","4","3","3","3","4","2","3","2","3","3","2","672081135265644544","冯","562","","","","","","","","","","","","","","","","","","","","","","","","","","","","","","feedback_test","","","","","","","","","","","",""
"752","","j","psychophysics","55","222322","0.0-7.0-0.0-1.0-0.0-0.23","3","3","4","3","3","3","3","2","3","3","4","4","4","4","4","4","5","4","4","5","4","4","5","3","4","4","3","2","4","1","0","1","1","0","0","1","1","0","1","1","0","1","0","1","4","3","3","3","4","2","3","2","3","3","2","672081135265644544","冯","562","","","","nonmatch","","","","","","","","","","","","","","key","j","16.66342307692321","768","428","f","false","match","img/triangle.png","三角","三角","ALT1_1","prac_ALT1_1","","","","","","","","","","","",""
"null","<span style='color:red; font-size: 70px;'>错误! </span>","null","html-keyboard-response","56","222828","0.0-7.0-0.0-1.0-0.0-1.23","3","3","4","3","3","3","3","2","3","3","4","4","4","4","4","4","5","4","4","5","4","4","5","3","4","4","3","2","4","1","0","1","1","0","0","1","1","0","1","1","0","1","0","1","4","3","3","3","4","2","3","2","3","3","2","672081135265644544","冯","562","","","","","","","","","","","","","","","","","","","","","","","","","","","","","","feedback_test","","","","","","","","","","","",""
"737","","j","psychophysics","57","224581","0.0-7.0-0.0-1.0-0.0-0.24","3","3","4","3","3","3","3","2","3","3","4","4","4","4","4","4","5","4","4","5","4","4","5","3","4","4","3","2","4","1","0","1","1","0","0","1","1","0","1","1","0","1","0","1","4","3","3","3","4","2","3","2","3","3","2","672081135265644544","冯","562","","","","nonmatch","","","","","","","","","","","","","","key","j","16.66429807692307","768","428","j","true","nonmatch","img/circle.png","五边","圆形","ALT1_1","prac_ALT1_1","","","","","","","","","","","",""
"null","<span style='color:GreenYellow; font-size: 70px;'>正确! </span>","null","html-keyboard-response","58","225084","0.0-7.0-0.0-1.0-0.0-1.24","3","3","4","3","3","3","3","2","3","3","4","4","4","4","4","4","5","4","4","5","4","4","5","3","4","4","3","2","4","1","0","1","1","0","0","1","1","0","1","1","0","1","0","1","4","3","3","3","4","2","3","2","3","3","2","672081135265644544","冯","562","","","","","","","","","","","","","","","","","","","","","","","","","","","","","","feedback_test","","","","","","","","","","","",""
"631","","j","psychophysics","59","226723","0.0-7.0-0.0-1.0-0.0-0.25","3","3","4","3","3","3","3","2","3","3","4","4","4","4","4","4","5","4","4","5","4","4","5","3","4","4","3","2","4","1","0","1","1","0","0","1","1","0","1","1","0","1","0","1","4","3","3","3","4","2","3","2","3","3","2","672081135265644544","冯","562","","","","nonmatch","","","","","","","","","","","","","","key","j","16.66420618556716","768","428","j","true","nonmatch","img/trapezoid.png","五边","梯形","ALT1_1","prac_ALT1_1","","","","","","","","","","","",""
"null","<span style='color:GreenYellow; font-size: 70px;'>正确! </span>","null","html-keyboard-response","60","227229","0.0-7.0-0.0-1.0-0.0-1.25","3","3","4","3","3","3","3","2","3","3","4","4","4","4","4","4","5","4","4","5","4","4","5","3","4","4","3","2","4","1","0","1","1","0","0","1","1","0","1","1","0","1","0","1","4","3","3","3","4","2","3","2","3","3","2","672081135265644544","冯","562","","","","","","","","","","","","","","","","","","","","","","","","","","","","","","feedback_test","","","","","","","","","","","",""
"709","","f","psychophysics","61","228949","0.0-7.0-0.0-1.0-0.0-0.26","3","3","4","3","3","3","3","2","3","3","4","4","4","4","4","4","5","4","4","5","4","4","5","3","4","4","3","2","4","1","0","1","1","0","0","1","1","0","1","1","0","1","0","1","4","3","3","3","4","2","3","2","3","3","2","672081135265644544","冯","562","","","","match","","","","","","","","","","","","","","key","f","16.666509803921535","768","428","f","true","match","img/trapezoid.png","梯形","梯形","ALT1_1","prac_ALT1_1","","","","","","","","","","","",""
"null","<span style='color:GreenYellow; font-size: 70px;'>正确! </span>","null","html-keyboard-response","62","229458","0.0-7.0-0.0-1.0-0.0-1.26","3","3","4","3","3","3","3","2","3","3","4","4","4","4","4","4","5","4","4","5","4","4","5","3","4","4","3","2","4","1","0","1","1","0","0","1","1","0","1","1","0","1","0","1","4","3","3","3","4","2","3","2","3","3","2","672081135265644544","冯","562","","","","","","","","","","","","","","","","","","","","","","","","","","","","","","feedback_test","","","","","","","","","","","",""
"824","","f","psychophysics","63","231285","0.0-7.0-0.0-1.0-0.0-0.27","3","3","4","3","3","3","3","2","3","3","4","4","4","4","4","4","5","4","4","5","4","4","5","3","4","4","3","2","4","1","0","1","1","0","0","1","1","0","1","1","0","1","0","1","4","3","3","3","4","2","3","2","3","3","2","672081135265644544","冯","562","","","","match","","","","","","","","","","","","","","key","f","16.6668990825689","768","428","f","true","match","img/triangle.png","三角","三角","ALT1_1","prac_ALT1_1","","","","","","","","","","","",""
"null","<span style='color:GreenYellow; font-size: 70px;'>正确! </span>","null","html-keyboard-response","64","231790","0.0-7.0-0.0-1.0-0.0-1.27","3","3","4","3","3","3","3","2","3","3","4","4","4","4","4","4","5","4","4","5","4","4","5","3","4","4","3","2","4","1","0","1","1","0","0","1","1","0","1","1","0","1","0","1","4","3","3","3","4","2","3","2","3","3","2","672081135265644544","冯","562","","","","","","","","","","","","","","","","","","","","","","","","","","","","","","feedback_test","","","","","","","","","","","",""
"746","","j","psychophysics","65","233539","0.0-7.0-0.0-1.0-0.0-0.28","3","3","4","3","3","3","3","2","3","3","4","4","4","4","4","4","5","4","4","5","4","4","5","3","4","4","3","2","4","1","0","1","1","0","0","1","1","0","1","1","0","1","0","1","4","3","3","3","4","2","3","2","3","3","2","672081135265644544","冯","562","","","","nonmatch","","","","","","","","","","","","","","key","j","16.66367307692305","768","428","j","true","nonmatch","img/pentagon.png","三角","五边","ALT1_1","prac_ALT1_1","","","","","","","","","","","",""
"null","<span style='color:GreenYellow; font-size: 70px;'>正确! </span>","null","html-keyboard-response","66","234041","0.0-7.0-0.0-1.0-0.0-1.28","3","3","4","3","3","3","3","2","3","3","4","4","4","4","4","4","5","4","4","5","4","4","5","3","4","4","3","2","4","1","0","1","1","0","0","1","1","0","1","1","0","1","0","1","4","3","3","3","4","2","3","2","3","3","2","672081135265644544","冯","562","","","","","","","","","","","","","","","","","","","","","","","","","","","","","","feedback_test","","","","","","","","","","","",""
"940","","j","psychophysics","67","235983","0.0-7.0-0.0-1.0-0.0-0.29","3","3","4","3","3","3","3","2","3","3","4","4","4","4","4","4","5","4","4","5","4","4","5","3","4","4","3","2","4","1","0","1","1","0","0","1","1","0","1","1","0","1","0","1","4","3","3","3","4","2","3","2","3","3","2","672081135265644544","冯","562","","","","nonmatch","","","","","","","","","","","","","","key","j","16.5373304347824","768","428","j","true","nonmatch","img/trapezoid.png","圆形","梯形","ALT1_1","prac_ALT1_1","","","","","","","","","","","",""
"null","<span style='color:GreenYellow; font-size: 70px;'>正确! </span>","null","html-keyboard-response","68","236486","0.0-7.0-0.0-1.0-0.0-1.29","3","3","4","3","3","3","3","2","3","3","4","4","4","4","4","4","5","4","4","5","4","4","5","3","4","4","3","2","4","1","0","1","1","0","0","1","1","0","1","1","0","1","0","1","4","3","3","3","4","2","3","2","3","3","2","672081135265644544","冯","562","","","","","","","","","","","","","","","","","","","","","","","","","","","","","","feedback_test","","","","","","","","","","","",""
"1020","","f","psychophysics","69","238512","0.0-7.0-0.0-1.0-0.0-0.30","3","3","4","3","3","3","3","2","3","3","4","4","4","4","4","4","5","4","4","5","4","4","5","3","4","4","3","2","4","1","0","1","1","0","0","1","1","0","1","1","0","1","0","1","4","3","3","3","4","2","3","2","3","3","2","672081135265644544","冯","562","","","","match","","","","","","","","","","","","","","key","f","16.656685950413245","768","428","f","true","match","img/trapezoid.png","梯形","梯形","ALT1_1","prac_ALT1_1","","","","","","","","","","","",""
"null","<span style='color:GreenYellow; font-size: 70px;'>正确! </span>","null","html-keyboard-response","70","239021","0.0-7.0-0.0-1.0-0.0-1.30","3","3","4","3","3","3","3","2","3","3","4","4","4","4","4","4","5","4","4","5","4","4","5","3","4","4","3","2","4","1","0","1","1","0","0","1","1","0","1","1","0","1","0","1","4","3","3","3","4","2","3","2","3","3","2","672081135265644544","冯","562","","","","","","","","","","","","","","","","","","","","","","","","","","","","","","feedback_test","","","","","","","","","","","",""
"715","","f","psychophysics","71","240740","0.0-7.0-0.0-1.0-0.0-0.31","3","3","4","3","3","3","3","2","3","3","4","4","4","4","4","4","5","4","4","5","4","4","5","3","4","4","3","2","4","1","0","1","1","0","0","1","1","0","1","1","0","1","0","1","4","3","3","3","4","2","3","2","3","3","2","672081135265644544","冯","562","","","","match","","","","","","","","","","","","","","key","f","16.663189999999886","768","428","f","true","match","img/trapezoid.png","梯形","梯形","ALT1_1","prac_ALT1_1","","","","","","","","","","","",""
"null","<span style='color:GreenYellow; font-size: 70px;'>正确! </span>","null","html-keyboard-response","72","241245","0.0-7.0-0.0-1.0-0.0-1.31","3","3","4","3","3","3","3","2","3","3","4","4","4","4","4","4","5","4","4","5","4","4","5","3","4","4","3","2","4","1","0","1","1","0","0","1","1","0","1","1","0","1","0","1","4","3","3","3","4","2","3","2","3","3","2","672081135265644544","冯","562","","","","","","","","","","","","","","","","","","","","","","","","","","","","","","feedback_test","","","","","","","","","","","",""
"707","","f","psychophysics","73","242954","0.0-7.0-0.0-1.0-0.0-0.32","3","3","4","3","3","3","3","2","3","3","4","4","4","4","4","4","5","4","4","5","4","4","5","3","4","4","3","2","4","1","0","1","1","0","0","1","1","0","1","1","0","1","0","1","4","3","3","3","4","2","3","2","3","3","2","672081135265644544","冯","562","","","","match","","","","","","","","","","","","","","key","f","16.6593366336633","768","428","f","true","match","img/triangle.png","三角","三角","ALT1_1","prac_ALT1_1","","","","","","","","","","","",""
"null","<span style='color:GreenYellow; font-size: 70px;'>正确! </span>","null","html-keyboard-response","74","243458","0.0-7.0-0.0-1.0-0.0-1.32","3","3","4","3","3","3","3","2","3","3","4","4","4","4","4","4","5","4","4","5","4","4","5","3","4","4","3","2","4","1","0","1","1","0","0","1","1","0","1","1","0","1","0","1","4","3","3","3","4","2","3","2","3","3","2","672081135265644544","冯","562","","","","","","","","","","","","","","","","","","","","","","","","","","","","","","feedback_test","","","","","","","","","","","",""
"610","","j","psychophysics","75","245075","0.0-7.0-0.0-1.0-0.0-0.33","3","3","4","3","3","3","3","2","3","3","4","4","4","4","4","4","5","4","4","5","4","4","5","3","4","4","3","2","4","1","0","1","1","0","0","1","1","0","1","1","0","1","0","1","4","3","3","3","4","2","3","2","3","3","2","672081135265644544","冯","562","","","","nonmatch","","","","","","","","","","","","","","key","j","16.66110416666652","768","428","j","true","nonmatch","img/triangle.png","梯形","三角","ALT1_1","prac_ALT1_1","","","","","","","","","","","",""
"null","<span style='color:GreenYellow; font-size: 70px;'>正确! </span>","null","html-keyboard-response","76","245584","0.0-7.0-0.0-1.0-0.0-1.33","3","3","4","3","3","3","3","2","3","3","4","4","4","4","4","4","5","4","4","5","4","4","5","3","4","4","3","2","4","1","0","1","1","0","0","1","1","0","1","1","0","1","0","1","4","3","3","3","4","2","3","2","3","3","2","672081135265644544","冯","562","","","","","","","","","","","","","","","","","","","","","","","","","","","","","","feedback_test","","","","","","","","","","","",""
"800","","j","psychophysics","77","247390","0.0-7.0-0.0-1.0-0.0-0.34","3","3","4","3","3","3","3","2","3","3","4","4","4","4","4","4","5","4","4","5","4","4","5","3","4","4","3","2","4","1","0","1","1","0","0","1","1","0","1","1","0","1","0","1","4","3","3","3","4","2","3","2","3","3","2","672081135265644544","冯","562","","","","nonmatch","","","","","","","","","","","","","","key","j","16.659056074766358","768","428","j","true","nonmatch","img/pentagon.png","梯形","五边","ALT1_1","prac_ALT1_1","","","","","","","","","","","",""
"null","<span style='color:GreenYellow; font-size: 70px;'>正确! </span>","null","html-keyboard-response","78","247893","0.0-7.0-0.0-1.0-0.0-1.34","3","3","4","3","3","3","3","2","3","3","4","4","4","4","4","4","5","4","4","5","4","4","5","3","4","4","3","2","4","1","0","1","1","0","0","1","1","0","1","1","0","1","0","1","4","3","3","3","4","2","3","2","3","3","2","672081135265644544","冯","562","","","","","","","","","","","","","","","","","","","","","","","","","","","","","","feedback_test","","","","","","","","","","","",""
"634","","f","psychophysics","79","249535","0.0-7.0-0.0-1.0-0.0-0.35","3","3","4","3","3","3","3","2","3","3","4","4","4","4","4","4","5","4","4","5","4","4","5","3","4","4","3","2","4","1","0","1","1","0","0","1","1","0","1","1","0","1","0","1","4","3","3","3","4","2","3","2","3","3","2","672081135265644544","冯","562","","","","match","","","","","","","","","","","","","","key","f","16.66500000000005","768","428","j","false","nonmatch","img/circle.png","三角","圆形","ALT1_1","prac_ALT1_1","","","","","","","","","","","",""
"null","<span style='color:red; font-size: 70px;'>错误! </span>","null","html-keyboard-response","80","250043","0.0-7.0-0.0-1.0-0.0-1.35","3","3","4","3","3","3","3","2","3","3","4","4","4","4","4","4","5","4","4","5","4","4","5","3","4","4","3","2","4","1","0","1","1","0","0","1","1","0","1","1","0","1","0","1","4","3","3","3","4","2","3","2","3","3","2","672081135265644544","冯","562","","","","","","","","","","","","","","","","","","","","","","","","","","","","","","feedback_test","","","","","","","","","","","",""
"649","","f","psychophysics","81","251700","0.0-7.0-0.0-1.0-0.0-0.36","3","3","4","3","3","3","3","2","3","3","4","4","4","4","4","4","5","4","4","5","4","4","5","3","4","4","3","2","4","1","0","1","1","0","0","1","1","0","1","1","0","1","0","1","4","3","3","3","4","2","3","2","3","3","2","672081135265644544","冯","562","","","","match","","","","","","","","","","","","","","key","f","16.66023469387764","768","428","f","true","match","img/pentagon.png","五边","五边","ALT1_1","prac_ALT1_1","","","","","","","","","","","",""
"null","<span style='color:GreenYellow; font-size: 70px;'>正确! </span>","null","html-keyboard-response","82","252212","0.0-7.0-0.0-1.0-0.0-1.36","3","3","4","3","3","3","3","2","3","3","4","4","4","4","4","4","5","4","4","5","4","4","5","3","4","4","3","2","4","1","0","1","1","0","0","1","1","0","1","1","0","1","0","1","4","3","3","3","4","2","3","2","3","3","2","672081135265644544","冯","562","","","","","","","","","","","","","","","","","","","","","","","","","","","","","","feedback_test","","","","","","","","","","","",""
"667","","f","psychophysics","83","253886","0.0-7.0-0.0-1.0-0.0-0.37","3","3","4","3","3","3","3","2","3","3","4","4","4","4","4","4","5","4","4","5","4","4","5","3","4","4","3","2","4","1","0","1","1","0","0","1","1","0","1","1","0","1","0","1","4","3","3","3","4","2","3","2","3","3","2","672081135265644544","冯","562","","","","match","","","","","","","","","","","","","","key","f","16.663696969697025","768","428","f","true","match","img/triangle.png","三角","三角","ALT1_1","prac_ALT1_1","","","","","","","","","","","",""
"null","<span style='color:GreenYellow; font-size: 70px;'>正确! </span>","null","html-keyboard-response","84","254397","0.0-7.0-0.0-1.0-0.0-1.37","3","3","4","3","3","3","3","2","3","3","4","4","4","4","4","4","5","4","4","5","4","4","5","3","4","4","3","2","4","1","0","1","1","0","0","1","1","0","1","1","0","1","0","1","4","3","3","3","4","2","3","2","3","3","2","672081135265644544","冯","562","","","","","","","","","","","","","","","","","","","","","","","","","","","","","","feedback_test","","","","","","","","","","","",""
"662","","j","psychophysics","85","256062","0.0-7.0-0.0-1.0-0.0-0.38","3","3","4","3","3","3","3","2","3","3","4","4","4","4","4","4","5","4","4","5","4","4","5","3","4","4","3","2","4","1","0","1","1","0","0","1","1","0","1","1","0","1","0","1","4","3","3","3","4","2","3","2","3","3","2","672081135265644544","冯","562","","","","nonmatch","","","","","","","","","","","","","","key","j","16.66380612244883","768","428","j","true","nonmatch","img/triangle.png","圆形","三角","ALT1_1","prac_ALT1_1","","","","","","","","","","","",""
"null","<span style='color:GreenYellow; font-size: 70px;'>正确! </span>","null","html-keyboard-response","86","256575","0.0-7.0-0.0-1.0-0.0-1.38","3","3","4","3","3","3","3","2","3","3","4","4","4","4","4","4","5","4","4","5","4","4","5","3","4","4","3","2","4","1","0","1","1","0","0","1","1","0","1","1","0","1","0","1","4","3","3","3","4","2","3","2","3","3","2","672081135265644544","冯","562","","","","","","","","","","","","","","","","","","","","","","","","","","","","","","feedback_test","","","","","","","","","","","",""
"788","","f","psychophysics","87","258370","0.0-7.0-0.0-1.0-0.0-0.39","3","3","4","3","3","3","3","2","3","3","4","4","4","4","4","4","5","4","4","5","4","4","5","3","4","4","3","2","4","1","0","1","1","0","0","1","1","0","1","1","0","1","0","1","4","3","3","3","4","2","3","2","3","3","2","672081135265644544","冯","562","","","","match","","","","","","","","","","","","","","key","f","16.663301886792432","768","428","f","true","match","img/circle.png","圆形","圆形","ALT1_1","prac_ALT1_1","","","","","","","","","","","",""
"null","<span style='color:GreenYellow; font-size: 70px;'>正确! </span>","null","html-keyboard-response","88","258877","0.0-7.0-0.0-1.0-0.0-1.39","3","3","4","3","3","3","3","2","3","3","4","4","4","4","4","4","5","4","4","5","4","4","5","3","4","4","3","2","4","1","0","1","1","0","0","1","1","0","1","1","0","1","0","1","4","3","3","3","4","2","3","2","3","3","2","672081135265644544","冯","562","","","","","","","","","","","","","","","","","","","","","","","","","","","","","","feedback_test","","","","","","","","","","","",""
"699","","f","psychophysics","89","260583","0.0-7.0-0.0-1.0-0.0-0.40","3","3","4","3","3","3","3","2","3","3","4","4","4","4","4","4","5","4","4","5","4","4","5","3","4","4","3","2","4","1","0","1","1","0","0","1","1","0","1","1","0","1","0","1","4","3","3","3","4","2","3","2","3","3","2","672081135265644544","冯","562","","","","match","","","","","","","","","","","","","","key","f","16.664178217821732","768","428","f","true","match","img/circle.png","圆形","圆形","ALT1_1","prac_ALT1_1","","","","","","","","","","","",""
"null","<span style='color:GreenYellow; font-size: 70px;'>正确! </span>","null","html-keyboard-response","90","261088","0.0-7.0-0.0-1.0-0.0-1.40","3","3","4","3","3","3","3","2","3","3","4","4","4","4","4","4","5","4","4","5","4","4","5","3","4","4","3","2","4","1","0","1","1","0","0","1","1","0","1","1","0","1","0","1","4","3","3","3","4","2","3","2","3","3","2","672081135265644544","冯","562","","","","","","","","","","","","","","","","","","","","","","","","","","","","","","feedback_test","","","","","","","","","","","",""
"691","","j","psychophysics","91","262787","0.0-7.0-0.0-1.0-0.0-0.41","3","3","4","3","3","3","3","2","3","3","4","4","4","4","4","4","5","4","4","5","4","4","5","3","4","4","3","2","4","1","0","1","1","0","0","1","1","0","1","1","0","1","0","1","4","3","3","3","4","2","3","2","3","3","2","672081135265644544","冯","562","","","","nonmatch","","","","","","","","","","","","","","key","j","16.663732673267436","768","428","j","true","nonmatch","img/pentagon.png","圆形","五边","ALT1_1","prac_ALT1_1","","","","","","","","","","","",""
"null","<span style='color:GreenYellow; font-size: 70px;'>正确! </span>","null","html-keyboard-response","92","263290","0.0-7.0-0.0-1.0-0.0-1.41","3","3","4","3","3","3","3","2","3","3","4","4","4","4","4","4","5","4","4","5","4","4","5","3","4","4","3","2","4","1","0","1","1","0","0","1","1","0","1","1","0","1","0","1","4","3","3","3","4","2","3","2","3","3","2","672081135265644544","冯","562","","","","","","","","","","","","","","","","","","","","","","","","","","","","","","feedback_test","","","","","","","","","","","",""
"789","","j","psychophysics","93","265088","0.0-7.0-0.0-1.0-0.0-0.42","3","3","4","3","3","3","3","2","3","3","4","4","4","4","4","4","5","4","4","5","4","4","5","3","4","4","3","2","4","1","0","1","1","0","0","1","1","0","1","1","0","1","0","1","4","3","3","3","4","2","3","2","3","3","2","672081135265644544","冯","562","","","","nonmatch","","","","","","","","","","","","","","key","j","16.663849056603933","768","428","j","true","nonmatch","img/circle.png","梯形","圆形","ALT1_1","prac_ALT1_1","","","","","","","","","","","",""
"null","<span style='color:GreenYellow; font-size: 70px;'>正确! </span>","null","html-keyboard-response","94","265591","0.0-7.0-0.0-1.0-0.0-1.42","3","3","4","3","3","3","3","2","3","3","4","4","4","4","4","4","5","4","4","5","4","4","5","3","4","4","3","2","4","1","0","1","1","0","0","1","1","0","1","1","0","1","0","1","4","3","3","3","4","2","3","2","3","3","2","672081135265644544","冯","562","","","","","","","","","","","","","","","","","","","","","","","","","","","","","","feedback_test","","","","","","","","","","","",""
"688","","j","psychophysics","95","267287","0.0-7.0-0.0-1.0-0.0-0.43","3","3","4","3","3","3","3","2","3","3","4","4","4","4","4","4","5","4","4","5","4","4","5","3","4","4","3","2","4","1","0","1","1","0","0","1","1","0","1","1","0","1","0","1","4","3","3","3","4","2","3","2","3","3","2","672081135265644544","冯","562","","","","nonmatch","","","","","","","","","","","","","","key","j","16.663310000000056","768","428","j","true","nonmatch","img/triangle.png","五边","三角","ALT1_1","prac_ALT1_1","","","","","","","","","","","",""
"null","<span style='color:GreenYellow; font-size: 70px;'>正确! </span>","null","html-keyboard-response","96","267794","0.0-7.0-0.0-1.0-0.0-1.43","3","3","4","3","3","3","3","2","3","3","4","4","4","4","4","4","5","4","4","5","4","4","5","3","4","4","3","2","4","1","0","1","1","0","0","1","1","0","1","1","0","1","0","1","4","3","3","3","4","2","3","2","3","3","2","672081135265644544","冯","562","","","","","","","","","","","","","","","","","","","","","","","","","","","","","","feedback_test","","","","","","","","","","","",""
"647","","j","psychophysics","97","269446","0.0-7.0-0.0-1.0-0.0-0.44","3","3","4","3","3","3","3","2","3","3","4","4","4","4","4","4","5","4","4","5","4","4","5","3","4","4","3","2","4","1","0","1","1","0","0","1","1","0","1","1","0","1","0","1","4","3","3","3","4","2","3","2","3","3","2","672081135265644544","冯","562","","","","nonmatch","","","","","","","","","","","","","","key","j","16.662204081632733","768","428","j","true","nonmatch","img/trapezoid.png","三角","梯形","ALT1_1","prac_ALT1_1","","","","","","","","","","","",""
"null","<span style='color:GreenYellow; font-size: 70px;'>正确! </span>","null","html-keyboard-response","98","269950","0.0-7.0-0.0-1.0-0.0-1.44","3","3","4","3","3","3","3","2","3","3","4","4","4","4","4","4","5","4","4","5","4","4","5","3","4","4","3","2","4","1","0","1","1","0","0","1","1","0","1","1","0","1","0","1","4","3","3","3","4","2","3","2","3","3","2","672081135265644544","冯","562","","","","","","","","","","","","","","","","","","","","","","","","","","","","","","feedback_test","","","","","","","","","","","",""
"754","","f","psychophysics","99","271708","0.0-7.0-0.0-1.0-0.0-0.45","3","3","4","3","3","3","3","2","3","3","4","4","4","4","4","4","5","4","4","5","4","4","5","3","4","4","3","2","4","1","0","1","1","0","0","1","1","0","1","1","0","1","0","1","4","3","3","3","4","2","3","2","3","3","2","672081135265644544","冯","562","","","","match","","","","","","","","","","","","","","key","f","16.664066666666795","768","428","f","true","match","img/pentagon.png","五边","五边","ALT1_1","prac_ALT1_1","","","","","","","","","","","",""
"null","<span style='color:GreenYellow; font-size: 70px;'>正确! </span>","null","html-keyboard-response","100","272214","0.0-7.0-0.0-1.0-0.0-1.45","3","3","4","3","3","3","3","2","3","3","4","4","4","4","4","4","5","4","4","5","4","4","5","3","4","4","3","2","4","1","0","1","1","0","0","1","1","0","1","1","0","1","0","1","4","3","3","3","4","2","3","2","3","3","2","672081135265644544","冯","562","","","","","","","","","","","","","","","","","","","","","","","","","","","","","","feedback_test","","","","","","","","","","","",""
"815","","f","psychophysics","101","274036","0.0-7.0-0.0-1.0-0.0-0.46","3","3","4","3","3","3","3","2","3","3","4","4","4","4","4","4","5","4","4","5","4","4","5","3","4","4","3","2","4","1","0","1","1","0","0","1","1","0","1","1","0","1","0","1","4","3","3","3","4","2","3","2","3","3","2","672081135265644544","冯","562","","","","match","","","","","","","","","","","","","","key","f","16.66274999999991","768","428","f","true","match","img/pentagon.png","五边","五边","ALT1_1","prac_ALT1_1","","","","","","","","","","","",""
"null","<span style='color:GreenYellow; font-size: 70px;'>正确! </span>","null","html-keyboard-response","102","274542","0.0-7.0-0.0-1.0-0.0-1.46","3","3","4","3","3","3","3","2","3","3","4","4","4","4","4","4","5","4","4","5","4","4","5","3","4","4","3","2","4","1","0","1","1","0","0","1","1","0","1","1","0","1","0","1","4","3","3","3","4","2","3","2","3","3","2","672081135265644544","冯","562","","","","","","","","","","","","","","","","","","","","","","","","","","","","","","feedback_test","","","","","","","","","","","",""
"726","","f","psychophysics","103","276276","0.0-7.0-0.0-1.0-0.0-0.47","3","3","4","3","3","3","3","2","3","3","4","4","4","4","4","4","5","4","4","5","4","4","5","3","4","4","3","2","4","1","0","1","1","0","0","1","1","0","1","1","0","1","0","1","4","3","3","3","4","2","3","2","3","3","2","672081135265644544","冯","562","","","","match","","","","","","","","","","","","","","key","f","16.659058252426917","768","428","f","true","match","img/circle.png","圆形","圆形","ALT1_1","prac_ALT1_1","","","","","","","","","","","",""
"null","<span style='color:GreenYellow; font-size: 70px;'>正确! </span>","null","html-keyboard-response","104","276779","0.0-7.0-0.0-1.0-0.0-1.47","3","3","4","3","3","3","3","2","3","3","4","4","4","4","4","4","5","4","4","5","4","4","5","3","4","4","3","2","4","1","0","1","1","0","0","1","1","0","1","1","0","1","0","1","4","3","3","3","4","2","3","2","3","3","2","672081135265644544","冯","562","","","","","","","","","","","","","","","","","","","","","","","","","","","","","","feedback_test","","","","","","","","","","","",""
"8604","<style>.context{color:white; font-size: 35px; line-height:40px}</style>                            <div><p class='context'>您正确回答了81% 的试次。</p><p class='context'>您的平均反应时为746毫秒。</p><p class='context'>恭喜您完成练习。按空格键进入正式实验。</p><p class='footer' style='font-size: 35px; line-height:40px;'>请在进入正式实验之前将您的<span style='color: lightgreen;'>食指</span>放在电脑键盘的相应键位上进行按键。</p>"," ","html-keyboard-response","105","285388","0.0-7.0-0.0-2.0","3","3","4","3","3","3","3","2","3","3","4","4","4","4","4","4","5","4","4","5","4","4","5","3","4","4","3","2","4","1","0","1","1","0","0","1","1","0","1","1","0","1","0","1","4","3","3","3","4","2","3","2","3","3","2","672081135265644544","冯","562","","","","","","","","","","","","","","","","","","","","","","","","","","","","","","","","","","","","","","","","","",""
"2427","
    <p style='color: white; font-size: 22px'>请您将手指放在按键上，准备进入正式的匹配任务。</p>
    <p> <div style = ""color: green""><按空格键进入下一阶段的匹配任务></div></p>
    "," ","html-keyboard-response","106","287824","0.0-7.0-0.0-3.0","3","3","4","3","3","3","3","2","3","3","4","4","4","4","4","4","5","4","4","5","4","4","5","3","4","4","3","2","4","1","0","1","1","0","0","1","1","0","1","1","0","1","0","1","4","3","3","3","4","2","3","2","3","3","2","672081135265644544","冯","562","","","","","","","","","","","","","","","","","","","","","","","","","","","","","","","","","","","","","","","","","",""
"632","","f","psychophysics","107","289462","0.0-7.0-0.0-4.0-0.0-0.0","3","3","4","3","3","3","3","2","3","3","4","4","4","4","4","4","5","4","4","5","4","4","5","3","4","4","3","2","4","1","0","1","1","0","0","1","1","0","1","1","0","1","0","1","4","3","3","3","4","2","3","2","3","3","2","672081135265644544","冯","562","","","","match","","","","","","","","","","","","","","key","f","16.66355670103083","768","428","f","true","match","img/trapezoid.png","梯形","梯形","ALT1","formal_ALT1_1","","","","","","","","","","","",""
"null","<span style='color:GreenYellow; font-size: 70px;'>正确! </span>","null","html-keyboard-response","108","289969","0.0-7.0-0.0-4.0-0.0-1.0","3","3","4","3","3","3","3","2","3","3","4","4","4","4","4","4","5","4","4","5","4","4","5","3","4","4","3","2","4","1","0","1","1","0","0","1","1","0","1","1","0","1","0","1","4","3","3","3","4","2","3","2","3","3","2","672081135265644544","冯","562","","","","","","","","","","","","","","","","","","","","","","","","","","","","","","feedback_test","","","","","","","","","","","",""
"569","","f","psychophysics","109","291585","0.0-7.0-0.0-4.0-0.0-0.1","3","3","4","3","3","3","3","2","3","3","4","4","4","4","4","4","5","4","4","5","4","4","5","3","4","4","3","2","4","1","0","1","1","0","0","1","1","0","1","1","0","1","0","1","4","3","3","3","4","2","3","2","3","3","2","672081135265644544","冯","562","","","","match","","","","","","","","","","","","","","key","f","16.83886170212769","768","428","f","true","match","img/triangle.png","三角","三角","ALT1","formal_ALT1_1","","","","","","","","","","","",""
"null","<span style='color:GreenYellow; font-size: 70px;'>正确! </span>","null","html-keyboard-response","110","292093","0.0-7.0-0.0-4.0-0.0-1.1","3","3","4","3","3","3","3","2","3","3","4","4","4","4","4","4","5","4","4","5","4","4","5","3","4","4","3","2","4","1","0","1","1","0","0","1","1","0","1","1","0","1","0","1","4","3","3","3","4","2","3","2","3","3","2","672081135265644544","冯","562","","","","","","","","","","","","","","","","","","","","","","","","","","","","","","feedback_test","","","","","","","","","","","",""
"564","","f","psychophysics","111","293664","0.0-7.0-0.0-4.0-0.0-0.2","3","3","4","3","3","3","3","2","3","3","4","4","4","4","4","4","5","4","4","5","4","4","5","3","4","4","3","2","4","1","0","1","1","0","0","1","1","0","1","1","0","1","0","1","4","3","3","3","4","2","3","2","3","3","2","672081135265644544","冯","562","","","","match","","","","","","","","","","","","","","key","f","16.66005376344096","768","428","f","true","match","img/pentagon.png","五边","五边","ALT1","formal_ALT1_1","","","","","","","","","","","",""
"null","<span style='color:GreenYellow; font-size: 70px;'>正确! </span>","null","html-keyboard-response","112","294171","0.0-7.0-0.0-4.0-0.0-1.2","3","3","4","3","3","3","3","2","3","3","4","4","4","4","4","4","5","4","4","5","4","4","5","3","4","4","3","2","4","1","0","1","1","0","0","1","1","0","1","1","0","1","0","1","4","3","3","3","4","2","3","2","3","3","2","672081135265644544","冯","562","","","","","","","","","","","","","","","","","","","","","","","","","","","","","","feedback_test","","","","","","","","","","","",""
"524","","f","psychophysics","113","295703","0.0-7.0-0.0-4.0-0.0-0.3","3","3","4","3","3","3","3","2","3","3","4","4","4","4","4","4","5","4","4","5","4","4","5","3","4","4","3","2","4","1","0","1","1","0","0","1","1","0","1","1","0","1","0","1","4","3","3","3","4","2","3","2","3","3","2","672081135265644544","冯","562","","","","match","","","","","","","","","","","","","","key","f","16.65538461538477","768","428","f","true","match","img/pentagon.png","五边","五边","ALT1","formal_ALT1_1","","","","","","","","","","","",""
"null","<span style='color:GreenYellow; font-size: 70px;'>正确! </span>","null","html-keyboard-response","114","296205","0.0-7.0-0.0-4.0-0.0-1.3","3","3","4","3","3","3","3","2","3","3","4","4","4","4","4","4","5","4","4","5","4","4","5","3","4","4","3","2","4","1","0","1","1","0","0","1","1","0","1","1","0","1","0","1","4","3","3","3","4","2","3","2","3","3","2","672081135265644544","冯","562","","","","","","","","","","","","","","","","","","","","","","","","","","","","","","feedback_test","","","","","","","","","","","",""
"740","","j","psychophysics","115","297951","0.0-7.0-0.0-4.0-0.0-0.4","3","3","4","3","3","3","3","2","3","3","4","4","4","4","4","4","5","4","4","5","4","4","5","3","4","4","3","2","4","1","0","1","1","0","0","1","1","0","1","1","0","1","0","1","4","3","3","3","4","2","3","2","3","3","2","672081135265644544","冯","562","","","","nonmatch","","","","","","","","","","","","","","key","j","16.660211538461645","768","428","j","true","nonmatch","img/pentagon.png","梯形","五边","ALT1","formal_ALT1_1","","","","","","","","","","","",""
"null","<span style='color:GreenYellow; font-size: 70px;'>正确! </span>","null","html-keyboard-response","116","298459","0.0-7.0-0.0-4.0-0.0-1.4","3","3","4","3","3","3","3","2","3","3","4","4","4","4","4","4","5","4","4","5","4","4","5","3","4","4","3","2","4","1","0","1","1","0","0","1","1","0","1","1","0","1","0","1","4","3","3","3","4","2","3","2","3","3","2","672081135265644544","冯","562","","","","","","","","","","","","","","","","","","","","","","","","","","","","","","feedback_test","","","","","","","","","","","",""
"800","","j","psychophysics","117","300266","0.0-7.0-0.0-4.0-0.0-0.5","3","3","4","3","3","3","3","2","3","3","4","4","4","4","4","4","5","4","4","5","4","4","5","3","4","4","3","2","4","1","0","1","1","0","0","1","1","0","1","1","0","1","0","1","4","3","3","3","4","2","3","2","3","3","2","672081135265644544","冯","562","","","","nonmatch","","","","","","","","","","","","","","key","j","16.662803738317606","768","428","j","true","nonmatch","img/triangle.png","梯形","三角","ALT1","formal_ALT1_1","","","","","","","","","","","",""
"null","<span style='color:GreenYellow; font-size: 70px;'>正确! </span>","null","html-keyboard-response","118","300771","0.0-7.0-0.0-4.0-0.0-1.5","3","3","4","3","3","3","3","2","3","3","4","4","4","4","4","4","5","4","4","5","4","4","5","3","4","4","3","2","4","1","0","1","1","0","0","1","1","0","1","1","0","1","0","1","4","3","3","3","4","2","3","2","3","3","2","672081135265644544","冯","562","","","","","","","","","","","","","","","","","","","","","","","","","","","","","","feedback_test","","","","","","","","","","","",""
"592","","f","psychophysics","119","302370","0.0-7.0-0.0-4.0-0.0-0.6","3","3","4","3","3","3","3","2","3","3","4","4","4","4","4","4","5","4","4","5","4","4","5","3","4","4","3","2","4","1","0","1","1","0","0","1","1","0","1","1","0","1","0","1","4","3","3","3","4","2","3","2","3","3","2","672081135265644544","冯","562","","","","match","","","","","","","","","","","","","","key","f","16.663663157894227","768","428","j","false","nonmatch","img/circle.png","五边","圆形","ALT1","formal_ALT1_1","","","","","","","","","","","",""
"null","<span style='color:red; font-size: 70px;'>错误! </span>","null","html-keyboard-response","120","302879","0.0-7.0-0.0-4.0-0.0-1.6","3","3","4","3","3","3","3","2","3","3","4","4","4","4","4","4","5","4","4","5","4","4","5","3","4","4","3","2","4","1","0","1","1","0","0","1","1","0","1","1","0","1","0","1","4","3","3","3","4","2","3","2","3","3","2","672081135265644544","冯","562","","","","","","","","","","","","","","","","","","","","","","","","","","","","","","feedback_test","","","","","","","","","","","",""
"611","","f","psychophysics","121","304493","0.0-7.0-0.0-4.0-0.0-0.7","3","3","4","3","3","3","3","2","3","3","4","4","4","4","4","4","5","4","4","5","4","4","5","3","4","4","3","2","4","1","0","1","1","0","0","1","1","0","1","1","0","1","0","1","4","3","3","3","4","2","3","2","3","3","2","672081135265644544","冯","562","","","","match","","","","","","","","","","","","","","key","f","16.663463157895144","768","428","f","true","match","img/trapezoid.png","梯形","梯形","ALT1","formal_ALT1_1","","","","","","","","","","","",""
"null","<span style='color:GreenYellow; font-size: 70px;'>正确! </span>","null","html-keyboard-response","122","305008","0.0-7.0-0.0-4.0-0.0-1.7","3","3","4","3","3","3","3","2","3","3","4","4","4","4","4","4","5","4","4","5","4","4","5","3","4","4","3","2","4","1","0","1","1","0","0","1","1","0","1","1","0","1","0","1","4","3","3","3","4","2","3","2","3","3","2","672081135265644544","冯","562","","","","","","","","","","","","","","","","","","","","","","","","","","","","","","feedback_test","","","","","","","","","","","",""
"618","","f","psychophysics","123","306632","0.0-7.0-0.0-4.0-0.0-0.8","3","3","4","3","3","3","3","2","3","3","4","4","4","4","4","4","5","4","4","5","4","4","5","3","4","4","3","2","4","1","0","1","1","0","0","1","1","0","1","1","0","1","0","1","4","3","3","3","4","2","3","2","3","3","2","672081135265644544","冯","562","","","","match","","","","","","","","","","","","","","key","f","16.665156249999807","768","428","f","true","match","img/pentagon.png","五边","五边","ALT1","formal_ALT1_1","","","","","","","","","","","",""
"null","<span style='color:GreenYellow; font-size: 70px;'>正确! </span>","null","html-keyboard-response","124","307135","0.0-7.0-0.0-4.0-0.0-1.8","3","3","4","3","3","3","3","2","3","3","4","4","4","4","4","4","5","4","4","5","4","4","5","3","4","4","3","2","4","1","0","1","1","0","0","1","1","0","1","1","0","1","0","1","4","3","3","3","4","2","3","2","3","3","2","672081135265644544","冯","562","","","","","","","","","","","","","","","","","","","","","","","","","","","","","","feedback_test","","","","","","","","","","","",""
"609","","f","psychophysics","125","308753","0.0-7.0-0.0-4.0-0.0-0.9","3","3","4","3","3","3","3","2","3","3","4","4","4","4","4","4","5","4","4","5","4","4","5","3","4","4","3","2","4","1","0","1","1","0","0","1","1","0","1","1","0","1","0","1","4","3","3","3","4","2","3","2","3","3","2","672081135265644544","冯","562","","","","match","","","","","","","","","","","","","","key","f","16.66704166666629","768","428","f","true","match","img/triangle.png","三角","三角","ALT1","formal_ALT1_1","","","","","","","","","","","",""
"null","<span style='color:GreenYellow; font-size: 70px;'>正确! </span>","null","html-keyboard-response","126","309262","0.0-7.0-0.0-4.0-0.0-1.9","3","3","4","3","3","3","3","2","3","3","4","4","4","4","4","4","5","4","4","5","4","4","5","3","4","4","3","2","4","1","0","1","1","0","0","1","1","0","1","1","0","1","0","1","4","3","3","3","4","2","3","2","3","3","2","672081135265644544","冯","562","","","","","","","","","","","","","","","","","","","","","","","","","","","","","","feedback_test","","","","","","","","","","","",""
"645","","j","psychophysics","127","310911","0.0-7.0-0.0-4.0-0.0-0.10","3","3","4","3","3","3","3","2","3","3","4","4","4","4","4","4","5","4","4","5","4","4","5","3","4","4","3","2","4","1","0","1","1","0","0","1","1","0","1","1","0","1","0","1","4","3","3","3","4","2","3","2","3","3","2","672081135265644544","冯","562","","","","nonmatch","","","","","","","","","","","","","","key","j","16.64306185567048","768","428","j","true","nonmatch","img/triangle.png","圆形","三角","ALT1","formal_ALT1_1","","","","","","","","","","","",""
"null","<span style='color:GreenYellow; font-size: 70px;'>正确! </span>","null","html-keyboard-response","128","311418","0.0-7.0-0.0-4.0-0.0-1.10","3","3","4","3","3","3","3","2","3","3","4","4","4","4","4","4","5","4","4","5","4","4","5","3","4","4","3","2","4","1","0","1","1","0","0","1","1","0","1","1","0","1","0","1","4","3","3","3","4","2","3","2","3","3","2","672081135265644544","冯","562","","","","","","","","","","","","","","","","","","","","","","","","","","","","","","feedback_test","","","","","","","","","","","",""
"640","","j","psychophysics","129","313065","0.0-7.0-0.0-4.0-0.0-0.11","3","3","4","3","3","3","3","2","3","3","4","4","4","4","4","4","5","4","4","5","4","4","5","3","4","4","3","2","4","1","0","1","1","0","0","1","1","0","1","1","0","1","0","1","4","3","3","3","4","2","3","2","3","3","2","672081135265644544","冯","562","","","","nonmatch","","","","","","","","","","","","","","key","j","16.66416326530601","768","428","j","true","nonmatch","img/trapezoid.png","三角","梯形","ALT1","formal_ALT1_1","","","","","","","","","","","",""
"null","<span style='color:GreenYellow; font-size: 70px;'>正确! </span>","null","html-keyboard-response","130","313574","0.0-7.0-0.0-4.0-0.0-1.11","3","3","4","3","3","3","3","2","3","3","4","4","4","4","4","4","5","4","4","5","4","4","5","3","4","4","3","2","4","1","0","1","1","0","0","1","1","0","1","1","0","1","0","1","4","3","3","3","4","2","3","2","3","3","2","672081135265644544","冯","562","","","","","","","","","","","","","","","","","","","","","","","","","","","","","","feedback_test","","","","","","","","","","","",""
"665","","j","psychophysics","131","315245","0.0-7.0-0.0-4.0-0.0-0.12","3","3","4","3","3","3","3","2","3","3","4","4","4","4","4","4","5","4","4","5","4","4","5","3","4","4","3","2","4","1","0","1","1","0","0","1","1","0","1","1","0","1","0","1","4","3","3","3","4","2","3","2","3","3","2","672081135265644544","冯","562","","","","nonmatch","","","","","","","","","","","","","","key","j","16.663303030302604","768","428","j","true","nonmatch","img/triangle.png","五边","三角","ALT1","formal_ALT1_1","","","","","","","","","","","",""
"null","<span style='color:GreenYellow; font-size: 70px;'>正确! </span>","null","html-keyboard-response","132","315754","0.0-7.0-0.0-4.0-0.0-1.12","3","3","4","3","3","3","3","2","3","3","4","4","4","4","4","4","5","4","4","5","4","4","5","3","4","4","3","2","4","1","0","1","1","0","0","1","1","0","1","1","0","1","0","1","4","3","3","3","4","2","3","2","3","3","2","672081135265644544","冯","562","","","","","","","","","","","","","","","","","","","","","","","","","","","","","","feedback_test","","","","","","","","","","","",""
"614","","j","psychophysics","133","317375","0.0-7.0-0.0-4.0-0.0-0.13","3","3","4","3","3","3","3","2","3","3","4","4","4","4","4","4","5","4","4","5","4","4","5","3","4","4","3","2","4","1","0","1","1","0","0","1","1","0","1","1","0","1","0","1","4","3","3","3","4","2","3","2","3","3","2","672081135265644544","冯","562","","","","nonmatch","","","","","","","","","","","","","","key","j","16.66323958333366","768","428","j","true","nonmatch","img/circle.png","三角","圆形","ALT1","formal_ALT1_1","","","","","","","","","","","",""
"null","<span style='color:GreenYellow; font-size: 70px;'>正确! </span>","null","html-keyboard-response","134","317877","0.0-7.0-0.0-4.0-0.0-1.13","3","3","4","3","3","3","3","2","3","3","4","4","4","4","4","4","5","4","4","5","4","4","5","3","4","4","3","2","4","1","0","1","1","0","0","1","1","0","1","1","0","1","0","1","4","3","3","3","4","2","3","2","3","3","2","672081135265644544","冯","562","","","","","","","","","","","","","","","","","","","","","","","","","","","","","","feedback_test","","","","","","","","","","","",""
"636","","j","psychophysics","135","319516","0.0-7.0-0.0-4.0-0.0-0.14","3","3","4","3","3","3","3","2","3","3","4","4","4","4","4","4","5","4","4","5","4","4","5","3","4","4","3","2","4","1","0","1","1","0","0","1","1","0","1","1","0","1","0","1","4","3","3","3","4","2","3","2","3","3","2","672081135265644544","冯","562","","","","nonmatch","","","","","","","","","","","","","","key","j","16.66332989690715","768","428","j","true","nonmatch","img/pentagon.png","三角","五边","ALT1","formal_ALT1_1","","","","","","","","","","","",""
"null","<span style='color:GreenYellow; font-size: 70px;'>正确! </span>","null","html-keyboard-response","136","320023","0.0-7.0-0.0-4.0-0.0-1.14","3","3","4","3","3","3","3","2","3","3","4","4","4","4","4","4","5","4","4","5","4","4","5","3","4","4","3","2","4","1","0","1","1","0","0","1","1","0","1","1","0","1","0","1","4","3","3","3","4","2","3","2","3","3","2","672081135265644544","冯","562","","","","","","","","","","","","","","","","","","","","","","","","","","","","","","feedback_test","","","","","","","","","","","",""
"605","","f","psychophysics","137","321633","0.0-7.0-0.0-4.0-0.0-0.15","3","3","4","3","3","3","3","2","3","3","4","4","4","4","4","4","5","4","4","5","4","4","5","3","4","4","3","2","4","1","0","1","1","0","0","1","1","0","1","1","0","1","0","1","4","3","3","3","4","2","3","2","3","3","2","672081135265644544","冯","562","","","","match","","","","","","","","","","","","","","key","f","16.657666666666653","768","428","f","true","match","img/circle.png","圆形","圆形","ALT1","formal_ALT1_1","","","","","","","","","","","",""
"null","<span style='color:GreenYellow; font-size: 70px;'>正确! </span>","null","html-keyboard-response","138","322138","0.0-7.0-0.0-4.0-0.0-1.15","3","3","4","3","3","3","3","2","3","3","4","4","4","4","4","4","5","4","4","5","4","4","5","3","4","4","3","2","4","1","0","1","1","0","0","1","1","0","1","1","0","1","0","1","4","3","3","3","4","2","3","2","3","3","2","672081135265644544","冯","562","","","","","","","","","","","","","","","","","","","","","","","","","","","","","","feedback_test","","","","","","","","","","","",""
"703","","j","psychophysics","139","323847","0.0-7.0-0.0-4.0-0.0-0.16","3","3","4","3","3","3","3","2","3","3","4","4","4","4","4","4","5","4","4","5","4","4","5","3","4","4","3","2","4","1","0","1","1","0","0","1","1","0","1","1","0","1","0","1","4","3","3","3","4","2","3","2","3","3","2","672081135265644544","冯","562","","","","nonmatch","","","","","","","","","","","","","","key","j","16.664470588235417","768","428","j","true","nonmatch","img/trapezoid.png","圆形","梯形","ALT1","formal_ALT1_1","","","","","","","","","","","",""
"null","<span style='color:GreenYellow; font-size: 70px;'>正确! </span>","null","html-keyboard-response","140","324351","0.0-7.0-0.0-4.0-0.0-1.16","3","3","4","3","3","3","3","2","3","3","4","4","4","4","4","4","5","4","4","5","4","4","5","3","4","4","3","2","4","1","0","1","1","0","0","1","1","0","1","1","0","1","0","1","4","3","3","3","4","2","3","2","3","3","2","672081135265644544","冯","562","","","","","","","","","","","","","","","","","","","","","","","","","","","","","","feedback_test","","","","","","","","","","","",""
"577","","f","psychophysics","141","325935","0.0-7.0-0.0-4.0-0.0-0.17","3","3","4","3","3","3","3","2","3","3","4","4","4","4","4","4","5","4","4","5","4","4","5","3","4","4","3","2","4","1","0","1","1","0","0","1","1","0","1","1","0","1","0","1","4","3","3","3","4","2","3","2","3","3","2","672081135265644544","冯","562","","","","match","","","","","","","","","","","","","","key","f","16.660936170212423","768","428","f","true","match","img/circle.png","圆形","圆形","ALT1","formal_ALT1_1","","","","","","","","","","","",""
"null","<span style='color:GreenYellow; font-size: 70px;'>正确! </span>","null","html-keyboard-response","142","326440","0.0-7.0-0.0-4.0-0.0-1.17","3","3","4","3","3","3","3","2","3","3","4","4","4","4","4","4","5","4","4","5","4","4","5","3","4","4","3","2","4","1","0","1","1","0","0","1","1","0","1","1","0","1","0","1","4","3","3","3","4","2","3","2","3","3","2","672081135265644544","冯","562","","","","","","","","","","","","","","","","","","","","","","","","","","","","","","feedback_test","","","","","","","","","","","",""
"738","","j","psychophysics","143","328181","0.0-7.0-0.0-4.0-0.0-0.18","3","3","4","3","3","3","3","2","3","3","4","4","4","4","4","4","5","4","4","5","4","4","5","3","4","4","3","2","4","1","0","1","1","0","0","1","1","0","1","1","0","1","0","1","4","3","3","3","4","2","3","2","3","3","2","672081135265644544","冯","562","","","","nonmatch","","","","","","","","","","","","","","key","j","16.663211538461418","768","428","j","true","nonmatch","img/circle.png","梯形","圆形","ALT1","formal_ALT1_1","","","","","","","","","","","",""
"null","<span style='color:GreenYellow; font-size: 70px;'>正确! </span>","null","html-keyboard-response","144","328687","0.0-7.0-0.0-4.0-0.0-1.18","3","3","4","3","3","3","3","2","3","3","4","4","4","4","4","4","5","4","4","5","4","4","5","3","4","4","3","2","4","1","0","1","1","0","0","1","1","0","1","1","0","1","0","1","4","3","3","3","4","2","3","2","3","3","2","672081135265644544","冯","562","","","","","","","","","","","","","","","","","","","","","","","","","","","","","","feedback_test","","","","","","","","","","","",""
"721","","f","psychophysics","145","330414","0.0-7.0-0.0-4.0-0.0-0.19","3","3","4","3","3","3","3","2","3","3","4","4","4","4","4","4","5","4","4","5","4","4","5","3","4","4","3","2","4","1","0","1","1","0","0","1","1","0","1","1","0","1","0","1","4","3","3","3","4","2","3","2","3","3","2","672081135265644544","冯","562","","","","match","","","","","","","","","","","","","","key","f","16.663425742574198","768","428","f","true","match","img/trapezoid.png","梯形","梯形","ALT1","formal_ALT1_1","","","","","","","","","","","",""
"null","<span style='color:GreenYellow; font-size: 70px;'>正确! </span>","null","html-keyboard-response","146","330916","0.0-7.0-0.0-4.0-0.0-1.19","3","3","4","3","3","3","3","2","3","3","4","4","4","4","4","4","5","4","4","5","4","4","5","3","4","4","3","2","4","1","0","1","1","0","0","1","1","0","1","1","0","1","0","1","4","3","3","3","4","2","3","2","3","3","2","672081135265644544","冯","562","","","","","","","","","","","","","","","","","","","","","","","","","","","","","","feedback_test","","","","","","","","","","","",""
"1037","","f","psychophysics","147","332961","0.0-7.0-0.0-4.0-0.0-0.20","3","3","4","3","3","3","3","2","3","3","4","4","4","4","4","4","5","4","4","5","4","4","5","3","4","4","3","2","4","1","0","1","1","0","0","1","1","0","1","1","0","1","0","1","4","3","3","3","4","2","3","2","3","3","2","672081135265644544","冯","562","","","","match","","","","","","","","","","","","","","key","f","16.664262295082274","768","428","j","false","nonmatch","img/trapezoid.png","五边","梯形","ALT1","formal_ALT1_1","","","","","","","","","","","",""
"null","<span style='color:red; font-size: 70px;'>错误! </span>","null","html-keyboard-response","148","333471","0.0-7.0-0.0-4.0-0.0-1.20","3","3","4","3","3","3","3","2","3","3","4","4","4","4","4","4","5","4","4","5","4","4","5","3","4","4","3","2","4","1","0","1","1","0","0","1","1","0","1","1","0","1","0","1","4","3","3","3","4","2","3","2","3","3","2","672081135265644544","冯","562","","","","","","","","","","","","","","","","","","","","","","","","","","","","","","feedback_test","","","","","","","","","","","",""
"606","","f","psychophysics","149","335082","0.0-7.0-0.0-4.0-0.0-0.21","3","3","4","3","3","3","3","2","3","3","4","4","4","4","4","4","5","4","4","5","4","4","5","3","4","4","3","2","4","1","0","1","1","0","0","1","1","0","1","1","0","1","0","1","4","3","3","3","4","2","3","2","3","3","2","672081135265644544","冯","562","","","","match","","","","","","","","","","","","","","key","f","16.66462500000004","768","428","f","true","match","img/circle.png","圆形","圆形","ALT1","formal_ALT1_1","","","","","","","","","","","",""
"null","<span style='color:GreenYellow; font-size: 70px;'>正确! </span>","null","html-keyboard-response","150","335589","0.0-7.0-0.0-4.0-0.0-1.21","3","3","4","3","3","3","3","2","3","3","4","4","4","4","4","4","5","4","4","5","4","4","5","3","4","4","3","2","4","1","0","1","1","0","0","1","1","0","1","1","0","1","0","1","4","3","3","3","4","2","3","2","3","3","2","672081135265644544","冯","562","","","","","","","","","","","","","","","","","","","","","","","","","","","","","","feedback_test","","","","","","","","","","","",""
"625","","f","psychophysics","151","337217","0.0-7.0-0.0-4.0-0.0-0.22","3","3","4","3","3","3","3","2","3","3","4","4","4","4","4","4","5","4","4","5","4","4","5","3","4","4","3","2","4","1","0","1","1","0","0","1","1","0","1","1","0","1","0","1","4","3","3","3","4","2","3","2","3","3","2","672081135265644544","冯","562","","","","match","","","","","","","","","","","","","","key","f","16.66344329896899","768","428","f","true","match","img/triangle.png","三角","三角","ALT1","formal_ALT1_1","","","","","","","","","","","",""
"null","<span style='color:GreenYellow; font-size: 70px;'>正确! </span>","null","html-keyboard-response","152","337723","0.0-7.0-0.0-4.0-0.0-1.22","3","3","4","3","3","3","3","2","3","3","4","4","4","4","4","4","5","4","4","5","4","4","5","3","4","4","3","2","4","1","0","1","1","0","0","1","1","0","1","1","0","1","0","1","4","3","3","3","4","2","3","2","3","3","2","672081135265644544","冯","562","","","","","","","","","","","","","","","","","","","","","","","","","","","","","","feedback_test","","","","","","","","","","","",""
"691","","j","psychophysics","153","339417","0.0-7.0-0.0-4.0-0.0-0.23","3","3","4","3","3","3","3","2","3","3","4","4","4","4","4","4","5","4","4","5","4","4","5","3","4","4","3","2","4","1","0","1","1","0","0","1","1","0","1","1","0","1","0","1","4","3","3","3","4","2","3","2","3","3","2","672081135265644544","冯","562","","","","nonmatch","","","","","","","","","","","","","","key","j","16.663161616161528","768","428","j","true","nonmatch","img/pentagon.png","圆形","五边","ALT1","formal_ALT1_1","","","","","","","","","","","",""
"null","<span style='color:GreenYellow; font-size: 70px;'>正确! </span>","null","html-keyboard-response","154","339924","0.0-7.0-0.0-4.0-0.0-1.23","3","3","4","3","3","3","3","2","3","3","4","4","4","4","4","4","5","4","4","5","4","4","5","3","4","4","3","2","4","1","0","1","1","0","0","1","1","0","1","1","0","1","0","1","4","3","3","3","4","2","3","2","3","3","2","672081135265644544","冯","562","","","","","","","","","","","","","","","","","","","","","","","","","","","","","","feedback_test","","","","","","","","","","","",""
"603","","f","psychophysics","155","341536","0.0-7.0-0.0-4.0-0.0-0.24","3","3","4","3","3","3","3","2","3","3","4","4","4","4","4","4","5","4","4","5","4","4","5","3","4","4","3","2","4","1","0","1","1","0","0","1","1","0","1","1","0","1","0","1","4","3","3","3","4","2","3","2","3","3","2","672081135265644544","冯","562","","","","match","","","","","","","","","","","","","","key","f","16.667547368421218","768","428","f","true","match","img/pentagon.png","五边","五边","ALT1","formal_ALT1_1","","","","","","","","","","","",""
"null","<span style='color:GreenYellow; font-size: 70px;'>正确! </span>","null","html-keyboard-response","156","342038","0.0-7.0-0.0-4.0-0.0-1.24","3","3","4","3","3","3","3","2","3","3","4","4","4","4","4","4","5","4","4","5","4","4","5","3","4","4","3","2","4","1","0","1","1","0","0","1","1","0","1","1","0","1","0","1","4","3","3","3","4","2","3","2","3","3","2","672081135265644544","冯","562","","","","","","","","","","","","","","","","","","","","","","","","","","","","","","feedback_test","","","","","","","","","","","",""
"684","","j","psychophysics","157","343739","0.0-7.0-0.0-4.0-0.0-0.25","3","3","4","3","3","3","3","2","3","3","4","4","4","4","4","4","5","4","4","5","4","4","5","3","4","4","3","2","4","1","0","1","1","0","0","1","1","0","1","1","0","1","0","1","4","3","3","3","4","2","3","2","3","3","2","672081135265644544","冯","562","","","","nonmatch","","","","","","","","","","","","","","key","j","16.663811881188533","768","428","j","true","nonmatch","img/triangle.png","梯形","三角","ALT1","formal_ALT1_1","","","","","","","","","","","",""
"null","<span style='color:GreenYellow; font-size: 70px;'>正确! </span>","null","html-keyboard-response","158","344252","0.0-7.0-0.0-4.0-0.0-1.25","3","3","4","3","3","3","3","2","3","3","4","4","4","4","4","4","5","4","4","5","4","4","5","3","4","4","3","2","4","1","0","1","1","0","0","1","1","0","1","1","0","1","0","1","4","3","3","3","4","2","3","2","3","3","2","672081135265644544","冯","562","","","","","","","","","","","","","","","","","","","","","","","","","","","","","","feedback_test","","","","","","","","","","","",""
"634","","f","psychophysics","159","345890","0.0-7.0-0.0-4.0-0.0-0.26","3","3","4","3","3","3","3","2","3","3","4","4","4","4","4","4","5","4","4","5","4","4","5","3","4","4","3","2","4","1","0","1","1","0","0","1","1","0","1","1","0","1","0","1","4","3","3","3","4","2","3","2","3","3","2","672081135265644544","冯","562","","","","match","","","","","","","","","","","","","","key","f","16.66320618556647","768","428","f","true","match","img/pentagon.png","五边","五边","ALT1","formal_ALT1_1","","","","","","","","","","","",""
"null","<span style='color:GreenYellow; font-size: 70px;'>正确! </span>","null","html-keyboard-response","160","346401","0.0-7.0-0.0-4.0-0.0-1.26","3","3","4","3","3","3","3","2","3","3","4","4","4","4","4","4","5","4","4","5","4","4","5","3","4","4","3","2","4","1","0","1","1","0","0","1","1","0","1","1","0","1","0","1","4","3","3","3","4","2","3","2","3","3","2","672081135265644544","冯","562","","","","","","","","","","","","","","","","","","","","","","","","","","","","","","feedback_test","","","","","","","","","","","",""
"767","","f","psychophysics","161","348173","0.0-7.0-0.0-4.0-0.0-0.27","3","3","4","3","3","3","3","2","3","3","4","4","4","4","4","4","5","4","4","5","4","4","5","3","4","4","3","2","4","1","0","1","1","0","0","1","1","0","1","1","0","1","0","1","4","3","3","3","4","2","3","2","3","3","2","672081135265644544","冯","562","","","","match","","","","","","","","","","","","","","key","f","16.659095238095393","768","428","f","true","match","img/triangle.png","三角","三角","ALT1","formal_ALT1_1","","","","","","","","","","","",""
"null","<span style='color:GreenYellow; font-size: 70px;'>正确! </span>","null","html-keyboard-response","162","348681","0.0-7.0-0.0-4.0-0.0-1.27","3","3","4","3","3","3","3","2","3","3","4","4","4","4","4","4","5","4","4","5","4","4","5","3","4","4","3","2","4","1","0","1","1","0","0","1","1","0","1","1","0","1","0","1","4","3","3","3","4","2","3","2","3","3","2","672081135265644544","冯","562","","","","","","","","","","","","","","","","","","","","","","","","","","","","","","feedback_test","","","","","","","","","","","",""
"638","","f","psychophysics","163","350326","0.0-7.0-0.0-4.0-0.0-0.28","3","3","4","3","3","3","3","2","3","3","4","4","4","4","4","4","5","4","4","5","4","4","5","3","4","4","3","2","4","1","0","1","1","0","0","1","1","0","1","1","0","1","0","1","4","3","3","3","4","2","3","2","3","3","2","672081135265644544","冯","562","","","","match","","","","","","","","","","","","","","key","f","16.666999999999796","768","428","f","true","match","img/triangle.png","三角","三角","ALT1","formal_ALT1_1","","","","","","","","","","","",""
"null","<span style='color:GreenYellow; font-size: 70px;'>正确! </span>","null","html-keyboard-response","164","350836","0.0-7.0-0.0-4.0-0.0-1.28","3","3","4","3","3","3","3","2","3","3","4","4","4","4","4","4","5","4","4","5","4","4","5","3","4","4","3","2","4","1","0","1","1","0","0","1","1","0","1","1","0","1","0","1","4","3","3","3","4","2","3","2","3","3","2","672081135265644544","冯","562","","","","","","","","","","","","","","","","","","","","","","","","","","","","","","feedback_test","","","","","","","","","","","",""
"626","","f","psychophysics","165","352466","0.0-7.0-0.0-4.0-0.0-0.29","3","3","4","3","3","3","3","2","3","3","4","4","4","4","4","4","5","4","4","5","4","4","5","3","4","4","3","2","4","1","0","1","1","0","0","1","1","0","1","1","0","1","0","1","4","3","3","3","4","2","3","2","3","3","2","672081135265644544","冯","562","","","","match","","","","","","","","","","","","","","key","f","16.66345360824723","768","428","f","true","match","img/circle.png","圆形","圆形","ALT1","formal_ALT1_1","","","","","","","","","","","",""
"null","<span style='color:GreenYellow; font-size: 70px;'>正确! </span>","null","html-keyboard-response","166","352972","0.0-7.0-0.0-4.0-0.0-1.29","3","3","4","3","3","3","3","2","3","3","4","4","4","4","4","4","5","4","4","5","4","4","5","3","4","4","3","2","4","1","0","1","1","0","0","1","1","0","1","1","0","1","0","1","4","3","3","3","4","2","3","2","3","3","2","672081135265644544","冯","562","","","","","","","","","","","","","","","","","","","","","","","","","","","","","","feedback_test","","","","","","","","","","","",""
"590","","f","psychophysics","167","354569","0.0-7.0-0.0-4.0-0.0-0.30","3","3","4","3","3","3","3","2","3","3","4","4","4","4","4","4","5","4","4","5","4","4","5","3","4","4","3","2","4","1","0","1","1","0","0","1","1","0","1","1","0","1","0","1","4","3","3","3","4","2","3","2","3","3","2","672081135265644544","冯","562","","","","match","","","","","","","","","","","","","","key","f","16.66017021276577","768","428","f","true","match","img/trapezoid.png","梯形","梯形","ALT1","formal_ALT1_1","","","","","","","","","","","",""
"null","<span style='color:GreenYellow; font-size: 70px;'>正确! </span>","null","html-keyboard-response","168","355073","0.0-7.0-0.0-4.0-0.0-1.30","3","3","4","3","3","3","3","2","3","3","4","4","4","4","4","4","5","4","4","5","4","4","5","3","4","4","3","2","4","1","0","1","1","0","0","1","1","0","1","1","0","1","0","1","4","3","3","3","4","2","3","2","3","3","2","672081135265644544","冯","562","","","","","","","","","","","","","","","","","","","","","","","","","","","","","","feedback_test","","","","","","","","","","","",""
"679","","f","psychophysics","169","356760","0.0-7.0-0.0-4.0-0.0-0.31","3","3","4","3","3","3","3","2","3","3","4","4","4","4","4","4","5","4","4","5","4","4","5","3","4","4","3","2","4","1","0","1","1","0","0","1","1","0","1","1","0","1","0","1","4","3","3","3","4","2","3","2","3","3","2","672081135265644544","冯","562","","","","match","","","","","","","","","","","","","","key","f","16.666639999999898","768","428","j","false","nonmatch","img/trapezoid.png","圆形","梯形","ALT1","formal_ALT1_1","","","","","","","","","","","",""
"null","<span style='color:red; font-size: 70px;'>错误! </span>","null","html-keyboard-response","170","357270","0.0-7.0-0.0-4.0-0.0-1.31","3","3","4","3","3","3","3","2","3","3","4","4","4","4","4","4","5","4","4","5","4","4","5","3","4","4","3","2","4","1","0","1","1","0","0","1","1","0","1","1","0","1","0","1","4","3","3","3","4","2","3","2","3","3","2","672081135265644544","冯","562","","","","","","","","","","","","","","","","","","","","","","","","","","","","","","feedback_test","","","","","","","","","","","",""
"663","","j","psychophysics","171","358935","0.0-7.0-0.0-4.0-0.0-0.32","3","3","4","3","3","3","3","2","3","3","4","4","4","4","4","4","5","4","4","5","4","4","5","3","4","4","3","2","4","1","0","1","1","0","0","1","1","0","1","1","0","1","0","1","4","3","3","3","4","2","3","2","3","3","2","672081135265644544","冯","562","","","","nonmatch","","","","","","","","","","","","","","key","j","16.66351515151539","768","428","j","true","nonmatch","img/circle.png","五边","圆形","ALT1","formal_ALT1_1","","","","","","","","","","","",""
"null","<span style='color:GreenYellow; font-size: 70px;'>正确! </span>","null","html-keyboard-response","172","359445","0.0-7.0-0.0-4.0-0.0-1.32","3","3","4","3","3","3","3","2","3","3","4","4","4","4","4","4","5","4","4","5","4","4","5","3","4","4","3","2","4","1","0","1","1","0","0","1","1","0","1","1","0","1","0","1","4","3","3","3","4","2","3","2","3","3","2","672081135265644544","冯","562","","","","","","","","","","","","","","","","","","","","","","","","","","","","","","feedback_test","","","","","","","","","","","",""
"798","","j","psychophysics","173","361250","0.0-7.0-0.0-4.0-0.0-0.33","3","3","4","3","3","3","3","2","3","3","4","4","4","4","4","4","5","4","4","5","4","4","5","3","4","4","3","2","4","1","0","1","1","0","0","1","1","0","1","1","0","1","0","1","4","3","3","3","4","2","3","2","3","3","2","672081135265644544","冯","562","","","","nonmatch","","","","","","","","","","","","","","key","j","16.656411214953586","768","428","j","true","nonmatch","img/trapezoid.png","五边","梯形","ALT1","formal_ALT1_1","","","","","","","","","","","",""
"null","<span style='color:GreenYellow; font-size: 70px;'>正确! </span>","null","html-keyboard-response","174","361753","0.0-7.0-0.0-4.0-0.0-1.33","3","3","4","3","3","3","3","2","3","3","4","4","4","4","4","4","5","4","4","5","4","4","5","3","4","4","3","2","4","1","0","1","1","0","0","1","1","0","1","1","0","1","0","1","4","3","3","3","4","2","3","2","3","3","2","672081135265644544","冯","562","","","","","","","","","","","","","","","","","","","","","","","","","","","","","","feedback_test","","","","","","","","","","","",""
"634","","f","psychophysics","175","363390","0.0-7.0-0.0-4.0-0.0-0.34","3","3","4","3","3","3","3","2","3","3","4","4","4","4","4","4","5","4","4","5","4","4","5","3","4","4","3","2","4","1","0","1","1","0","0","1","1","0","1","1","0","1","0","1","4","3","3","3","4","2","3","2","3","3","2","672081135265644544","冯","562","","","","match","","","","","","","","","","","","","","key","f","16.566371134020862","768","428","f","true","match","img/circle.png","圆形","圆形","ALT1","formal_ALT1_1","","","","","","","","","","","",""
"null","<span style='color:GreenYellow; font-size: 70px;'>正确! </span>","null","html-keyboard-response","176","363896","0.0-7.0-0.0-4.0-0.0-1.34","3","3","4","3","3","3","3","2","3","3","4","4","4","4","4","4","5","4","4","5","4","4","5","3","4","4","3","2","4","1","0","1","1","0","0","1","1","0","1","1","0","1","0","1","4","3","3","3","4","2","3","2","3","3","2","672081135265644544","冯","562","","","","","","","","","","","","","","","","","","","","","","","","","","","","","","feedback_test","","","","","","","","","","","",""
"620","","f","psychophysics","177","365523","0.0-7.0-0.0-4.0-0.0-0.35","3","3","4","3","3","3","3","2","3","3","4","4","4","4","4","4","5","4","4","5","4","4","5","3","4","4","3","2","4","1","0","1","1","0","0","1","1","0","1","1","0","1","0","1","4","3","3","3","4","2","3","2","3","3","2","672081135265644544","冯","562","","","","match","","","","","","","","","","","","","","key","f","16.663721649484472","768","428","f","true","match","img/pentagon.png","五边","五边","ALT1","formal_ALT1_1","","","","","","","","","","","",""
"null","<span style='color:GreenYellow; font-size: 70px;'>正确! </span>","null","html-keyboard-response","178","366032","0.0-7.0-0.0-4.0-0.0-1.35","3","3","4","3","3","3","3","2","3","3","4","4","4","4","4","4","5","4","4","5","4","4","5","3","4","4","3","2","4","1","0","1","1","0","0","1","1","0","1","1","0","1","0","1","4","3","3","3","4","2","3","2","3","3","2","672081135265644544","冯","562","","","","","","","","","","","","","","","","","","","","","","","","","","","","","","feedback_test","","","","","","","","","","","",""
"636","","f","psychophysics","179","367672","0.0-7.0-0.0-4.0-0.0-0.36","3","3","4","3","3","3","3","2","3","3","4","4","4","4","4","4","5","4","4","5","4","4","5","3","4","4","3","2","4","1","0","1","1","0","0","1","1","0","1","1","0","1","0","1","4","3","3","3","4","2","3","2","3","3","2","672081135265644544","冯","562","","","","match","","","","","","","","","","","","","","key","f","16.663397959183442","768","428","f","true","match","img/circle.png","圆形","圆形","ALT1","formal_ALT1_1","","","","","","","","","","","",""
"null","<span style='color:GreenYellow; font-size: 70px;'>正确! </span>","null","html-keyboard-response","180","368179","0.0-7.0-0.0-4.0-0.0-1.36","3","3","4","3","3","3","3","2","3","3","4","4","4","4","4","4","5","4","4","5","4","4","5","3","4","4","3","2","4","1","0","1","1","0","0","1","1","0","1","1","0","1","0","1","4","3","3","3","4","2","3","2","3","3","2","672081135265644544","冯","562","","","","","","","","","","","","","","","","","","","","","","","","","","","","","","feedback_test","","","","","","","","","","","",""
"655","","j","psychophysics","181","369841","0.0-7.0-0.0-4.0-0.0-0.37","3","3","4","3","3","3","3","2","3","3","4","4","4","4","4","4","5","4","4","5","4","4","5","3","4","4","3","2","4","1","0","1","1","0","0","1","1","0","1","1","0","1","0","1","4","3","3","3","4","2","3","2","3","3","2","672081135265644544","冯","562","","","","nonmatch","","","","","","","","","","","","","","key","j","16.662575757575475","768","428","j","true","nonmatch","img/circle.png","三角","圆形","ALT1","formal_ALT1_1","","","","","","","","","","","",""
