"rt","stimulus","response","trial_type","trial_index","time_elapsed","internal_node_id","ses_1","ses_2","ses_3","ses_4","ses_5","ses_6","ses_7","ses_8","ses_9","ses_10","coreself_1","coreself_2","coreself_3","coreself_4","coreself_5","coreself_6","coreself_7","coreself_8","coreself_9","coreself_10","SGPS_1","SGPS_2","SGPS_3","SGPS_4","SGPS_5","SGPS_6","SGPS_7","SGPS_8","SGPS_9","NPI1","NPI2","NPI3","NPI4","NPI5","NPI6","NPI7","NPI8","NPI9","NPI10","NPI11","NPI12","NPI13","NPI14","NPI15","hsns_1","hsns_2","hsns_3","hsns_4","hsns_5","trap1","hsns_6","hsns_7","hsns_8","hsns_9","hsns_10","subj_idx","friend_name","ParticipantID","value","success","user_agent","responses","item_order","radio_event_ids","radio_event_times","key_event_times","mouse_event_times","straightlining","zigzagging","honeypot","timeout","failed_images","failed_audio","failed_video","view_history","response_type","key_press","avg_frame_time","center_x","center_y","correct_response","correct","identity","Image","word","condition","task_id","screen_id","time_stamp","version_attrib2","version_target2","IAT","RT","varname","summary","version_attrib","version_target","question_order","correct_answer","trap1_item"
"15270","
   <p><div style = ""color: white;font-size:25px;"">您好，欢迎参加本次实验。</div> </p>
   <p><div style = ""color: white;font-size:25px;"">为充分保障您的权利，请确保您已经知晓并同意《参与实验同意书》以及《数据公开知情同意书》。</div></p>
   <p><div style = ""color: white;font-size:25px;"">如果您未见过上述内容，请咨询实验员。</div></p>
   <p><div style = ""color: white;font-size:25px;"">如果您选择继续实验，则表示您已经清楚两份知情同意书的内容并同意。</div></p>
   <p><div style = ""color: pink;font-size:30px;"">请确保您记得day0的实验编号，您将在本次实验输入该编号，若您忘记，请咨询实验员后作答。</div></p>
   <p><div style = ""color: lightblue;font-size:25px;"">请您尽可能认真地作答，我们将依据您在各问卷和按键任务中的作答质量发放报酬。</div></p>
   <p> <div style = ""color: green;font-size:25px;""><按空格键至下页></div> </p>
   "," ","html-keyboard-response","0","15284","0.0-0.0","1","2","1","1","2","1","1","1","2","2","2","2","1","1","1","1","2","1","1","2","5","5","5","4","5","5","5","5","5","1","0","1","1","0","0","1","1","0","1","1","0","1","0","1","4","5","5","4","5","3","4","4","5","4","4","803664829670891522","罗","571","","","","","","","","","","","","","","","","","","","","","","","","","","","","","","","","","","","","","","","","","",""
"","","","call-function","1","15293","0.0-1.0-0.0","1","2","1","1","2","1","1","1","2","2","2","2","1","1","1","1","2","1","1","2","5","5","5","4","5","5","5","5","5","1","0","1","1","0","0","1","1","0","1","1","0","1","0","1","4","5","5","4","5","3","4","4","5","4","4","803664829670891522","罗","571","","","","","","","","","","","","","","","","","","","","","","","","","","","","","","","","","","","","","","","","","",""
"35967","","{""friend_name"":""罗"",""ParticipantID"":""571""}","survey-html-form","2","51262","0.0-1.0-1.0","1","2","1","1","2","1","1","1","2","2","2","2","1","1","1","1","2","1","1","2","5","5","5","4","5","5","5","5","5","1","0","1","1","0","0","1","1","0","1","1","0","1","0","1","4","5","5","4","5","3","4","4","5","4","4","803664829670891522","罗","571","","","","","","","","","","","","","","","","","","","","","","","","","","","","","","","","","","","","","","","","","",""
"","","","fullscreen","3","58707","0.0-2.0","1","2","1","1","2","1","1","1","2","2","2","2","1","1","1","1","2","1","1","2","5","5","5","4","5","5","5","5","5","1","0","1","1","0","0","1","1","0","1","1","0","1","0","1","4","5","5","4","5","3","4","4","5","4","4","803664829670891522","罗","571","","true","{}","","","","","","","","","","","","","","","","","","","","","","","","","","","","","","","","","","","","","","",""
"46944","","{""Q01"":""1"",""Q02"":""2"",""Q03"":""1"",""Q04"":""1"",""Q05"":""2"",""Q06"":""1"",""Q07"":""1"",""Q08"":""1"",""Q09"":""2"",""Q10"":""2""}","survey-template","4","105659","0.0-3.0","1","2","1","1","2","1","1","1","2","2","2","2","1","1","1","1","2","1","1","2","5","5","5","4","5","5","5","5","5","1","0","1","1","0","0","1","1","0","1","1","0","1","0","1","4","5","5","4","5","3","4","4","5","4","4","803664829670891522","罗","571","","","","{""Q01"":""1"",""Q02"":""2"",""Q03"":""1"",""Q04"":""1"",""Q05"":""2"",""Q06"":""1"",""Q07"":""1"",""Q08"":""1"",""Q09"":""2"",""Q10"":""2""}","[0,1,2,3,4,5,6,7,8,9]","[""Q01"",""Q02"",""Q03"",""Q04"",""Q05"",""Q06"",""Q07"",""Q08"",""Q09"",""Q10"",""Q08""]","[6567.299999952316,8689.200000047684,10733.399999856949,12522.799999952316,14367.899999856949,16275,18491.299999952316,20338.099999904633,22554.39999985695,25210.200000047684,29170.39999985695]","[]","[6567.299999952316,8689.200000047684,10733.399999856949,12522.799999952316,14367.899999856949,16275,17809.89999985695,18491.299999952316,20338.099999904633,22554.39999985695,25210.200000047684,29170.39999985695,46941.89999985695]","0.4","0.4444444444444444","0","","","","","","","","","","","","","","","","","","","","","","","","","","","","","",""
"132578.70000004768","","{""Q01"":""2"",""Q02"":""2"",""Q03"":""1"",""Q04"":""1"",""Q05"":""1"",""Q06"":""1"",""Q07"":""2"",""Q08"":""1"",""Q09"":""1"",""Q10"":""2""}","survey-template","5","238246","0.0-4.0","1","2","1","1","2","1","1","1","2","2","2","2","1","1","1","1","2","1","1","2","5","5","5","4","5","5","5","5","5","1","0","1","1","0","0","1","1","0","1","1","0","1","0","1","4","5","5","4","5","3","4","4","5","4","4","803664829670891522","罗","571","","","","{""Q01"":""2"",""Q02"":""2"",""Q03"":""1"",""Q04"":""1"",""Q05"":""1"",""Q06"":""1"",""Q07"":""2"",""Q08"":""1"",""Q09"":""1"",""Q10"":""2""}","[0,1,2,3,4,5,6,7,8,9]","[""Q01"",""Q02"",""Q03"",""Q04"",""Q05"",""Q06"",""Q07"",""Q08"",""Q09"",""Q10"",""Q10""]","[6903.700000047684,9119.299999952316,11256,13415,16022.700000047684,17823,21818.799999952316,23249.700000047684,25787.10000014305,27820.900000095367,28200.10000014305]","[]","[6280.700000047684,6903.700000047684,9119.299999952316,11256,13415,16022.700000047684,17823,19590.299999952316,21818.799999952316,23249.700000047684,25787.10000014305,27820.900000095367,28200.10000014305,132576.90000009537]","0.3","0.6666666666666666","0","","","","","","","","","","","","","","","","","","","","","","","","","","","","","",""
"","","","preload","6","238702","0.0-5.0","1","2","1","1","2","1","1","1","2","2","2","2","1","1","1","1","2","1","1","2","5","5","5","4","5","5","5","5","5","1","0","1","1","0","0","1","1","0","1","1","0","1","0","1","4","5","5","4","5","3","4","4","5","4","4","803664829670891522","罗","571","","true","","","","","","","","","","","false","[]","[]","[]","","","","","","","","","","","","","","","","","","","","","","","","","",""
"28059","","","instructions","7","266767","0.0-6.0","1","2","1","1","2","1","1","1","2","2","2","2","1","1","1","1","2","1","1","2","5","5","5","4","5","5","5","5","5","1","0","1","1","0","0","1","1","0","1","1","0","1","0","1","4","5","5","4","5","3","4","4","5","4","4","803664829670891522","罗","571","","","","","","","","","","","","","","","","","[{""page_index"":0,""viewing_time"":28058}]","","","","","","","","","","","","","","","","","","","","","","","","",""
"56321","","","instructions","8","323090","0.0-7.0-0.0-0.0","1","2","1","1","2","1","1","1","2","2","2","2","1","1","1","1","2","1","1","2","5","5","5","4","5","5","5","5","5","1","0","1","1","0","0","1","1","0","1","1","0","1","0","1","4","5","5","4","5","3","4","4","5","4","4","803664829670891522","罗","571","","","","","","","","","","","","","","","","","[{""page_index"":0,""viewing_time"":30792},{""page_index"":1,""viewing_time"":22677},{""page_index"":2,""viewing_time"":2852}]","","","","","","","","","","","","","","","","","","","","","","","","",""
"null","","null","psychophysics","9","325303","0.0-7.0-0.0-1.0-0.0-0.0","1","2","1","1","2","1","1","1","2","2","2","2","1","1","1","1","2","1","1","2","5","5","5","4","5","5","5","5","5","1","0","1","1","0","0","1","1","0","1","1","0","1","0","1","4","5","5","4","5","3","4","4","5","4","4","803664829670891522","罗","571","","","","null","","","","","","","","","","","","","","key","null","16.665401515151835","640","356","f","false","nonmatch","img/triangle.png","椭圆","三角","ALT1_1","prac_ALT1_1","","","","","","","","","","","",""
"null","<span class='add_' style='color:yellow; font-size: 70px;'> 太慢! </span>","null","html-keyboard-response","10","325807","0.0-7.0-0.0-1.0-0.0-1.0","1","2","1","1","2","1","1","1","2","2","2","2","1","1","1","1","2","1","1","2","5","5","5","4","5","5","5","5","5","1","0","1","1","0","0","1","1","0","1","1","0","1","0","1","4","5","5","4","5","3","4","4","5","4","4","803664829670891522","罗","571","","","","","","","","","","","","","","","","","","","","","","","","","","","","","","feedback_test","","","","","","","","","","","",""
"797","","f","psychophysics","11","327621","0.0-7.0-0.0-1.0-0.0-0.1","1","2","1","1","2","1","1","1","2","2","2","2","1","1","1","1","2","1","1","2","5","5","5","4","5","5","5","5","5","1","0","1","1","0","0","1","1","0","1","1","0","1","0","1","4","5","5","4","5","3","4","4","5","4","4","803664829670891522","罗","571","","","","nonmatch","","","","","","","","","","","","","","key","f","16.664327102804133","640","356","f","true","nonmatch","img/diamond.png","三角","菱形","ALT1_1","prac_ALT1_1","","","","","","","","","","","",""
"null","<span style='color:GreenYellow; font-size: 70px;'>正确! </span>","null","html-keyboard-response","12","328125","0.0-7.0-0.0-1.0-0.0-1.1","1","2","1","1","2","1","1","1","2","2","2","2","1","1","1","1","2","1","1","2","5","5","5","4","5","5","5","5","5","1","0","1","1","0","0","1","1","0","1","1","0","1","0","1","4","5","5","4","5","3","4","4","5","4","4","803664829670891522","罗","571","","","","","","","","","","","","","","","","","","","","","","","","","","","","","","feedback_test","","","","","","","","","","","",""
"858","","f","psychophysics","13","329991","0.0-7.0-0.0-1.0-0.0-0.2","1","2","1","1","2","1","1","1","2","2","2","2","1","1","1","1","2","1","1","2","5","5","5","4","5","5","5","5","5","1","0","1","1","0","0","1","1","0","1","1","0","1","0","1","4","5","5","4","5","3","4","4","5","4","4","803664829670891522","罗","571","","","","nonmatch","","","","","","","","","","","","","","key","f","16.970926605504637","640","356","f","true","nonmatch","img/triangle.png","菱形","三角","ALT1_1","prac_ALT1_1","","","","","","","","","","","",""
"null","<span style='color:GreenYellow; font-size: 70px;'>正确! </span>","null","html-keyboard-response","14","330496","0.0-7.0-0.0-1.0-0.0-1.2","1","2","1","1","2","1","1","1","2","2","2","2","1","1","1","1","2","1","1","2","5","5","5","4","5","5","5","5","5","1","0","1","1","0","0","1","1","0","1","1","0","1","0","1","4","5","5","4","5","3","4","4","5","4","4","803664829670891522","罗","571","","","","","","","","","","","","","","","","","","","","","","","","","","","","","","feedback_test","","","","","","","","","","","",""
"953","","j","psychophysics","15","332456","0.0-7.0-0.0-1.0-0.0-0.3","1","2","1","1","2","1","1","1","2","2","2","2","1","1","1","1","2","1","1","2","5","5","5","4","5","5","5","5","5","1","0","1","1","0","0","1","1","0","1","1","0","1","0","1","4","5","5","4","5","3","4","4","5","4","4","803664829670891522","罗","571","","","","match","","","","","","","","","","","","","","key","j","16.664810344827732","640","356","f","false","nonmatch","img/ellipse.png","菱形","椭圆","ALT1_1","prac_ALT1_1","","","","","","","","","","","",""
"null","<span style='color:red; font-size: 70px;'>错误! </span>","null","html-keyboard-response","16","332958","0.0-7.0-0.0-1.0-0.0-1.3","1","2","1","1","2","1","1","1","2","2","2","2","1","1","1","1","2","1","1","2","5","5","5","4","5","5","5","5","5","1","0","1","1","0","0","1","1","0","1","1","0","1","0","1","4","5","5","4","5","3","4","4","5","4","4","803664829670891522","罗","571","","","","","","","","","","","","","","","","","","","","","","","","","","","","","","feedback_test","","","","","","","","","","","",""
"951","","f","psychophysics","17","334919","0.0-7.0-0.0-1.0-0.0-0.4","1","2","1","1","2","1","1","1","2","2","2","2","1","1","1","1","2","1","1","2","5","5","5","4","5","5","5","5","5","1","0","1","1","0","0","1","1","0","1","1","0","1","0","1","4","5","5","4","5","3","4","4","5","4","4","803664829670891522","罗","571","","","","nonmatch","","","","","","","","","","","","","","key","f","16.665545454545644","640","356","f","true","nonmatch","img/ellipse.png","六边","椭圆","ALT1_1","prac_ALT1_1","","","","","","","","","","","",""
"null","<span style='color:GreenYellow; font-size: 70px;'>正确! </span>","null","html-keyboard-response","18","335422","0.0-7.0-0.0-1.0-0.0-1.4","1","2","1","1","2","1","1","1","2","2","2","2","1","1","1","1","2","1","1","2","5","5","5","4","5","5","5","5","5","1","0","1","1","0","0","1","1","0","1","1","0","1","0","1","4","5","5","4","5","3","4","4","5","4","4","803664829670891522","罗","571","","","","","","","","","","","","","","","","","","","","","","","","","","","","","","feedback_test","","","","","","","","","","","",""
"774","","f","psychophysics","19","337203","0.0-7.0-0.0-1.0-0.0-0.5","1","2","1","1","2","1","1","1","2","2","2","2","1","1","1","1","2","1","1","2","5","5","5","4","5","5","5","5","5","1","0","1","1","0","0","1","1","0","1","1","0","1","0","1","4","5","5","4","5","3","4","4","5","4","4","803664829670891522","罗","571","","","","nonmatch","","","","","","","","","","","","","","key","f","16.666009523809354","640","356","f","true","nonmatch","img/triangle.png","六边","三角","ALT1_1","prac_ALT1_1","","","","","","","","","","","",""
"null","<span style='color:GreenYellow; font-size: 70px;'>正确! </span>","null","html-keyboard-response","20","337707","0.0-7.0-0.0-1.0-0.0-1.5","1","2","1","1","2","1","1","1","2","2","2","2","1","1","1","1","2","1","1","2","5","5","5","4","5","5","5","5","5","1","0","1","1","0","0","1","1","0","1","1","0","1","0","1","4","5","5","4","5","3","4","4","5","4","4","803664829670891522","罗","571","","","","","","","","","","","","","","","","","","","","","","","","","","","","","","feedback_test","","","","","","","","","","","",""
"659","","j","psychophysics","21","339375","0.0-7.0-0.0-1.0-0.0-0.6","1","2","1","1","2","1","1","1","2","2","2","2","1","1","1","1","2","1","1","2","5","5","5","4","5","5","5","5","5","1","0","1","1","0","0","1","1","0","1","1","0","1","0","1","4","5","5","4","5","3","4","4","5","4","4","803664829670891522","罗","571","","","","match","","","","","","","","","","","","","","key","j","16.6654444444446","640","356","j","true","match","img/triangle.png","三角","三角","ALT1_1","prac_ALT1_1","","","","","","","","","","","",""
"null","<span style='color:GreenYellow; font-size: 70px;'>正确! </span>","null","html-keyboard-response","22","339879","0.0-7.0-0.0-1.0-0.0-1.6","1","2","1","1","2","1","1","1","2","2","2","2","1","1","1","1","2","1","1","2","5","5","5","4","5","5","5","5","5","1","0","1","1","0","0","1","1","0","1","1","0","1","0","1","4","5","5","4","5","3","4","4","5","4","4","803664829670891522","罗","571","","","","","","","","","","","","","","","","","","","","","","","","","","","","","","feedback_test","","","","","","","","","","","",""
"847","","f","psychophysics","23","341732","0.0-7.0-0.0-1.0-0.0-0.7","1","2","1","1","2","1","1","1","2","2","2","2","1","1","1","1","2","1","1","2","5","5","5","4","5","5","5","5","5","1","0","1","1","0","0","1","1","0","1","1","0","1","0","1","4","5","5","4","5","3","4","4","5","4","4","803664829670891522","罗","571","","","","nonmatch","","","","","","","","","","","","","","key","f","16.66433027522946","640","356","f","true","nonmatch","img/hexagon.png","椭圆","六边","ALT1_1","prac_ALT1_1","","","","","","","","","","","",""
"null","<span style='color:GreenYellow; font-size: 70px;'>正确! </span>","null","html-keyboard-response","24","342235","0.0-7.0-0.0-1.0-0.0-1.7","1","2","1","1","2","1","1","1","2","2","2","2","1","1","1","1","2","1","1","2","5","5","5","4","5","5","5","5","5","1","0","1","1","0","0","1","1","0","1","1","0","1","0","1","4","5","5","4","5","3","4","4","5","4","4","803664829670891522","罗","571","","","","","","","","","","","","","","","","","","","","","","","","","","","","","","feedback_test","","","","","","","","","","","",""
"752","","j","psychophysics","25","343998","0.0-7.0-0.0-1.0-0.0-0.8","1","2","1","1","2","1","1","1","2","2","2","2","1","1","1","1","2","1","1","2","5","5","5","4","5","5","5","5","5","1","0","1","1","0","0","1","1","0","1","1","0","1","0","1","4","5","5","4","5","3","4","4","5","4","4","803664829670891522","罗","571","","","","match","","","","","","","","","","","","","","key","j","16.665163461538704","640","356","f","false","nonmatch","img/ellipse.png","三角","椭圆","ALT1_1","prac_ALT1_1","","","","","","","","","","","",""
"null","<span style='color:red; font-size: 70px;'>错误! </span>","null","html-keyboard-response","26","344502","0.0-7.0-0.0-1.0-0.0-1.8","1","2","1","1","2","1","1","1","2","2","2","2","1","1","1","1","2","1","1","2","5","5","5","4","5","5","5","5","5","1","0","1","1","0","0","1","1","0","1","1","0","1","0","1","4","5","5","4","5","3","4","4","5","4","4","803664829670891522","罗","571","","","","","","","","","","","","","","","","","","","","","","","","","","","","","","feedback_test","","","","","","","","","","","",""
"877","","j","psychophysics","27","346384","0.0-7.0-0.0-1.0-0.0-0.9","1","2","1","1","2","1","1","1","2","2","2","2","1","1","1","1","2","1","1","2","5","5","5","4","5","5","5","5","5","1","0","1","1","0","0","1","1","0","1","1","0","1","0","1","4","5","5","4","5","3","4","4","5","4","4","803664829670891522","罗","571","","","","match","","","","","","","","","","","","","","key","j","16.81620000000006","640","356","f","false","nonmatch","img/hexagon.png","菱形","六边","ALT1_1","prac_ALT1_1","","","","","","","","","","","",""
"null","<span style='color:red; font-size: 70px;'>错误! </span>","null","html-keyboard-response","28","346889","0.0-7.0-0.0-1.0-0.0-1.9","1","2","1","1","2","1","1","1","2","2","2","2","1","1","1","1","2","1","1","2","5","5","5","4","5","5","5","5","5","1","0","1","1","0","0","1","1","0","1","1","0","1","0","1","4","5","5","4","5","3","4","4","5","4","4","803664829670891522","罗","571","","","","","","","","","","","","","","","","","","","","","","","","","","","","","","feedback_test","","","","","","","","","","","",""
"889","","f","psychophysics","29","348792","0.0-7.0-0.0-1.0-0.0-0.10","1","2","1","1","2","1","1","1","2","2","2","2","1","1","1","1","2","1","1","2","5","5","5","4","5","5","5","5","5","1","0","1","1","0","0","1","1","0","1","1","0","1","0","1","4","5","5","4","5","3","4","4","5","4","4","803664829670891522","罗","571","","","","nonmatch","","","","","","","","","","","","","","key","f","16.664882882882583","640","356","f","true","nonmatch","img/diamond.png","椭圆","菱形","ALT1_1","prac_ALT1_1","","","","","","","","","","","",""
"null","<span style='color:GreenYellow; font-size: 70px;'>正确! </span>","null","html-keyboard-response","30","349300","0.0-7.0-0.0-1.0-0.0-1.10","1","2","1","1","2","1","1","1","2","2","2","2","1","1","1","1","2","1","1","2","5","5","5","4","5","5","5","5","5","1","0","1","1","0","0","1","1","0","1","1","0","1","0","1","4","5","5","4","5","3","4","4","5","4","4","803664829670891522","罗","571","","","","","","","","","","","","","","","","","","","","","","","","","","","","","","feedback_test","","","","","","","","","","","",""
"1067","","f","psychophysics","31","351372","0.0-7.0-0.0-1.0-0.0-0.11","1","2","1","1","2","1","1","1","2","2","2","2","1","1","1","1","2","1","1","2","5","5","5","4","5","5","5","5","5","1","0","1","1","0","0","1","1","0","1","1","0","1","0","1","4","5","5","4","5","3","4","4","5","4","4","803664829670891522","罗","571","","","","nonmatch","","","","","","","","","","","","","","key","f","16.663585365853535","640","356","j","false","match","img/ellipse.png","椭圆","椭圆","ALT1_1","prac_ALT1_1","","","","","","","","","","","",""
"null","<span style='color:red; font-size: 70px;'>错误! </span>","null","html-keyboard-response","32","351876","0.0-7.0-0.0-1.0-0.0-1.11","1","2","1","1","2","1","1","1","2","2","2","2","1","1","1","1","2","1","1","2","5","5","5","4","5","5","5","5","5","1","0","1","1","0","0","1","1","0","1","1","0","1","0","1","4","5","5","4","5","3","4","4","5","4","4","803664829670891522","罗","571","","","","","","","","","","","","","","","","","","","","","","","","","","","","","","feedback_test","","","","","","","","","","","",""
"805","","j","psychophysics","33","353688","0.0-7.0-0.0-1.0-0.0-0.12","1","2","1","1","2","1","1","1","2","2","2","2","1","1","1","1","2","1","1","2","5","5","5","4","5","5","5","5","5","1","0","1","1","0","0","1","1","0","1","1","0","1","0","1","4","5","5","4","5","3","4","4","5","4","4","803664829670891522","罗","571","","","","match","","","","","","","","","","","","","","key","j","16.666850467289745","640","356","j","true","match","img/diamond.png","菱形","菱形","ALT1_1","prac_ALT1_1","","","","","","","","","","","",""
"null","<span style='color:GreenYellow; font-size: 70px;'>正确! </span>","null","html-keyboard-response","34","354190","0.0-7.0-0.0-1.0-0.0-1.12","1","2","1","1","2","1","1","1","2","2","2","2","1","1","1","1","2","1","1","2","5","5","5","4","5","5","5","5","5","1","0","1","1","0","0","1","1","0","1","1","0","1","0","1","4","5","5","4","5","3","4","4","5","4","4","803664829670891522","罗","571","","","","","","","","","","","","","","","","","","","","","","","","","","","","","","feedback_test","","","","","","","","","","","",""
"692","","j","psychophysics","35","355891","0.0-7.0-0.0-1.0-0.0-0.13","1","2","1","1","2","1","1","1","2","2","2","2","1","1","1","1","2","1","1","2","5","5","5","4","5","5","5","5","5","1","0","1","1","0","0","1","1","0","1","1","0","1","0","1","4","5","5","4","5","3","4","4","5","4","4","803664829670891522","罗","571","","","","match","","","","","","","","","","","","","","key","j","16.83222999999998","640","356","j","true","match","img/hexagon.png","六边","六边","ALT1_1","prac_ALT1_1","","","","","","","","","","","",""
"null","<span style='color:GreenYellow; font-size: 70px;'>正确! </span>","null","html-keyboard-response","36","356396","0.0-7.0-0.0-1.0-0.0-1.13","1","2","1","1","2","1","1","1","2","2","2","2","1","1","1","1","2","1","1","2","5","5","5","4","5","5","5","5","5","1","0","1","1","0","0","1","1","0","1","1","0","1","0","1","4","5","5","4","5","3","4","4","5","4","4","803664829670891522","罗","571","","","","","","","","","","","","","","","","","","","","","","","","","","","","","","feedback_test","","","","","","","","","","","",""
"604","","j","psychophysics","37","358006","0.0-7.0-0.0-1.0-0.0-0.14","1","2","1","1","2","1","1","1","2","2","2","2","1","1","1","1","2","1","1","2","5","5","5","4","5","5","5","5","5","1","0","1","1","0","0","1","1","0","1","1","0","1","0","1","4","5","5","4","5","3","4","4","5","4","4","803664829670891522","罗","571","","","","match","","","","","","","","","","","","","","key","j","16.667494736842222","640","356","j","true","match","img/hexagon.png","六边","六边","ALT1_1","prac_ALT1_1","","","","","","","","","","","",""
"null","<span style='color:GreenYellow; font-size: 70px;'>正确! </span>","null","html-keyboard-response","38","358509","0.0-7.0-0.0-1.0-0.0-1.14","1","2","1","1","2","1","1","1","2","2","2","2","1","1","1","1","2","1","1","2","5","5","5","4","5","5","5","5","5","1","0","1","1","0","0","1","1","0","1","1","0","1","0","1","4","5","5","4","5","3","4","4","5","4","4","803664829670891522","罗","571","","","","","","","","","","","","","","","","","","","","","","","","","","","","","","feedback_test","","","","","","","","","","","",""
"863","","f","psychophysics","39","360384","0.0-7.0-0.0-1.0-0.0-0.15","1","2","1","1","2","1","1","1","2","2","2","2","1","1","1","1","2","1","1","2","5","5","5","4","5","5","5","5","5","1","0","1","1","0","0","1","1","0","1","1","0","1","0","1","4","5","5","4","5","3","4","4","5","4","4","803664829670891522","罗","571","","","","nonmatch","","","","","","","","","","","","","","key","f","16.664763636363734","640","356","j","false","match","img/ellipse.png","椭圆","椭圆","ALT1_1","prac_ALT1_1","","","","","","","","","","","",""
"null","<span style='color:red; font-size: 70px;'>错误! </span>","null","html-keyboard-response","40","360888","0.0-7.0-0.0-1.0-0.0-1.15","1","2","1","1","2","1","1","1","2","2","2","2","1","1","1","1","2","1","1","2","5","5","5","4","5","5","5","5","5","1","0","1","1","0","0","1","1","0","1","1","0","1","0","1","4","5","5","4","5","3","4","4","5","4","4","803664829670891522","罗","571","","","","","","","","","","","","","","","","","","","","","","","","","","","","","","feedback_test","","","","","","","","","","","",""
"876","","j","psychophysics","41","362772","0.0-7.0-0.0-1.0-0.0-0.16","1","2","1","1","2","1","1","1","2","2","2","2","1","1","1","1","2","1","1","2","5","5","5","4","5","5","5","5","5","1","0","1","1","0","0","1","1","0","1","1","0","1","0","1","4","5","5","4","5","3","4","4","5","4","4","803664829670891522","罗","571","","","","match","","","","","","","","","","","","","","key","j","16.66452293577946","640","356","j","true","match","img/diamond.png","菱形","菱形","ALT1_1","prac_ALT1_1","","","","","","","","","","","",""
"null","<span style='color:GreenYellow; font-size: 70px;'>正确! </span>","null","html-keyboard-response","42","363280","0.0-7.0-0.0-1.0-0.0-1.16","1","2","1","1","2","1","1","1","2","2","2","2","1","1","1","1","2","1","1","2","5","5","5","4","5","5","5","5","5","1","0","1","1","0","0","1","1","0","1","1","0","1","0","1","4","5","5","4","5","3","4","4","5","4","4","803664829670891522","罗","571","","","","","","","","","","","","","","","","","","","","","","","","","","","","","","feedback_test","","","","","","","","","","","",""
"697","","f","psychophysics","43","364981","0.0-7.0-0.0-1.0-0.0-0.17","1","2","1","1","2","1","1","1","2","2","2","2","1","1","1","1","2","1","1","2","5","5","5","4","5","5","5","5","5","1","0","1","1","0","0","1","1","0","1","1","0","1","0","1","4","5","5","4","5","3","4","4","5","4","4","803664829670891522","罗","571","","","","nonmatch","","","","","","","","","","","","","","key","f","16.664789999999922","640","356","f","true","nonmatch","img/hexagon.png","三角","六边","ALT1_1","prac_ALT1_1","","","","","","","","","","","",""
"null","<span style='color:GreenYellow; font-size: 70px;'>正确! </span>","null","html-keyboard-response","44","365485","0.0-7.0-0.0-1.0-0.0-1.17","1","2","1","1","2","1","1","1","2","2","2","2","1","1","1","1","2","1","1","2","5","5","5","4","5","5","5","5","5","1","0","1","1","0","0","1","1","0","1","1","0","1","0","1","4","5","5","4","5","3","4","4","5","4","4","803664829670891522","罗","571","","","","","","","","","","","","","","","","","","","","","","","","","","","","","","feedback_test","","","","","","","","","","","",""
"622","","j","psychophysics","45","367113","0.0-7.0-0.0-1.0-0.0-0.18","1","2","1","1","2","1","1","1","2","2","2","2","1","1","1","1","2","1","1","2","5","5","5","4","5","5","5","5","5","1","0","1","1","0","0","1","1","0","1","1","0","1","0","1","4","5","5","4","5","3","4","4","5","4","4","803664829670891522","罗","571","","","","match","","","","","","","","","","","","","","key","j","16.66482291666701","640","356","j","true","match","img/triangle.png","三角","三角","ALT1_1","prac_ALT1_1","","","","","","","","","","","",""
"null","<span style='color:GreenYellow; font-size: 70px;'>正确! </span>","null","html-keyboard-response","46","367616","0.0-7.0-0.0-1.0-0.0-1.18","1","2","1","1","2","1","1","1","2","2","2","2","1","1","1","1","2","1","1","2","5","5","5","4","5","5","5","5","5","1","0","1","1","0","0","1","1","0","1","1","0","1","0","1","4","5","5","4","5","3","4","4","5","4","4","803664829670891522","罗","571","","","","","","","","","","","","","","","","","","","","","","","","","","","","","","feedback_test","","","","","","","","","","","",""
"677","","j","psychophysics","47","369298","0.0-7.0-0.0-1.0-0.0-0.19","1","2","1","1","2","1","1","1","2","2","2","2","1","1","1","1","2","1","1","2","5","5","5","4","5","5","5","5","5","1","0","1","1","0","0","1","1","0","1","1","0","1","0","1","4","5","5","4","5","3","4","4","5","4","4","803664829670891522","罗","571","","","","match","","","","","","","","","","","","","","key","j","16.66470707070748","640","356","j","true","match","img/triangle.png","三角","三角","ALT1_1","prac_ALT1_1","","","","","","","","","","","",""
"null","<span style='color:GreenYellow; font-size: 70px;'>正确! </span>","null","html-keyboard-response","48","369802","0.0-7.0-0.0-1.0-0.0-1.19","1","2","1","1","2","1","1","1","2","2","2","2","1","1","1","1","2","1","1","2","5","5","5","4","5","5","5","5","5","1","0","1","1","0","0","1","1","0","1","1","0","1","0","1","4","5","5","4","5","3","4","4","5","4","4","803664829670891522","罗","571","","","","","","","","","","","","","","","","","","","","","","","","","","","","","","feedback_test","","","","","","","","","","","",""
"665","","j","psychophysics","49","371470","0.0-7.0-0.0-1.0-0.0-0.20","1","2","1","1","2","1","1","1","2","2","2","2","1","1","1","1","2","1","1","2","5","5","5","4","5","5","5","5","5","1","0","1","1","0","0","1","1","0","1","1","0","1","0","1","4","5","5","4","5","3","4","4","5","4","4","803664829670891522","罗","571","","","","match","","","","","","","","","","","","","","key","j","16.666242424242263","640","356","j","true","match","img/diamond.png","菱形","菱形","ALT1_1","prac_ALT1_1","","","","","","","","","","","",""
"null","<span style='color:GreenYellow; font-size: 70px;'>正确! </span>","null","html-keyboard-response","50","371974","0.0-7.0-0.0-1.0-0.0-1.20","1","2","1","1","2","1","1","1","2","2","2","2","1","1","1","1","2","1","1","2","5","5","5","4","5","5","5","5","5","1","0","1","1","0","0","1","1","0","1","1","0","1","0","1","4","5","5","4","5","3","4","4","5","4","4","803664829670891522","罗","571","","","","","","","","","","","","","","","","","","","","","","","","","","","","","","feedback_test","","","","","","","","","","","",""
"634","","j","psychophysics","51","373614","0.0-7.0-0.0-1.0-0.0-0.21","1","2","1","1","2","1","1","1","2","2","2","2","1","1","1","1","2","1","1","2","5","5","5","4","5","5","5","5","5","1","0","1","1","0","0","1","1","0","1","1","0","1","0","1","4","5","5","4","5","3","4","4","5","4","4","803664829670891522","罗","571","","","","match","","","","","","","","","","","","","","key","j","16.66517708333352","640","356","j","true","match","img/hexagon.png","六边","六边","ALT1_1","prac_ALT1_1","","","","","","","","","","","",""
"null","<span style='color:GreenYellow; font-size: 70px;'>正确! </span>","null","html-keyboard-response","52","374117","0.0-7.0-0.0-1.0-0.0-1.21","1","2","1","1","2","1","1","1","2","2","2","2","1","1","1","1","2","1","1","2","5","5","5","4","5","5","5","5","5","1","0","1","1","0","0","1","1","0","1","1","0","1","0","1","4","5","5","4","5","3","4","4","5","4","4","803664829670891522","罗","571","","","","","","","","","","","","","","","","","","","","","","","","","","","","","","feedback_test","","","","","","","","","","","",""
"593","","f","psychophysics","53","375716","0.0-7.0-0.0-1.0-0.0-0.22","1","2","1","1","2","1","1","1","2","2","2","2","1","1","1","1","2","1","1","2","5","5","5","4","5","5","5","5","5","1","0","1","1","0","0","1","1","0","1","1","0","1","0","1","4","5","5","4","5","3","4","4","5","4","4","803664829670891522","罗","571","","","","nonmatch","","","","","","","","","","","","","","key","f","16.665357894736562","640","356","j","false","match","img/ellipse.png","椭圆","椭圆","ALT1_1","prac_ALT1_1","","","","","","","","","","","",""
"null","<span style='color:red; font-size: 70px;'>错误! </span>","null","html-keyboard-response","54","376219","0.0-7.0-0.0-1.0-0.0-1.22","1","2","1","1","2","1","1","1","2","2","2","2","1","1","1","1","2","1","1","2","5","5","5","4","5","5","5","5","5","1","0","1","1","0","0","1","1","0","1","1","0","1","0","1","4","5","5","4","5","3","4","4","5","4","4","803664829670891522","罗","571","","","","","","","","","","","","","","","","","","","","","","","","","","","","","","feedback_test","","","","","","","","","","","",""
"842","","f","psychophysics","55","378065","0.0-7.0-0.0-1.0-0.0-0.23","1","2","1","1","2","1","1","1","2","2","2","2","1","1","1","1","2","1","1","2","5","5","5","4","5","5","5","5","5","1","0","1","1","0","0","1","1","0","1","1","0","1","0","1","4","5","5","4","5","3","4","4","5","4","4","803664829670891522","罗","571","","","","nonmatch","","","","","","","","","","","","","","key","f","17.45988571428572","640","356","f","true","nonmatch","img/diamond.png","六边","菱形","ALT1_1","prac_ALT1_1","","","","","","","","","","","",""
"null","<span style='color:GreenYellow; font-size: 70px;'>正确! </span>","null","html-keyboard-response","56","378567","0.0-7.0-0.0-1.0-0.0-1.23","1","2","1","1","2","1","1","1","2","2","2","2","1","1","1","1","2","1","1","2","5","5","5","4","5","5","5","5","5","1","0","1","1","0","0","1","1","0","1","1","0","1","0","1","4","5","5","4","5","3","4","4","5","4","4","803664829670891522","罗","571","","","","","","","","","","","","","","","","","","","","","","","","","","","","","","feedback_test","","","","","","","","","","","",""
"621","","j","psychophysics","57","380198","0.0-7.0-0.0-1.0-0.0-0.24","1","2","1","1","2","1","1","1","2","2","2","2","1","1","1","1","2","1","1","2","5","5","5","4","5","5","5","5","5","1","0","1","1","0","0","1","1","0","1","1","0","1","0","1","4","5","5","4","5","3","4","4","5","4","4","803664829670891522","罗","571","","","","match","","","","","","","","","","","","","","key","j","16.665257731959052","640","356","j","true","match","img/triangle.png","三角","三角","ALT1_1","prac_ALT1_1","","","","","","","","","","","",""
"null","<span style='color:GreenYellow; font-size: 70px;'>正确! </span>","null","html-keyboard-response","58","380703","0.0-7.0-0.0-1.0-0.0-1.24","1","2","1","1","2","1","1","1","2","2","2","2","1","1","1","1","2","1","1","2","5","5","5","4","5","5","5","5","5","1","0","1","1","0","0","1","1","0","1","1","0","1","0","1","4","5","5","4","5","3","4","4","5","4","4","803664829670891522","罗","571","","","","","","","","","","","","","","","","","","","","","","","","","","","","","","feedback_test","","","","","","","","","","","",""
"863","","j","psychophysics","59","382576","0.0-7.0-0.0-1.0-0.0-0.25","1","2","1","1","2","1","1","1","2","2","2","2","1","1","1","1","2","1","1","2","5","5","5","4","5","5","5","5","5","1","0","1","1","0","0","1","1","0","1","1","0","1","0","1","4","5","5","4","5","3","4","4","5","4","4","803664829670891522","罗","571","","","","match","","","","","","","","","","","","","","key","j","16.66456074766362","640","356","j","true","match","img/diamond.png","菱形","菱形","ALT1_1","prac_ALT1_1","","","","","","","","","","","",""
"null","<span style='color:GreenYellow; font-size: 70px;'>正确! </span>","null","html-keyboard-response","60","383082","0.0-7.0-0.0-1.0-0.0-1.25","1","2","1","1","2","1","1","1","2","2","2","2","1","1","1","1","2","1","1","2","5","5","5","4","5","5","5","5","5","1","0","1","1","0","0","1","1","0","1","1","0","1","0","1","4","5","5","4","5","3","4","4","5","4","4","803664829670891522","罗","571","","","","","","","","","","","","","","","","","","","","","","","","","","","","","","feedback_test","","","","","","","","","","","",""
"680","","f","psychophysics","61","384766","0.0-7.0-0.0-1.0-0.0-0.26","1","2","1","1","2","1","1","1","2","2","2","2","1","1","1","1","2","1","1","2","5","5","5","4","5","5","5","5","5","1","0","1","1","0","0","1","1","0","1","1","0","1","0","1","4","5","5","4","5","3","4","4","5","4","4","803664829670891522","罗","571","","","","nonmatch","","","","","","","","","","","","","","key","f","16.837402061855098","640","356","f","true","nonmatch","img/diamond.png","椭圆","菱形","ALT1_1","prac_ALT1_1","","","","","","","","","","","",""
"null","<span style='color:GreenYellow; font-size: 70px;'>正确! </span>","null","html-keyboard-response","62","385269","0.0-7.0-0.0-1.0-0.0-1.26","1","2","1","1","2","1","1","1","2","2","2","2","1","1","1","1","2","1","1","2","5","5","5","4","5","5","5","5","5","1","0","1","1","0","0","1","1","0","1","1","0","1","0","1","4","5","5","4","5","3","4","4","5","4","4","803664829670891522","罗","571","","","","","","","","","","","","","","","","","","","","","","","","","","","","","","feedback_test","","","","","","","","","","","",""
"619","","j","psychophysics","63","386894","0.0-7.0-0.0-1.0-0.0-0.27","1","2","1","1","2","1","1","1","2","2","2","2","1","1","1","1","2","1","1","2","5","5","5","4","5","5","5","5","5","1","0","1","1","0","0","1","1","0","1","1","0","1","0","1","4","5","5","4","5","3","4","4","5","4","4","803664829670891522","罗","571","","","","match","","","","","","","","","","","","","","key","j","16.649894736842008","640","356","j","true","match","img/triangle.png","三角","三角","ALT1_1","prac_ALT1_1","","","","","","","","","","","",""
"null","<span style='color:GreenYellow; font-size: 70px;'>正确! </span>","null","html-keyboard-response","64","387399","0.0-7.0-0.0-1.0-0.0-1.27","1","2","1","1","2","1","1","1","2","2","2","2","1","1","1","1","2","1","1","2","5","5","5","4","5","5","5","5","5","1","0","1","1","0","0","1","1","0","1","1","0","1","0","1","4","5","5","4","5","3","4","4","5","4","4","803664829670891522","罗","571","","","","","","","","","","","","","","","","","","","","","","","","","","","","","","feedback_test","","","","","","","","","","","",""
"622","","j","psychophysics","65","389034","0.0-7.0-0.0-1.0-0.0-0.28","1","2","1","1","2","1","1","1","2","2","2","2","1","1","1","1","2","1","1","2","5","5","5","4","5","5","5","5","5","1","0","1","1","0","0","1","1","0","1","1","0","1","0","1","4","5","5","4","5","3","4","4","5","4","4","803664829670891522","罗","571","","","","match","","","","","","","","","","","","","","key","j","16.664031249999727","640","356","j","true","match","img/ellipse.png","椭圆","椭圆","ALT1_1","prac_ALT1_1","","","","","","","","","","","",""
"null","<span style='color:GreenYellow; font-size: 70px;'>正确! </span>","null","html-keyboard-response","66","389536","0.0-7.0-0.0-1.0-0.0-1.28","1","2","1","1","2","1","1","1","2","2","2","2","1","1","1","1","2","1","1","2","5","5","5","4","5","5","5","5","5","1","0","1","1","0","0","1","1","0","1","1","0","1","0","1","4","5","5","4","5","3","4","4","5","4","4","803664829670891522","罗","571","","","","","","","","","","","","","","","","","","","","","","","","","","","","","","feedback_test","","","","","","","","","","","",""
"727","","f","psychophysics","67","391268","0.0-7.0-0.0-1.0-0.0-0.29","1","2","1","1","2","1","1","1","2","2","2","2","1","1","1","1","2","1","1","2","5","5","5","4","5","5","5","5","5","1","0","1","1","0","0","1","1","0","1","1","0","1","0","1","4","5","5","4","5","3","4","4","5","4","4","803664829670891522","罗","571","","","","nonmatch","","","","","","","","","","","","","","key","f","16.66476470588218","640","356","f","true","nonmatch","img/hexagon.png","三角","六边","ALT1_1","prac_ALT1_1","","","","","","","","","","","",""
"null","<span style='color:GreenYellow; font-size: 70px;'>正确! </span>","null","html-keyboard-response","68","391771","0.0-7.0-0.0-1.0-0.0-1.29","1","2","1","1","2","1","1","1","2","2","2","2","1","1","1","1","2","1","1","2","5","5","5","4","5","5","5","5","5","1","0","1","1","0","0","1","1","0","1","1","0","1","0","1","4","5","5","4","5","3","4","4","5","4","4","803664829670891522","罗","571","","","","","","","","","","","","","","","","","","","","","","","","","","","","","","feedback_test","","","","","","","","","","","",""
"918","","j","psychophysics","69","393695","0.0-7.0-0.0-1.0-0.0-0.30","1","2","1","1","2","1","1","1","2","2","2","2","1","1","1","1","2","1","1","2","5","5","5","4","5","5","5","5","5","1","0","1","1","0","0","1","1","0","1","1","0","1","0","1","4","5","5","4","5","3","4","4","5","4","4","803664829670891522","罗","571","","","","match","","","","","","","","","","","","","","key","j","16.664929203540233","640","356","f","false","nonmatch","img/diamond.png","三角","菱形","ALT1_1","prac_ALT1_1","","","","","","","","","","","",""
"null","<span style='color:red; font-size: 70px;'>错误! </span>","null","html-keyboard-response","70","394200","0.0-7.0-0.0-1.0-0.0-1.30","1","2","1","1","2","1","1","1","2","2","2","2","1","1","1","1","2","1","1","2","5","5","5","4","5","5","5","5","5","1","0","1","1","0","0","1","1","0","1","1","0","1","0","1","4","5","5","4","5","3","4","4","5","4","4","803664829670891522","罗","571","","","","","","","","","","","","","","","","","","","","","","","","","","","","","","feedback_test","","","","","","","","","","","",""
"691","","f","psychophysics","71","395901","0.0-7.0-0.0-1.0-0.0-0.31","1","2","1","1","2","1","1","1","2","2","2","2","1","1","1","1","2","1","1","2","5","5","5","4","5","5","5","5","5","1","0","1","1","0","0","1","1","0","1","1","0","1","0","1","4","5","5","4","5","3","4","4","5","4","4","803664829670891522","罗","571","","","","nonmatch","","","","","","","","","","","","","","key","f","16.663544554455267","640","356","f","true","nonmatch","img/hexagon.png","椭圆","六边","ALT1_1","prac_ALT1_1","","","","","","","","","","","",""
"null","<span style='color:GreenYellow; font-size: 70px;'>正确! </span>","null","html-keyboard-response","72","396402","0.0-7.0-0.0-1.0-0.0-1.31","1","2","1","1","2","1","1","1","2","2","2","2","1","1","1","1","2","1","1","2","5","5","5","4","5","5","5","5","5","1","0","1","1","0","0","1","1","0","1","1","0","1","0","1","4","5","5","4","5","3","4","4","5","4","4","803664829670891522","罗","571","","","","","","","","","","","","","","","","","","","","","","","","","","","","","","feedback_test","","","","","","","","","","","",""
"570","","j","psychophysics","73","397980","0.0-7.0-0.0-1.0-0.0-0.32","1","2","1","1","2","1","1","1","2","2","2","2","1","1","1","1","2","1","1","2","5","5","5","4","5","5","5","5","5","1","0","1","1","0","0","1","1","0","1","1","0","1","0","1","4","5","5","4","5","3","4","4","5","4","4","803664829670891522","罗","571","","","","match","","","","","","","","","","","","","","key","j","16.664838709677596","640","356","j","true","match","img/triangle.png","三角","三角","ALT1_1","prac_ALT1_1","","","","","","","","","","","",""
"null","<span style='color:GreenYellow; font-size: 70px;'>正确! </span>","null","html-keyboard-response","74","398484","0.0-7.0-0.0-1.0-0.0-1.32","1","2","1","1","2","1","1","1","2","2","2","2","1","1","1","1","2","1","1","2","5","5","5","4","5","5","5","5","5","1","0","1","1","0","0","1","1","0","1","1","0","1","0","1","4","5","5","4","5","3","4","4","5","4","4","803664829670891522","罗","571","","","","","","","","","","","","","","","","","","","","","","","","","","","","","","feedback_test","","","","","","","","","","","",""
"738","","j","psychophysics","75","400229","0.0-7.0-0.0-1.0-0.0-0.33","1","2","1","1","2","1","1","1","2","2","2","2","1","1","1","1","2","1","1","2","5","5","5","4","5","5","5","5","5","1","0","1","1","0","0","1","1","0","1","1","0","1","0","1","4","5","5","4","5","3","4","4","5","4","4","803664829670891522","罗","571","","","","match","","","","","","","","","","","","","","key","j","16.664442307692436","640","356","j","true","match","img/hexagon.png","六边","六边","ALT1_1","prac_ALT1_1","","","","","","","","","","","",""
"null","<span style='color:GreenYellow; font-size: 70px;'>正确! </span>","null","html-keyboard-response","76","400733","0.0-7.0-0.0-1.0-0.0-1.33","1","2","1","1","2","1","1","1","2","2","2","2","1","1","1","1","2","1","1","2","5","5","5","4","5","5","5","5","5","1","0","1","1","0","0","1","1","0","1","1","0","1","0","1","4","5","5","4","5","3","4","4","5","4","4","803664829670891522","罗","571","","","","","","","","","","","","","","","","","","","","","","","","","","","","","","feedback_test","","","","","","","","","","","",""
"749","","f","psychophysics","77","402492","0.0-7.0-0.0-1.0-0.0-0.34","1","2","1","1","2","1","1","1","2","2","2","2","1","1","1","1","2","1","1","2","5","5","5","4","5","5","5","5","5","1","0","1","1","0","0","1","1","0","1","1","0","1","0","1","4","5","5","4","5","3","4","4","5","4","4","803664829670891522","罗","571","","","","nonmatch","","","","","","","","","","","","","","key","f","16.998379999999887","640","356","f","true","nonmatch","img/triangle.png","六边","三角","ALT1_1","prac_ALT1_1","","","","","","","","","","","",""
"null","<span style='color:GreenYellow; font-size: 70px;'>正确! </span>","null","html-keyboard-response","78","402996","0.0-7.0-0.0-1.0-0.0-1.34","1","2","1","1","2","1","1","1","2","2","2","2","1","1","1","1","2","1","1","2","5","5","5","4","5","5","5","5","5","1","0","1","1","0","0","1","1","0","1","1","0","1","0","1","4","5","5","4","5","3","4","4","5","4","4","803664829670891522","罗","571","","","","","","","","","","","","","","","","","","","","","","","","","","","","","","feedback_test","","","","","","","","","","","",""
"710","","j","psychophysics","79","404710","0.0-7.0-0.0-1.0-0.0-0.35","1","2","1","1","2","1","1","1","2","2","2","2","1","1","1","1","2","1","1","2","5","5","5","4","5","5","5","5","5","1","0","1","1","0","0","1","1","0","1","1","0","1","0","1","4","5","5","4","5","3","4","4","5","4","4","803664829670891522","罗","571","","","","match","","","","","","","","","","","","","","key","j","16.82932673267315","640","356","j","true","match","img/ellipse.png","椭圆","椭圆","ALT1_1","prac_ALT1_1","","","","","","","","","","","",""
"null","<span style='color:GreenYellow; font-size: 70px;'>正确! </span>","null","html-keyboard-response","80","405215","0.0-7.0-0.0-1.0-0.0-1.35","1","2","1","1","2","1","1","1","2","2","2","2","1","1","1","1","2","1","1","2","5","5","5","4","5","5","5","5","5","1","0","1","1","0","0","1","1","0","1","1","0","1","0","1","4","5","5","4","5","3","4","4","5","4","4","803664829670891522","罗","571","","","","","","","","","","","","","","","","","","","","","","","","","","","","","","feedback_test","","","","","","","","","","","",""
"770","","f","psychophysics","81","406992","0.0-7.0-0.0-1.0-0.0-0.36","1","2","1","1","2","1","1","1","2","2","2","2","1","1","1","1","2","1","1","2","5","5","5","4","5","5","5","5","5","1","0","1","1","0","0","1","1","0","1","1","0","1","0","1","4","5","5","4","5","3","4","4","5","4","4","803664829670891522","罗","571","","","","nonmatch","","","","","","","","","","","","","","key","f","16.666066666666442","640","356","f","true","nonmatch","img/ellipse.png","六边","椭圆","ALT1_1","prac_ALT1_1","","","","","","","","","","","",""
"null","<span style='color:GreenYellow; font-size: 70px;'>正确! </span>","null","html-keyboard-response","82","407495","0.0-7.0-0.0-1.0-0.0-1.36","1","2","1","1","2","1","1","1","2","2","2","2","1","1","1","1","2","1","1","2","5","5","5","4","5","5","5","5","5","1","0","1","1","0","0","1","1","0","1","1","0","1","0","1","4","5","5","4","5","3","4","4","5","4","4","803664829670891522","罗","571","","","","","","","","","","","","","","","","","","","","","","","","","","","","","","feedback_test","","","","","","","","","","","",""
"692","","f","psychophysics","83","409192","0.0-7.0-0.0-1.0-0.0-0.37","1","2","1","1","2","1","1","1","2","2","2","2","1","1","1","1","2","1","1","2","5","5","5","4","5","5","5","5","5","1","0","1","1","0","0","1","1","0","1","1","0","1","0","1","4","5","5","4","5","3","4","4","5","4","4","803664829670891522","罗","571","","","","nonmatch","","","","","","","","","","","","","","key","f","16.83173999999999","640","356","f","true","nonmatch","img/triangle.png","椭圆","三角","ALT1_1","prac_ALT1_1","","","","","","","","","","","",""
"null","<span style='color:GreenYellow; font-size: 70px;'>正确! </span>","null","html-keyboard-response","84","409696","0.0-7.0-0.0-1.0-0.0-1.37","1","2","1","1","2","1","1","1","2","2","2","2","1","1","1","1","2","1","1","2","5","5","5","4","5","5","5","5","5","1","0","1","1","0","0","1","1","0","1","1","0","1","0","1","4","5","5","4","5","3","4","4","5","4","4","803664829670891522","罗","571","","","","","","","","","","","","","","","","","","","","","","","","","","","","","","feedback_test","","","","","","","","","","","",""
"636","","f","psychophysics","85","411345","0.0-7.0-0.0-1.0-0.0-0.38","1","2","1","1","2","1","1","1","2","2","2","2","1","1","1","1","2","1","1","2","5","5","5","4","5","5","5","5","5","1","0","1","1","0","0","1","1","0","1","1","0","1","0","1","4","5","5","4","5","3","4","4","5","4","4","803664829670891522","罗","571","","","","nonmatch","","","","","","","","","","","","","","key","f","17.01220833333294","640","356","f","true","nonmatch","img/ellipse.png","三角","椭圆","ALT1_1","prac_ALT1_1","","","","","","","","","","","",""
"null","<span style='color:GreenYellow; font-size: 70px;'>正确! </span>","null","html-keyboard-response","86","411848","0.0-7.0-0.0-1.0-0.0-1.38","1","2","1","1","2","1","1","1","2","2","2","2","1","1","1","1","2","1","1","2","5","5","5","4","5","5","5","5","5","1","0","1","1","0","0","1","1","0","1","1","0","1","0","1","4","5","5","4","5","3","4","4","5","4","4","803664829670891522","罗","571","","","","","","","","","","","","","","","","","","","","","","","","","","","","","","feedback_test","","","","","","","","","","","",""
"561","","f","psychophysics","87","413413","0.0-7.0-0.0-1.0-0.0-0.39","1","2","1","1","2","1","1","1","2","2","2","2","1","1","1","1","2","1","1","2","5","5","5","4","5","5","5","5","5","1","0","1","1","0","0","1","1","0","1","1","0","1","0","1","4","5","5","4","5","3","4","4","5","4","4","803664829670891522","罗","571","","","","nonmatch","","","","","","","","","","","","","","key","f","16.667279569892795","640","356","f","true","nonmatch","img/diamond.png","六边","菱形","ALT1_1","prac_ALT1_1","","","","","","","","","","","",""
"null","<span style='color:GreenYellow; font-size: 70px;'>正确! </span>","null","html-keyboard-response","88","413916","0.0-7.0-0.0-1.0-0.0-1.39","1","2","1","1","2","1","1","1","2","2","2","2","1","1","1","1","2","1","1","2","5","5","5","4","5","5","5","5","5","1","0","1","1","0","0","1","1","0","1","1","0","1","0","1","4","5","5","4","5","3","4","4","5","4","4","803664829670891522","罗","571","","","","","","","","","","","","","","","","","","","","","","","","","","","","","","feedback_test","","","","","","","","","","","",""
"747","","f","psychophysics","89","415672","0.0-7.0-0.0-1.0-0.0-0.40","1","2","1","1","2","1","1","1","2","2","2","2","1","1","1","1","2","1","1","2","5","5","5","4","5","5","5","5","5","1","0","1","1","0","0","1","1","0","1","1","0","1","0","1","4","5","5","4","5","3","4","4","5","4","4","803664829670891522","罗","571","","","","nonmatch","","","","","","","","","","","","","","key","f","16.670058823529033","640","356","f","true","nonmatch","img/ellipse.png","菱形","椭圆","ALT1_1","prac_ALT1_1","","","","","","","","","","","",""
"null","<span style='color:GreenYellow; font-size: 70px;'>正确! </span>","null","html-keyboard-response","90","416180","0.0-7.0-0.0-1.0-0.0-1.40","1","2","1","1","2","1","1","1","2","2","2","2","1","1","1","1","2","1","1","2","5","5","5","4","5","5","5","5","5","1","0","1","1","0","0","1","1","0","1","1","0","1","0","1","4","5","5","4","5","3","4","4","5","4","4","803664829670891522","罗","571","","","","","","","","","","","","","","","","","","","","","","","","","","","","","","feedback_test","","","","","","","","","","","",""
"810","","j","psychophysics","91","418000","0.0-7.0-0.0-1.0-0.0-0.41","1","2","1","1","2","1","1","1","2","2","2","2","1","1","1","1","2","1","1","2","5","5","5","4","5","5","5","5","5","1","0","1","1","0","0","1","1","0","1","1","0","1","0","1","4","5","5","4","5","3","4","4","5","4","4","803664829670891522","罗","571","","","","match","","","","","","","","","","","","","","key","j","16.824238095238496","640","356","j","true","match","img/hexagon.png","六边","六边","ALT1_1","prac_ALT1_1","","","","","","","","","","","",""
"null","<span style='color:GreenYellow; font-size: 70px;'>正确! </span>","null","html-keyboard-response","92","418504","0.0-7.0-0.0-1.0-0.0-1.41","1","2","1","1","2","1","1","1","2","2","2","2","1","1","1","1","2","1","1","2","5","5","5","4","5","5","5","5","5","1","0","1","1","0","0","1","1","0","1","1","0","1","0","1","4","5","5","4","5","3","4","4","5","4","4","803664829670891522","罗","571","","","","","","","","","","","","","","","","","","","","","","","","","","","","","","feedback_test","","","","","","","","","","","",""
"669","","j","psychophysics","93","420179","0.0-7.0-0.0-1.0-0.0-0.42","1","2","1","1","2","1","1","1","2","2","2","2","1","1","1","1","2","1","1","2","5","5","5","4","5","5","5","5","5","1","0","1","1","0","0","1","1","0","1","1","0","1","0","1","4","5","5","4","5","3","4","4","5","4","4","803664829670891522","罗","571","","","","match","","","","","","","","","","","","","","key","j","16.837244897959064","640","356","j","true","match","img/ellipse.png","椭圆","椭圆","ALT1_1","prac_ALT1_1","","","","","","","","","","","",""
"null","<span style='color:GreenYellow; font-size: 70px;'>正确! </span>","null","html-keyboard-response","94","420687","0.0-7.0-0.0-1.0-0.0-1.42","1","2","1","1","2","1","1","1","2","2","2","2","1","1","1","1","2","1","1","2","5","5","5","4","5","5","5","5","5","1","0","1","1","0","0","1","1","0","1","1","0","1","0","1","4","5","5","4","5","3","4","4","5","4","4","803664829670891522","罗","571","","","","","","","","","","","","","","","","","","","","","","","","","","","","","","feedback_test","","","","","","","","","","","",""
"533","","f","psychophysics","95","422225","0.0-7.0-0.0-1.0-0.0-0.43","1","2","1","1","2","1","1","1","2","2","2","2","1","1","1","1","2","1","1","2","5","5","5","4","5","5","5","5","5","1","0","1","1","0","0","1","1","0","1","1","0","1","0","1","4","5","5","4","5","3","4","4","5","4","4","803664829670891522","罗","571","","","","nonmatch","","","","","","","","","","","","","","key","f","16.664359550561436","640","356","j","false","match","img/diamond.png","菱形","菱形","ALT1_1","prac_ALT1_1","","","","","","","","","","","",""
"null","<span style='color:red; font-size: 70px;'>错误! </span>","null","html-keyboard-response","96","422728","0.0-7.0-0.0-1.0-0.0-1.43","1","2","1","1","2","1","1","1","2","2","2","2","1","1","1","1","2","1","1","2","5","5","5","4","5","5","5","5","5","1","0","1","1","0","0","1","1","0","1","1","0","1","0","1","4","5","5","4","5","3","4","4","5","4","4","803664829670891522","罗","571","","","","","","","","","","","","","","","","","","","","","","","","","","","","","","feedback_test","","","","","","","","","","","",""
"755","","f","psychophysics","97","424489","0.0-7.0-0.0-1.0-0.0-0.44","1","2","1","1","2","1","1","1","2","2","2","2","1","1","1","1","2","1","1","2","5","5","5","4","5","5","5","5","5","1","0","1","1","0","0","1","1","0","1","1","0","1","0","1","4","5","5","4","5","3","4","4","5","4","4","803664829670891522","罗","571","","","","nonmatch","","","","","","","","","","","","","","key","f","16.82757281553389","640","356","f","true","nonmatch","img/triangle.png","菱形","三角","ALT1_1","prac_ALT1_1","","","","","","","","","","","",""
"null","<span style='color:GreenYellow; font-size: 70px;'>正确! </span>","null","html-keyboard-response","98","424992","0.0-7.0-0.0-1.0-0.0-1.44","1","2","1","1","2","1","1","1","2","2","2","2","1","1","1","1","2","1","1","2","5","5","5","4","5","5","5","5","5","1","0","1","1","0","0","1","1","0","1","1","0","1","0","1","4","5","5","4","5","3","4","4","5","4","4","803664829670891522","罗","571","","","","","","","","","","","","","","","","","","","","","","","","","","","","","","feedback_test","","","","","","","","","","","",""
"825","","f","psychophysics","99","426823","0.0-7.0-0.0-1.0-0.0-0.45","1","2","1","1","2","1","1","1","2","2","2","2","1","1","1","1","2","1","1","2","5","5","5","4","5","5","5","5","5","1","0","1","1","0","0","1","1","0","1","1","0","1","0","1","4","5","5","4","5","3","4","4","5","4","4","803664829670891522","罗","571","","","","nonmatch","","","","","","","","","","","","","","key","f","16.665644859812968","640","356","f","true","nonmatch","img/hexagon.png","菱形","六边","ALT1_1","prac_ALT1_1","","","","","","","","","","","",""
"null","<span style='color:GreenYellow; font-size: 70px;'>正确! </span>","null","html-keyboard-response","100","427327","0.0-7.0-0.0-1.0-0.0-1.45","1","2","1","1","2","1","1","1","2","2","2","2","1","1","1","1","2","1","1","2","5","5","5","4","5","5","5","5","5","1","0","1","1","0","0","1","1","0","1","1","0","1","0","1","4","5","5","4","5","3","4","4","5","4","4","803664829670891522","罗","571","","","","","","","","","","","","","","","","","","","","","","","","","","","","","","feedback_test","","","","","","","","","","","",""
"676","","f","psychophysics","101","429010","0.0-7.0-0.0-1.0-0.0-0.46","1","2","1","1","2","1","1","1","2","2","2","2","1","1","1","1","2","1","1","2","5","5","5","4","5","5","5","5","5","1","0","1","1","0","0","1","1","0","1","1","0","1","0","1","4","5","5","4","5","3","4","4","5","4","4","803664829670891522","罗","571","","","","nonmatch","","","","","","","","","","","","","","key","f","16.664940000000062","640","356","j","false","match","img/diamond.png","菱形","菱形","ALT1_1","prac_ALT1_1","","","","","","","","","","","",""
"null","<span style='color:red; font-size: 70px;'>错误! </span>","null","html-keyboard-response","102","429513","0.0-7.0-0.0-1.0-0.0-1.46","1","2","1","1","2","1","1","1","2","2","2","2","1","1","1","1","2","1","1","2","5","5","5","4","5","5","5","5","5","1","0","1","1","0","0","1","1","0","1","1","0","1","0","1","4","5","5","4","5","3","4","4","5","4","4","803664829670891522","罗","571","","","","","","","","","","","","","","","","","","","","","","","","","","","","","","feedback_test","","","","","","","","","","","",""
"684","","j","psychophysics","103","431203","0.0-7.0-0.0-1.0-0.0-0.47","1","2","1","1","2","1","1","1","2","2","2","2","1","1","1","1","2","1","1","2","5","5","5","4","5","5","5","5","5","1","0","1","1","0","0","1","1","0","1","1","0","1","0","1","4","5","5","4","5","3","4","4","5","4","4","803664829670891522","罗","571","","","","match","","","","","","","","","","","","","","key","j","16.830320000000064","640","356","j","true","match","img/hexagon.png","六边","六边","ALT1_1","prac_ALT1_1","","","","","","","","","","","",""
"null","<span style='color:GreenYellow; font-size: 70px;'>正确! </span>","null","html-keyboard-response","104","431707","0.0-7.0-0.0-1.0-0.0-1.47","1","2","1","1","2","1","1","1","2","2","2","2","1","1","1","1","2","1","1","2","5","5","5","4","5","5","5","5","5","1","0","1","1","0","0","1","1","0","1","1","0","1","0","1","4","5","5","4","5","3","4","4","5","4","4","803664829670891522","罗","571","","","","","","","","","","","","","","","","","","","","","","","","","","","","","","feedback_test","","","","","","","","","","","",""
"86841","<style>.context{color:white; font-size: 35px; line-height:40px}</style>                            <div><p class='context'>您正确回答了79% 的试次。</p><p class='context'>您的平均反应时为727毫秒。</p><p class='context'>恭喜您完成练习。按空格键进入正式实验。</p><p class='footer' style='font-size: 35px; line-height:40px;'>请在进入正式实验之前将您的<span style='color: lightgreen;'>食指</span>放在电脑键盘的相应键位上进行按键。</p>"," ","html-keyboard-response","105","518561","0.0-7.0-0.0-2.0","1","2","1","1","2","1","1","1","2","2","2","2","1","1","1","1","2","1","1","2","5","5","5","4","5","5","5","5","5","1","0","1","1","0","0","1","1","0","1","1","0","1","0","1","4","5","5","4","5","3","4","4","5","4","4","803664829670891522","罗","571","","","","","","","","","","","","","","","","","","","","","","","","","","","","","","","","","","","","","","","","","",""
"3384","
    <p style='color: white; font-size: 22px'>请您将手指放在按键上，准备进入正式的匹配任务。</p>
    <p> <div style = ""color: green""><按空格键进入下一阶段的匹配任务></div></p>
    "," ","html-keyboard-response","106","521954","0.0-7.0-0.0-3.0","1","2","1","1","2","1","1","1","2","2","2","2","1","1","1","1","2","1","1","2","5","5","5","4","5","5","5","5","5","1","0","1","1","0","0","1","1","0","1","1","0","1","0","1","4","5","5","4","5","3","4","4","5","4","4","803664829670891522","罗","571","","","","","","","","","","","","","","","","","","","","","","","","","","","","","","","","","","","","","","","","","",""
"631","","j","psychophysics","107","523588","0.0-7.0-0.0-4.0-0.0-0.0","1","2","1","1","2","1","1","1","2","2","2","2","1","1","1","1","2","1","1","2","5","5","5","4","5","5","5","5","5","1","0","1","1","0","0","1","1","0","1","1","0","1","0","1","4","5","5","4","5","3","4","4","5","4","4","803664829670891522","罗","571","","","","match","","","","","","","","","","","","","","key","j","16.66616666666717","640","356","j","true","match","img/hexagon.png","六边","六边","ALT1","formal_ALT1_1","","","","","","","","","","","",""
"null","<span style='color:GreenYellow; font-size: 70px;'>正确! </span>","null","html-keyboard-response","108","524090","0.0-7.0-0.0-4.0-0.0-1.0","1","2","1","1","2","1","1","1","2","2","2","2","1","1","1","1","2","1","1","2","5","5","5","4","5","5","5","5","5","1","0","1","1","0","0","1","1","0","1","1","0","1","0","1","4","5","5","4","5","3","4","4","5","4","4","803664829670891522","罗","571","","","","","","","","","","","","","","","","","","","","","","","","","","","","","","feedback_test","","","","","","","","","","","",""
"532","","j","psychophysics","109","525626","0.0-7.0-0.0-4.0-0.0-0.1","1","2","1","1","2","1","1","1","2","2","2","2","1","1","1","1","2","1","1","2","5","5","5","4","5","5","5","5","5","1","0","1","1","0","0","1","1","0","1","1","0","1","0","1","4","5","5","4","5","3","4","4","5","4","4","803664829670891522","罗","571","","","","match","","","","","","","","","","","","","","key","j","16.665087912088403","640","356","j","true","match","img/triangle.png","三角","三角","ALT1","formal_ALT1_1","","","","","","","","","","","",""
"null","<span style='color:GreenYellow; font-size: 70px;'>正确! </span>","null","html-keyboard-response","110","526128","0.0-7.0-0.0-4.0-0.0-1.1","1","2","1","1","2","1","1","1","2","2","2","2","1","1","1","1","2","1","1","2","5","5","5","4","5","5","5","5","5","1","0","1","1","0","0","1","1","0","1","1","0","1","0","1","4","5","5","4","5","3","4","4","5","4","4","803664829670891522","罗","571","","","","","","","","","","","","","","","","","","","","","","","","","","","","","","feedback_test","","","","","","","","","","","",""
"745","","j","psychophysics","111","527876","0.0-7.0-0.0-4.0-0.0-0.2","1","2","1","1","2","1","1","1","2","2","2","2","1","1","1","1","2","1","1","2","5","5","5","4","5","5","5","5","5","1","0","1","1","0","0","1","1","0","1","1","0","1","0","1","4","5","5","4","5","3","4","4","5","4","4","803664829670891522","罗","571","","","","match","","","","","","","","","","","","","","key","j","16.665173076922656","640","356","j","true","match","img/diamond.png","菱形","菱形","ALT1","formal_ALT1_1","","","","","","","","","","","",""
"null","<span style='color:GreenYellow; font-size: 70px;'>正确! </span>","null","html-keyboard-response","112","528379","0.0-7.0-0.0-4.0-0.0-1.2","1","2","1","1","2","1","1","1","2","2","2","2","1","1","1","1","2","1","1","2","5","5","5","4","5","5","5","5","5","1","0","1","1","0","0","1","1","0","1","1","0","1","0","1","4","5","5","4","5","3","4","4","5","4","4","803664829670891522","罗","571","","","","","","","","","","","","","","","","","","","","","","","","","","","","","","feedback_test","","","","","","","","","","","",""
"722","","f","psychophysics","113","530107","0.0-7.0-0.0-4.0-0.0-0.3","1","2","1","1","2","1","1","1","2","2","2","2","1","1","1","1","2","1","1","2","5","5","5","4","5","5","5","5","5","1","0","1","1","0","0","1","1","0","1","1","0","1","0","1","4","5","5","4","5","3","4","4","5","4","4","803664829670891522","罗","571","","","","nonmatch","","","","","","","","","","","","","","key","f","16.66540776698927","640","356","j","false","match","img/diamond.png","菱形","菱形","ALT1","formal_ALT1_1","","","","","","","","","","","",""
"null","<span style='color:red; font-size: 70px;'>错误! </span>","null","html-keyboard-response","114","530609","0.0-7.0-0.0-4.0-0.0-1.3","1","2","1","1","2","1","1","1","2","2","2","2","1","1","1","1","2","1","1","2","5","5","5","4","5","5","5","5","5","1","0","1","1","0","0","1","1","0","1","1","0","1","0","1","4","5","5","4","5","3","4","4","5","4","4","803664829670891522","罗","571","","","","","","","","","","","","","","","","","","","","","","","","","","","","","","feedback_test","","","","","","","","","","","",""
"576","","j","psychophysics","115","532190","0.0-7.0-0.0-4.0-0.0-0.4","1","2","1","1","2","1","1","1","2","2","2","2","1","1","1","1","2","1","1","2","5","5","5","4","5","5","5","5","5","1","0","1","1","0","0","1","1","0","1","1","0","1","0","1","4","5","5","4","5","3","4","4","5","4","4","803664829670891522","罗","571","","","","match","","","","","","","","","","","","","","key","j","16.664606382978704","640","356","j","true","match","img/diamond.png","菱形","菱形","ALT1","formal_ALT1_1","","","","","","","","","","","",""
"null","<span style='color:GreenYellow; font-size: 70px;'>正确! </span>","null","html-keyboard-response","116","532693","0.0-7.0-0.0-4.0-0.0-1.4","1","2","1","1","2","1","1","1","2","2","2","2","1","1","1","1","2","1","1","2","5","5","5","4","5","5","5","5","5","1","0","1","1","0","0","1","1","0","1","1","0","1","0","1","4","5","5","4","5","3","4","4","5","4","4","803664829670891522","罗","571","","","","","","","","","","","","","","","","","","","","","","","","","","","","","","feedback_test","","","","","","","","","","","",""
"832","","f","psychophysics","117","534529","0.0-7.0-0.0-4.0-0.0-0.5","1","2","1","1","2","1","1","1","2","2","2","2","1","1","1","1","2","1","1","2","5","5","5","4","5","5","5","5","5","1","0","1","1","0","0","1","1","0","1","1","0","1","0","1","4","5","5","4","5","3","4","4","5","4","4","803664829670891522","罗","571","","","","nonmatch","","","","","","","","","","","","","","key","f","16.665091743119223","640","356","f","true","nonmatch","img/hexagon.png","椭圆","六边","ALT1","formal_ALT1_1","","","","","","","","","","","",""
"null","<span style='color:GreenYellow; font-size: 70px;'>正确! </span>","null","html-keyboard-response","118","535031","0.0-7.0-0.0-4.0-0.0-1.5","1","2","1","1","2","1","1","1","2","2","2","2","1","1","1","1","2","1","1","2","5","5","5","4","5","5","5","5","5","1","0","1","1","0","0","1","1","0","1","1","0","1","0","1","4","5","5","4","5","3","4","4","5","4","4","803664829670891522","罗","571","","","","","","","","","","","","","","","","","","","","","","","","","","","","","","feedback_test","","","","","","","","","","","",""
"647","","f","psychophysics","119","536682","0.0-7.0-0.0-4.0-0.0-0.6","1","2","1","1","2","1","1","1","2","2","2","2","1","1","1","1","2","1","1","2","5","5","5","4","5","5","5","5","5","1","0","1","1","0","0","1","1","0","1","1","0","1","0","1","4","5","5","4","5","3","4","4","5","4","4","803664829670891522","罗","571","","","","nonmatch","","","","","","","","","","","","","","key","f","16.665959183673127","640","356","f","true","nonmatch","img/ellipse.png","三角","椭圆","ALT1","formal_ALT1_1","","","","","","","","","","","",""
"null","<span style='color:GreenYellow; font-size: 70px;'>正确! </span>","null","html-keyboard-response","120","537184","0.0-7.0-0.0-4.0-0.0-1.6","1","2","1","1","2","1","1","1","2","2","2","2","1","1","1","1","2","1","1","2","5","5","5","4","5","5","5","5","5","1","0","1","1","0","0","1","1","0","1","1","0","1","0","1","4","5","5","4","5","3","4","4","5","4","4","803664829670891522","罗","571","","","","","","","","","","","","","","","","","","","","","","","","","","","","","","feedback_test","","","","","","","","","","","",""
"554","","j","psychophysics","121","538743","0.0-7.0-0.0-4.0-0.0-0.7","1","2","1","1","2","1","1","1","2","2","2","2","1","1","1","1","2","1","1","2","5","5","5","4","5","5","5","5","5","1","0","1","1","0","0","1","1","0","1","1","0","1","0","1","4","5","5","4","5","3","4","4","5","4","4","803664829670891522","罗","571","","","","match","","","","","","","","","","","","","","key","j","16.656576086956825","640","356","j","true","match","img/triangle.png","三角","三角","ALT1","formal_ALT1_1","","","","","","","","","","","",""
"null","<span style='color:GreenYellow; font-size: 70px;'>正确! </span>","null","html-keyboard-response","122","539245","0.0-7.0-0.0-4.0-0.0-1.7","1","2","1","1","2","1","1","1","2","2","2","2","1","1","1","1","2","1","1","2","5","5","5","4","5","5","5","5","5","1","0","1","1","0","0","1","1","0","1","1","0","1","0","1","4","5","5","4","5","3","4","4","5","4","4","803664829670891522","罗","571","","","","","","","","","","","","","","","","","","","","","","","","","","","","","","feedback_test","","","","","","","","","","","",""
"776","","j","psychophysics","123","541026","0.0-7.0-0.0-4.0-0.0-0.8","1","2","1","1","2","1","1","1","2","2","2","2","1","1","1","1","2","1","1","2","5","5","5","4","5","5","5","5","5","1","0","1","1","0","0","1","1","0","1","1","0","1","0","1","4","5","5","4","5","3","4","4","5","4","4","803664829670891522","罗","571","","","","match","","","","","","","","","","","","","","key","j","16.66342452830275","640","356","j","true","match","img/ellipse.png","椭圆","椭圆","ALT1","formal_ALT1_1","","","","","","","","","","","",""
"null","<span style='color:GreenYellow; font-size: 70px;'>正确! </span>","null","html-keyboard-response","124","541528","0.0-7.0-0.0-4.0-0.0-1.8","1","2","1","1","2","1","1","1","2","2","2","2","1","1","1","1","2","1","1","2","5","5","5","4","5","5","5","5","5","1","0","1","1","0","0","1","1","0","1","1","0","1","0","1","4","5","5","4","5","3","4","4","5","4","4","803664829670891522","罗","571","","","","","","","","","","","","","","","","","","","","","","","","","","","","","","feedback_test","","","","","","","","","","","",""
"669","","f","psychophysics","125","543202","0.0-7.0-0.0-4.0-0.0-0.9","1","2","1","1","2","1","1","1","2","2","2","2","1","1","1","1","2","1","1","2","5","5","5","4","5","5","5","5","5","1","0","1","1","0","0","1","1","0","1","1","0","1","0","1","4","5","5","4","5","3","4","4","5","4","4","803664829670891522","罗","571","","","","nonmatch","","","","","","","","","","","","","","key","f","16.665202020201832","640","356","f","true","nonmatch","img/triangle.png","椭圆","三角","ALT1","formal_ALT1_1","","","","","","","","","","","",""
"null","<span style='color:GreenYellow; font-size: 70px;'>正确! </span>","null","html-keyboard-response","126","543707","0.0-7.0-0.0-4.0-0.0-1.9","1","2","1","1","2","1","1","1","2","2","2","2","1","1","1","1","2","1","1","2","5","5","5","4","5","5","5","5","5","1","0","1","1","0","0","1","1","0","1","1","0","1","0","1","4","5","5","4","5","3","4","4","5","4","4","803664829670891522","罗","571","","","","","","","","","","","","","","","","","","","","","","","","","","","","","","feedback_test","","","","","","","","","","","",""
"581","","j","psychophysics","127","545293","0.0-7.0-0.0-4.0-0.0-0.10","1","2","1","1","2","1","1","1","2","2","2","2","1","1","1","1","2","1","1","2","5","5","5","4","5","5","5","5","5","1","0","1","1","0","0","1","1","0","1","1","0","1","0","1","4","5","5","4","5","3","4","4","5","4","4","803664829670891522","罗","571","","","","match","","","","","","","","","","","","","","key","j","16.664606382978704","640","356","f","false","nonmatch","img/hexagon.png","菱形","六边","ALT1","formal_ALT1_1","","","","","","","","","","","",""
"null","<span style='color:red; font-size: 70px;'>错误! </span>","null","html-keyboard-response","128","545795","0.0-7.0-0.0-4.0-0.0-1.10","1","2","1","1","2","1","1","1","2","2","2","2","1","1","1","1","2","1","1","2","5","5","5","4","5","5","5","5","5","1","0","1","1","0","0","1","1","0","1","1","0","1","0","1","4","5","5","4","5","3","4","4","5","4","4","803664829670891522","罗","571","","","","","","","","","","","","","","","","","","","","","","","","","","","","","","feedback_test","","","","","","","","","","","",""
"662","","f","psychophysics","129","547460","0.0-7.0-0.0-4.0-0.0-0.11","1","2","1","1","2","1","1","1","2","2","2","2","1","1","1","1","2","1","1","2","5","5","5","4","5","5","5","5","5","1","0","1","1","0","0","1","1","0","1","1","0","1","0","1","4","5","5","4","5","3","4","4","5","4","4","803664829670891522","罗","571","","","","nonmatch","","","","","","","","","","","","","","key","f","16.66713131313104","640","356","f","true","nonmatch","img/ellipse.png","六边","椭圆","ALT1","formal_ALT1_1","","","","","","","","","","","",""
"null","<span style='color:GreenYellow; font-size: 70px;'>正确! </span>","null","html-keyboard-response","130","547962","0.0-7.0-0.0-4.0-0.0-1.11","1","2","1","1","2","1","1","1","2","2","2","2","1","1","1","1","2","1","1","2","5","5","5","4","5","5","5","5","5","1","0","1","1","0","0","1","1","0","1","1","0","1","0","1","4","5","5","4","5","3","4","4","5","4","4","803664829670891522","罗","571","","","","","","","","","","","","","","","","","","","","","","","","","","","","","","feedback_test","","","","","","","","","","","",""
"637","","f","psychophysics","131","549603","0.0-7.0-0.0-4.0-0.0-0.12","1","2","1","1","2","1","1","1","2","2","2","2","1","1","1","1","2","1","1","2","5","5","5","4","5","5","5","5","5","1","0","1","1","0","0","1","1","0","1","1","0","1","0","1","4","5","5","4","5","3","4","4","5","4","4","803664829670891522","罗","571","","","","nonmatch","","","","","","","","","","","","","","key","f","16.665381443299133","640","356","f","true","nonmatch","img/triangle.png","六边","三角","ALT1","formal_ALT1_1","","","","","","","","","","","",""
"null","<span style='color:GreenYellow; font-size: 70px;'>正确! </span>","null","html-keyboard-response","132","550109","0.0-7.0-0.0-4.0-0.0-1.12","1","2","1","1","2","1","1","1","2","2","2","2","1","1","1","1","2","1","1","2","5","5","5","4","5","5","5","5","5","1","0","1","1","0","0","1","1","0","1","1","0","1","0","1","4","5","5","4","5","3","4","4","5","4","4","803664829670891522","罗","571","","","","","","","","","","","","","","","","","","","","","","","","","","","","","","feedback_test","","","","","","","","","","","",""
"647","","f","psychophysics","133","551761","0.0-7.0-0.0-4.0-0.0-0.13","1","2","1","1","2","1","1","1","2","2","2","2","1","1","1","1","2","1","1","2","5","5","5","4","5","5","5","5","5","1","0","1","1","0","0","1","1","0","1","1","0","1","0","1","4","5","5","4","5","3","4","4","5","4","4","803664829670891522","罗","571","","","","nonmatch","","","","","","","","","","","","","","key","f","16.664510204082553","640","356","f","true","nonmatch","img/diamond.png","椭圆","菱形","ALT1","formal_ALT1_1","","","","","","","","","","","",""
"null","<span style='color:GreenYellow; font-size: 70px;'>正确! </span>","null","html-keyboard-response","134","552265","0.0-7.0-0.0-4.0-0.0-1.13","1","2","1","1","2","1","1","1","2","2","2","2","1","1","1","1","2","1","1","2","5","5","5","4","5","5","5","5","5","1","0","1","1","0","0","1","1","0","1","1","0","1","0","1","4","5","5","4","5","3","4","4","5","4","4","803664829670891522","罗","571","","","","","","","","","","","","","","","","","","","","","","","","","","","","","","feedback_test","","","","","","","","","","","",""
"575","","f","psychophysics","135","553847","0.0-7.0-0.0-4.0-0.0-0.14","1","2","1","1","2","1","1","1","2","2","2","2","1","1","1","1","2","1","1","2","5","5","5","4","5","5","5","5","5","1","0","1","1","0","0","1","1","0","1","1","0","1","0","1","4","5","5","4","5","3","4","4","5","4","4","803664829670891522","罗","571","","","","nonmatch","","","","","","","","","","","","","","key","f","16.66456382978767","640","356","f","true","nonmatch","img/hexagon.png","三角","六边","ALT1","formal_ALT1_1","","","","","","","","","","","",""
"null","<span style='color:GreenYellow; font-size: 70px;'>正确! </span>","null","html-keyboard-response","136","554350","0.0-7.0-0.0-4.0-0.0-1.14","1","2","1","1","2","1","1","1","2","2","2","2","1","1","1","1","2","1","1","2","5","5","5","4","5","5","5","5","5","1","0","1","1","0","0","1","1","0","1","1","0","1","0","1","4","5","5","4","5","3","4","4","5","4","4","803664829670891522","罗","571","","","","","","","","","","","","","","","","","","","","","","","","","","","","","","feedback_test","","","","","","","","","","","",""
"636","","f","psychophysics","137","555990","0.0-7.0-0.0-4.0-0.0-0.15","1","2","1","1","2","1","1","1","2","2","2","2","1","1","1","1","2","1","1","2","5","5","5","4","5","5","5","5","5","1","0","1","1","0","0","1","1","0","1","1","0","1","0","1","4","5","5","4","5","3","4","4","5","4","4","803664829670891522","罗","571","","","","nonmatch","","","","","","","","","","","","","","key","f","16.663783505154516","640","356","f","true","nonmatch","img/diamond.png","六边","菱形","ALT1","formal_ALT1_1","","","","","","","","","","","",""
"null","<span style='color:GreenYellow; font-size: 70px;'>正确! </span>","null","html-keyboard-response","138","556492","0.0-7.0-0.0-4.0-0.0-1.15","1","2","1","1","2","1","1","1","2","2","2","2","1","1","1","1","2","1","1","2","5","5","5","4","5","5","5","5","5","1","0","1","1","0","0","1","1","0","1","1","0","1","0","1","4","5","5","4","5","3","4","4","5","4","4","803664829670891522","罗","571","","","","","","","","","","","","","","","","","","","","","","","","","","","","","","feedback_test","","","","","","","","","","","",""
"661","","j","psychophysics","139","558158","0.0-7.0-0.0-4.0-0.0-0.16","1","2","1","1","2","1","1","1","2","2","2","2","1","1","1","1","2","1","1","2","5","5","5","4","5","5","5","5","5","1","0","1","1","0","0","1","1","0","1","1","0","1","0","1","4","5","5","4","5","3","4","4","5","4","4","803664829670891522","罗","571","","","","match","","","","","","","","","","","","","","key","j","16.66442424242474","640","356","j","true","match","img/ellipse.png","椭圆","椭圆","ALT1","formal_ALT1_1","","","","","","","","","","","",""
"null","<span style='color:GreenYellow; font-size: 70px;'>正确! </span>","null","html-keyboard-response","140","558661","0.0-7.0-0.0-4.0-0.0-1.16","1","2","1","1","2","1","1","1","2","2","2","2","1","1","1","1","2","1","1","2","5","5","5","4","5","5","5","5","5","1","0","1","1","0","0","1","1","0","1","1","0","1","0","1","4","5","5","4","5","3","4","4","5","4","4","803664829670891522","罗","571","","","","","","","","","","","","","","","","","","","","","","","","","","","","","","feedback_test","","","","","","","","","","","",""
"585","","j","psychophysics","141","560251","0.0-7.0-0.0-4.0-0.0-0.17","1","2","1","1","2","1","1","1","2","2","2","2","1","1","1","1","2","1","1","2","5","5","5","4","5","5","5","5","5","1","0","1","1","0","0","1","1","0","1","1","0","1","0","1","4","5","5","4","5","3","4","4","5","4","4","803664829670891522","罗","571","","","","match","","","","","","","","","","","","","","key","j","16.66682978723436","640","356","j","true","match","img/hexagon.png","六边","六边","ALT1","formal_ALT1_1","","","","","","","","","","","",""
"null","<span style='color:GreenYellow; font-size: 70px;'>正确! </span>","null","html-keyboard-response","142","560755","0.0-7.0-0.0-4.0-0.0-1.17","1","2","1","1","2","1","1","1","2","2","2","2","1","1","1","1","2","1","1","2","5","5","5","4","5","5","5","5","5","1","0","1","1","0","0","1","1","0","1","1","0","1","0","1","4","5","5","4","5","3","4","4","5","4","4","803664829670891522","罗","571","","","","","","","","","","","","","","","","","","","","","","","","","","","","","","feedback_test","","","","","","","","","","","",""
"598","","j","psychophysics","143","562355","0.0-7.0-0.0-4.0-0.0-0.18","1","2","1","1","2","1","1","1","2","2","2","2","1","1","1","1","2","1","1","2","5","5","5","4","5","5","5","5","5","1","0","1","1","0","0","1","1","0","1","1","0","1","0","1","4","5","5","4","5","3","4","4","5","4","4","803664829670891522","罗","571","","","","match","","","","","","","","","","","","","","key","j","16.66570526315757","640","356","f","false","nonmatch","img/ellipse.png","菱形","椭圆","ALT1","formal_ALT1_1","","","","","","","","","","","",""
"null","<span style='color:red; font-size: 70px;'>错误! </span>","null","html-keyboard-response","144","562857","0.0-7.0-0.0-4.0-0.0-1.18","1","2","1","1","2","1","1","1","2","2","2","2","1","1","1","1","2","1","1","2","5","5","5","4","5","5","5","5","5","1","0","1","1","0","0","1","1","0","1","1","0","1","0","1","4","5","5","4","5","3","4","4","5","4","4","803664829670891522","罗","571","","","","","","","","","","","","","","","","","","","","","","","","","","","","","","feedback_test","","","","","","","","","","","",""
"550","","j","psychophysics","145","564414","0.0-7.0-0.0-4.0-0.0-0.19","1","2","1","1","2","1","1","1","2","2","2","2","1","1","1","1","2","1","1","2","5","5","5","4","5","5","5","5","5","1","0","1","1","0","0","1","1","0","1","1","0","1","0","1","4","5","5","4","5","3","4","4","5","4","4","803664829670891522","罗","571","","","","match","","","","","","","","","","","","","","key","j","16.664739130434338","640","356","j","true","match","img/ellipse.png","椭圆","椭圆","ALT1","formal_ALT1_1","","","","","","","","","","","",""
"null","<span style='color:GreenYellow; font-size: 70px;'>正确! </span>","null","html-keyboard-response","146","564918","0.0-7.0-0.0-4.0-0.0-1.19","1","2","1","1","2","1","1","1","2","2","2","2","1","1","1","1","2","1","1","2","5","5","5","4","5","5","5","5","5","1","0","1","1","0","0","1","1","0","1","1","0","1","0","1","4","5","5","4","5","3","4","4","5","4","4","803664829670891522","罗","571","","","","","","","","","","","","","","","","","","","","","","","","","","","","","","feedback_test","","","","","","","","","","","",""
"667","","f","psychophysics","147","566590","0.0-7.0-0.0-4.0-0.0-0.20","1","2","1","1","2","1","1","1","2","2","2","2","1","1","1","1","2","1","1","2","5","5","5","4","5","5","5","5","5","1","0","1","1","0","0","1","1","0","1","1","0","1","0","1","4","5","5","4","5","3","4","4","5","4","4","803664829670891522","罗","571","","","","nonmatch","","","","","","","","","","","","","","key","f","16.664393939394174","640","356","f","true","nonmatch","img/diamond.png","三角","菱形","ALT1","formal_ALT1_1","","","","","","","","","","","",""
"null","<span style='color:GreenYellow; font-size: 70px;'>正确! </span>","null","html-keyboard-response","148","567093","0.0-7.0-0.0-4.0-0.0-1.20","1","2","1","1","2","1","1","1","2","2","2","2","1","1","1","1","2","1","1","2","5","5","5","4","5","5","5","5","5","1","0","1","1","0","0","1","1","0","1","1","0","1","0","1","4","5","5","4","5","3","4","4","5","4","4","803664829670891522","罗","571","","","","","","","","","","","","","","","","","","","","","","","","","","","","","","feedback_test","","","","","","","","","","","",""
"485","","j","psychophysics","149","568581","0.0-7.0-0.0-4.0-0.0-0.21","1","2","1","1","2","1","1","1","2","2","2","2","1","1","1","1","2","1","1","2","5","5","5","4","5","5","5","5","5","1","0","1","1","0","0","1","1","0","1","1","0","1","0","1","4","5","5","4","5","3","4","4","5","4","4","803664829670891522","罗","571","","","","match","","","","","","","","","","","","","","key","j","16.668386363636024","640","356","j","true","match","img/triangle.png","三角","三角","ALT1","formal_ALT1_1","","","","","","","","","","","",""
"null","<span style='color:GreenYellow; font-size: 70px;'>正确! </span>","null","html-keyboard-response","150","569083","0.0-7.0-0.0-4.0-0.0-1.21","1","2","1","1","2","1","1","1","2","2","2","2","1","1","1","1","2","1","1","2","5","5","5","4","5","5","5","5","5","1","0","1","1","0","0","1","1","0","1","1","0","1","0","1","4","5","5","4","5","3","4","4","5","4","4","803664829670891522","罗","571","","","","","","","","","","","","","","","","","","","","","","","","","","","","","","feedback_test","","","","","","","","","","","",""
"606","","j","psychophysics","151","570695","0.0-7.0-0.0-4.0-0.0-0.22","1","2","1","1","2","1","1","1","2","2","2","2","1","1","1","1","2","1","1","2","5","5","5","4","5","5","5","5","5","1","0","1","1","0","0","1","1","0","1","1","0","1","0","1","4","5","5","4","5","3","4","4","5","4","4","803664829670891522","罗","571","","","","match","","","","","","","","","","","","","","key","j","16.66428421052712","640","356","j","true","match","img/hexagon.png","六边","六边","ALT1","formal_ALT1_1","","","","","","","","","","","",""
"null","<span style='color:GreenYellow; font-size: 70px;'>正确! </span>","null","html-keyboard-response","152","571202","0.0-7.0-0.0-4.0-0.0-1.22","1","2","1","1","2","1","1","1","2","2","2","2","1","1","1","1","2","1","1","2","5","5","5","4","5","5","5","5","5","1","0","1","1","0","0","1","1","0","1","1","0","1","0","1","4","5","5","4","5","3","4","4","5","4","4","803664829670891522","罗","571","","","","","","","","","","","","","","","","","","","","","","","","","","","","","","feedback_test","","","","","","","","","","","",""
"649","","f","psychophysics","153","572856","0.0-7.0-0.0-4.0-0.0-0.23","1","2","1","1","2","1","1","1","2","2","2","2","1","1","1","1","2","1","1","2","5","5","5","4","5","5","5","5","5","1","0","1","1","0","0","1","1","0","1","1","0","1","0","1","4","5","5","4","5","3","4","4","5","4","4","803664829670891522","罗","571","","","","nonmatch","","","","","","","","","","","","","","key","f","16.664520408162296","640","356","f","true","nonmatch","img/triangle.png","菱形","三角","ALT1","formal_ALT1_1","","","","","","","","","","","",""
"null","<span style='color:GreenYellow; font-size: 70px;'>正确! </span>","null","html-keyboard-response","154","573357","0.0-7.0-0.0-4.0-0.0-1.23","1","2","1","1","2","1","1","1","2","2","2","2","1","1","1","1","2","1","1","2","5","5","5","4","5","5","5","5","5","1","0","1","1","0","0","1","1","0","1","1","0","1","0","1","4","5","5","4","5","3","4","4","5","4","4","803664829670891522","罗","571","","","","","","","","","","","","","","","","","","","","","","","","","","","","","","feedback_test","","","","","","","","","","","",""
"611","","j","psychophysics","155","574978","0.0-7.0-0.0-4.0-0.0-0.24","1","2","1","1","2","1","1","1","2","2","2","2","1","1","1","1","2","1","1","2","5","5","5","4","5","5","5","5","5","1","0","1","1","0","0","1","1","0","1","1","0","1","0","1","4","5","5","4","5","3","4","4","5","4","4","803664829670891522","罗","571","","","","match","","","","","","","","","","","","","","key","j","16.663802083333092","640","356","f","false","nonmatch","img/hexagon.png","菱形","六边","ALT1","formal_ALT1_1","","","","","","","","","","","",""
"null","<span style='color:red; font-size: 70px;'>错误! </span>","null","html-keyboard-response","156","575481","0.0-7.0-0.0-4.0-0.0-1.24","1","2","1","1","2","1","1","1","2","2","2","2","1","1","1","1","2","1","1","2","5","5","5","4","5","5","5","5","5","1","0","1","1","0","0","1","1","0","1","1","0","1","0","1","4","5","5","4","5","3","4","4","5","4","4","803664829670891522","罗","571","","","","","","","","","","","","","","","","","","","","","","","","","","","","","","feedback_test","","","","","","","","","","","",""
"651","","f","psychophysics","157","577136","0.0-7.0-0.0-4.0-0.0-0.25","1","2","1","1","2","1","1","1","2","2","2","2","1","1","1","1","2","1","1","2","5","5","5","4","5","5","5","5","5","1","0","1","1","0","0","1","1","0","1","1","0","1","0","1","4","5","5","4","5","3","4","4","5","4","4","803664829670891522","罗","571","","","","nonmatch","","","","","","","","","","","","","","key","f","16.663928571428002","640","356","f","true","nonmatch","img/diamond.png","六边","菱形","ALT1","formal_ALT1_1","","","","","","","","","","","",""
"null","<span style='color:GreenYellow; font-size: 70px;'>正确! </span>","null","html-keyboard-response","158","577639","0.0-7.0-0.0-4.0-0.0-1.25","1","2","1","1","2","1","1","1","2","2","2","2","1","1","1","1","2","1","1","2","5","5","5","4","5","5","5","5","5","1","0","1","1","0","0","1","1","0","1","1","0","1","0","1","4","5","5","4","5","3","4","4","5","4","4","803664829670891522","罗","571","","","","","","","","","","","","","","","","","","","","","","","","","","","","","","feedback_test","","","","","","","","","","","",""
"726","","f","psychophysics","159","579369","0.0-7.0-0.0-4.0-0.0-0.26","1","2","1","1","2","1","1","1","2","2","2","2","1","1","1","1","2","1","1","2","5","5","5","4","5","5","5","5","5","1","0","1","1","0","0","1","1","0","1","1","0","1","0","1","4","5","5","4","5","3","4","4","5","4","4","803664829670891522","罗","571","","","","nonmatch","","","","","","","","","","","","","","key","f","16.664796116505297","640","356","j","false","match","img/diamond.png","菱形","菱形","ALT1","formal_ALT1_1","","","","","","","","","","","",""
"null","<span style='color:red; font-size: 70px;'>错误! </span>","null","html-keyboard-response","160","579872","0.0-7.0-0.0-4.0-0.0-1.26","1","2","1","1","2","1","1","1","2","2","2","2","1","1","1","1","2","1","1","2","5","5","5","4","5","5","5","5","5","1","0","1","1","0","0","1","1","0","1","1","0","1","0","1","4","5","5","4","5","3","4","4","5","4","4","803664829670891522","罗","571","","","","","","","","","","","","","","","","","","","","","","","","","","","","","","feedback_test","","","","","","","","","","","",""
"983","","f","psychophysics","161","581860","0.0-7.0-0.0-4.0-0.0-0.27","1","2","1","1","2","1","1","1","2","2","2","2","1","1","1","1","2","1","1","2","5","5","5","4","5","5","5","5","5","1","0","1","1","0","0","1","1","0","1","1","0","1","0","1","4","5","5","4","5","3","4","4","5","4","4","803664829670891522","罗","571","","","","nonmatch","","","","","","","","","","","","","","key","f","16.6654745762708","640","356","f","true","nonmatch","img/hexagon.png","椭圆","六边","ALT1","formal_ALT1_1","","","","","","","","","","","",""
"null","<span style='color:GreenYellow; font-size: 70px;'>正确! </span>","null","html-keyboard-response","162","582361","0.0-7.0-0.0-4.0-0.0-1.27","1","2","1","1","2","1","1","1","2","2","2","2","1","1","1","1","2","1","1","2","5","5","5","4","5","5","5","5","5","1","0","1","1","0","0","1","1","0","1","1","0","1","0","1","4","5","5","4","5","3","4","4","5","4","4","803664829670891522","罗","571","","","","","","","","","","","","","","","","","","","","","","","","","","","","","","feedback_test","","","","","","","","","","","",""
"610","","j","psychophysics","163","583973","0.0-7.0-0.0-4.0-0.0-0.28","1","2","1","1","2","1","1","1","2","2","2","2","1","1","1","1","2","1","1","2","5","5","5","4","5","5","5","5","5","1","0","1","1","0","0","1","1","0","1","1","0","1","0","1","4","5","5","4","5","3","4","4","5","4","4","803664829670891522","罗","571","","","","match","","","","","","","","","","","","","","key","j","16.657663157894767","640","356","f","false","nonmatch","img/diamond.png","三角","菱形","ALT1","formal_ALT1_1","","","","","","","","","","","",""
"null","<span style='color:red; font-size: 70px;'>错误! </span>","null","html-keyboard-response","164","584475","0.0-7.0-0.0-4.0-0.0-1.28","1","2","1","1","2","1","1","1","2","2","2","2","1","1","1","1","2","1","1","2","5","5","5","4","5","5","5","5","5","1","0","1","1","0","0","1","1","0","1","1","0","1","0","1","4","5","5","4","5","3","4","4","5","4","4","803664829670891522","罗","571","","","","","","","","","","","","","","","","","","","","","","","","","","","","","","feedback_test","","","","","","","","","","","",""
"607","","f","psychophysics","165","586089","0.0-7.0-0.0-4.0-0.0-0.29","1","2","1","1","2","1","1","1","2","2","2","2","1","1","1","1","2","1","1","2","5","5","5","4","5","5","5","5","5","1","0","1","1","0","0","1","1","0","1","1","0","1","0","1","4","5","5","4","5","3","4","4","5","4","4","803664829670891522","罗","571","","","","nonmatch","","","","","","","","","","","","","","key","f","16.663666666667268","640","356","f","true","nonmatch","img/triangle.png","菱形","三角","ALT1","formal_ALT1_1","","","","","","","","","","","",""
"null","<span style='color:GreenYellow; font-size: 70px;'>正确! </span>","null","html-keyboard-response","166","586589","0.0-7.0-0.0-4.0-0.0-1.29","1","2","1","1","2","1","1","1","2","2","2","2","1","1","1","1","2","1","1","2","5","5","5","4","5","5","5","5","5","1","0","1","1","0","0","1","1","0","1","1","0","1","0","1","4","5","5","4","5","3","4","4","5","4","4","803664829670891522","罗","571","","","","","","","","","","","","","","","","","","","","","","","","","","","","","","feedback_test","","","","","","","","","","","",""
"758","","j","psychophysics","167","588351","0.0-7.0-0.0-4.0-0.0-0.30","1","2","1","1","2","1","1","1","2","2","2","2","1","1","1","1","2","1","1","2","5","5","5","4","5","5","5","5","5","1","0","1","1","0","0","1","1","0","1","1","0","1","0","1","4","5","5","4","5","3","4","4","5","4","4","803664829670891522","罗","571","","","","match","","","","","","","","","","","","","","key","j","16.664990476190688","640","356","j","true","match","img/ellipse.png","椭圆","椭圆","ALT1","formal_ALT1_1","","","","","","","","","","","",""
"null","<span style='color:GreenYellow; font-size: 70px;'>正确! </span>","null","html-keyboard-response","168","588853","0.0-7.0-0.0-4.0-0.0-1.30","1","2","1","1","2","1","1","1","2","2","2","2","1","1","1","1","2","1","1","2","5","5","5","4","5","5","5","5","5","1","0","1","1","0","0","1","1","0","1","1","0","1","0","1","4","5","5","4","5","3","4","4","5","4","4","803664829670891522","罗","571","","","","","","","","","","","","","","","","","","","","","","","","","","","","","","feedback_test","","","","","","","","","","","",""
"589","","f","psychophysics","169","590447","0.0-7.0-0.0-4.0-0.0-0.31","1","2","1","1","2","1","1","1","2","2","2","2","1","1","1","1","2","1","1","2","5","5","5","4","5","5","5","5","5","1","0","1","1","0","0","1","1","0","1","1","0","1","0","1","4","5","5","4","5","3","4","4","5","4","4","803664829670891522","罗","571","","","","nonmatch","","","","","","","","","","","","","","key","f","16.66487368420992","640","356","f","true","nonmatch","img/triangle.png","椭圆","三角","ALT1","formal_ALT1_1","","","","","","","","","","","",""
"null","<span style='color:GreenYellow; font-size: 70px;'>正确! </span>","null","html-keyboard-response","170","590949","0.0-7.0-0.0-4.0-0.0-1.31","1","2","1","1","2","1","1","1","2","2","2","2","1","1","1","1","2","1","1","2","5","5","5","4","5","5","5","5","5","1","0","1","1","0","0","1","1","0","1","1","0","1","0","1","4","5","5","4","5","3","4","4","5","4","4","803664829670891522","罗","571","","","","","","","","","","","","","","","","","","","","","","","","","","","","","","feedback_test","","","","","","","","","","","",""
"569","","f","psychophysics","171","592520","0.0-7.0-0.0-4.0-0.0-0.32","1","2","1","1","2","1","1","1","2","2","2","2","1","1","1","1","2","1","1","2","5","5","5","4","5","5","5","5","5","1","0","1","1","0","0","1","1","0","1","1","0","1","0","1","4","5","5","4","5","3","4","4","5","4","4","803664829670891522","罗","571","","","","nonmatch","","","","","","","","","","","","","","key","f","16.666032258064426","640","356","j","false","match","img/diamond.png","菱形","菱形","ALT1","formal_ALT1_1","","","","","","","","","","","",""
"null","<span style='color:red; font-size: 70px;'>错误! </span>","null","html-keyboard-response","172","593022","0.0-7.0-0.0-4.0-0.0-1.32","1","2","1","1","2","1","1","1","2","2","2","2","1","1","1","1","2","1","1","2","5","5","5","4","5","5","5","5","5","1","0","1","1","0","0","1","1","0","1","1","0","1","0","1","4","5","5","4","5","3","4","4","5","4","4","803664829670891522","罗","571","","","","","","","","","","","","","","","","","","","","","","","","","","","","","","feedback_test","","","","","","","","","","","",""
"625","","j","psychophysics","173","594653","0.0-7.0-0.0-4.0-0.0-0.33","1","2","1","1","2","1","1","1","2","2","2","2","1","1","1","1","2","1","1","2","5","5","5","4","5","5","5","5","5","1","0","1","1","0","0","1","1","0","1","1","0","1","0","1","4","5","5","4","5","3","4","4","5","4","4","803664829670891522","罗","571","","","","match","","","","","","","","","","","","","","key","j","16.665855670102978","640","356","j","true","match","img/hexagon.png","六边","六边","ALT1","formal_ALT1_1","","","","","","","","","","","",""
"null","<span style='color:GreenYellow; font-size: 70px;'>正确! </span>","null","html-keyboard-response","174","595156","0.0-7.0-0.0-4.0-0.0-1.33","1","2","1","1","2","1","1","1","2","2","2","2","1","1","1","1","2","1","1","2","5","5","5","4","5","5","5","5","5","1","0","1","1","0","0","1","1","0","1","1","0","1","0","1","4","5","5","4","5","3","4","4","5","4","4","803664829670891522","罗","571","","","","","","","","","","","","","","","","","","","","","","","","","","","","","","feedback_test","","","","","","","","","","","",""
"620","","j","psychophysics","175","596781","0.0-7.0-0.0-4.0-0.0-0.34","1","2","1","1","2","1","1","1","2","2","2","2","1","1","1","1","2","1","1","2","5","5","5","4","5","5","5","5","5","1","0","1","1","0","0","1","1","0","1","1","0","1","0","1","4","5","5","4","5","3","4","4","5","4","4","803664829670891522","罗","571","","","","match","","","","","","","","","","","","","","key","j","16.8375312499993","640","356","j","true","match","img/diamond.png","菱形","菱形","ALT1","formal_ALT1_1","","","","","","","","","","","",""
"null","<span style='color:GreenYellow; font-size: 70px;'>正确! </span>","null","html-keyboard-response","176","597283","0.0-7.0-0.0-4.0-0.0-1.34","1","2","1","1","2","1","1","1","2","2","2","2","1","1","1","1","2","1","1","2","5","5","5","4","5","5","5","5","5","1","0","1","1","0","0","1","1","0","1","1","0","1","0","1","4","5","5","4","5","3","4","4","5","4","4","803664829670891522","罗","571","","","","","","","","","","","","","","","","","","","","","","","","","","","","","","feedback_test","","","","","","","","","","","",""
"577","","j","psychophysics","177","598864","0.0-7.0-0.0-4.0-0.0-0.35","1","2","1","1","2","1","1","1","2","2","2","2","1","1","1","1","2","1","1","2","5","5","5","4","5","5","5","5","5","1","0","1","1","0","0","1","1","0","1","1","0","1","0","1","4","5","5","4","5","3","4","4","5","4","4","803664829670891522","罗","571","","","","match","","","","","","","","","","","","","","key","j","16.664893617021278","640","356","j","true","match","img/hexagon.png","六边","六边","ALT1","formal_ALT1_1","","","","","","","","","","","",""
"null","<span style='color:GreenYellow; font-size: 70px;'>正确! </span>","null","html-keyboard-response","178","599367","0.0-7.0-0.0-4.0-0.0-1.35","1","2","1","1","2","1","1","1","2","2","2","2","1","1","1","1","2","1","1","2","5","5","5","4","5","5","5","5","5","1","0","1","1","0","0","1","1","0","1","1","0","1","0","1","4","5","5","4","5","3","4","4","5","4","4","803664829670891522","罗","571","","","","","","","","","","","","","","","","","","","","","","","","","","","","","","feedback_test","","","","","","","","","","","",""
"682","","f","psychophysics","179","601053","0.0-7.0-0.0-4.0-0.0-0.36","1","2","1","1","2","1","1","1","2","2","2","2","1","1","1","1","2","1","1","2","5","5","5","4","5","5","5","5","5","1","0","1","1","0","0","1","1","0","1","1","0","1","0","1","4","5","5","4","5","3","4","4","5","4","4","803664829670891522","罗","571","","","","nonmatch","","","","","","","","","","","","","","key","f","16.66564999999944","640","356","f","true","nonmatch","img/diamond.png","椭圆","菱形","ALT1","formal_ALT1_1","","","","","","","","","","","",""
"null","<span style='color:GreenYellow; font-size: 70px;'>正确! </span>","null","html-keyboard-response","180","601554","0.0-7.0-0.0-4.0-0.0-1.36","1","2","1","1","2","1","1","1","2","2","2","2","1","1","1","1","2","1","1","2","5","5","5","4","5","5","5","5","5","1","0","1","1","0","0","1","1","0","1","1","0","1","0","1","4","5","5","4","5","3","4","4","5","4","4","803664829670891522","罗","571","","","","","","","","","","","","","","","","","","","","","","","","","","","","","","feedback_test","","","","","","","","","","","",""
"591","","f","psychophysics","181","603150","0.0-7.0-0.0-4.0-0.0-0.37","1","2","1","1","2","1","1","1","2","2","2","2","1","1","1","1","2","1","1","2","5","5","5","4","5","5","5","5","5","1","0","1","1","0","0","1","1","0","1","1","0","1","0","1","4","5","5","4","5","3","4","4","5","4","4","803664829670891522","罗","571","","","","nonmatch","","","","","","","","","","","","","","key","f","16.664063157894844","640","356","f","true","nonmatch","img/hexagon.png","三角","六边","ALT1","formal_ALT1_1","","","","","","","","","","","",""
