"rt","stimulus","response","trial_type","trial_index","time_elapsed","internal_node_id","ses_1","ses_2","ses_3","ses_4","ses_5","ses_6","ses_7","ses_8","ses_9","ses_10","coreself_1","coreself_2","coreself_3","coreself_4","coreself_5","coreself_6","coreself_7","coreself_8","coreself_9","coreself_10","SGPS_1","SGPS_2","SGPS_3","SGPS_4","SGPS_5","SGPS_6","SGPS_7","SGPS_8","SGPS_9","NPI1","NPI2","NPI3","NPI4","NPI5","NPI6","NPI7","NPI8","NPI9","NPI10","NPI11","NPI12","NPI13","NPI14","NPI15","hsns_1","hsns_2","hsns_3","hsns_4","hsns_5","trap1","hsns_6","hsns_7","hsns_8","hsns_9","hsns_10","subj_idx","friend_name","ParticipantID","value","success","user_agent","responses","item_order","radio_event_ids","radio_event_times","key_event_times","mouse_event_times","straightlining","zigzagging","honeypot","timeout","failed_images","failed_audio","failed_video","view_history","response_type","key_press","avg_frame_time","center_x","center_y","correct_response","correct","identity","Image","word","condition","task_id","screen_id","time_stamp","version_attrib","version_target","IAT","RT","varname","summary","version_attrib2","version_target2","question_order","correct_answer","trap1_item"
"31888","
   <p><div style = ""color: white;font-size:25px;"">您好，欢迎参加本次实验。</div> </p>
   <p><div style = ""color: white;font-size:25px;"">为充分保障您的权利，请确保您已经知晓并同意《参与实验同意书》以及《数据公开知情同意书》。</div></p>
   <p><div style = ""color: white;font-size:25px;"">如果您未见过上述内容，请咨询实验员。</div></p>
   <p><div style = ""color: white;font-size:25px;"">如果您选择继续实验，则表示您已经清楚两份知情同意书的内容并同意。</div></p>
   <p><div style = ""color: pink;font-size:30px;"">请确保您记得day0的实验编号，您将在本次实验输入该编号，若您忘记，请咨询实验员后作答。</div></p>
   <p><div style = ""color: lightblue;font-size:25px;"">请您尽可能认真地作答，我们将依据您在各问卷和按键任务中的作答质量发放报酬。</div></p>
   <p> <div style = ""color: green;font-size:25px;""><按空格键至下页></div> </p>
   "," ","html-keyboard-response","0","31891","0.0-0.0","4","4","4","4","4","4","3","2","4","4","5","5","4","4","4","5","5","5","5","4","1","2","2","1","1","1","4","4","1","0","1","0","0","0","1","0","1","1","0","1","0","1","0","0","5","1","1","2","1","1","5","2","2","2","1","776954102012973057","陈","375","","","","","","","","","","","","","","","","","","","","","","","","","","","","","","","","","","","","","","","","","",""
"","","","call-function","1","31893","0.0-1.0-0.0","4","4","4","4","4","4","3","2","4","4","5","5","4","4","4","5","5","5","5","4","1","2","2","1","1","1","4","4","1","0","1","0","0","0","1","0","1","1","0","1","0","1","0","0","5","1","1","2","1","1","5","2","2","2","1","776954102012973057","陈","375","","","","","","","","","","","","","","","","","","","","","","","","","","","","","","","","","","","","","","","","","",""
"25368","","{""friend_name"":""陈"",""ParticipantID"":""375""}","survey-html-form","2","57263","0.0-1.0-1.0","4","4","4","4","4","4","3","2","4","4","5","5","4","4","4","5","5","5","5","4","1","2","2","1","1","1","4","4","1","0","1","0","0","0","1","0","1","1","0","1","0","1","0","0","5","1","1","2","1","1","5","2","2","2","1","776954102012973057","陈","375","","","","","","","","","","","","","","","","","","","","","","","","","","","","","","","","","","","","","","","","","",""
"","","","fullscreen","3","59083","0.0-2.0","4","4","4","4","4","4","3","2","4","4","5","5","4","4","4","5","5","5","5","4","1","2","2","1","1","1","4","4","1","0","1","0","0","0","1","0","1","1","0","1","0","1","0","0","5","1","1","2","1","1","5","2","2","2","1","776954102012973057","陈","375","","true","{}","","","","","","","","","","","","","","","","","","","","","","","","","","","","","","","","","","","","","","",""
"22757","","{""Q01"":""4"",""Q02"":""4"",""Q03"":""4"",""Q04"":""4"",""Q05"":""4"",""Q06"":""4"",""Q07"":""3"",""Q08"":""2"",""Q09"":""4"",""Q10"":""4""}","survey-template","4","81844","0.0-3.0","4","4","4","4","4","4","3","2","4","4","5","5","4","4","4","5","5","5","5","4","1","2","2","1","1","1","4","4","1","0","1","0","0","0","1","0","1","1","0","1","0","1","0","0","5","1","1","2","1","1","5","2","2","2","1","776954102012973057","陈","375","","","","{""Q01"":""4"",""Q02"":""4"",""Q03"":""4"",""Q04"":""4"",""Q05"":""4"",""Q06"":""4"",""Q07"":""3"",""Q08"":""2"",""Q09"":""4"",""Q10"":""4""}","[0,1,2,3,4,5,6,7,8,9]","[""Q01"",""Q02"",""Q03"",""Q04"",""Q05"",""Q05"",""Q06"",""Q07"",""Q08"",""Q09"",""Q10""]","[3346.6999999999534,4466.599999999977,6564.899999999907,8042.29999999993,11658.5,13419.099999999977,14387,16114.29999999993,18043.399999999907,19947.699999999953,21267.199999999953]","[]","[3346.6999999999534,4466.599999999977,6564.899999999907,8042.29999999993,11658.5,13419.099999999977,14387,16114.29999999993,18043.399999999907,19947.699999999953,21267.199999999953,22754.899999999907]","0.4","0.5555555555555556","0","","","","","","","","","","","","","","","","","","","","","","","","","","","","","",""
"20333.79999999993","","{""Q01"":""5"",""Q02"":""5"",""Q03"":""4"",""Q04"":""4"",""Q05"":""4"",""Q06"":""5"",""Q07"":""5"",""Q08"":""5"",""Q09"":""5"",""Q10"":""4""}","survey-template","5","102188","0.0-4.0","4","4","4","4","4","4","3","2","4","4","5","5","4","4","4","5","5","5","5","4","1","2","2","1","1","1","4","4","1","0","1","0","0","0","1","0","1","1","0","1","0","1","0","0","5","1","1","2","1","1","5","2","2","2","1","776954102012973057","陈","375","","","","{""Q01"":""5"",""Q02"":""5"",""Q03"":""4"",""Q04"":""4"",""Q05"":""4"",""Q06"":""5"",""Q07"":""5"",""Q08"":""5"",""Q09"":""5"",""Q10"":""4""}","[0,1,2,3,4,5,6,7,8,9]","[""Q01"",""Q02"",""Q03"",""Q04"",""Q05"",""Q06"",""Q07"",""Q07"",""Q08"",""Q09"",""Q10""]","[3547.1999999999534,4930.79999999993,6572.099999999977,8387.599999999977,10266.899999999907,11846.599999999977,13323,15052.099999999977,16100.29999999993,17861.899999999907,19380.29999999993]","[]","[2131.6999999999534,3547.1999999999534,4930.79999999993,6572.099999999977,8387.599999999977,10266.899999999907,11846.599999999977,13323,15052.099999999977,16100.29999999993,17861.899999999907,19380.29999999993,20331.29999999993]","0.3","0.4444444444444444","0","","","","","","","","","","","","","","","","","","","","","","","","","","","","","",""
"","","","preload","6","174396","0.0-5.0","4","4","4","4","4","4","3","2","4","4","5","5","4","4","4","5","5","5","5","4","1","2","2","1","1","1","4","4","1","0","1","0","0","0","1","0","1","1","0","1","0","1","0","0","5","1","1","2","1","1","5","2","2","2","1","776954102012973057","陈","375","","true","","","","","","","","","","","false","[]","[]","[]","","","","","","","","","","","","","","","","","","","","","","","","","",""
"95907","","","instructions","7","270304","0.0-6.0","4","4","4","4","4","4","3","2","4","4","5","5","4","4","4","5","5","5","5","4","1","2","2","1","1","1","4","4","1","0","1","0","0","0","1","0","1","1","0","1","0","1","0","0","5","1","1","2","1","1","5","2","2","2","1","776954102012973057","陈","375","","","","","","","","","","","","","","","","","[{""page_index"":0,""viewing_time"":95906}]","","","","","","","","","","","","","","","","","","","","","","","","",""
"150997","","","instructions","8","421304","0.0-7.0-0.0-0.0","4","4","4","4","4","4","3","2","4","4","5","5","4","4","4","5","5","5","5","4","1","2","2","1","1","1","4","4","1","0","1","0","0","0","1","0","1","1","0","1","0","1","0","0","5","1","1","2","1","1","5","2","2","2","1","776954102012973057","陈","375","","","","","","","","","","","","","","","","","[{""page_index"":0,""viewing_time"":49997},{""page_index"":1,""viewing_time"":93360},{""page_index"":2,""viewing_time"":7640}]","","","","","","","","","","","","","","","","","","","","","","","","",""
"809","","j","psychophysics","9","423118","0.0-7.0-0.0-1.0-0.0-0.0","4","4","4","4","4","4","3","2","4","4","5","5","4","4","4","5","5","5","5","4","1","2","2","1","1","1","4","4","1","0","1","0","0","0","1","0","1","1","0","1","0","1","0","0","5","1","1","2","1","1","5","2","2","2","1","776954102012973057","陈","375","","","","match","","","","","","","","","","","","","","key","j","16.98079245282998","768","428","j","true","match","img/pentagon.png","五边","五边","ALT1_1","prac_ALT1_1","","","","","","","","","","","",""
"null","<span style='color:GreenYellow; font-size: 70px;'>正确! </span>","null","html-keyboard-response","10","423619","0.0-7.0-0.0-1.0-0.0-1.0","4","4","4","4","4","4","3","2","4","4","5","5","4","4","4","5","5","5","5","4","1","2","2","1","1","1","4","4","1","0","1","0","0","0","1","0","1","1","0","1","0","1","0","0","5","1","1","2","1","1","5","2","2","2","1","776954102012973057","陈","375","","","","","","","","","","","","","","","","","","","","","","","","","","","","","","feedback_test","","","","","","","","","","","",""
"727","","f","psychophysics","11","425348","0.0-7.0-0.0-1.0-0.0-0.1","4","4","4","4","4","4","3","2","4","4","5","5","4","4","4","5","5","5","5","4","1","2","2","1","1","1","4","4","1","0","1","0","0","0","1","0","1","1","0","1","0","1","0","0","5","1","1","2","1","1","5","2","2","2","1","776954102012973057","陈","375","","","","nonmatch","","","","","","","","","","","","","","key","f","16.66706796116546","768","428","j","false","match","img/ellipse.png","椭圆","椭圆","ALT1_1","prac_ALT1_1","","","","","","","","","","","",""
"null","<span style='color:red; font-size: 70px;'>错误! </span>","null","html-keyboard-response","12","425849","0.0-7.0-0.0-1.0-0.0-1.1","4","4","4","4","4","4","3","2","4","4","5","5","4","4","4","5","5","5","5","4","1","2","2","1","1","1","4","4","1","0","1","0","0","0","1","0","1","1","0","1","0","1","0","0","5","1","1","2","1","1","5","2","2","2","1","776954102012973057","陈","375","","","","","","","","","","","","","","","","","","","","","","","","","","","","","","feedback_test","","","","","","","","","","","",""
"922","","f","psychophysics","13","427773","0.0-7.0-0.0-1.0-0.0-0.2","4","4","4","4","4","4","3","2","4","4","5","5","4","4","4","5","5","5","5","4","1","2","2","1","1","1","4","4","1","0","1","0","0","0","1","0","1","1","0","1","0","1","0","0","5","1","1","2","1","1","5","2","2","2","1","776954102012973057","陈","375","","","","nonmatch","","","","","","","","","","","","","","key","f","16.667131578947494","768","428","f","true","nonmatch","img/triangle.png","五边","三角","ALT1_1","prac_ALT1_1","","","","","","","","","","","",""
"null","<span style='color:GreenYellow; font-size: 70px;'>正确! </span>","null","html-keyboard-response","14","428274","0.0-7.0-0.0-1.0-0.0-1.2","4","4","4","4","4","4","3","2","4","4","5","5","4","4","4","5","5","5","5","4","1","2","2","1","1","1","4","4","1","0","1","0","0","0","1","0","1","1","0","1","0","1","0","0","5","1","1","2","1","1","5","2","2","2","1","776954102012973057","陈","375","","","","","","","","","","","","","","","","","","","","","","","","","","","","","","feedback_test","","","","","","","","","","","",""
"642","","j","psychophysics","15","429917","0.0-7.0-0.0-1.0-0.0-0.3","4","4","4","4","4","4","3","2","4","4","5","5","4","4","4","5","5","5","5","4","1","2","2","1","1","1","4","4","1","0","1","0","0","0","1","0","1","1","0","1","0","1","0","0","5","1","1","2","1","1","5","2","2","2","1","776954102012973057","陈","375","","","","match","","","","","","","","","","","","","","key","j","16.666773195875948","768","428","j","true","match","img/pentagon.png","五边","五边","ALT1_1","prac_ALT1_1","","","","","","","","","","","",""
"null","<span style='color:GreenYellow; font-size: 70px;'>正确! </span>","null","html-keyboard-response","16","430420","0.0-7.0-0.0-1.0-0.0-1.3","4","4","4","4","4","4","3","2","4","4","5","5","4","4","4","5","5","5","5","4","1","2","2","1","1","1","4","4","1","0","1","0","0","0","1","0","1","1","0","1","0","1","0","0","5","1","1","2","1","1","5","2","2","2","1","776954102012973057","陈","375","","","","","","","","","","","","","","","","","","","","","","","","","","","","","","feedback_test","","","","","","","","","","","",""
"881","","j","psychophysics","17","432304","0.0-7.0-0.0-1.0-0.0-0.4","4","4","4","4","4","4","3","2","4","4","5","5","4","4","4","5","5","5","5","4","1","2","2","1","1","1","4","4","1","0","1","0","0","0","1","0","1","1","0","1","0","1","0","0","5","1","1","2","1","1","5","2","2","2","1","776954102012973057","陈","375","","","","match","","","","","","","","","","","","","","key","j","16.666973214285722","768","428","f","false","nonmatch","img/diamond.png","三角","菱形","ALT1_1","prac_ALT1_1","","","","","","","","","","","",""
"null","<span style='color:red; font-size: 70px;'>错误! </span>","null","html-keyboard-response","18","432804","0.0-7.0-0.0-1.0-0.0-1.4","4","4","4","4","4","4","3","2","4","4","5","5","4","4","4","5","5","5","5","4","1","2","2","1","1","1","4","4","1","0","1","0","0","0","1","0","1","1","0","1","0","1","0","0","5","1","1","2","1","1","5","2","2","2","1","776954102012973057","陈","375","","","","","","","","","","","","","","","","","","","","","","","","","","","","","","feedback_test","","","","","","","","","","","",""
"739","","f","psychophysics","19","434544","0.0-7.0-0.0-1.0-0.0-0.5","4","4","4","4","4","4","3","2","4","4","5","5","4","4","4","5","5","5","5","4","1","2","2","1","1","1","4","4","1","0","1","0","0","0","1","0","1","1","0","1","0","1","0","0","5","1","1","2","1","1","5","2","2","2","1","776954102012973057","陈","375","","","","nonmatch","","","","","","","","","","","","","","key","f","16.666692307692408","768","428","f","true","nonmatch","img/pentagon.png","椭圆","五边","ALT1_1","prac_ALT1_1","","","","","","","","","","","",""
"null","<span style='color:GreenYellow; font-size: 70px;'>正确! </span>","null","html-keyboard-response","20","435045","0.0-7.0-0.0-1.0-0.0-1.5","4","4","4","4","4","4","3","2","4","4","5","5","4","4","4","5","5","5","5","4","1","2","2","1","1","1","4","4","1","0","1","0","0","0","1","0","1","1","0","1","0","1","0","0","5","1","1","2","1","1","5","2","2","2","1","776954102012973057","陈","375","","","","","","","","","","","","","","","","","","","","","","","","","","","","","","feedback_test","","","","","","","","","","","",""
"842","","f","psychophysics","21","436889","0.0-7.0-0.0-1.0-0.0-0.6","4","4","4","4","4","4","3","2","4","4","5","5","4","4","4","5","5","5","5","4","1","2","2","1","1","1","4","4","1","0","1","0","0","0","1","0","1","1","0","1","0","1","0","0","5","1","1","2","1","1","5","2","2","2","1","776954102012973057","陈","375","","","","nonmatch","","","","","","","","","","","","","","key","f","16.666963302751963","768","428","j","false","match","img/triangle.png","三角","三角","ALT1_1","prac_ALT1_1","","","","","","","","","","","",""
"null","<span style='color:red; font-size: 70px;'>错误! </span>","null","html-keyboard-response","22","437390","0.0-7.0-0.0-1.0-0.0-1.6","4","4","4","4","4","4","3","2","4","4","5","5","4","4","4","5","5","5","5","4","1","2","2","1","1","1","4","4","1","0","1","0","0","0","1","0","1","1","0","1","0","1","0","0","5","1","1","2","1","1","5","2","2","2","1","776954102012973057","陈","375","","","","","","","","","","","","","","","","","","","","","","","","","","","","","","feedback_test","","","","","","","","","","","",""
"1137","","j","psychophysics","23","439529","0.0-7.0-0.0-1.0-0.0-0.7","4","4","4","4","4","4","3","2","4","4","5","5","4","4","4","5","5","5","5","4","1","2","2","1","1","1","4","4","1","0","1","0","0","0","1","0","1","1","0","1","0","1","0","0","5","1","1","2","1","1","5","2","2","2","1","776954102012973057","陈","375","","","","match","","","","","","","","","","","","","","key","j","16.66662992125993","768","428","j","true","match","img/diamond.png","菱形","菱形","ALT1_1","prac_ALT1_1","","","","","","","","","","","",""
"null","<span style='color:GreenYellow; font-size: 70px;'>正确! </span>","null","html-keyboard-response","24","440030","0.0-7.0-0.0-1.0-0.0-1.7","4","4","4","4","4","4","3","2","4","4","5","5","4","4","4","5","5","5","5","4","1","2","2","1","1","1","4","4","1","0","1","0","0","0","1","0","1","1","0","1","0","1","0","0","5","1","1","2","1","1","5","2","2","2","1","776954102012973057","陈","375","","","","","","","","","","","","","","","","","","","","","","","","","","","","","","feedback_test","","","","","","","","","","","",""
"525","","j","psychophysics","25","441557","0.0-7.0-0.0-1.0-0.0-0.8","4","4","4","4","4","4","3","2","4","4","5","5","4","4","4","5","5","5","5","4","1","2","2","1","1","1","4","4","1","0","1","0","0","0","1","0","1","1","0","1","0","1","0","0","5","1","1","2","1","1","5","2","2","2","1","776954102012973057","陈","375","","","","match","","","","","","","","","","","","","","key","j","16.66698888888867","768","428","j","true","match","img/pentagon.png","五边","五边","ALT1_1","prac_ALT1_1","","","","","","","","","","","",""
"null","<span style='color:GreenYellow; font-size: 70px;'>正确! </span>","null","html-keyboard-response","26","442059","0.0-7.0-0.0-1.0-0.0-1.8","4","4","4","4","4","4","3","2","4","4","5","5","4","4","4","5","5","5","5","4","1","2","2","1","1","1","4","4","1","0","1","0","0","0","1","0","1","1","0","1","0","1","0","0","5","1","1","2","1","1","5","2","2","2","1","776954102012973057","陈","375","","","","","","","","","","","","","","","","","","","","","","","","","","","","","","feedback_test","","","","","","","","","","","",""
"726","","f","psychophysics","27","443785","0.0-7.0-0.0-1.0-0.0-0.9","4","4","4","4","4","4","3","2","4","4","5","5","4","4","4","5","5","5","5","4","1","2","2","1","1","1","4","4","1","0","1","0","0","0","1","0","1","1","0","1","0","1","0","0","5","1","1","2","1","1","5","2","2","2","1","776954102012973057","陈","375","","","","nonmatch","","","","","","","","","","","","","","key","f","16.66654901960739","768","428","f","true","nonmatch","img/triangle.png","椭圆","三角","ALT1_1","prac_ALT1_1","","","","","","","","","","","",""
"null","<span style='color:GreenYellow; font-size: 70px;'>正确! </span>","null","html-keyboard-response","28","444287","0.0-7.0-0.0-1.0-0.0-1.9","4","4","4","4","4","4","3","2","4","4","5","5","4","4","4","5","5","5","5","4","1","2","2","1","1","1","4","4","1","0","1","0","0","0","1","0","1","1","0","1","0","1","0","0","5","1","1","2","1","1","5","2","2","2","1","776954102012973057","陈","375","","","","","","","","","","","","","","","","","","","","","","","","","","","","","","feedback_test","","","","","","","","","","","",""
"885","","f","psychophysics","29","446173","0.0-7.0-0.0-1.0-0.0-0.10","4","4","4","4","4","4","3","2","4","4","5","5","4","4","4","5","5","5","5","4","1","2","2","1","1","1","4","4","1","0","1","0","0","0","1","0","1","1","0","1","0","1","0","0","5","1","1","2","1","1","5","2","2","2","1","776954102012973057","陈","375","","","","nonmatch","","","","","","","","","","","","","","key","f","16.667214285714312","768","428","j","false","match","img/diamond.png","菱形","菱形","ALT1_1","prac_ALT1_1","","","","","","","","","","","",""
"null","<span style='color:red; font-size: 70px;'>错误! </span>","null","html-keyboard-response","30","446674","0.0-7.0-0.0-1.0-0.0-1.10","4","4","4","4","4","4","3","2","4","4","5","5","4","4","4","5","5","5","5","4","1","2","2","1","1","1","4","4","1","0","1","0","0","0","1","0","1","1","0","1","0","1","0","0","5","1","1","2","1","1","5","2","2","2","1","776954102012973057","陈","375","","","","","","","","","","","","","","","","","","","","","","","","","","","","","","feedback_test","","","","","","","","","","","",""
"1115","","f","psychophysics","31","448791","0.0-7.0-0.0-1.0-0.0-0.11","4","4","4","4","4","4","3","2","4","4","5","5","4","4","4","5","5","5","5","4","1","2","2","1","1","1","4","4","1","0","1","0","0","0","1","0","1","1","0","1","0","1","0","0","5","1","1","2","1","1","5","2","2","2","1","776954102012973057","陈","375","","","","nonmatch","","","","","","","","","","","","","","key","f","16.666304000000004","768","428","f","true","nonmatch","img/ellipse.png","菱形","椭圆","ALT1_1","prac_ALT1_1","","","","","","","","","","","",""
"null","<span style='color:GreenYellow; font-size: 70px;'>正确! </span>","null","html-keyboard-response","32","449293","0.0-7.0-0.0-1.0-0.0-1.11","4","4","4","4","4","4","3","2","4","4","5","5","4","4","4","5","5","5","5","4","1","2","2","1","1","1","4","4","1","0","1","0","0","0","1","0","1","1","0","1","0","1","0","0","5","1","1","2","1","1","5","2","2","2","1","776954102012973057","陈","375","","","","","","","","","","","","","","","","","","","","","","","","","","","","","","feedback_test","","","","","","","","","","","",""
"711","","j","psychophysics","33","451007","0.0-7.0-0.0-1.0-0.0-0.12","4","4","4","4","4","4","3","2","4","4","5","5","4","4","4","5","5","5","5","4","1","2","2","1","1","1","4","4","1","0","1","0","0","0","1","0","1","1","0","1","0","1","0","0","5","1","1","2","1","1","5","2","2","2","1","776954102012973057","陈","375","","","","match","","","","","","","","","","","","","","key","j","16.666702970297024","768","428","j","true","match","img/triangle.png","三角","三角","ALT1_1","prac_ALT1_1","","","","","","","","","","","",""
"null","<span style='color:GreenYellow; font-size: 70px;'>正确! </span>","null","html-keyboard-response","34","451508","0.0-7.0-0.0-1.0-0.0-1.12","4","4","4","4","4","4","3","2","4","4","5","5","4","4","4","5","5","5","5","4","1","2","2","1","1","1","4","4","1","0","1","0","0","0","1","0","1","1","0","1","0","1","0","0","5","1","1","2","1","1","5","2","2","2","1","776954102012973057","陈","375","","","","","","","","","","","","","","","","","","","","","","","","","","","","","","feedback_test","","","","","","","","","","","",""
"780","","f","psychophysics","35","453290","0.0-7.0-0.0-1.0-0.0-0.13","4","4","4","4","4","4","3","2","4","4","5","5","4","4","4","5","5","5","5","4","1","2","2","1","1","1","4","4","1","0","1","0","0","0","1","0","1","1","0","1","0","1","0","0","5","1","1","2","1","1","5","2","2","2","1","776954102012973057","陈","375","","","","nonmatch","","","","","","","","","","","","","","key","f","16.66678095238139","768","428","f","true","nonmatch","img/diamond.png","五边","菱形","ALT1_1","prac_ALT1_1","","","","","","","","","","","",""
"null","<span style='color:GreenYellow; font-size: 70px;'>正确! </span>","null","html-keyboard-response","36","453791","0.0-7.0-0.0-1.0-0.0-1.13","4","4","4","4","4","4","3","2","4","4","5","5","4","4","4","5","5","5","5","4","1","2","2","1","1","1","4","4","1","0","1","0","0","0","1","0","1","1","0","1","0","1","0","0","5","1","1","2","1","1","5","2","2","2","1","776954102012973057","陈","375","","","","","","","","","","","","","","","","","","","","","","","","","","","","","","feedback_test","","","","","","","","","","","",""
"904","","f","psychophysics","37","455697","0.0-7.0-0.0-1.0-0.0-0.14","4","4","4","4","4","4","3","2","4","4","5","5","4","4","4","5","5","5","5","4","1","2","2","1","1","1","4","4","1","0","1","0","0","0","1","0","1","1","0","1","0","1","0","0","5","1","1","2","1","1","5","2","2","2","1","776954102012973057","陈","375","","","","nonmatch","","","","","","","","","","","","","","key","f","16.666654867256593","768","428","f","true","nonmatch","img/ellipse.png","三角","椭圆","ALT1_1","prac_ALT1_1","","","","","","","","","","","",""
"null","<span style='color:GreenYellow; font-size: 70px;'>正确! </span>","null","html-keyboard-response","38","456198","0.0-7.0-0.0-1.0-0.0-1.14","4","4","4","4","4","4","3","2","4","4","5","5","4","4","4","5","5","5","5","4","1","2","2","1","1","1","4","4","1","0","1","0","0","0","1","0","1","1","0","1","0","1","0","0","5","1","1","2","1","1","5","2","2","2","1","776954102012973057","陈","375","","","","","","","","","","","","","","","","","","","","","","","","","","","","","","feedback_test","","","","","","","","","","","",""
"890","","f","psychophysics","39","458090","0.0-7.0-0.0-1.0-0.0-0.15","4","4","4","4","4","4","3","2","4","4","5","5","4","4","4","5","5","5","5","4","1","2","2","1","1","1","4","4","1","0","1","0","0","0","1","0","1","1","0","1","0","1","0","0","5","1","1","2","1","1","5","2","2","2","1","776954102012973057","陈","375","","","","nonmatch","","","","","","","","","","","","","","key","f","16.6665982142861","768","428","f","true","nonmatch","img/triangle.png","菱形","三角","ALT1_1","prac_ALT1_1","","","","","","","","","","","",""
"null","<span style='color:GreenYellow; font-size: 70px;'>正确! </span>","null","html-keyboard-response","40","458591","0.0-7.0-0.0-1.0-0.0-1.15","4","4","4","4","4","4","3","2","4","4","5","5","4","4","4","5","5","5","5","4","1","2","2","1","1","1","4","4","1","0","1","0","0","0","1","0","1","1","0","1","0","1","0","0","5","1","1","2","1","1","5","2","2","2","1","776954102012973057","陈","375","","","","","","","","","","","","","","","","","","","","","","","","","","","","","","feedback_test","","","","","","","","","","","",""
"722","","j","psychophysics","41","460314","0.0-7.0-0.0-1.0-0.0-0.16","4","4","4","4","4","4","3","2","4","4","5","5","4","4","4","5","5","5","5","4","1","2","2","1","1","1","4","4","1","0","1","0","0","0","1","0","1","1","0","1","0","1","0","0","5","1","1","2","1","1","5","2","2","2","1","776954102012973057","陈","375","","","","match","","","","","","","","","","","","","","key","j","16.667078431372705","768","428","j","true","match","img/triangle.png","三角","三角","ALT1_1","prac_ALT1_1","","","","","","","","","","","",""
"null","<span style='color:GreenYellow; font-size: 70px;'>正确! </span>","null","html-keyboard-response","42","460815","0.0-7.0-0.0-1.0-0.0-1.16","4","4","4","4","4","4","3","2","4","4","5","5","4","4","4","5","5","5","5","4","1","2","2","1","1","1","4","4","1","0","1","0","0","0","1","0","1","1","0","1","0","1","0","0","5","1","1","2","1","1","5","2","2","2","1","776954102012973057","陈","375","","","","","","","","","","","","","","","","","","","","","","","","","","","","","","feedback_test","","","","","","","","","","","",""
"746","","f","psychophysics","43","462563","0.0-7.0-0.0-1.0-0.0-0.17","4","4","4","4","4","4","3","2","4","4","5","5","4","4","4","5","5","5","5","4","1","2","2","1","1","1","4","4","1","0","1","0","0","0","1","0","1","1","0","1","0","1","0","0","5","1","1","2","1","1","5","2","2","2","1","776954102012973057","陈","375","","","","nonmatch","","","","","","","","","","","","","","key","f","16.666730769230455","768","428","f","true","nonmatch","img/diamond.png","椭圆","菱形","ALT1_1","prac_ALT1_1","","","","","","","","","","","",""
"null","<span style='color:GreenYellow; font-size: 70px;'>正确! </span>","null","html-keyboard-response","44","463064","0.0-7.0-0.0-1.0-0.0-1.17","4","4","4","4","4","4","3","2","4","4","5","5","4","4","4","5","5","5","5","4","1","2","2","1","1","1","4","4","1","0","1","0","0","0","1","0","1","1","0","1","0","1","0","0","5","1","1","2","1","1","5","2","2","2","1","776954102012973057","陈","375","","","","","","","","","","","","","","","","","","","","","","","","","","","","","","feedback_test","","","","","","","","","","","",""
"806","","j","psychophysics","45","464872","0.0-7.0-0.0-1.0-0.0-0.18","4","4","4","4","4","4","3","2","4","4","5","5","4","4","4","5","5","5","5","4","1","2","2","1","1","1","4","4","1","0","1","0","0","0","1","0","1","1","0","1","0","1","0","0","5","1","1","2","1","1","5","2","2","2","1","776954102012973057","陈","375","","","","match","","","","","","","","","","","","","","key","j","16.66671962616802","768","428","j","true","match","img/diamond.png","菱形","菱形","ALT1_1","prac_ALT1_1","","","","","","","","","","","",""
"null","<span style='color:GreenYellow; font-size: 70px;'>正确! </span>","null","html-keyboard-response","46","465373","0.0-7.0-0.0-1.0-0.0-1.18","4","4","4","4","4","4","3","2","4","4","5","5","4","4","4","5","5","5","5","4","1","2","2","1","1","1","4","4","1","0","1","0","0","0","1","0","1","1","0","1","0","1","0","0","5","1","1","2","1","1","5","2","2","2","1","776954102012973057","陈","375","","","","","","","","","","","","","","","","","","","","","","","","","","","","","","feedback_test","","","","","","","","","","","",""
"711","","f","psychophysics","47","467087","0.0-7.0-0.0-1.0-0.0-0.19","4","4","4","4","4","4","3","2","4","4","5","5","4","4","4","5","5","5","5","4","1","2","2","1","1","1","4","4","1","0","1","0","0","0","1","0","1","1","0","1","0","1","0","0","5","1","1","2","1","1","5","2","2","2","1","776954102012973057","陈","375","","","","nonmatch","","","","","","","","","","","","","","key","f","16.666921568627576","768","428","f","true","nonmatch","img/pentagon.png","三角","五边","ALT1_1","prac_ALT1_1","","","","","","","","","","","",""
"null","<span style='color:GreenYellow; font-size: 70px;'>正确! </span>","null","html-keyboard-response","48","467588","0.0-7.0-0.0-1.0-0.0-1.19","4","4","4","4","4","4","3","2","4","4","5","5","4","4","4","5","5","5","5","4","1","2","2","1","1","1","4","4","1","0","1","0","0","0","1","0","1","1","0","1","0","1","0","0","5","1","1","2","1","1","5","2","2","2","1","776954102012973057","陈","375","","","","","","","","","","","","","","","","","","","","","","","","","","","","","","feedback_test","","","","","","","","","","","",""
"1030","","j","psychophysics","49","469621","0.0-7.0-0.0-1.0-0.0-0.20","4","4","4","4","4","4","3","2","4","4","5","5","4","4","4","5","5","5","5","4","1","2","2","1","1","1","4","4","1","0","1","0","0","0","1","0","1","1","0","1","0","1","0","0","5","1","1","2","1","1","5","2","2","2","1","776954102012973057","陈","375","","","","match","","","","","","","","","","","","","","key","j","16.665429752066053","768","428","j","true","match","img/ellipse.png","椭圆","椭圆","ALT1_1","prac_ALT1_1","","","","","","","","","","","",""
"null","<span style='color:GreenYellow; font-size: 70px;'>正确! </span>","null","html-keyboard-response","50","470124","0.0-7.0-0.0-1.0-0.0-1.20","4","4","4","4","4","4","3","2","4","4","5","5","4","4","4","5","5","5","5","4","1","2","2","1","1","1","4","4","1","0","1","0","0","0","1","0","1","1","0","1","0","1","0","0","5","1","1","2","1","1","5","2","2","2","1","776954102012973057","陈","375","","","","","","","","","","","","","","","","","","","","","","","","","","","","","","feedback_test","","","","","","","","","","","",""
"712","","j","psychophysics","51","471837","0.0-7.0-0.0-1.0-0.0-0.21","4","4","4","4","4","4","3","2","4","4","5","5","4","4","4","5","5","5","5","4","1","2","2","1","1","1","4","4","1","0","1","0","0","0","1","0","1","1","0","1","0","1","0","0","5","1","1","2","1","1","5","2","2","2","1","776954102012973057","陈","375","","","","match","","","","","","","","","","","","","","key","j","16.666267326732726","768","428","j","true","match","img/ellipse.png","椭圆","椭圆","ALT1_1","prac_ALT1_1","","","","","","","","","","","",""
"null","<span style='color:GreenYellow; font-size: 70px;'>正确! </span>","null","html-keyboard-response","52","472338","0.0-7.0-0.0-1.0-0.0-1.21","4","4","4","4","4","4","3","2","4","4","5","5","4","4","4","5","5","5","5","4","1","2","2","1","1","1","4","4","1","0","1","0","0","0","1","0","1","1","0","1","0","1","0","0","5","1","1","2","1","1","5","2","2","2","1","776954102012973057","陈","375","","","","","","","","","","","","","","","","","","","","","","","","","","","","","","feedback_test","","","","","","","","","","","",""
"803","","f","psychophysics","53","474144","0.0-7.0-0.0-1.0-0.0-0.22","4","4","4","4","4","4","3","2","4","4","5","5","4","4","4","5","5","5","5","4","1","2","2","1","1","1","4","4","1","0","1","0","0","0","1","0","1","1","0","1","0","1","0","0","5","1","1","2","1","1","5","2","2","2","1","776954102012973057","陈","375","","","","nonmatch","","","","","","","","","","","","","","key","f","16.666833333333166","768","428","f","true","nonmatch","img/pentagon.png","菱形","五边","ALT1_1","prac_ALT1_1","","","","","","","","","","","",""
"null","<span style='color:GreenYellow; font-size: 70px;'>正确! </span>","null","html-keyboard-response","54","474647","0.0-7.0-0.0-1.0-0.0-1.22","4","4","4","4","4","4","3","2","4","4","5","5","4","4","4","5","5","5","5","4","1","2","2","1","1","1","4","4","1","0","1","0","0","0","1","0","1","1","0","1","0","1","0","0","5","1","1","2","1","1","5","2","2","2","1","776954102012973057","陈","375","","","","","","","","","","","","","","","","","","","","","","","","","","","","","","feedback_test","","","","","","","","","","","",""
"790","","f","psychophysics","55","476439","0.0-7.0-0.0-1.0-0.0-0.23","4","4","4","4","4","4","3","2","4","4","5","5","4","4","4","5","5","5","5","4","1","2","2","1","1","1","4","4","1","0","1","0","0","0","1","0","1","1","0","1","0","1","0","0","5","1","1","2","1","1","5","2","2","2","1","776954102012973057","陈","375","","","","nonmatch","","","","","","","","","","","","","","key","f","16.66694339622638","768","428","f","true","nonmatch","img/ellipse.png","五边","椭圆","ALT1_1","prac_ALT1_1","","","","","","","","","","","",""
"null","<span style='color:GreenYellow; font-size: 70px;'>正确! </span>","null","html-keyboard-response","56","476940","0.0-7.0-0.0-1.0-0.0-1.23","4","4","4","4","4","4","3","2","4","4","5","5","4","4","4","5","5","5","5","4","1","2","2","1","1","1","4","4","1","0","1","0","0","0","1","0","1","1","0","1","0","1","0","0","5","1","1","2","1","1","5","2","2","2","1","776954102012973057","陈","375","","","","","","","","","","","","","","","","","","","","","","","","","","","","","","feedback_test","","","","","","","","","","","",""
"609","","j","psychophysics","57","478551","0.0-7.0-0.0-1.0-0.0-0.24","4","4","4","4","4","4","3","2","4","4","5","5","4","4","4","5","5","5","5","4","1","2","2","1","1","1","4","4","1","0","1","0","0","0","1","0","1","1","0","1","0","1","0","0","5","1","1","2","1","1","5","2","2","2","1","776954102012973057","陈","375","","","","match","","","","","","","","","","","","","","key","j","16.66635789473688","768","428","j","true","match","img/pentagon.png","五边","五边","ALT1_1","prac_ALT1_1","","","","","","","","","","","",""
"null","<span style='color:GreenYellow; font-size: 70px;'>正确! </span>","null","html-keyboard-response","58","479053","0.0-7.0-0.0-1.0-0.0-1.24","4","4","4","4","4","4","3","2","4","4","5","5","4","4","4","5","5","5","5","4","1","2","2","1","1","1","4","4","1","0","1","0","0","0","1","0","1","1","0","1","0","1","0","0","5","1","1","2","1","1","5","2","2","2","1","776954102012973057","陈","375","","","","","","","","","","","","","","","","","","","","","","","","","","","","","","feedback_test","","","","","","","","","","","",""
"789","","j","psychophysics","59","480844","0.0-7.0-0.0-1.0-0.0-0.25","4","4","4","4","4","4","3","2","4","4","5","5","4","4","4","5","5","5","5","4","1","2","2","1","1","1","4","4","1","0","1","0","0","0","1","0","1","1","0","1","0","1","0","0","5","1","1","2","1","1","5","2","2","2","1","776954102012973057","陈","375","","","","match","","","","","","","","","","","","","","key","j","16.666700934579435","768","428","j","true","match","img/triangle.png","三角","三角","ALT1_1","prac_ALT1_1","","","","","","","","","","","",""
"null","<span style='color:GreenYellow; font-size: 70px;'>正确! </span>","null","html-keyboard-response","60","481346","0.0-7.0-0.0-1.0-0.0-1.25","4","4","4","4","4","4","3","2","4","4","5","5","4","4","4","5","5","5","5","4","1","2","2","1","1","1","4","4","1","0","1","0","0","0","1","0","1","1","0","1","0","1","0","0","5","1","1","2","1","1","5","2","2","2","1","776954102012973057","陈","375","","","","","","","","","","","","","","","","","","","","","","","","","","","","","","feedback_test","","","","","","","","","","","",""
"731","","f","psychophysics","61","483079","0.0-7.0-0.0-1.0-0.0-0.26","4","4","4","4","4","4","3","2","4","4","5","5","4","4","4","5","5","5","5","4","1","2","2","1","1","1","4","4","1","0","1","0","0","0","1","0","1","1","0","1","0","1","0","0","5","1","1","2","1","1","5","2","2","2","1","776954102012973057","陈","375","","","","nonmatch","","","","","","","","","","","","","","key","f","16.666796116504788","768","428","f","true","nonmatch","img/pentagon.png","三角","五边","ALT1_1","prac_ALT1_1","","","","","","","","","","","",""
"null","<span style='color:GreenYellow; font-size: 70px;'>正确! </span>","null","html-keyboard-response","62","483581","0.0-7.0-0.0-1.0-0.0-1.26","4","4","4","4","4","4","3","2","4","4","5","5","4","4","4","5","5","5","5","4","1","2","2","1","1","1","4","4","1","0","1","0","0","0","1","0","1","1","0","1","0","1","0","0","5","1","1","2","1","1","5","2","2","2","1","776954102012973057","陈","375","","","","","","","","","","","","","","","","","","","","","","","","","","","","","","feedback_test","","","","","","","","","","","",""
"680","","j","psychophysics","63","485262","0.0-7.0-0.0-1.0-0.0-0.27","4","4","4","4","4","4","3","2","4","4","5","5","4","4","4","5","5","5","5","4","1","2","2","1","1","1","4","4","1","0","1","0","0","0","1","0","1","1","0","1","0","1","0","0","5","1","1","2","1","1","5","2","2","2","1","776954102012973057","陈","375","","","","match","","","","","","","","","","","","","","key","j","16.666959999999964","768","428","j","true","match","img/triangle.png","三角","三角","ALT1_1","prac_ALT1_1","","","","","","","","","","","",""
"null","<span style='color:GreenYellow; font-size: 70px;'>正确! </span>","null","html-keyboard-response","64","485765","0.0-7.0-0.0-1.0-0.0-1.27","4","4","4","4","4","4","3","2","4","4","5","5","4","4","4","5","5","5","5","4","1","2","2","1","1","1","4","4","1","0","1","0","0","0","1","0","1","1","0","1","0","1","0","0","5","1","1","2","1","1","5","2","2","2","1","776954102012973057","陈","375","","","","","","","","","","","","","","","","","","","","","","","","","","","","","","feedback_test","","","","","","","","","","","",""
"791","","j","psychophysics","65","487558","0.0-7.0-0.0-1.0-0.0-0.28","4","4","4","4","4","4","3","2","4","4","5","5","4","4","4","5","5","5","5","4","1","2","2","1","1","1","4","4","1","0","1","0","0","0","1","0","1","1","0","1","0","1","0","0","5","1","1","2","1","1","5","2","2","2","1","776954102012973057","陈","375","","","","match","","","","","","","","","","","","","","key","j","16.667179245283204","768","428","j","true","match","img/triangle.png","三角","三角","ALT1_1","prac_ALT1_1","","","","","","","","","","","",""
"null","<span style='color:GreenYellow; font-size: 70px;'>正确! </span>","null","html-keyboard-response","66","488061","0.0-7.0-0.0-1.0-0.0-1.28","4","4","4","4","4","4","3","2","4","4","5","5","4","4","4","5","5","5","5","4","1","2","2","1","1","1","4","4","1","0","1","0","0","0","1","0","1","1","0","1","0","1","0","0","5","1","1","2","1","1","5","2","2","2","1","776954102012973057","陈","375","","","","","","","","","","","","","","","","","","","","","","","","","","","","","","feedback_test","","","","","","","","","","","",""
"805","","f","psychophysics","67","489868","0.0-7.0-0.0-1.0-0.0-0.29","4","4","4","4","4","4","3","2","4","4","5","5","4","4","4","5","5","5","5","4","1","2","2","1","1","1","4","4","1","0","1","0","0","0","1","0","1","1","0","1","0","1","0","0","5","1","1","2","1","1","5","2","2","2","1","776954102012973057","陈","375","","","","nonmatch","","","","","","","","","","","","","","key","f","16.66714953271037","768","428","j","false","match","img/diamond.png","菱形","菱形","ALT1_1","prac_ALT1_1","","","","","","","","","","","",""
"null","<span style='color:red; font-size: 70px;'>错误! </span>","null","html-keyboard-response","68","490369","0.0-7.0-0.0-1.0-0.0-1.29","4","4","4","4","4","4","3","2","4","4","5","5","4","4","4","5","5","5","5","4","1","2","2","1","1","1","4","4","1","0","1","0","0","0","1","0","1","1","0","1","0","1","0","0","5","1","1","2","1","1","5","2","2","2","1","776954102012973057","陈","375","","","","","","","","","","","","","","","","","","","","","","","","","","","","","","feedback_test","","","","","","","","","","","",""
"566","","j","psychophysics","69","491937","0.0-7.0-0.0-1.0-0.0-0.30","4","4","4","4","4","4","3","2","4","4","5","5","4","4","4","5","5","5","5","4","1","2","2","1","1","1","4","4","1","0","1","0","0","0","1","0","1","1","0","1","0","1","0","0","5","1","1","2","1","1","5","2","2","2","1","776954102012973057","陈","375","","","","match","","","","","","","","","","","","","","key","j","16.667075268816582","768","428","f","false","nonmatch","img/pentagon.png","椭圆","五边","ALT1_1","prac_ALT1_1","","","","","","","","","","","",""
"null","<span style='color:red; font-size: 70px;'>错误! </span>","null","html-keyboard-response","70","492438","0.0-7.0-0.0-1.0-0.0-1.30","4","4","4","4","4","4","3","2","4","4","5","5","4","4","4","5","5","5","5","4","1","2","2","1","1","1","4","4","1","0","1","0","0","0","1","0","1","1","0","1","0","1","0","0","5","1","1","2","1","1","5","2","2","2","1","776954102012973057","陈","375","","","","","","","","","","","","","","","","","","","","","","","","","","","","","","feedback_test","","","","","","","","","","","",""
"832","","f","psychophysics","71","494272","0.0-7.0-0.0-1.0-0.0-0.31","4","4","4","4","4","4","3","2","4","4","5","5","4","4","4","5","5","5","5","4","1","2","2","1","1","1","4","4","1","0","1","0","0","0","1","0","1","1","0","1","0","1","0","0","5","1","1","2","1","1","5","2","2","2","1","776954102012973057","陈","375","","","","nonmatch","","","","","","","","","","","","","","key","f","16.6669633027525","768","428","f","true","nonmatch","img/ellipse.png","菱形","椭圆","ALT1_1","prac_ALT1_1","","","","","","","","","","","",""
"null","<span style='color:GreenYellow; font-size: 70px;'>正确! </span>","null","html-keyboard-response","72","494791","0.0-7.0-0.0-1.0-0.0-1.31","4","4","4","4","4","4","3","2","4","4","5","5","4","4","4","5","5","5","5","4","1","2","2","1","1","1","4","4","1","0","1","0","0","0","1","0","1","1","0","1","0","1","0","0","5","1","1","2","1","1","5","2","2","2","1","776954102012973057","陈","375","","","","","","","","","","","","","","","","","","","","","","","","","","","","","","feedback_test","","","","","","","","","","","",""
"659","","j","psychophysics","73","496451","0.0-7.0-0.0-1.0-0.0-0.32","4","4","4","4","4","4","3","2","4","4","5","5","4","4","4","5","5","5","5","4","1","2","2","1","1","1","4","4","1","0","1","0","0","0","1","0","1","1","0","1","0","1","0","0","5","1","1","2","1","1","5","2","2","2","1","776954102012973057","陈","375","","","","match","","","","","","","","","","","","","","key","j","16.666734693877217","768","428","j","true","match","img/ellipse.png","椭圆","椭圆","ALT1_1","prac_ALT1_1","","","","","","","","","","","",""
"null","<span style='color:GreenYellow; font-size: 70px;'>正确! </span>","null","html-keyboard-response","74","496953","0.0-7.0-0.0-1.0-0.0-1.32","4","4","4","4","4","4","3","2","4","4","5","5","4","4","4","5","5","5","5","4","1","2","2","1","1","1","4","4","1","0","1","0","0","0","1","0","1","1","0","1","0","1","0","0","5","1","1","2","1","1","5","2","2","2","1","776954102012973057","陈","375","","","","","","","","","","","","","","","","","","","","","","","","","","","","","","feedback_test","","","","","","","","","","","",""
"625","","f","psychophysics","75","498579","0.0-7.0-0.0-1.0-0.0-0.33","4","4","4","4","4","4","3","2","4","4","5","5","4","4","4","5","5","5","5","4","1","2","2","1","1","1","4","4","1","0","1","0","0","0","1","0","1","1","0","1","0","1","0","0","5","1","1","2","1","1","5","2","2","2","1","776954102012973057","陈","375","","","","nonmatch","","","","","","","","","","","","","","key","f","16.66689690721663","768","428","f","true","nonmatch","img/ellipse.png","三角","椭圆","ALT1_1","prac_ALT1_1","","","","","","","","","","","",""
"null","<span style='color:GreenYellow; font-size: 70px;'>正确! </span>","null","html-keyboard-response","76","499082","0.0-7.0-0.0-1.0-0.0-1.33","4","4","4","4","4","4","3","2","4","4","5","5","4","4","4","5","5","5","5","4","1","2","2","1","1","1","4","4","1","0","1","0","0","0","1","0","1","1","0","1","0","1","0","0","5","1","1","2","1","1","5","2","2","2","1","776954102012973057","陈","375","","","","","","","","","","","","","","","","","","","","","","","","","","","","","","feedback_test","","","","","","","","","","","",""
"1060","","f","psychophysics","77","501144","0.0-7.0-0.0-1.0-0.0-0.34","4","4","4","4","4","4","3","2","4","4","5","5","4","4","4","5","5","5","5","4","1","2","2","1","1","1","4","4","1","0","1","0","0","0","1","0","1","1","0","1","0","1","0","0","5","1","1","2","1","1","5","2","2","2","1","776954102012973057","陈","375","","","","nonmatch","","","","","","","","","","","","","","key","f","16.803418032786823","768","428","f","true","nonmatch","img/triangle.png","菱形","三角","ALT1_1","prac_ALT1_1","","","","","","","","","","","",""
"null","<span style='color:GreenYellow; font-size: 70px;'>正确! </span>","null","html-keyboard-response","78","501644","0.0-7.0-0.0-1.0-0.0-1.34","4","4","4","4","4","4","3","2","4","4","5","5","4","4","4","5","5","5","5","4","1","2","2","1","1","1","4","4","1","0","1","0","0","0","1","0","1","1","0","1","0","1","0","0","5","1","1","2","1","1","5","2","2","2","1","776954102012973057","陈","375","","","","","","","","","","","","","","","","","","","","","","","","","","","","","","feedback_test","","","","","","","","","","","",""
"598","","j","psychophysics","79","503244","0.0-7.0-0.0-1.0-0.0-0.35","4","4","4","4","4","4","3","2","4","4","5","5","4","4","4","5","5","5","5","4","1","2","2","1","1","1","4","4","1","0","1","0","0","0","1","0","1","1","0","1","0","1","0","0","5","1","1","2","1","1","5","2","2","2","1","776954102012973057","陈","375","","","","match","","","","","","","","","","","","","","key","j","16.667221052632176","768","428","j","true","match","img/pentagon.png","五边","五边","ALT1_1","prac_ALT1_1","","","","","","","","","","","",""
"null","<span style='color:GreenYellow; font-size: 70px;'>正确! </span>","null","html-keyboard-response","80","503747","0.0-7.0-0.0-1.0-0.0-1.35","4","4","4","4","4","4","3","2","4","4","5","5","4","4","4","5","5","5","5","4","1","2","2","1","1","1","4","4","1","0","1","0","0","0","1","0","1","1","0","1","0","1","0","0","5","1","1","2","1","1","5","2","2","2","1","776954102012973057","陈","375","","","","","","","","","","","","","","","","","","","","","","","","","","","","","","feedback_test","","","","","","","","","","","",""
"667","","f","psychophysics","81","505415","0.0-7.0-0.0-1.0-0.0-0.36","4","4","4","4","4","4","3","2","4","4","5","5","4","4","4","5","5","5","5","4","1","2","2","1","1","1","4","4","1","0","1","0","0","0","1","0","1","1","0","1","0","1","0","0","5","1","1","2","1","1","5","2","2","2","1","776954102012973057","陈","375","","","","nonmatch","","","","","","","","","","","","","","key","f","16.666848484847712","768","428","f","true","nonmatch","img/pentagon.png","菱形","五边","ALT1_1","prac_ALT1_1","","","","","","","","","","","",""
"null","<span style='color:GreenYellow; font-size: 70px;'>正确! </span>","null","html-keyboard-response","82","505917","0.0-7.0-0.0-1.0-0.0-1.36","4","4","4","4","4","4","3","2","4","4","5","5","4","4","4","5","5","5","5","4","1","2","2","1","1","1","4","4","1","0","1","0","0","0","1","0","1","1","0","1","0","1","0","0","5","1","1","2","1","1","5","2","2","2","1","776954102012973057","陈","375","","","","","","","","","","","","","","","","","","","","","","","","","","","","","","feedback_test","","","","","","","","","","","",""
"927","","f","psychophysics","83","507845","0.0-7.0-0.0-1.0-0.0-0.37","4","4","4","4","4","4","3","2","4","4","5","5","4","4","4","5","5","5","5","4","1","2","2","1","1","1","4","4","1","0","1","0","0","0","1","0","1","1","0","1","0","1","0","0","5","1","1","2","1","1","5","2","2","2","1","776954102012973057","陈","375","","","","nonmatch","","","","","","","","","","","","","","key","f","16.666852173912744","768","428","f","true","nonmatch","img/diamond.png","五边","菱形","ALT1_1","prac_ALT1_1","","","","","","","","","","","",""
"null","<span style='color:GreenYellow; font-size: 70px;'>正确! </span>","null","html-keyboard-response","84","508346","0.0-7.0-0.0-1.0-0.0-1.37","4","4","4","4","4","4","3","2","4","4","5","5","4","4","4","5","5","5","5","4","1","2","2","1","1","1","4","4","1","0","1","0","0","0","1","0","1","1","0","1","0","1","0","0","5","1","1","2","1","1","5","2","2","2","1","776954102012973057","陈","375","","","","","","","","","","","","","","","","","","","","","","","","","","","","","","feedback_test","","","","","","","","","","","",""
"897","","j","psychophysics","85","510245","0.0-7.0-0.0-1.0-0.0-0.38","4","4","4","4","4","4","3","2","4","4","5","5","4","4","4","5","5","5","5","4","1","2","2","1","1","1","4","4","1","0","1","0","0","0","1","0","1","1","0","1","0","1","0","0","5","1","1","2","1","1","5","2","2","2","1","776954102012973057","陈","375","","","","match","","","","","","","","","","","","","","key","j","16.666504424779298","768","428","j","true","match","img/diamond.png","菱形","菱形","ALT1_1","prac_ALT1_1","","","","","","","","","","","",""
"null","<span style='color:GreenYellow; font-size: 70px;'>正确! </span>","null","html-keyboard-response","86","510746","0.0-7.0-0.0-1.0-0.0-1.38","4","4","4","4","4","4","3","2","4","4","5","5","4","4","4","5","5","5","5","4","1","2","2","1","1","1","4","4","1","0","1","0","0","0","1","0","1","1","0","1","0","1","0","0","5","1","1","2","1","1","5","2","2","2","1","776954102012973057","陈","375","","","","","","","","","","","","","","","","","","","","","","","","","","","","","","feedback_test","","","","","","","","","","","",""
"668","","f","psychophysics","87","512416","0.0-7.0-0.0-1.0-0.0-0.39","4","4","4","4","4","4","3","2","4","4","5","5","4","4","4","5","5","5","5","4","1","2","2","1","1","1","4","4","1","0","1","0","0","0","1","0","1","1","0","1","0","1","0","0","5","1","1","2","1","1","5","2","2","2","1","776954102012973057","陈","375","","","","nonmatch","","","","","","","","","","","","","","key","f","16.66681818181832","768","428","f","true","nonmatch","img/triangle.png","五边","三角","ALT1_1","prac_ALT1_1","","","","","","","","","","","",""
"null","<span style='color:GreenYellow; font-size: 70px;'>正确! </span>","null","html-keyboard-response","88","512917","0.0-7.0-0.0-1.0-0.0-1.39","4","4","4","4","4","4","3","2","4","4","5","5","4","4","4","5","5","5","5","4","1","2","2","1","1","1","4","4","1","0","1","0","0","0","1","0","1","1","0","1","0","1","0","0","5","1","1","2","1","1","5","2","2","2","1","776954102012973057","陈","375","","","","","","","","","","","","","","","","","","","","","","","","","","","","","","feedback_test","","","","","","","","","","","",""
"742","","f","psychophysics","89","514660","0.0-7.0-0.0-1.0-0.0-0.40","4","4","4","4","4","4","3","2","4","4","5","5","4","4","4","5","5","5","5","4","1","2","2","1","1","1","4","4","1","0","1","0","0","0","1","0","1","1","0","1","0","1","0","0","5","1","1","2","1","1","5","2","2","2","1","776954102012973057","陈","375","","","","nonmatch","","","","","","","","","","","","","","key","f","16.666798076922603","768","428","f","true","nonmatch","img/diamond.png","椭圆","菱形","ALT1_1","prac_ALT1_1","","","","","","","","","","","",""
"null","<span style='color:GreenYellow; font-size: 70px;'>正确! </span>","null","html-keyboard-response","90","515163","0.0-7.0-0.0-1.0-0.0-1.40","4","4","4","4","4","4","3","2","4","4","5","5","4","4","4","5","5","5","5","4","1","2","2","1","1","1","4","4","1","0","1","0","0","0","1","0","1","1","0","1","0","1","0","0","5","1","1","2","1","1","5","2","2","2","1","776954102012973057","陈","375","","","","","","","","","","","","","","","","","","","","","","","","","","","","","","feedback_test","","","","","","","","","","","",""
"699","","j","psychophysics","91","516863","0.0-7.0-0.0-1.0-0.0-0.41","4","4","4","4","4","4","3","2","4","4","5","5","4","4","4","5","5","5","5","4","1","2","2","1","1","1","4","4","1","0","1","0","0","0","1","0","1","1","0","1","0","1","0","0","5","1","1","2","1","1","5","2","2","2","1","776954102012973057","陈","375","","","","match","","","","","","","","","","","","","","key","j","16.666782178217545","768","428","j","true","match","img/ellipse.png","椭圆","椭圆","ALT1_1","prac_ALT1_1","","","","","","","","","","","",""
"null","<span style='color:GreenYellow; font-size: 70px;'>正确! </span>","null","html-keyboard-response","92","517364","0.0-7.0-0.0-1.0-0.0-1.41","4","4","4","4","4","4","3","2","4","4","5","5","4","4","4","5","5","5","5","4","1","2","2","1","1","1","4","4","1","0","1","0","0","0","1","0","1","1","0","1","0","1","0","0","5","1","1","2","1","1","5","2","2","2","1","776954102012973057","陈","375","","","","","","","","","","","","","","","","","","","","","","","","","","","","","","feedback_test","","","","","","","","","","","",""
"686","","f","psychophysics","93","519052","0.0-7.0-0.0-1.0-0.0-0.42","4","4","4","4","4","4","3","2","4","4","5","5","4","4","4","5","5","5","5","4","1","2","2","1","1","1","4","4","1","0","1","0","0","0","1","0","1","1","0","1","0","1","0","0","5","1","1","2","1","1","5","2","2","2","1","776954102012973057","陈","375","","","","nonmatch","","","","","","","","","","","","","","key","f","16.66822999999975","768","428","f","true","nonmatch","img/triangle.png","椭圆","三角","ALT1_1","prac_ALT1_1","","","","","","","","","","","",""
"null","<span style='color:GreenYellow; font-size: 70px;'>正确! </span>","null","html-keyboard-response","94","519552","0.0-7.0-0.0-1.0-0.0-1.42","4","4","4","4","4","4","3","2","4","4","5","5","4","4","4","5","5","5","5","4","1","2","2","1","1","1","4","4","1","0","1","0","0","0","1","0","1","1","0","1","0","1","0","0","5","1","1","2","1","1","5","2","2","2","1","776954102012973057","陈","375","","","","","","","","","","","","","","","","","","","","","","","","","","","","","","feedback_test","","","","","","","","","","","",""
"637","","j","psychophysics","95","521191","0.0-7.0-0.0-1.0-0.0-0.43","4","4","4","4","4","4","3","2","4","4","5","5","4","4","4","5","5","5","5","4","1","2","2","1","1","1","4","4","1","0","1","0","0","0","1","0","1","1","0","1","0","1","0","0","5","1","1","2","1","1","5","2","2","2","1","776954102012973057","陈","375","","","","match","","","","","","","","","","","","","","key","j","16.666402061855102","768","428","j","true","match","img/pentagon.png","五边","五边","ALT1_1","prac_ALT1_1","","","","","","","","","","","",""
"null","<span style='color:GreenYellow; font-size: 70px;'>正确! </span>","null","html-keyboard-response","96","521694","0.0-7.0-0.0-1.0-0.0-1.43","4","4","4","4","4","4","3","2","4","4","5","5","4","4","4","5","5","5","5","4","1","2","2","1","1","1","4","4","1","0","1","0","0","0","1","0","1","1","0","1","0","1","0","0","5","1","1","2","1","1","5","2","2","2","1","776954102012973057","陈","375","","","","","","","","","","","","","","","","","","","","","","","","","","","","","","feedback_test","","","","","","","","","","","",""
"591","","f","psychophysics","97","523288","0.0-7.0-0.0-1.0-0.0-0.44","4","4","4","4","4","4","3","2","4","4","5","5","4","4","4","5","5","5","5","4","1","2","2","1","1","1","4","4","1","0","1","0","0","0","1","0","1","1","0","1","0","1","0","0","5","1","1","2","1","1","5","2","2","2","1","776954102012973057","陈","375","","","","nonmatch","","","","","","","","","","","","","","key","f","16.66658510638282","768","428","f","true","nonmatch","img/ellipse.png","五边","椭圆","ALT1_1","prac_ALT1_1","","","","","","","","","","","",""
"null","<span style='color:GreenYellow; font-size: 70px;'>正确! </span>","null","html-keyboard-response","98","523789","0.0-7.0-0.0-1.0-0.0-1.44","4","4","4","4","4","4","3","2","4","4","5","5","4","4","4","5","5","5","5","4","1","2","2","1","1","1","4","4","1","0","1","0","0","0","1","0","1","1","0","1","0","1","0","0","5","1","1","2","1","1","5","2","2","2","1","776954102012973057","陈","375","","","","","","","","","","","","","","","","","","","","","","","","","","","","","","feedback_test","","","","","","","","","","","",""
"841","","j","psychophysics","99","525633","0.0-7.0-0.0-1.0-0.0-0.45","4","4","4","4","4","4","3","2","4","4","5","5","4","4","4","5","5","5","5","4","1","2","2","1","1","1","4","4","1","0","1","0","0","0","1","0","1","1","0","1","0","1","0","0","5","1","1","2","1","1","5","2","2","2","1","776954102012973057","陈","375","","","","match","","","","","","","","","","","","","","key","j","16.66746363636339","768","428","j","true","match","img/diamond.png","菱形","菱形","ALT1_1","prac_ALT1_1","","","","","","","","","","","",""
"null","<span style='color:GreenYellow; font-size: 70px;'>正确! </span>","null","html-keyboard-response","100","526134","0.0-7.0-0.0-1.0-0.0-1.45","4","4","4","4","4","4","3","2","4","4","5","5","4","4","4","5","5","5","5","4","1","2","2","1","1","1","4","4","1","0","1","0","0","0","1","0","1","1","0","1","0","1","0","0","5","1","1","2","1","1","5","2","2","2","1","776954102012973057","陈","375","","","","","","","","","","","","","","","","","","","","","","","","","","","","","","feedback_test","","","","","","","","","","","",""
"604","","j","psychophysics","101","527741","0.0-7.0-0.0-1.0-0.0-0.46","4","4","4","4","4","4","3","2","4","4","5","5","4","4","4","5","5","5","5","4","1","2","2","1","1","1","4","4","1","0","1","0","0","0","1","0","1","1","0","1","0","1","0","0","5","1","1","2","1","1","5","2","2","2","1","776954102012973057","陈","375","","","","match","","","","","","","","","","","","","","key","j","16.667526315788642","768","428","j","true","match","img/ellipse.png","椭圆","椭圆","ALT1_1","prac_ALT1_1","","","","","","","","","","","",""
"null","<span style='color:GreenYellow; font-size: 70px;'>正确! </span>","null","html-keyboard-response","102","528242","0.0-7.0-0.0-1.0-0.0-1.46","4","4","4","4","4","4","3","2","4","4","5","5","4","4","4","5","5","5","5","4","1","2","2","1","1","1","4","4","1","0","1","0","0","0","1","0","1","1","0","1","0","1","0","0","5","1","1","2","1","1","5","2","2","2","1","776954102012973057","陈","375","","","","","","","","","","","","","","","","","","","","","","","","","","","","","","feedback_test","","","","","","","","","","","",""
"785","","f","psychophysics","103","530030","0.0-7.0-0.0-1.0-0.0-0.47","4","4","4","4","4","4","3","2","4","4","5","5","4","4","4","5","5","5","5","4","1","2","2","1","1","1","4","4","1","0","1","0","0","0","1","0","1","1","0","1","0","1","0","0","5","1","1","2","1","1","5","2","2","2","1","776954102012973057","陈","375","","","","nonmatch","","","","","","","","","","","","","","key","f","16.666754716980922","768","428","f","true","nonmatch","img/diamond.png","三角","菱形","ALT1_1","prac_ALT1_1","","","","","","","","","","","",""
"null","<span style='color:GreenYellow; font-size: 70px;'>正确! </span>","null","html-keyboard-response","104","530530","0.0-7.0-0.0-1.0-0.0-1.47","4","4","4","4","4","4","3","2","4","4","5","5","4","4","4","5","5","5","5","4","1","2","2","1","1","1","4","4","1","0","1","0","0","0","1","0","1","1","0","1","0","1","0","0","5","1","1","2","1","1","5","2","2","2","1","776954102012973057","陈","375","","","","","","","","","","","","","","","","","","","","","","","","","","","","","","feedback_test","","","","","","","","","","","",""
"24376","<style>.context{color:white; font-size: 35px; line-height:40px}</style>                            <div><p class='context'>您正确回答了88% 的试次。</p><p class='context'>您的平均反应时为770毫秒。</p><p class='context'>恭喜您完成练习。按空格键进入正式实验。</p><p class='footer' style='font-size: 35px; line-height:40px;'>请在进入正式实验之前将您的<span style='color: lightgreen;'>食指</span>放在电脑键盘的相应键位上进行按键。</p>"," ","html-keyboard-response","105","554908","0.0-7.0-0.0-2.0","4","4","4","4","4","4","3","2","4","4","5","5","4","4","4","5","5","5","5","4","1","2","2","1","1","1","4","4","1","0","1","0","0","0","1","0","1","1","0","1","0","1","0","0","5","1","1","2","1","1","5","2","2","2","1","776954102012973057","陈","375","","","","","","","","","","","","","","","","","","","","","","","","","","","","","","","","","","","","","","","","","",""
"1666","
    <p style='color: white; font-size: 22px'>请您将手指放在按键上，准备进入正式的匹配任务。</p>
    <p> <div style = ""color: green""><按空格键进入下一阶段的匹配任务></div></p>
    "," ","html-keyboard-response","106","556577","0.0-7.0-0.0-3.0","4","4","4","4","4","4","3","2","4","4","5","5","4","4","4","5","5","5","5","4","1","2","2","1","1","1","4","4","1","0","1","0","0","0","1","0","1","1","0","1","0","1","0","0","5","1","1","2","1","1","5","2","2","2","1","776954102012973057","陈","375","","","","","","","","","","","","","","","","","","","","","","","","","","","","","","","","","","","","","","","","","",""
"720","","f","psychophysics","107","558299","0.0-7.0-0.0-4.0-0.0-0.0","4","4","4","4","4","4","3","2","4","4","5","5","4","4","4","5","5","5","5","4","1","2","2","1","1","1","4","4","1","0","1","0","0","0","1","0","1","1","0","1","0","1","0","0","5","1","1","2","1","1","5","2","2","2","1","776954102012973057","陈","375","","","","nonmatch","","","","","","","","","","","","","","key","f","17.000740000000224","768","428","f","true","nonmatch","img/ellipse.png","五边","椭圆","ALT1","formal_ALT1_1","","","","","","","","","","","",""
"null","<span style='color:GreenYellow; font-size: 70px;'>正确! </span>","null","html-keyboard-response","108","558801","0.0-7.0-0.0-4.0-0.0-1.0","4","4","4","4","4","4","3","2","4","4","5","5","4","4","4","5","5","5","5","4","1","2","2","1","1","1","4","4","1","0","1","0","0","0","1","0","1","1","0","1","0","1","0","0","5","1","1","2","1","1","5","2","2","2","1","776954102012973057","陈","375","","","","","","","","","","","","","","","","","","","","","","","","","","","","","","feedback_test","","","","","","","","","","","",""
"793","","j","psychophysics","109","560596","0.0-7.0-0.0-4.0-0.0-0.1","4","4","4","4","4","4","3","2","4","4","5","5","4","4","4","5","5","5","5","4","1","2","2","1","1","1","4","4","1","0","1","0","0","0","1","0","1","1","0","1","0","1","0","0","5","1","1","2","1","1","5","2","2","2","1","776954102012973057","陈","375","","","","match","","","","","","","","","","","","","","key","j","16.66714018691662","768","428","j","true","match","img/triangle.png","三角","三角","ALT1","formal_ALT1_1","","","","","","","","","","","",""
"null","<span style='color:GreenYellow; font-size: 70px;'>正确! </span>","null","html-keyboard-response","110","561096","0.0-7.0-0.0-4.0-0.0-1.1","4","4","4","4","4","4","3","2","4","4","5","5","4","4","4","5","5","5","5","4","1","2","2","1","1","1","4","4","1","0","1","0","0","0","1","0","1","1","0","1","0","1","0","0","5","1","1","2","1","1","5","2","2","2","1","776954102012973057","陈","375","","","","","","","","","","","","","","","","","","","","","","","","","","","","","","feedback_test","","","","","","","","","","","",""
"647","","f","psychophysics","111","562746","0.0-7.0-0.0-4.0-0.0-0.2","4","4","4","4","4","4","3","2","4","4","5","5","4","4","4","5","5","5","5","4","1","2","2","1","1","1","4","4","1","0","1","0","0","0","1","0","1","1","0","1","0","1","0","0","5","1","1","2","1","1","5","2","2","2","1","776954102012973057","陈","375","","","","nonmatch","","","","","","","","","","","","","","key","f","16.666877551019734","768","428","j","false","match","img/diamond.png","菱形","菱形","ALT1","formal_ALT1_1","","","","","","","","","","","",""
"null","<span style='color:red; font-size: 70px;'>错误! </span>","null","html-keyboard-response","112","563249","0.0-7.0-0.0-4.0-0.0-1.2","4","4","4","4","4","4","3","2","4","4","5","5","4","4","4","5","5","5","5","4","1","2","2","1","1","1","4","4","1","0","1","0","0","0","1","0","1","1","0","1","0","1","0","0","5","1","1","2","1","1","5","2","2","2","1","776954102012973057","陈","375","","","","","","","","","","","","","","","","","","","","","","","","","","","","","","feedback_test","","","","","","","","","","","",""
"679","","f","psychophysics","113","564929","0.0-7.0-0.0-4.0-0.0-0.3","4","4","4","4","4","4","3","2","4","4","5","5","4","4","4","5","5","5","5","4","1","2","2","1","1","1","4","4","1","0","1","0","0","0","1","0","1","1","0","1","0","1","0","0","5","1","1","2","1","1","5","2","2","2","1","776954102012973057","陈","375","","","","nonmatch","","","","","","","","","","","","","","key","f","16.667120000000576","768","428","f","true","nonmatch","img/pentagon.png","椭圆","五边","ALT1","formal_ALT1_1","","","","","","","","","","","",""
"null","<span style='color:GreenYellow; font-size: 70px;'>正确! </span>","null","html-keyboard-response","114","565432","0.0-7.0-0.0-4.0-0.0-1.3","4","4","4","4","4","4","3","2","4","4","5","5","4","4","4","5","5","5","5","4","1","2","2","1","1","1","4","4","1","0","1","0","0","0","1","0","1","1","0","1","0","1","0","0","5","1","1","2","1","1","5","2","2","2","1","776954102012973057","陈","375","","","","","","","","","","","","","","","","","","","","","","","","","","","","","","feedback_test","","","","","","","","","","","",""
"831","","f","psychophysics","115","567265","0.0-7.0-0.0-4.0-0.0-0.4","4","4","4","4","4","4","3","2","4","4","5","5","4","4","4","5","5","5","5","4","1","2","2","1","1","1","4","4","1","0","1","0","0","0","1","0","1","1","0","1","0","1","0","0","5","1","1","2","1","1","5","2","2","2","1","776954102012973057","陈","375","","","","nonmatch","","","","","","","","","","","","","","key","f","16.66655963302778","768","428","f","true","nonmatch","img/ellipse.png","菱形","椭圆","ALT1","formal_ALT1_1","","","","","","","","","","","",""
"null","<span style='color:GreenYellow; font-size: 70px;'>正确! </span>","null","html-keyboard-response","116","567767","0.0-7.0-0.0-4.0-0.0-1.4","4","4","4","4","4","4","3","2","4","4","5","5","4","4","4","5","5","5","5","4","1","2","2","1","1","1","4","4","1","0","1","0","0","0","1","0","1","1","0","1","0","1","0","0","5","1","1","2","1","1","5","2","2","2","1","776954102012973057","陈","375","","","","","","","","","","","","","","","","","","","","","","","","","","","","","","feedback_test","","","","","","","","","","","",""
"708","","j","psychophysics","117","569477","0.0-7.0-0.0-4.0-0.0-0.5","4","4","4","4","4","4","3","2","4","4","5","5","4","4","4","5","5","5","5","4","1","2","2","1","1","1","4","4","1","0","1","0","0","0","1","0","1","1","0","1","0","1","0","0","5","1","1","2","1","1","5","2","2","2","1","776954102012973057","陈","375","","","","match","","","","","","","","","","","","","","key","j","16.66706862745067","768","428","j","true","match","img/ellipse.png","椭圆","椭圆","ALT1","formal_ALT1_1","","","","","","","","","","","",""
"null","<span style='color:GreenYellow; font-size: 70px;'>正确! </span>","null","html-keyboard-response","118","569980","0.0-7.0-0.0-4.0-0.0-1.5","4","4","4","4","4","4","3","2","4","4","5","5","4","4","4","5","5","5","5","4","1","2","2","1","1","1","4","4","1","0","1","0","0","0","1","0","1","1","0","1","0","1","0","0","5","1","1","2","1","1","5","2","2","2","1","776954102012973057","陈","375","","","","","","","","","","","","","","","","","","","","","","","","","","","","","","feedback_test","","","","","","","","","","","",""
"674","","f","psychophysics","119","571656","0.0-7.0-0.0-4.0-0.0-0.6","4","4","4","4","4","4","3","2","4","4","5","5","4","4","4","5","5","5","5","4","1","2","2","1","1","1","4","4","1","0","1","0","0","0","1","0","1","1","0","1","0","1","0","0","5","1","1","2","1","1","5","2","2","2","1","776954102012973057","陈","375","","","","nonmatch","","","","","","","","","","","","","","key","f","16.666909090908845","768","428","f","true","nonmatch","img/pentagon.png","三角","五边","ALT1","formal_ALT1_1","","","","","","","","","","","",""
"null","<span style='color:GreenYellow; font-size: 70px;'>正确! </span>","null","html-keyboard-response","120","572157","0.0-7.0-0.0-4.0-0.0-1.6","4","4","4","4","4","4","3","2","4","4","5","5","4","4","4","5","5","5","5","4","1","2","2","1","1","1","4","4","1","0","1","0","0","0","1","0","1","1","0","1","0","1","0","0","5","1","1","2","1","1","5","2","2","2","1","776954102012973057","陈","375","","","","","","","","","","","","","","","","","","","","","","","","","","","","","","feedback_test","","","","","","","","","","","",""
"640","","j","psychophysics","121","573798","0.0-7.0-0.0-4.0-0.0-0.7","4","4","4","4","4","4","3","2","4","4","5","5","4","4","4","5","5","5","5","4","1","2","2","1","1","1","4","4","1","0","1","0","0","0","1","0","1","1","0","1","0","1","0","0","5","1","1","2","1","1","5","2","2","2","1","776954102012973057","陈","375","","","","match","","","","","","","","","","","","","","key","j","16.666577319586985","768","428","j","true","match","img/ellipse.png","椭圆","椭圆","ALT1","formal_ALT1_1","","","","","","","","","","","",""
"null","<span style='color:GreenYellow; font-size: 70px;'>正确! </span>","null","html-keyboard-response","122","574300","0.0-7.0-0.0-4.0-0.0-1.7","4","4","4","4","4","4","3","2","4","4","5","5","4","4","4","5","5","5","5","4","1","2","2","1","1","1","4","4","1","0","1","0","0","0","1","0","1","1","0","1","0","1","0","0","5","1","1","2","1","1","5","2","2","2","1","776954102012973057","陈","375","","","","","","","","","","","","","","","","","","","","","","","","","","","","","","feedback_test","","","","","","","","","","","",""
"741","","j","psychophysics","123","576042","0.0-7.0-0.0-4.0-0.0-0.8","4","4","4","4","4","4","3","2","4","4","5","5","4","4","4","5","5","5","5","4","1","2","2","1","1","1","4","4","1","0","1","0","0","0","1","0","1","1","0","1","0","1","0","0","5","1","1","2","1","1","5","2","2","2","1","776954102012973057","陈","375","","","","match","","","","","","","","","","","","","","key","j","16.665932038835095","768","428","j","true","match","img/diamond.png","菱形","菱形","ALT1","formal_ALT1_1","","","","","","","","","","","",""
"null","<span style='color:GreenYellow; font-size: 70px;'>正确! </span>","null","html-keyboard-response","124","576543","0.0-7.0-0.0-4.0-0.0-1.8","4","4","4","4","4","4","3","2","4","4","5","5","4","4","4","5","5","5","5","4","1","2","2","1","1","1","4","4","1","0","1","0","0","0","1","0","1","1","0","1","0","1","0","0","5","1","1","2","1","1","5","2","2","2","1","776954102012973057","陈","375","","","","","","","","","","","","","","","","","","","","","","","","","","","","","","feedback_test","","","","","","","","","","","",""
"636","","f","psychophysics","125","578181","0.0-7.0-0.0-4.0-0.0-0.9","4","4","4","4","4","4","3","2","4","4","5","5","4","4","4","5","5","5","5","4","1","2","2","1","1","1","4","4","1","0","1","0","0","0","1","0","1","1","0","1","0","1","0","0","5","1","1","2","1","1","5","2","2","2","1","776954102012973057","陈","375","","","","nonmatch","","","","","","","","","","","","","","key","f","16.666494845361065","768","428","f","true","nonmatch","img/ellipse.png","三角","椭圆","ALT1","formal_ALT1_1","","","","","","","","","","","",""
"null","<span style='color:GreenYellow; font-size: 70px;'>正确! </span>","null","html-keyboard-response","126","578682","0.0-7.0-0.0-4.0-0.0-1.9","4","4","4","4","4","4","3","2","4","4","5","5","4","4","4","5","5","5","5","4","1","2","2","1","1","1","4","4","1","0","1","0","0","0","1","0","1","1","0","1","0","1","0","0","5","1","1","2","1","1","5","2","2","2","1","776954102012973057","陈","375","","","","","","","","","","","","","","","","","","","","","","","","","","","","","","feedback_test","","","","","","","","","","","",""
"779","","f","psychophysics","127","580464","0.0-7.0-0.0-4.0-0.0-0.10","4","4","4","4","4","4","3","2","4","4","5","5","4","4","4","5","5","5","5","4","1","2","2","1","1","1","4","4","1","0","1","0","0","0","1","0","1","1","0","1","0","1","0","0","5","1","1","2","1","1","5","2","2","2","1","776954102012973057","陈","375","","","","nonmatch","","","","","","","","","","","","","","key","f","16.666830188679324","768","428","f","true","nonmatch","img/triangle.png","菱形","三角","ALT1","formal_ALT1_1","","","","","","","","","","","",""
"null","<span style='color:GreenYellow; font-size: 70px;'>正确! </span>","null","html-keyboard-response","128","580964","0.0-7.0-0.0-4.0-0.0-1.10","4","4","4","4","4","4","3","2","4","4","5","5","4","4","4","5","5","5","5","4","1","2","2","1","1","1","4","4","1","0","1","0","0","0","1","0","1","1","0","1","0","1","0","0","5","1","1","2","1","1","5","2","2","2","1","776954102012973057","陈","375","","","","","","","","","","","","","","","","","","","","","","","","","","","","","","feedback_test","","","","","","","","","","","",""
"641","","j","psychophysics","129","582607","0.0-7.0-0.0-4.0-0.0-0.11","4","4","4","4","4","4","3","2","4","4","5","5","4","4","4","5","5","5","5","4","1","2","2","1","1","1","4","4","1","0","1","0","0","0","1","0","1","1","0","1","0","1","0","0","5","1","1","2","1","1","5","2","2","2","1","776954102012973057","陈","375","","","","match","","","","","","","","","","","","","","key","j","16.66702061855671","768","428","j","true","match","img/diamond.png","菱形","菱形","ALT1","formal_ALT1_1","","","","","","","","","","","",""
"null","<span style='color:GreenYellow; font-size: 70px;'>正确! </span>","null","html-keyboard-response","130","583109","0.0-7.0-0.0-4.0-0.0-1.11","4","4","4","4","4","4","3","2","4","4","5","5","4","4","4","5","5","5","5","4","1","2","2","1","1","1","4","4","1","0","1","0","0","0","1","0","1","1","0","1","0","1","0","0","5","1","1","2","1","1","5","2","2","2","1","776954102012973057","陈","375","","","","","","","","","","","","","","","","","","","","","","","","","","","","","","feedback_test","","","","","","","","","","","",""
"718","","f","psychophysics","131","584828","0.0-7.0-0.0-4.0-0.0-0.12","4","4","4","4","4","4","3","2","4","4","5","5","4","4","4","5","5","5","5","4","1","2","2","1","1","1","4","4","1","0","1","0","0","0","1","0","1","1","0","1","0","1","0","0","5","1","1","2","1","1","5","2","2","2","1","776954102012973057","陈","375","","","","nonmatch","","","","","","","","","","","","","","key","f","16.666715686274557","768","428","f","true","nonmatch","img/triangle.png","椭圆","三角","ALT1","formal_ALT1_1","","","","","","","","","","","",""
"null","<span style='color:GreenYellow; font-size: 70px;'>正确! </span>","null","html-keyboard-response","132","585330","0.0-7.0-0.0-4.0-0.0-1.12","4","4","4","4","4","4","3","2","4","4","5","5","4","4","4","5","5","5","5","4","1","2","2","1","1","1","4","4","1","0","1","0","0","0","1","0","1","1","0","1","0","1","0","0","5","1","1","2","1","1","5","2","2","2","1","776954102012973057","陈","375","","","","","","","","","","","","","","","","","","","","","","","","","","","","","","feedback_test","","","","","","","","","","","",""
"570","","j","psychophysics","133","586902","0.0-7.0-0.0-4.0-0.0-0.13","4","4","4","4","4","4","3","2","4","4","5","5","4","4","4","5","5","5","5","4","1","2","2","1","1","1","4","4","1","0","1","0","0","0","1","0","1","1","0","1","0","1","0","0","5","1","1","2","1","1","5","2","2","2","1","776954102012973057","陈","375","","","","match","","","","","","","","","","","","","","key","j","16.666774193548488","768","428","j","true","match","img/pentagon.png","五边","五边","ALT1","formal_ALT1_1","","","","","","","","","","","",""
"null","<span style='color:GreenYellow; font-size: 70px;'>正确! </span>","null","html-keyboard-response","134","587403","0.0-7.0-0.0-4.0-0.0-1.13","4","4","4","4","4","4","3","2","4","4","5","5","4","4","4","5","5","5","5","4","1","2","2","1","1","1","4","4","1","0","1","0","0","0","1","0","1","1","0","1","0","1","0","0","5","1","1","2","1","1","5","2","2","2","1","776954102012973057","陈","375","","","","","","","","","","","","","","","","","","","","","","","","","","","","","","feedback_test","","","","","","","","","","","",""
"624","","j","psychophysics","135","589028","0.0-7.0-0.0-4.0-0.0-0.14","4","4","4","4","4","4","3","2","4","4","5","5","4","4","4","5","5","5","5","4","1","2","2","1","1","1","4","4","1","0","1","0","0","0","1","0","1","1","0","1","0","1","0","0","5","1","1","2","1","1","5","2","2","2","1","776954102012973057","陈","375","","","","match","","","","","","","","","","","","","","key","j","16.666814432989508","768","428","j","true","match","img/triangle.png","三角","三角","ALT1","formal_ALT1_1","","","","","","","","","","","",""
"null","<span style='color:GreenYellow; font-size: 70px;'>正确! </span>","null","html-keyboard-response","136","589531","0.0-7.0-0.0-4.0-0.0-1.14","4","4","4","4","4","4","3","2","4","4","5","5","4","4","4","5","5","5","5","4","1","2","2","1","1","1","4","4","1","0","1","0","0","0","1","0","1","1","0","1","0","1","0","0","5","1","1","2","1","1","5","2","2","2","1","776954102012973057","陈","375","","","","","","","","","","","","","","","","","","","","","","","","","","","","","","feedback_test","","","","","","","","","","","",""
"890","","f","psychophysics","137","591422","0.0-7.0-0.0-4.0-0.0-0.15","4","4","4","4","4","4","3","2","4","4","5","5","4","4","4","5","5","5","5","4","1","2","2","1","1","1","4","4","1","0","1","0","0","0","1","0","1","1","0","1","0","1","0","0","5","1","1","2","1","1","5","2","2","2","1","776954102012973057","陈","375","","","","nonmatch","","","","","","","","","","","","","","key","f","16.666964285714908","768","428","f","true","nonmatch","img/diamond.png","五边","菱形","ALT1","formal_ALT1_1","","","","","","","","","","","",""
"null","<span style='color:GreenYellow; font-size: 70px;'>正确! </span>","null","html-keyboard-response","138","591924","0.0-7.0-0.0-4.0-0.0-1.15","4","4","4","4","4","4","3","2","4","4","5","5","4","4","4","5","5","5","5","4","1","2","2","1","1","1","4","4","1","0","1","0","0","0","1","0","1","1","0","1","0","1","0","0","5","1","1","2","1","1","5","2","2","2","1","776954102012973057","陈","375","","","","","","","","","","","","","","","","","","","","","","","","","","","","","","feedback_test","","","","","","","","","","","",""
"788","","f","psychophysics","139","593712","0.0-7.0-0.0-4.0-0.0-0.16","4","4","4","4","4","4","3","2","4","4","5","5","4","4","4","5","5","5","5","4","1","2","2","1","1","1","4","4","1","0","1","0","0","0","1","0","1","1","0","1","0","1","0","0","5","1","1","2","1","1","5","2","2","2","1","776954102012973057","陈","375","","","","nonmatch","","","","","","","","","","","","","","key","f","16.666594339622502","768","428","f","true","nonmatch","img/diamond.png","三角","菱形","ALT1","formal_ALT1_1","","","","","","","","","","","",""
"null","<span style='color:GreenYellow; font-size: 70px;'>正确! </span>","null","html-keyboard-response","140","594213","0.0-7.0-0.0-4.0-0.0-1.16","4","4","4","4","4","4","3","2","4","4","5","5","4","4","4","5","5","5","5","4","1","2","2","1","1","1","4","4","1","0","1","0","0","0","1","0","1","1","0","1","0","1","0","0","5","1","1","2","1","1","5","2","2","2","1","776954102012973057","陈","375","","","","","","","","","","","","","","","","","","","","","","","","","","","","","","feedback_test","","","","","","","","","","","",""
"643","","j","psychophysics","141","595857","0.0-7.0-0.0-4.0-0.0-0.17","4","4","4","4","4","4","3","2","4","4","5","5","4","4","4","5","5","5","5","4","1","2","2","1","1","1","4","4","1","0","1","0","0","0","1","0","1","1","0","1","0","1","0","0","5","1","1","2","1","1","5","2","2","2","1","776954102012973057","陈","375","","","","match","","","","","","","","","","","","","","key","j","16.665443298968572","768","428","j","true","match","img/pentagon.png","五边","五边","ALT1","formal_ALT1_1","","","","","","","","","","","",""
"null","<span style='color:GreenYellow; font-size: 70px;'>正确! </span>","null","html-keyboard-response","142","596359","0.0-7.0-0.0-4.0-0.0-1.17","4","4","4","4","4","4","3","2","4","4","5","5","4","4","4","5","5","5","5","4","1","2","2","1","1","1","4","4","1","0","1","0","0","0","1","0","1","1","0","1","0","1","0","0","5","1","1","2","1","1","5","2","2","2","1","776954102012973057","陈","375","","","","","","","","","","","","","","","","","","","","","","","","","","","","","","feedback_test","","","","","","","","","","","",""
"610","","j","psychophysics","143","597972","0.0-7.0-0.0-4.0-0.0-0.18","4","4","4","4","4","4","3","2","4","4","5","5","4","4","4","5","5","5","5","4","1","2","2","1","1","1","4","4","1","0","1","0","0","0","1","0","1","1","0","1","0","1","0","0","5","1","1","2","1","1","5","2","2","2","1","776954102012973057","陈","375","","","","match","","","","","","","","","","","","","","key","j","16.666031578947837","768","428","j","true","match","img/pentagon.png","五边","五边","ALT1","formal_ALT1_1","","","","","","","","","","","",""
"null","<span style='color:GreenYellow; font-size: 70px;'>正确! </span>","null","html-keyboard-response","144","598474","0.0-7.0-0.0-4.0-0.0-1.18","4","4","4","4","4","4","3","2","4","4","5","5","4","4","4","5","5","5","5","4","1","2","2","1","1","1","4","4","1","0","1","0","0","0","1","0","1","1","0","1","0","1","0","0","5","1","1","2","1","1","5","2","2","2","1","776954102012973057","陈","375","","","","","","","","","","","","","","","","","","","","","","","","","","","","","","feedback_test","","","","","","","","","","","",""
"747","","f","psychophysics","145","600222","0.0-7.0-0.0-4.0-0.0-0.19","4","4","4","4","4","4","3","2","4","4","5","5","4","4","4","5","5","5","5","4","1","2","2","1","1","1","4","4","1","0","1","0","0","0","1","0","1","1","0","1","0","1","0","0","5","1","1","2","1","1","5","2","2","2","1","776954102012973057","陈","375","","","","nonmatch","","","","","","","","","","","","","","key","f","16.666864077670237","768","428","f","true","nonmatch","img/triangle.png","五边","三角","ALT1","formal_ALT1_1","","","","","","","","","","","",""
"null","<span style='color:GreenYellow; font-size: 70px;'>正确! </span>","null","html-keyboard-response","146","600724","0.0-7.0-0.0-4.0-0.0-1.19","4","4","4","4","4","4","3","2","4","4","5","5","4","4","4","5","5","5","5","4","1","2","2","1","1","1","4","4","1","0","1","0","0","0","1","0","1","1","0","1","0","1","0","0","5","1","1","2","1","1","5","2","2","2","1","776954102012973057","陈","375","","","","","","","","","","","","","","","","","","","","","","","","","","","","","","feedback_test","","","","","","","","","","","",""
"812","","f","psychophysics","147","602538","0.0-7.0-0.0-4.0-0.0-0.20","4","4","4","4","4","4","3","2","4","4","5","5","4","4","4","5","5","5","5","4","1","2","2","1","1","1","4","4","1","0","1","0","0","0","1","0","1","1","0","1","0","1","0","0","5","1","1","2","1","1","5","2","2","2","1","776954102012973057","陈","375","","","","nonmatch","","","","","","","","","","","","","","key","f","16.66659813084113","768","428","f","true","nonmatch","img/diamond.png","椭圆","菱形","ALT1","formal_ALT1_1","","","","","","","","","","","",""
"null","<span style='color:GreenYellow; font-size: 70px;'>正确! </span>","null","html-keyboard-response","148","603041","0.0-7.0-0.0-4.0-0.0-1.20","4","4","4","4","4","4","3","2","4","4","5","5","4","4","4","5","5","5","5","4","1","2","2","1","1","1","4","4","1","0","1","0","0","0","1","0","1","1","0","1","0","1","0","0","5","1","1","2","1","1","5","2","2","2","1","776954102012973057","陈","375","","","","","","","","","","","","","","","","","","","","","","","","","","","","","","feedback_test","","","","","","","","","","","",""
"817","","j","psychophysics","149","604858","0.0-7.0-0.0-4.0-0.0-0.21","4","4","4","4","4","4","3","2","4","4","5","5","4","4","4","5","5","5","5","4","1","2","2","1","1","1","4","4","1","0","1","0","0","0","1","0","1","1","0","1","0","1","0","0","5","1","1","2","1","1","5","2","2","2","1","776954102012973057","陈","375","","","","match","","","","","","","","","","","","","","key","j","16.666777777777664","768","428","j","true","match","img/ellipse.png","椭圆","椭圆","ALT1","formal_ALT1_1","","","","","","","","","","","",""
"null","<span style='color:GreenYellow; font-size: 70px;'>正确! </span>","null","html-keyboard-response","150","605360","0.0-7.0-0.0-4.0-0.0-1.21","4","4","4","4","4","4","3","2","4","4","5","5","4","4","4","5","5","5","5","4","1","2","2","1","1","1","4","4","1","0","1","0","0","0","1","0","1","1","0","1","0","1","0","0","5","1","1","2","1","1","5","2","2","2","1","776954102012973057","陈","375","","","","","","","","","","","","","","","","","","","","","","","","","","","","","","feedback_test","","","","","","","","","","","",""
"621","","j","psychophysics","151","606983","0.0-7.0-0.0-4.0-0.0-0.22","4","4","4","4","4","4","3","2","4","4","5","5","4","4","4","5","5","5","5","4","1","2","2","1","1","1","4","4","1","0","1","0","0","0","1","0","1","1","0","1","0","1","0","0","5","1","1","2","1","1","5","2","2","2","1","776954102012973057","陈","375","","","","match","","","","","","","","","","","","","","key","j","16.667072916667774","768","428","f","false","nonmatch","img/pentagon.png","菱形","五边","ALT1","formal_ALT1_1","","","","","","","","","","","",""
"null","<span style='color:red; font-size: 70px;'>错误! </span>","null","html-keyboard-response","152","607484","0.0-7.0-0.0-4.0-0.0-1.22","4","4","4","4","4","4","3","2","4","4","5","5","4","4","4","5","5","5","5","4","1","2","2","1","1","1","4","4","1","0","1","0","0","0","1","0","1","1","0","1","0","1","0","0","5","1","1","2","1","1","5","2","2","2","1","776954102012973057","陈","375","","","","","","","","","","","","","","","","","","","","","","","","","","","","","","feedback_test","","","","","","","","","","","",""
"651","","j","psychophysics","153","609137","0.0-7.0-0.0-4.0-0.0-0.23","4","4","4","4","4","4","3","2","4","4","5","5","4","4","4","5","5","5","5","4","1","2","2","1","1","1","4","4","1","0","1","0","0","0","1","0","1","1","0","1","0","1","0","0","5","1","1","2","1","1","5","2","2","2","1","776954102012973057","陈","375","","","","match","","","","","","","","","","","","","","key","j","16.666734693877217","768","428","j","true","match","img/triangle.png","三角","三角","ALT1","formal_ALT1_1","","","","","","","","","","","",""
"null","<span style='color:GreenYellow; font-size: 70px;'>正确! </span>","null","html-keyboard-response","154","609640","0.0-7.0-0.0-4.0-0.0-1.23","4","4","4","4","4","4","3","2","4","4","5","5","4","4","4","5","5","5","5","4","1","2","2","1","1","1","4","4","1","0","1","0","0","0","1","0","1","1","0","1","0","1","0","0","5","1","1","2","1","1","5","2","2","2","1","776954102012973057","陈","375","","","","","","","","","","","","","","","","","","","","","","","","","","","","","","feedback_test","","","","","","","","","","","",""
"598","","j","psychophysics","155","611240","0.0-7.0-0.0-4.0-0.0-0.24","4","4","4","4","4","4","3","2","4","4","5","5","4","4","4","5","5","5","5","4","1","2","2","1","1","1","4","4","1","0","1","0","0","0","1","0","1","1","0","1","0","1","0","0","5","1","1","2","1","1","5","2","2","2","1","776954102012973057","陈","375","","","","match","","","","","","","","","","","","","","key","j","16.667159574467966","768","428","j","true","match","img/triangle.png","三角","三角","ALT1","formal_ALT1_1","","","","","","","","","","","",""
"null","<span style='color:GreenYellow; font-size: 70px;'>正确! </span>","null","html-keyboard-response","156","611741","0.0-7.0-0.0-4.0-0.0-1.24","4","4","4","4","4","4","3","2","4","4","5","5","4","4","4","5","5","5","5","4","1","2","2","1","1","1","4","4","1","0","1","0","0","0","1","0","1","1","0","1","0","1","0","0","5","1","1","2","1","1","5","2","2","2","1","776954102012973057","陈","375","","","","","","","","","","","","","","","","","","","","","","","","","","","","","","feedback_test","","","","","","","","","","","",""
"736","","f","psychophysics","157","613480","0.0-7.0-0.0-4.0-0.0-0.25","4","4","4","4","4","4","3","2","4","4","5","5","4","4","4","5","5","5","5","4","1","2","2","1","1","1","4","4","1","0","1","0","0","0","1","0","1","1","0","1","0","1","0","0","5","1","1","2","1","1","5","2","2","2","1","776954102012973057","陈","375","","","","nonmatch","","","","","","","","","","","","","","key","f","16.667009708738334","768","428","f","true","nonmatch","img/triangle.png","五边","三角","ALT1","formal_ALT1_1","","","","","","","","","","","",""
"null","<span style='color:GreenYellow; font-size: 70px;'>正确! </span>","null","html-keyboard-response","158","613982","0.0-7.0-0.0-4.0-0.0-1.25","4","4","4","4","4","4","3","2","4","4","5","5","4","4","4","5","5","5","5","4","1","2","2","1","1","1","4","4","1","0","1","0","0","0","1","0","1","1","0","1","0","1","0","0","5","1","1","2","1","1","5","2","2","2","1","776954102012973057","陈","375","","","","","","","","","","","","","","","","","","","","","","","","","","","","","","feedback_test","","","","","","","","","","","",""
"793","","j","psychophysics","159","615777","0.0-7.0-0.0-4.0-0.0-0.26","4","4","4","4","4","4","3","2","4","4","5","5","4","4","4","5","5","5","5","4","1","2","2","1","1","1","4","4","1","0","1","0","0","0","1","0","1","1","0","1","0","1","0","0","5","1","1","2","1","1","5","2","2","2","1","776954102012973057","陈","375","","","","match","","","","","","","","","","","","","","key","j","16.666813084112576","768","428","j","true","match","img/diamond.png","菱形","菱形","ALT1","formal_ALT1_1","","","","","","","","","","","",""
"null","<span style='color:GreenYellow; font-size: 70px;'>正确! </span>","null","html-keyboard-response","160","616278","0.0-7.0-0.0-4.0-0.0-1.26","4","4","4","4","4","4","3","2","4","4","5","5","4","4","4","5","5","5","5","4","1","2","2","1","1","1","4","4","1","0","1","0","0","0","1","0","1","1","0","1","0","1","0","0","5","1","1","2","1","1","5","2","2","2","1","776954102012973057","陈","375","","","","","","","","","","","","","","","","","","","","","","","","","","","","","","feedback_test","","","","","","","","","","","",""
"807","","j","psychophysics","161","618086","0.0-7.0-0.0-4.0-0.0-0.27","4","4","4","4","4","4","3","2","4","4","5","5","4","4","4","5","5","5","5","4","1","2","2","1","1","1","4","4","1","0","1","0","0","0","1","0","1","1","0","1","0","1","0","0","5","1","1","2","1","1","5","2","2","2","1","776954102012973057","陈","375","","","","match","","","","","","","","","","","","","","key","j","16.666607476635967","768","428","j","true","match","img/diamond.png","菱形","菱形","ALT1","formal_ALT1_1","","","","","","","","","","","",""
"null","<span style='color:GreenYellow; font-size: 70px;'>正确! </span>","null","html-keyboard-response","162","618587","0.0-7.0-0.0-4.0-0.0-1.27","4","4","4","4","4","4","3","2","4","4","5","5","4","4","4","5","5","5","5","4","1","2","2","1","1","1","4","4","1","0","1","0","0","0","1","0","1","1","0","1","0","1","0","0","5","1","1","2","1","1","5","2","2","2","1","776954102012973057","陈","375","","","","","","","","","","","","","","","","","","","","","","","","","","","","","","feedback_test","","","","","","","","","","","",""
"690","","f","psychophysics","163","620280","0.0-7.0-0.0-4.0-0.0-0.28","4","4","4","4","4","4","3","2","4","4","5","5","4","4","4","5","5","5","5","4","1","2","2","1","1","1","4","4","1","0","1","0","0","0","1","0","1","1","0","1","0","1","0","0","5","1","1","2","1","1","5","2","2","2","1","776954102012973057","陈","375","","","","nonmatch","","","","","","","","","","","","","","key","f","16.666831683168088","768","428","f","true","nonmatch","img/ellipse.png","五边","椭圆","ALT1","formal_ALT1_1","","","","","","","","","","","",""
"null","<span style='color:GreenYellow; font-size: 70px;'>正确! </span>","null","html-keyboard-response","164","620782","0.0-7.0-0.0-4.0-0.0-1.28","4","4","4","4","4","4","3","2","4","4","5","5","4","4","4","5","5","5","5","4","1","2","2","1","1","1","4","4","1","0","1","0","0","0","1","0","1","1","0","1","0","1","0","0","5","1","1","2","1","1","5","2","2","2","1","776954102012973057","陈","375","","","","","","","","","","","","","","","","","","","","","","","","","","","","","","feedback_test","","","","","","","","","","","",""
"720","","f","psychophysics","165","622504","0.0-7.0-0.0-4.0-0.0-0.29","4","4","4","4","4","4","3","2","4","4","5","5","4","4","4","5","5","5","5","4","1","2","2","1","1","1","4","4","1","0","1","0","0","0","1","0","1","1","0","1","0","1","0","0","5","1","1","2","1","1","5","2","2","2","1","776954102012973057","陈","375","","","","nonmatch","","","","","","","","","","","","","","key","f","16.668205882353003","768","428","f","true","nonmatch","img/ellipse.png","三角","椭圆","ALT1","formal_ALT1_1","","","","","","","","","","","",""
"null","<span style='color:GreenYellow; font-size: 70px;'>正确! </span>","null","html-keyboard-response","166","623005","0.0-7.0-0.0-4.0-0.0-1.29","4","4","4","4","4","4","3","2","4","4","5","5","4","4","4","5","5","5","5","4","1","2","2","1","1","1","4","4","1","0","1","0","0","0","1","0","1","1","0","1","0","1","0","0","5","1","1","2","1","1","5","2","2","2","1","776954102012973057","陈","375","","","","","","","","","","","","","","","","","","","","","","","","","","","","","","feedback_test","","","","","","","","","","","",""
"710","","f","psychophysics","167","624718","0.0-7.0-0.0-4.0-0.0-0.30","4","4","4","4","4","4","3","2","4","4","5","5","4","4","4","5","5","5","5","4","1","2","2","1","1","1","4","4","1","0","1","0","0","0","1","0","1","1","0","1","0","1","0","0","5","1","1","2","1","1","5","2","2","2","1","776954102012973057","陈","375","","","","nonmatch","","","","","","","","","","","","","","key","f","16.666637254902845","768","428","f","true","nonmatch","img/triangle.png","椭圆","三角","ALT1","formal_ALT1_1","","","","","","","","","","","",""
"null","<span style='color:GreenYellow; font-size: 70px;'>正确! </span>","null","html-keyboard-response","168","625219","0.0-7.0-0.0-4.0-0.0-1.30","4","4","4","4","4","4","3","2","4","4","5","5","4","4","4","5","5","5","5","4","1","2","2","1","1","1","4","4","1","0","1","0","0","0","1","0","1","1","0","1","0","1","0","0","5","1","1","2","1","1","5","2","2","2","1","776954102012973057","陈","375","","","","","","","","","","","","","","","","","","","","","","","","","","","","","","feedback_test","","","","","","","","","","","",""
"627","","j","psychophysics","169","626848","0.0-7.0-0.0-4.0-0.0-0.31","4","4","4","4","4","4","3","2","4","4","5","5","4","4","4","5","5","5","5","4","1","2","2","1","1","1","4","4","1","0","1","0","0","0","1","0","1","1","0","1","0","1","0","0","5","1","1","2","1","1","5","2","2","2","1","776954102012973057","陈","375","","","","match","","","","","","","","","","","","","","key","j","16.666567010309347","768","428","j","true","match","img/pentagon.png","五边","五边","ALT1","formal_ALT1_1","","","","","","","","","","","",""
"null","<span style='color:GreenYellow; font-size: 70px;'>正确! </span>","null","html-keyboard-response","170","627349","0.0-7.0-0.0-4.0-0.0-1.31","4","4","4","4","4","4","3","2","4","4","5","5","4","4","4","5","5","5","5","4","1","2","2","1","1","1","4","4","1","0","1","0","0","0","1","0","1","1","0","1","0","1","0","0","5","1","1","2","1","1","5","2","2","2","1","776954102012973057","陈","375","","","","","","","","","","","","","","","","","","","","","","","","","","","","","","feedback_test","","","","","","","","","","","",""
"836","","f","psychophysics","171","629186","0.0-7.0-0.0-4.0-0.0-0.32","4","4","4","4","4","4","3","2","4","4","5","5","4","4","4","5","5","5","5","4","1","2","2","1","1","1","4","4","1","0","1","0","0","0","1","0","1","1","0","1","0","1","0","0","5","1","1","2","1","1","5","2","2","2","1","776954102012973057","陈","375","","","","nonmatch","","","","","","","","","","","","","","key","f","16.667926605504622","768","428","f","true","nonmatch","img/diamond.png","三角","菱形","ALT1","formal_ALT1_1","","","","","","","","","","","",""
"null","<span style='color:GreenYellow; font-size: 70px;'>正确! </span>","null","html-keyboard-response","172","629688","0.0-7.0-0.0-4.0-0.0-1.32","4","4","4","4","4","4","3","2","4","4","5","5","4","4","4","5","5","5","5","4","1","2","2","1","1","1","4","4","1","0","1","0","0","0","1","0","1","1","0","1","0","1","0","0","5","1","1","2","1","1","5","2","2","2","1","776954102012973057","陈","375","","","","","","","","","","","","","","","","","","","","","","","","","","","","","","feedback_test","","","","","","","","","","","",""
"706","","f","psychophysics","173","631396","0.0-7.0-0.0-4.0-0.0-0.33","4","4","4","4","4","4","3","2","4","4","5","5","4","4","4","5","5","5","5","4","1","2","2","1","1","1","4","4","1","0","1","0","0","0","1","0","1","1","0","1","0","1","0","0","5","1","1","2","1","1","5","2","2","2","1","776954102012973057","陈","375","","","","nonmatch","","","","","","","","","","","","","","key","f","16.667029411764815","768","428","f","true","nonmatch","img/diamond.png","椭圆","菱形","ALT1","formal_ALT1_1","","","","","","","","","","","",""
"null","<span style='color:GreenYellow; font-size: 70px;'>正确! </span>","null","html-keyboard-response","174","631897","0.0-7.0-0.0-4.0-0.0-1.33","4","4","4","4","4","4","3","2","4","4","5","5","4","4","4","5","5","5","5","4","1","2","2","1","1","1","4","4","1","0","1","0","0","0","1","0","1","1","0","1","0","1","0","0","5","1","1","2","1","1","5","2","2","2","1","776954102012973057","陈","375","","","","","","","","","","","","","","","","","","","","","","","","","","","","","","feedback_test","","","","","","","","","","","",""
"614","","j","psychophysics","175","633513","0.0-7.0-0.0-4.0-0.0-0.34","4","4","4","4","4","4","3","2","4","4","5","5","4","4","4","5","5","5","5","4","1","2","2","1","1","1","4","4","1","0","1","0","0","0","1","0","1","1","0","1","0","1","0","0","5","1","1","2","1","1","5","2","2","2","1","776954102012973057","陈","375","","","","match","","","","","","","","","","","","","","key","j","16.665364583333332","768","428","j","true","match","img/ellipse.png","椭圆","椭圆","ALT1","formal_ALT1_1","","","","","","","","","","","",""
"null","<span style='color:GreenYellow; font-size: 70px;'>正确! </span>","null","html-keyboard-response","176","634015","0.0-7.0-0.0-4.0-0.0-1.34","4","4","4","4","4","4","3","2","4","4","5","5","4","4","4","5","5","5","5","4","1","2","2","1","1","1","4","4","1","0","1","0","0","0","1","0","1","1","0","1","0","1","0","0","5","1","1","2","1","1","5","2","2","2","1","776954102012973057","陈","375","","","","","","","","","","","","","","","","","","","","","","","","","","","","","","feedback_test","","","","","","","","","","","",""
"810","","f","psychophysics","177","635826","0.0-7.0-0.0-4.0-0.0-0.35","4","4","4","4","4","4","3","2","4","4","5","5","4","4","4","5","5","5","5","4","1","2","2","1","1","1","4","4","1","0","1","0","0","0","1","0","1","1","0","1","0","1","0","0","5","1","1","2","1","1","5","2","2","2","1","776954102012973057","陈","375","","","","nonmatch","","","","","","","","","","","","","","key","f","16.66665740740697","768","428","f","true","nonmatch","img/pentagon.png","菱形","五边","ALT1","formal_ALT1_1","","","","","","","","","","","",""
"null","<span style='color:GreenYellow; font-size: 70px;'>正确! </span>","null","html-keyboard-response","178","636328","0.0-7.0-0.0-4.0-0.0-1.35","4","4","4","4","4","4","3","2","4","4","5","5","4","4","4","5","5","5","5","4","1","2","2","1","1","1","4","4","1","0","1","0","0","0","1","0","1","1","0","1","0","1","0","0","5","1","1","2","1","1","5","2","2","2","1","776954102012973057","陈","375","","","","","","","","","","","","","","","","","","","","","","","","","","","","","","feedback_test","","","","","","","","","","","",""
"671","","j","psychophysics","179","638002","0.0-7.0-0.0-4.0-0.0-0.36","4","4","4","4","4","4","3","2","4","4","5","5","4","4","4","5","5","5","5","4","1","2","2","1","1","1","4","4","1","0","1","0","0","0","1","0","1","1","0","1","0","1","0","0","5","1","1","2","1","1","5","2","2","2","1","776954102012973057","陈","375","","","","match","","","","","","","","","","","","","","key","j","16.666565656565563","768","428","j","true","match","img/triangle.png","三角","三角","ALT1","formal_ALT1_1","","","","","","","","","","","",""
"null","<span style='color:GreenYellow; font-size: 70px;'>正确! </span>","null","html-keyboard-response","180","638504","0.0-7.0-0.0-4.0-0.0-1.36","4","4","4","4","4","4","3","2","4","4","5","5","4","4","4","5","5","5","5","4","1","2","2","1","1","1","4","4","1","0","1","0","0","0","1","0","1","1","0","1","0","1","0","0","5","1","1","2","1","1","5","2","2","2","1","776954102012973057","陈","375","","","","","","","","","","","","","","","","","","","","","","","","","","","","","","feedback_test","","","","","","","","","","","",""
"591","","f","psychophysics","181","640096","0.0-7.0-0.0-4.0-0.0-0.37","4","4","4","4","4","4","3","2","4","4","5","5","4","4","4","5","5","5","5","4","1","2","2","1","1","1","4","4","1","0","1","0","0","0","1","0","1","1","0","1","0","1","0","0","5","1","1","2","1","1","5","2","2","2","1","776954102012973057","陈","375","","","","nonmatch","","","","","","","","","","","","","","key","f","16.6669052631582","768","428","f","true","nonmatch","img/triangle.png","菱形","三角","ALT1","formal_ALT1_1","","","","","","","","","","","",""
