"rt","stimulus","response","trial_type","trial_index","time_elapsed","internal_node_id","ses_1","ses_2","ses_3","ses_4","ses_5","ses_6","ses_7","ses_8","ses_9","ses_10","coreself_1","coreself_2","coreself_3","coreself_4","coreself_5","coreself_6","coreself_7","coreself_8","coreself_9","coreself_10","SGPS_1","SGPS_2","SGPS_3","SGPS_4","SGPS_5","SGPS_6","SGPS_7","SGPS_8","SGPS_9","NPI1","NPI2","NPI3","NPI4","NPI5","NPI6","NPI7","NPI8","NPI9","NPI10","NPI11","NPI12","NPI13","NPI14","NPI15","hsns_1","hsns_2","hsns_3","hsns_4","hsns_5","trap1","hsns_6","hsns_7","hsns_8","hsns_9","hsns_10","subj_idx","friend_name","ParticipantID","value","success","user_agent","responses","item_order","radio_event_ids","radio_event_times","key_event_times","mouse_event_times","straightlining","zigzagging","honeypot","timeout","failed_images","failed_audio","failed_video","version_attrib","version_target","correct","IAT","screen_id","task_id","RT","condition","word","varname","summary","version_attrib2","version_target2","time_stamp","view_history","response_type","key_press","avg_frame_time","center_x","center_y","correct_response","identity","Image","question_order","correct_answer","trap1_item"
"8415","
   <p><div style = ""color: white;font-size:25px;"">您好，欢迎参加本次实验。</div> </p>
   <p><div style = ""color: white;font-size:25px;"">为充分保障您的权利，请确保您已经知晓并同意《参与实验同意书》以及《数据公开知情同意书》。</div></p>
   <p><div style = ""color: white;font-size:25px;"">如果您未见过上述内容，请咨询实验员。</div></p>
   <p><div style = ""color: white;font-size:25px;"">如果您选择继续实验，则表示您已经清楚两份知情同意书的内容并同意。</div></p>
   <p><div style = ""color: pink;font-size:30px;"">请确保您记得day0的实验编号，您将在本次实验输入该编号，若您忘记，请咨询实验员后作答。</div></p>
   <p><div style = ""color: lightblue;font-size:25px;"">请您尽可能认真地作答，我们将依据您在各问卷和按键任务中的作答质量发放报酬。</div></p>
   <p> <div style = ""color: green;font-size:25px;""><按空格键至下页></div> </p>
   "," ","html-keyboard-response","0","8418","0.0-0.0","4","4","4","4","3","3","3","4","4","3","4","4","4","3","4","4","4","3","4","4","2","3","3","2","2","2","2","3","1","1","0","1","1","0","0","0","1","0","1","1","0","1","0","1","4","3","3","2","2","","1","3","4","4","3","784384274496491522","王","110","","","","","","","","","","","","","","","","","","","","","","","","","","","","","","","","","","","","","","","","","",""
"","","","call-function","1","8420","0.0-1.0-0.0","4","4","4","4","3","3","3","4","4","3","4","4","4","3","4","4","4","3","4","4","2","3","3","2","2","2","2","3","1","1","0","1","1","0","0","0","1","0","1","1","0","1","0","1","4","3","3","2","2","","1","3","4","4","3","784384274496491522","王","110","","","","","","","","","","","","","","","","","","","","","","","","","","","","","","","","","","","","","","","","","",""
"42698","","{""friend_name"":""王"",""ParticipantID"":""110""}","survey-html-form","2","51119","0.0-1.0-1.0","4","4","4","4","3","3","3","4","4","3","4","4","4","3","4","4","4","3","4","4","2","3","3","2","2","2","2","3","1","1","0","1","1","0","0","0","1","0","1","1","0","1","0","1","4","3","3","2","2","","1","3","4","4","3","784384274496491522","王","110","","","","","","","","","","","","","","","","","","","","","","","","","","","","","","","","","","","","","","","","","",""
"","","","fullscreen","3","55310","0.0-2.0","4","4","4","4","3","3","3","4","4","3","4","4","4","3","4","4","4","3","4","4","2","3","3","2","2","2","2","3","1","1","0","1","1","0","0","0","1","0","1","1","0","1","0","1","4","3","3","2","2","","1","3","4","4","3","784384274496491522","王","110","","true","{}","","","","","","","","","","","","","","","","","","","","","","","","","","","","","","","","","","","","","","",""
"32695.199999809265","","{""Q01"":""4"",""Q02"":""4"",""Q03"":""4"",""Q04"":""4"",""Q05"":""3"",""Q06"":""3"",""Q07"":""3"",""Q08"":""4"",""Q09"":""4"",""Q10"":""3""}","survey-template","4","88008","0.0-3.0","4","4","4","4","3","3","3","4","4","3","4","4","4","3","4","4","4","3","4","4","2","3","3","2","2","2","2","3","1","1","0","1","1","0","0","0","1","0","1","1","0","1","0","1","4","3","3","2","2","","1","3","4","4","3","784384274496491522","王","110","","","","{""Q01"":""4"",""Q02"":""4"",""Q03"":""4"",""Q04"":""4"",""Q05"":""3"",""Q06"":""3"",""Q07"":""3"",""Q08"":""4"",""Q09"":""4"",""Q10"":""3""}","[0,1,2,3,4,5,6,7,8,9]","[""Q01"",""Q01"",""Q01"",""Q01"",""Q01"",""Q02"",""Q02"",""Q03"",""Q04"",""Q05"",""Q06"",""Q07"",""Q08"",""Q08"",""Q09"",""Q10""]","[4910.699999809265,7254.599999904633,7942.599999904633,9022.599999904633,10045.799999952316,12454.299999952316,12469.099999904633,14774.199999809265,17533.89999985695,18622,22214.599999904633,23630.299999952316,25638,26293.89999985695,30598.299999952316,31774.299999952316]","[]","[4910.699999809265,7254.599999904633,7942.599999904633,9022.599999904633,10045.799999952316,12454.299999952316,12469.099999904633,14774.199999809265,17533.89999985695,18622,22214.599999904633,23630.299999952316,25638,26293.89999985695,28638.5,30598.299999952316,31774.299999952316,32694]","0.3","0.4444444444444444","0","","","","","","","","","","","","","","","","","","","","","","","","","","","","","",""
"21267.5","","{""Q01"":""4"",""Q02"":""4"",""Q03"":""4"",""Q04"":""3"",""Q05"":""4"",""Q06"":""4"",""Q07"":""4"",""Q08"":""3"",""Q09"":""4"",""Q10"":""4""}","survey-template","5","109280","0.0-4.0","4","4","4","4","3","3","3","4","4","3","4","4","4","3","4","4","4","3","4","4","2","3","3","2","2","2","2","3","1","1","0","1","1","0","0","0","1","0","1","1","0","1","0","1","4","3","3","2","2","","1","3","4","4","3","784384274496491522","王","110","","","","{""Q01"":""4"",""Q02"":""4"",""Q03"":""4"",""Q04"":""3"",""Q05"":""4"",""Q06"":""4"",""Q07"":""4"",""Q08"":""3"",""Q09"":""4"",""Q10"":""4""}","[0,1,2,3,4,5,6,7,8,9]","[""Q01"",""Q02"",""Q03"",""Q04"",""Q05"",""Q06"",""Q07"",""Q08"",""Q09"",""Q10""]","[3010.5999999046326,5633.900000095367,7226,8722,9994,11714.200000047684,14106.099999904633,16170.5,17746.200000047684,20594.700000047684]","[]","[3010.5999999046326,5633.900000095367,7226,8722,9994,11714.200000047684,14106.099999904633,16170.5,17746.200000047684,20594.700000047684,21266.400000095367]","0.5","0.4444444444444444","0","","","","","","","","","","","","","","","","","","","","","","","","","","","","","",""
"","","","preload","6","109621","0.0-5.0","4","4","4","4","3","3","3","4","4","3","4","4","4","3","4","4","4","3","4","4","2","3","3","2","2","2","2","3","1","1","0","1","1","0","0","0","1","0","1","1","0","1","0","1","4","3","3","2","2","","1","3","4","4","3","784384274496491522","王","110","","true","","","","","","","","","","","false","[]","[]","[]","","","","","","","","","","","","","","","","","","","","","","","","","",""
"32696","
    <h3>词语分类任务</h3>
    <p>在接下来的任务中，你需要对一系列词语进行分类。</p>
    <p>请先熟悉这些词语，这有利于你完成接下来的任务。</p>
    <table align=""center"" border=1 cellpadding=3 cellspacing=0>
    <tr> <th>类别</th> <th>词语</th> </tr>
    <tr> <td>&emsp;积极&emsp;</td> <td>&emsp;能干、全能、全才、高效、精干、天才&emsp;</td> </tr>
    <tr> <td>&emsp;消极&emsp;</td> <td>&emsp;无能、低能、废物、拙笨、愚钝、蠢笨&emsp;</td> </tr>
    <tr> <td>&emsp;自我&emsp;</td> <td>&emsp;我、我的、自己、自己的、本人、本人的&emsp;</td> </tr>
    <tr> <td>&emsp;他人&emsp;</td> <td>&emsp;他、他的、别人、别人的、他人、他人的&emsp;</td> </tr>
    </table><br/>","0","html-button-response","7","142318","0.0-6.0-0.0-0.0","4","4","4","4","3","3","3","4","4","3","4","4","4","3","4","4","4","3","4","4","2","3","3","2","2","2","2","3","1","1","0","1","1","0","0","0","1","0","1","1","0","1","0","1","4","3","3","2","2","","1","3","4","4","3","784384274496491522","王","110","","","","","","","","","","","","","","","","","2","2","","","","","","","","","","","","","","","","","","","","","","","",""
"8637","
    <div class=""tag-bottom"">
    <p> —— 任务1：对“他人”词和“自我”词分类 ——<p/>
    不同词语会出现在屏幕中央，类别标签将始终显示在屏幕上方<p/>   
    <span style=""color:#FFD866""><b>请根据上方标签的提示，尽可能正确并且快速地做出按键反应</b></span><p/>
    当按键错误时屏幕中会出现<span style=""color:red""> X </span>，需要按另一个键纠正才能继续<br/><p/>
    请把双手食指分别放在键盘的“E”键和“I”键上<p/>
    按<空格键>开始
    </p></div>"," ","html-keyboard-response","8","150959","0.0-6.0-0.0-1.0","4","4","4","4","3","3","3","4","4","3","4","4","4","3","4","4","4","3","4","4","2","3","3","2","2","2","2","3","1","1","0","1","1","0","0","0","1","0","1","1","0","1","0","1","4","3","3","2","2","","1","3","4","4","3","784384274496491522","王","110","","","","","","","","","","","","","","","","","","","","","","","","","","","","","","","","","","","","","","","","","",""
"null","","null","html-keyboard-response","9","151220","0.0-6.0-0.0-2.0-0.0","4","4","4","4","3","3","3","4","4","3","4","4","4","3","4","4","4","3","4","4","2","3","3","2","2","2","2","3","1","1","0","1","1","0","0","0","1","0","1","1","0","1","0","1","4","3","3","2","2","","1","3","4","4","3","784384274496491522","王","110","","","","","","","","","","","","","","","","","","","","","","","","","","","","","","","","","","","","","","","","","",""
"1147","<p style=""color:rgb(150, 250, 100); font-size: 35px;"">他</p>","e","categorize-html","10","152372","0.0-6.0-0.0-2.0-1.0","4","4","4","4","3","3","3","4","4","3","4","4","4","3","4","4","4","3","4","4","2","3","3","2","2","2","2","3","1","1","0","1","1","0","0","0","1","0","1","1","0","1","0","1","4","3","3","2","2","","1","3","4","4","3","784384274496491522","王","110","","","","","","","","","","","","","","","","","","","true","1","1","ability","1147","other","他","","","","","","","","","","","","","","","","",""
"null","","null","html-keyboard-response","11","152636","0.0-6.0-0.0-2.0-0.1","4","4","4","4","3","3","3","4","4","3","4","4","4","3","4","4","4","3","4","4","2","3","3","2","2","2","2","3","1","1","0","1","1","0","0","0","1","0","1","1","0","1","0","1","4","3","3","2","2","","1","3","4","4","3","784384274496491522","王","110","","","","","","","","","","","","","","","","","","","","","","","","","","","","","","","","","","","","","","","","","",""
"920","<p style=""color:rgb(150, 250, 100); font-size: 35px;"">别人</p>","e","categorize-html","12","153559","0.0-6.0-0.0-2.0-1.1","4","4","4","4","3","3","3","4","4","3","4","4","4","3","4","4","4","3","4","4","2","3","3","2","2","2","2","3","1","1","0","1","1","0","0","0","1","0","1","1","0","1","0","1","4","3","3","2","2","","1","3","4","4","3","784384274496491522","王","110","","","","","","","","","","","","","","","","","","","true","1","1","ability","920","other","别人","","","","","","","","","","","","","","","","",""
"null","","null","html-keyboard-response","13","153818","0.0-6.0-0.0-2.0-0.2","4","4","4","4","3","3","3","4","4","3","4","4","4","3","4","4","4","3","4","4","2","3","3","2","2","2","2","3","1","1","0","1","1","0","0","0","1","0","1","1","0","1","0","1","4","3","3","2","2","","1","3","4","4","3","784384274496491522","王","110","","","","","","","","","","","","","","","","","","","","","","","","","","","","","","","","","","","","","","","","","",""
"718","<p style=""color:rgb(150, 250, 100); font-size: 35px;"">他人的</p>","e","categorize-html","14","154539","0.0-6.0-0.0-2.0-1.2","4","4","4","4","3","3","3","4","4","3","4","4","4","3","4","4","4","3","4","4","2","3","3","2","2","2","2","3","1","1","0","1","1","0","0","0","1","0","1","1","0","1","0","1","4","3","3","2","2","","1","3","4","4","3","784384274496491522","王","110","","","","","","","","","","","","","","","","","","","true","1","1","ability","718","other","他人的","","","","","","","","","","","","","","","","",""
"null","","null","html-keyboard-response","15","154801","0.0-6.0-0.0-2.0-0.3","4","4","4","4","3","3","3","4","4","3","4","4","4","3","4","4","4","3","4","4","2","3","3","2","2","2","2","3","1","1","0","1","1","0","0","0","1","0","1","1","0","1","0","1","4","3","3","2","2","","1","3","4","4","3","784384274496491522","王","110","","","","","","","","","","","","","","","","","","","","","","","","","","","","","","","","","","","","","","","","","",""
"664","<p style=""color:rgb(150, 250, 100); font-size: 35px;"">我的</p>","i","categorize-html","16","155468","0.0-6.0-0.0-2.0-1.3","4","4","4","4","3","3","3","4","4","3","4","4","4","3","4","4","4","3","4","4","2","3","3","2","2","2","2","3","1","1","0","1","1","0","0","0","1","0","1","1","0","1","0","1","4","3","3","2","2","","1","3","4","4","3","784384274496491522","王","110","","","","","","","","","","","","","","","","","","","true","1","1","ability","664","self","我的","","","","","","","","","","","","","","","","",""
"null","","null","html-keyboard-response","17","155734","0.0-6.0-0.0-2.0-0.4","4","4","4","4","3","3","3","4","4","3","4","4","4","3","4","4","4","3","4","4","2","3","3","2","2","2","2","3","1","1","0","1","1","0","0","0","1","0","1","1","0","1","0","1","4","3","3","2","2","","1","3","4","4","3","784384274496491522","王","110","","","","","","","","","","","","","","","","","","","","","","","","","","","","","","","","","","","","","","","","","",""
"615","<p style=""color:rgb(150, 250, 100); font-size: 35px;"">我</p>","i","categorize-html","18","156353","0.0-6.0-0.0-2.0-1.4","4","4","4","4","3","3","3","4","4","3","4","4","4","3","4","4","4","3","4","4","2","3","3","2","2","2","2","3","1","1","0","1","1","0","0","0","1","0","1","1","0","1","0","1","4","3","3","2","2","","1","3","4","4","3","784384274496491522","王","110","","","","","","","","","","","","","","","","","","","true","1","1","ability","615","self","我","","","","","","","","","","","","","","","","",""
"null","","null","html-keyboard-response","19","156605","0.0-6.0-0.0-2.0-0.5","4","4","4","4","3","3","3","4","4","3","4","4","4","3","4","4","4","3","4","4","2","3","3","2","2","2","2","3","1","1","0","1","1","0","0","0","1","0","1","1","0","1","0","1","4","3","3","2","2","","1","3","4","4","3","784384274496491522","王","110","","","","","","","","","","","","","","","","","","","","","","","","","","","","","","","","","","","","","","","","","",""
"661","<p style=""color:rgb(150, 250, 100); font-size: 35px;"">自己的</p>","i","categorize-html","20","157269","0.0-6.0-0.0-2.0-1.5","4","4","4","4","3","3","3","4","4","3","4","4","4","3","4","4","4","3","4","4","2","3","3","2","2","2","2","3","1","1","0","1","1","0","0","0","1","0","1","1","0","1","0","1","4","3","3","2","2","","1","3","4","4","3","784384274496491522","王","110","","","","","","","","","","","","","","","","","","","true","1","1","ability","661","self","自己的","","","","","","","","","","","","","","","","",""
"null","","null","html-keyboard-response","21","157522","0.0-6.0-0.0-2.0-0.6","4","4","4","4","3","3","3","4","4","3","4","4","4","3","4","4","4","3","4","4","2","3","3","2","2","2","2","3","1","1","0","1","1","0","0","0","1","0","1","1","0","1","0","1","4","3","3","2","2","","1","3","4","4","3","784384274496491522","王","110","","","","","","","","","","","","","","","","","","","","","","","","","","","","","","","","","","","","","","","","","",""
"641","<p style=""color:rgb(150, 250, 100); font-size: 35px;"">他的</p>","e","categorize-html","22","158166","0.0-6.0-0.0-2.0-1.6","4","4","4","4","3","3","3","4","4","3","4","4","4","3","4","4","4","3","4","4","2","3","3","2","2","2","2","3","1","1","0","1","1","0","0","0","1","0","1","1","0","1","0","1","4","3","3","2","2","","1","3","4","4","3","784384274496491522","王","110","","","","","","","","","","","","","","","","","","","true","1","1","ability","641","other","他的","","","","","","","","","","","","","","","","",""
"null","","null","html-keyboard-response","23","158424","0.0-6.0-0.0-2.0-0.7","4","4","4","4","3","3","3","4","4","3","4","4","4","3","4","4","4","3","4","4","2","3","3","2","2","2","2","3","1","1","0","1","1","0","0","0","1","0","1","1","0","1","0","1","4","3","3","2","2","","1","3","4","4","3","784384274496491522","王","110","","","","","","","","","","","","","","","","","","","","","","","","","","","","","","","","","","","","","","","","","",""
"747","<p style=""color:rgb(150, 250, 100); font-size: 35px;"">别人的</p>","e","categorize-html","24","159174","0.0-6.0-0.0-2.0-1.7","4","4","4","4","3","3","3","4","4","3","4","4","4","3","4","4","4","3","4","4","2","3","3","2","2","2","2","3","1","1","0","1","1","0","0","0","1","0","1","1","0","1","0","1","4","3","3","2","2","","1","3","4","4","3","784384274496491522","王","110","","","","","","","","","","","","","","","","","","","true","1","1","ability","747","other","别人的","","","","","","","","","","","","","","","","",""
"null","","null","html-keyboard-response","25","159435","0.0-6.0-0.0-2.0-0.8","4","4","4","4","3","3","3","4","4","3","4","4","4","3","4","4","4","3","4","4","2","3","3","2","2","2","2","3","1","1","0","1","1","0","0","0","1","0","1","1","0","1","0","1","4","3","3","2","2","","1","3","4","4","3","784384274496491522","王","110","","","","","","","","","","","","","","","","","","","","","","","","","","","","","","","","","","","","","","","","","",""
"692","<p style=""color:rgb(150, 250, 100); font-size: 35px;"">本人</p>","i","categorize-html","26","160130","0.0-6.0-0.0-2.0-1.8","4","4","4","4","3","3","3","4","4","3","4","4","4","3","4","4","4","3","4","4","2","3","3","2","2","2","2","3","1","1","0","1","1","0","0","0","1","0","1","1","0","1","0","1","4","3","3","2","2","","1","3","4","4","3","784384274496491522","王","110","","","","","","","","","","","","","","","","","","","true","1","1","ability","692","self","本人","","","","","","","","","","","","","","","","",""
"null","","null","html-keyboard-response","27","160384","0.0-6.0-0.0-2.0-0.9","4","4","4","4","3","3","3","4","4","3","4","4","4","3","4","4","4","3","4","4","2","3","3","2","2","2","2","3","1","1","0","1","1","0","0","0","1","0","1","1","0","1","0","1","4","3","3","2","2","","1","3","4","4","3","784384274496491522","王","110","","","","","","","","","","","","","","","","","","","","","","","","","","","","","","","","","","","","","","","","","",""
"544","<p style=""color:rgb(150, 250, 100); font-size: 35px;"">本人的</p>","i","categorize-html","28","160931","0.0-6.0-0.0-2.0-1.9","4","4","4","4","3","3","3","4","4","3","4","4","4","3","4","4","4","3","4","4","2","3","3","2","2","2","2","3","1","1","0","1","1","0","0","0","1","0","1","1","0","1","0","1","4","3","3","2","2","","1","3","4","4","3","784384274496491522","王","110","","","","","","","","","","","","","","","","","","","true","1","1","ability","544","self","本人的","","","","","","","","","","","","","","","","",""
"null","","null","html-keyboard-response","29","161192","0.0-6.0-0.0-2.0-0.10","4","4","4","4","3","3","3","4","4","3","4","4","4","3","4","4","4","3","4","4","2","3","3","2","2","2","2","3","1","1","0","1","1","0","0","0","1","0","1","1","0","1","0","1","4","3","3","2","2","","1","3","4","4","3","784384274496491522","王","110","","","","","","","","","","","","","","","","","","","","","","","","","","","","","","","","","","","","","","","","","",""
"564","<p style=""color:rgb(150, 250, 100); font-size: 35px;"">他人</p>","e","categorize-html","30","161759","0.0-6.0-0.0-2.0-1.10","4","4","4","4","3","3","3","4","4","3","4","4","4","3","4","4","4","3","4","4","2","3","3","2","2","2","2","3","1","1","0","1","1","0","0","0","1","0","1","1","0","1","0","1","4","3","3","2","2","","1","3","4","4","3","784384274496491522","王","110","","","","","","","","","","","","","","","","","","","true","1","1","ability","564","other","他人","","","","","","","","","","","","","","","","",""
"null","","null","html-keyboard-response","31","162015","0.0-6.0-0.0-2.0-0.11","4","4","4","4","3","3","3","4","4","3","4","4","4","3","4","4","4","3","4","4","2","3","3","2","2","2","2","3","1","1","0","1","1","0","0","0","1","0","1","1","0","1","0","1","4","3","3","2","2","","1","3","4","4","3","784384274496491522","王","110","","","","","","","","","","","","","","","","","","","","","","","","","","","","","","","","","","","","","","","","","",""
"702","<p style=""color:rgb(150, 250, 100); font-size: 35px;"">自己</p>","i","categorize-html","32","162721","0.0-6.0-0.0-2.0-1.11","4","4","4","4","3","3","3","4","4","3","4","4","4","3","4","4","4","3","4","4","2","3","3","2","2","2","2","3","1","1","0","1","1","0","0","0","1","0","1","1","0","1","0","1","4","3","3","2","2","","1","3","4","4","3","784384274496491522","王","110","","","","","","","","","","","","","","","","","","","true","1","1","ability","702","self","自己","","","","","","","","","","","","","","","","",""
"4874","
    <div class=""tag-bottom""><p>
    —— 任务2：对“消极”词和“积极”词分类 ——<p/>   
    <span style=""color:#78DCE8""><b>注意上方，类别标签和需要分类的词语都已经改变</b></span><p/>
    <span style=""color:#FFD866""><b>请根据上方标签的提示，尽可能正确并且快速地做出按键反应</b></span><p/>
    当按键错误时屏幕中会出现<span style=""color:red""> X </span>，需要按另一个键纠正才能继续<br/><p/>
    请把双手食指分别放在键盘的“E”键和“I”键上<p/>
    按<空格键>开始
    </p></div>"," ","html-keyboard-response","33","167596","0.0-6.0-0.0-3.0","4","4","4","4","3","3","3","4","4","3","4","4","4","3","4","4","4","3","4","4","2","3","3","2","2","2","2","3","1","1","0","1","1","0","0","0","1","0","1","1","0","1","0","1","4","3","3","2","2","","1","3","4","4","3","784384274496491522","王","110","","","","","","","","","","","","","","","","","","","","","","","","","","","","","","","","","","","","","","","","","",""
"null","","null","html-keyboard-response","34","167848","0.0-6.0-0.0-4.0-0.0","4","4","4","4","3","3","3","4","4","3","4","4","4","3","4","4","4","3","4","4","2","3","3","2","2","2","2","3","1","1","0","1","1","0","0","0","1","0","1","1","0","1","0","1","4","3","3","2","2","","1","3","4","4","3","784384274496491522","王","110","","","","","","","","","","","","","","","","","","","","","","","","","","","","","","","","","","","","","","","","","",""
"1499","<p style=""color:white; font-size: 35px;"">能干</p>","i","categorize-html","35","169349","0.0-6.0-0.0-4.0-1.0","4","4","4","4","3","3","3","4","4","3","4","4","4","3","4","4","4","3","4","4","2","3","3","2","2","2","2","3","1","1","0","1","1","0","0","0","1","0","1","1","0","1","0","1","4","3","3","2","2","","1","3","4","4","3","784384274496491522","王","110","","","","","","","","","","","","","","","","","","","true","2","2","ability","1499","positive","能干","","","","","","","","","","","","","","","","",""
"null","","null","html-keyboard-response","36","169601","0.0-6.0-0.0-4.0-0.1","4","4","4","4","3","3","3","4","4","3","4","4","4","3","4","4","4","3","4","4","2","3","3","2","2","2","2","3","1","1","0","1","1","0","0","0","1","0","1","1","0","1","0","1","4","3","3","2","2","","1","3","4","4","3","784384274496491522","王","110","","","","","","","","","","","","","","","","","","","","","","","","","","","","","","","","","","","","","","","","","",""
"767","<p style=""color:white; font-size: 35px;"">无能</p>","e","categorize-html","37","170372","0.0-6.0-0.0-4.0-1.1","4","4","4","4","3","3","3","4","4","3","4","4","4","3","4","4","4","3","4","4","2","3","3","2","2","2","2","3","1","1","0","1","1","0","0","0","1","0","1","1","0","1","0","1","4","3","3","2","2","","1","3","4","4","3","784384274496491522","王","110","","","","","","","","","","","","","","","","","","","true","2","2","ability","767","negative","无能","","","","","","","","","","","","","","","","",""
"null","","null","html-keyboard-response","38","170624","0.0-6.0-0.0-4.0-0.2","4","4","4","4","3","3","3","4","4","3","4","4","4","3","4","4","4","3","4","4","2","3","3","2","2","2","2","3","1","1","0","1","1","0","0","0","1","0","1","1","0","1","0","1","4","3","3","2","2","","1","3","4","4","3","784384274496491522","王","110","","","","","","","","","","","","","","","","","","","","","","","","","","","","","","","","","","","","","","","","","",""
"900","<p style=""color:white; font-size: 35px;"">天才</p>","i","categorize-html","39","171527","0.0-6.0-0.0-4.0-1.2","4","4","4","4","3","3","3","4","4","3","4","4","4","3","4","4","4","3","4","4","2","3","3","2","2","2","2","3","1","1","0","1","1","0","0","0","1","0","1","1","0","1","0","1","4","3","3","2","2","","1","3","4","4","3","784384274496491522","王","110","","","","","","","","","","","","","","","","","","","true","2","2","ability","900","positive","天才","","","","","","","","","","","","","","","","",""
"null","","null","html-keyboard-response","40","171781","0.0-6.0-0.0-4.0-0.3","4","4","4","4","3","3","3","4","4","3","4","4","4","3","4","4","4","3","4","4","2","3","3","2","2","2","2","3","1","1","0","1","1","0","0","0","1","0","1","1","0","1","0","1","4","3","3","2","2","","1","3","4","4","3","784384274496491522","王","110","","","","","","","","","","","","","","","","","","","","","","","","","","","","","","","","","","","","","","","","","",""
"651","<p style=""color:white; font-size: 35px;"">全能</p>","i","categorize-html","41","172435","0.0-6.0-0.0-4.0-1.3","4","4","4","4","3","3","3","4","4","3","4","4","4","3","4","4","4","3","4","4","2","3","3","2","2","2","2","3","1","1","0","1","1","0","0","0","1","0","1","1","0","1","0","1","4","3","3","2","2","","1","3","4","4","3","784384274496491522","王","110","","","","","","","","","","","","","","","","","","","true","2","2","ability","651","positive","全能","","","","","","","","","","","","","","","","",""
"null","","null","html-keyboard-response","42","172722","0.0-6.0-0.0-4.0-0.4","4","4","4","4","3","3","3","4","4","3","4","4","4","3","4","4","4","3","4","4","2","3","3","2","2","2","2","3","1","1","0","1","1","0","0","0","1","0","1","1","0","1","0","1","4","3","3","2","2","","1","3","4","4","3","784384274496491522","王","110","","","","","","","","","","","","","","","","","","","","","","","","","","","","","","","","","","","","","","","","","",""
"663","<p style=""color:white; font-size: 35px;"">蠢笨</p>","e","categorize-html","43","173389","0.0-6.0-0.0-4.0-1.4","4","4","4","4","3","3","3","4","4","3","4","4","4","3","4","4","4","3","4","4","2","3","3","2","2","2","2","3","1","1","0","1","1","0","0","0","1","0","1","1","0","1","0","1","4","3","3","2","2","","1","3","4","4","3","784384274496491522","王","110","","","","","","","","","","","","","","","","","","","true","2","2","ability","663","negative","蠢笨","","","","","","","","","","","","","","","","",""
"null","","null","html-keyboard-response","44","173655","0.0-6.0-0.0-4.0-0.5","4","4","4","4","3","3","3","4","4","3","4","4","4","3","4","4","4","3","4","4","2","3","3","2","2","2","2","3","1","1","0","1","1","0","0","0","1","0","1","1","0","1","0","1","4","3","3","2","2","","1","3","4","4","3","784384274496491522","王","110","","","","","","","","","","","","","","","","","","","","","","","","","","","","","","","","","","","","","","","","","",""
"838","<p style=""color:white; font-size: 35px;"">全才</p>","i","categorize-html","45","174494","0.0-6.0-0.0-4.0-1.5","4","4","4","4","3","3","3","4","4","3","4","4","4","3","4","4","4","3","4","4","2","3","3","2","2","2","2","3","1","1","0","1","1","0","0","0","1","0","1","1","0","1","0","1","4","3","3","2","2","","1","3","4","4","3","784384274496491522","王","110","","","","","","","","","","","","","","","","","","","true","2","2","ability","838","positive","全才","","","","","","","","","","","","","","","","",""
"null","","null","html-keyboard-response","46","174753","0.0-6.0-0.0-4.0-0.6","4","4","4","4","3","3","3","4","4","3","4","4","4","3","4","4","4","3","4","4","2","3","3","2","2","2","2","3","1","1","0","1","1","0","0","0","1","0","1","1","0","1","0","1","4","3","3","2","2","","1","3","4","4","3","784384274496491522","王","110","","","","","","","","","","","","","","","","","","","","","","","","","","","","","","","","","","","","","","","","","",""
"618","<p style=""color:white; font-size: 35px;"">拙笨</p>","e","categorize-html","47","175374","0.0-6.0-0.0-4.0-1.6","4","4","4","4","3","3","3","4","4","3","4","4","4","3","4","4","4","3","4","4","2","3","3","2","2","2","2","3","1","1","0","1","1","0","0","0","1","0","1","1","0","1","0","1","4","3","3","2","2","","1","3","4","4","3","784384274496491522","王","110","","","","","","","","","","","","","","","","","","","true","2","2","ability","618","negative","拙笨","","","","","","","","","","","","","","","","",""
"null","","null","html-keyboard-response","48","175639","0.0-6.0-0.0-4.0-0.7","4","4","4","4","3","3","3","4","4","3","4","4","4","3","4","4","4","3","4","4","2","3","3","2","2","2","2","3","1","1","0","1","1","0","0","0","1","0","1","1","0","1","0","1","4","3","3","2","2","","1","3","4","4","3","784384274496491522","王","110","","","","","","","","","","","","","","","","","","","","","","","","","","","","","","","","","","","","","","","","","",""
"557","<p style=""color:white; font-size: 35px;"">愚钝</p>","e","categorize-html","49","176199","0.0-6.0-0.0-4.0-1.7","4","4","4","4","3","3","3","4","4","3","4","4","4","3","4","4","4","3","4","4","2","3","3","2","2","2","2","3","1","1","0","1","1","0","0","0","1","0","1","1","0","1","0","1","4","3","3","2","2","","1","3","4","4","3","784384274496491522","王","110","","","","","","","","","","","","","","","","","","","true","2","2","ability","557","negative","愚钝","","","","","","","","","","","","","","","","",""
"null","","null","html-keyboard-response","50","176460","0.0-6.0-0.0-4.0-0.8","4","4","4","4","3","3","3","4","4","3","4","4","4","3","4","4","4","3","4","4","2","3","3","2","2","2","2","3","1","1","0","1","1","0","0","0","1","0","1","1","0","1","0","1","4","3","3","2","2","","1","3","4","4","3","784384274496491522","王","110","","","","","","","","","","","","","","","","","","","","","","","","","","","","","","","","","","","","","","","","","",""
"582","<p style=""color:white; font-size: 35px;"">低能</p>","e","categorize-html","51","177045","0.0-6.0-0.0-4.0-1.8","4","4","4","4","3","3","3","4","4","3","4","4","4","3","4","4","4","3","4","4","2","3","3","2","2","2","2","3","1","1","0","1","1","0","0","0","1","0","1","1","0","1","0","1","4","3","3","2","2","","1","3","4","4","3","784384274496491522","王","110","","","","","","","","","","","","","","","","","","","true","2","2","ability","582","negative","低能","","","","","","","","","","","","","","","","",""
"null","","null","html-keyboard-response","52","177310","0.0-6.0-0.0-4.0-0.9","4","4","4","4","3","3","3","4","4","3","4","4","4","3","4","4","4","3","4","4","2","3","3","2","2","2","2","3","1","1","0","1","1","0","0","0","1","0","1","1","0","1","0","1","4","3","3","2","2","","1","3","4","4","3","784384274496491522","王","110","","","","","","","","","","","","","","","","","","","","","","","","","","","","","","","","","","","","","","","","","",""
"612","<p style=""color:white; font-size: 35px;"">废物</p>","e","categorize-html","53","177926","0.0-6.0-0.0-4.0-1.9","4","4","4","4","3","3","3","4","4","3","4","4","4","3","4","4","4","3","4","4","2","3","3","2","2","2","2","3","1","1","0","1","1","0","0","0","1","0","1","1","0","1","0","1","4","3","3","2","2","","1","3","4","4","3","784384274496491522","王","110","","","","","","","","","","","","","","","","","","","true","2","2","ability","612","negative","废物","","","","","","","","","","","","","","","","",""
"null","","null","html-keyboard-response","54","178179","0.0-6.0-0.0-4.0-0.10","4","4","4","4","3","3","3","4","4","3","4","4","4","3","4","4","4","3","4","4","2","3","3","2","2","2","2","3","1","1","0","1","1","0","0","0","1","0","1","1","0","1","0","1","4","3","3","2","2","","1","3","4","4","3","784384274496491522","王","110","","","","","","","","","","","","","","","","","","","","","","","","","","","","","","","","","","","","","","","","","",""
"628","<p style=""color:white; font-size: 35px;"">精干</p>","i","categorize-html","55","178810","0.0-6.0-0.0-4.0-1.10","4","4","4","4","3","3","3","4","4","3","4","4","4","3","4","4","4","3","4","4","2","3","3","2","2","2","2","3","1","1","0","1","1","0","0","0","1","0","1","1","0","1","0","1","4","3","3","2","2","","1","3","4","4","3","784384274496491522","王","110","","","","","","","","","","","","","","","","","","","true","2","2","ability","628","positive","精干","","","","","","","","","","","","","","","","",""
"null","","null","html-keyboard-response","56","179065","0.0-6.0-0.0-4.0-0.11","4","4","4","4","3","3","3","4","4","3","4","4","4","3","4","4","4","3","4","4","2","3","3","2","2","2","2","3","1","1","0","1","1","0","0","0","1","0","1","1","0","1","0","1","4","3","3","2","2","","1","3","4","4","3","784384274496491522","王","110","","","","","","","","","","","","","","","","","","","","","","","","","","","","","","","","","","","","","","","","","",""
"659","<p style=""color:white; font-size: 35px;"">高效</p>","i","categorize-html","57","179727","0.0-6.0-0.0-4.0-1.11","4","4","4","4","3","3","3","4","4","3","4","4","4","3","4","4","4","3","4","4","2","3","3","2","2","2","2","3","1","1","0","1","1","0","0","0","1","0","1","1","0","1","0","1","4","3","3","2","2","","1","3","4","4","3","784384274496491522","王","110","","","","","","","","","","","","","","","","","","","true","2","2","ability","659","positive","高效","","","","","","","","","","","","","","","","",""
"4332","
    <div class=""tag-bottom""><p>
    —— 任务3：对“他人/消极”词和“自我/积极”词分类 ——<p/>
    <span style=""color:#78DCE8""><b>注意上方，之前的四类词语将混合在一起交替呈现</b></span><p/>
    <span style=""color:#FFD866""><b>请根据上方标签的提示，尽可能正确并且快速地做出按键反应</b></span><p/>
    当按键错误时屏幕中会出现<span style=""color:red""> X </span>，需要按另一个键纠正才能继续<br/><p/>
    请把双手食指分别放在键盘的“E”键和“I”键上<p/>
    按<空格键>开始
    </p></div>"," ","html-keyboard-response","58","184060","0.0-6.0-0.0-5.0","4","4","4","4","3","3","3","4","4","3","4","4","4","3","4","4","4","3","4","4","2","3","3","2","2","2","2","3","1","1","0","1","1","0","0","0","1","0","1","1","0","1","0","1","4","3","3","2","2","","1","3","4","4","3","784384274496491522","王","110","","","","","","","","","","","","","","","","","","","","","","","","","","","","","","","","","","","","","","","","","",""
"null","","null","html-keyboard-response","59","184318","0.0-6.0-0.0-6.0-0.0","4","4","4","4","3","3","3","4","4","3","4","4","4","3","4","4","4","3","4","4","2","3","3","2","2","2","2","3","1","1","0","1","1","0","0","0","1","0","1","1","0","1","0","1","4","3","3","2","2","","1","3","4","4","3","784384274496491522","王","110","","","","","","","","","","","","","","","","","","","","","","","","","","","","","","","","","","","","","","","","","",""
"873","<p style=""color:rgb(150, 250, 100); font-size: 35px;"">他</p>","e","categorize-html","60","185195","0.0-6.0-0.0-6.0-1.0","4","4","4","4","3","3","3","4","4","3","4","4","4","3","4","4","4","3","4","4","2","3","3","2","2","2","2","3","1","1","0","1","1","0","0","0","1","0","1","1","0","1","0","1","4","3","3","2","2","","1","3","4","4","3","784384274496491522","王","110","","","","","","","","","","","","","","","","","","","true","3","3","ability","873","other","他","","","","","","","","","","","","","","","","",""
"null","","null","html-keyboard-response","61","185454","0.0-6.0-0.0-6.0-0.1","4","4","4","4","3","3","3","4","4","3","4","4","4","3","4","4","4","3","4","4","2","3","3","2","2","2","2","3","1","1","0","1","1","0","0","0","1","0","1","1","0","1","0","1","4","3","3","2","2","","1","3","4","4","3","784384274496491522","王","110","","","","","","","","","","","","","","","","","","","","","","","","","","","","","","","","","","","","","","","","","",""
"907","<p style=""color:white; font-size: 35px;"">全能</p>","i","categorize-html","62","186365","0.0-6.0-0.0-6.0-1.1","4","4","4","4","3","3","3","4","4","3","4","4","4","3","4","4","4","3","4","4","2","3","3","2","2","2","2","3","1","1","0","1","1","0","0","0","1","0","1","1","0","1","0","1","4","3","3","2","2","","1","3","4","4","3","784384274496491522","王","110","","","","","","","","","","","","","","","","","","","true","3","3","ability","907","positive","全能","","","","","","","","","","","","","","","","",""
"null","","null","html-keyboard-response","63","186616","0.0-6.0-0.0-6.0-0.2","4","4","4","4","3","3","3","4","4","3","4","4","4","3","4","4","4","3","4","4","2","3","3","2","2","2","2","3","1","1","0","1","1","0","0","0","1","0","1","1","0","1","0","1","4","3","3","2","2","","1","3","4","4","3","784384274496491522","王","110","","","","","","","","","","","","","","","","","","","","","","","","","","","","","","","","","","","","","","","","","",""
"576","<p style=""color:rgb(150, 250, 100); font-size: 35px;"">本人的</p>","i","categorize-html","64","187195","0.0-6.0-0.0-6.0-1.2","4","4","4","4","3","3","3","4","4","3","4","4","4","3","4","4","4","3","4","4","2","3","3","2","2","2","2","3","1","1","0","1","1","0","0","0","1","0","1","1","0","1","0","1","4","3","3","2","2","","1","3","4","4","3","784384274496491522","王","110","","","","","","","","","","","","","","","","","","","true","3","3","ability","576","self","本人的","","","","","","","","","","","","","","","","",""
"null","","null","html-keyboard-response","65","187455","0.0-6.0-0.0-6.0-0.3","4","4","4","4","3","3","3","4","4","3","4","4","4","3","4","4","4","3","4","4","2","3","3","2","2","2","2","3","1","1","0","1","1","0","0","0","1","0","1","1","0","1","0","1","4","3","3","2","2","","1","3","4","4","3","784384274496491522","王","110","","","","","","","","","","","","","","","","","","","","","","","","","","","","","","","","","","","","","","","","","",""
"800","<p style=""color:white; font-size: 35px;"">愚钝</p>","e","categorize-html","66","188258","0.0-6.0-0.0-6.0-1.3","4","4","4","4","3","3","3","4","4","3","4","4","4","3","4","4","4","3","4","4","2","3","3","2","2","2","2","3","1","1","0","1","1","0","0","0","1","0","1","1","0","1","0","1","4","3","3","2","2","","1","3","4","4","3","784384274496491522","王","110","","","","","","","","","","","","","","","","","","","true","3","3","ability","800","negative","愚钝","","","","","","","","","","","","","","","","",""
"null","","null","html-keyboard-response","67","188522","0.0-6.0-0.0-6.0-0.4","4","4","4","4","3","3","3","4","4","3","4","4","4","3","4","4","4","3","4","4","2","3","3","2","2","2","2","3","1","1","0","1","1","0","0","0","1","0","1","1","0","1","0","1","4","3","3","2","2","","1","3","4","4","3","784384274496491522","王","110","","","","","","","","","","","","","","","","","","","","","","","","","","","","","","","","","","","","","","","","","",""
"601","<p style=""color:rgb(150, 250, 100); font-size: 35px;"">他人的</p>","e","categorize-html","68","189127","0.0-6.0-0.0-6.0-1.4","4","4","4","4","3","3","3","4","4","3","4","4","4","3","4","4","4","3","4","4","2","3","3","2","2","2","2","3","1","1","0","1","1","0","0","0","1","0","1","1","0","1","0","1","4","3","3","2","2","","1","3","4","4","3","784384274496491522","王","110","","","","","","","","","","","","","","","","","","","true","3","3","ability","601","other","他人的","","","","","","","","","","","","","","","","",""
"null","","null","html-keyboard-response","69","189390","0.0-6.0-0.0-6.0-0.5","4","4","4","4","3","3","3","4","4","3","4","4","4","3","4","4","4","3","4","4","2","3","3","2","2","2","2","3","1","1","0","1","1","0","0","0","1","0","1","1","0","1","0","1","4","3","3","2","2","","1","3","4","4","3","784384274496491522","王","110","","","","","","","","","","","","","","","","","","","","","","","","","","","","","","","","","","","","","","","","","",""
"565","<p style=""color:white; font-size: 35px;"">拙笨</p>","e","categorize-html","70","189958","0.0-6.0-0.0-6.0-1.5","4","4","4","4","3","3","3","4","4","3","4","4","4","3","4","4","4","3","4","4","2","3","3","2","2","2","2","3","1","1","0","1","1","0","0","0","1","0","1","1","0","1","0","1","4","3","3","2","2","","1","3","4","4","3","784384274496491522","王","110","","","","","","","","","","","","","","","","","","","true","3","3","ability","565","negative","拙笨","","","","","","","","","","","","","","","","",""
"null","","null","html-keyboard-response","71","190212","0.0-6.0-0.0-6.0-0.6","4","4","4","4","3","3","3","4","4","3","4","4","4","3","4","4","4","3","4","4","2","3","3","2","2","2","2","3","1","1","0","1","1","0","0","0","1","0","1","1","0","1","0","1","4","3","3","2","2","","1","3","4","4","3","784384274496491522","王","110","","","","","","","","","","","","","","","","","","","","","","","","","","","","","","","","","","","","","","","","","",""
"715","<p style=""color:rgb(150, 250, 100); font-size: 35px;"">自己的</p>","i","categorize-html","72","190931","0.0-6.0-0.0-6.0-1.6","4","4","4","4","3","3","3","4","4","3","4","4","4","3","4","4","4","3","4","4","2","3","3","2","2","2","2","3","1","1","0","1","1","0","0","0","1","0","1","1","0","1","0","1","4","3","3","2","2","","1","3","4","4","3","784384274496491522","王","110","","","","","","","","","","","","","","","","","","","true","3","3","ability","715","self","自己的","","","","","","","","","","","","","","","","",""
"null","","null","html-keyboard-response","73","191188","0.0-6.0-0.0-6.0-0.7","4","4","4","4","3","3","3","4","4","3","4","4","4","3","4","4","4","3","4","4","2","3","3","2","2","2","2","3","1","1","0","1","1","0","0","0","1","0","1","1","0","1","0","1","4","3","3","2","2","","1","3","4","4","3","784384274496491522","王","110","","","","","","","","","","","","","","","","","","","","","","","","","","","","","","","","","","","","","","","","","",""
"516","<p style=""color:white; font-size: 35px;"">精干</p>","i","categorize-html","74","191707","0.0-6.0-0.0-6.0-1.7","4","4","4","4","3","3","3","4","4","3","4","4","4","3","4","4","4","3","4","4","2","3","3","2","2","2","2","3","1","1","0","1","1","0","0","0","1","0","1","1","0","1","0","1","4","3","3","2","2","","1","3","4","4","3","784384274496491522","王","110","","","","","","","","","","","","","","","","","","","true","3","3","ability","516","positive","精干","","","","","","","","","","","","","","","","",""
"null","","null","html-keyboard-response","75","191965","0.0-6.0-0.0-6.0-0.8","4","4","4","4","3","3","3","4","4","3","4","4","4","3","4","4","4","3","4","4","2","3","3","2","2","2","2","3","1","1","0","1","1","0","0","0","1","0","1","1","0","1","0","1","4","3","3","2","2","","1","3","4","4","3","784384274496491522","王","110","","","","","","","","","","","","","","","","","","","","","","","","","","","","","","","","","","","","","","","","","",""
"593","<p style=""color:rgb(150, 250, 100); font-size: 35px;"">别人</p>","e","categorize-html","76","192562","0.0-6.0-0.0-6.0-1.8","4","4","4","4","3","3","3","4","4","3","4","4","4","3","4","4","4","3","4","4","2","3","3","2","2","2","2","3","1","1","0","1","1","0","0","0","1","0","1","1","0","1","0","1","4","3","3","2","2","","1","3","4","4","3","784384274496491522","王","110","","","","","","","","","","","","","","","","","","","true","3","3","ability","593","other","别人","","","","","","","","","","","","","","","","",""
"null","","null","html-keyboard-response","77","192822","0.0-6.0-0.0-6.0-0.9","4","4","4","4","3","3","3","4","4","3","4","4","4","3","4","4","4","3","4","4","2","3","3","2","2","2","2","3","1","1","0","1","1","0","0","0","1","0","1","1","0","1","0","1","4","3","3","2","2","","1","3","4","4","3","784384274496491522","王","110","","","","","","","","","","","","","","","","","","","","","","","","","","","","","","","","","","","","","","","","","",""
"648","<p style=""color:white; font-size: 35px;"">天才</p>","i","categorize-html","78","193474","0.0-6.0-0.0-6.0-1.9","4","4","4","4","3","3","3","4","4","3","4","4","4","3","4","4","4","3","4","4","2","3","3","2","2","2","2","3","1","1","0","1","1","0","0","0","1","0","1","1","0","1","0","1","4","3","3","2","2","","1","3","4","4","3","784384274496491522","王","110","","","","","","","","","","","","","","","","","","","true","3","3","ability","648","positive","天才","","","","","","","","","","","","","","","","",""
"null","","null","html-keyboard-response","79","193740","0.0-6.0-0.0-6.0-0.10","4","4","4","4","3","3","3","4","4","3","4","4","4","3","4","4","4","3","4","4","2","3","3","2","2","2","2","3","1","1","0","1","1","0","0","0","1","0","1","1","0","1","0","1","4","3","3","2","2","","1","3","4","4","3","784384274496491522","王","110","","","","","","","","","","","","","","","","","","","","","","","","","","","","","","","","","","","","","","","","","",""
"905","<p style=""color:rgb(150, 250, 100); font-size: 35px;"">本人</p>","i","categorize-html","80","194646","0.0-6.0-0.0-6.0-1.10","4","4","4","4","3","3","3","4","4","3","4","4","4","3","4","4","4","3","4","4","2","3","3","2","2","2","2","3","1","1","0","1","1","0","0","0","1","0","1","1","0","1","0","1","4","3","3","2","2","","1","3","4","4","3","784384274496491522","王","110","","","","","","","","","","","","","","","","","","","true","3","3","ability","905","self","本人","","","","","","","","","","","","","","","","",""
"null","","null","html-keyboard-response","81","194900","0.0-6.0-0.0-6.0-0.11","4","4","4","4","3","3","3","4","4","3","4","4","4","3","4","4","4","3","4","4","2","3","3","2","2","2","2","3","1","1","0","1","1","0","0","0","1","0","1","1","0","1","0","1","4","3","3","2","2","","1","3","4","4","3","784384274496491522","王","110","","","","","","","","","","","","","","","","","","","","","","","","","","","","","","","","","","","","","","","","","",""
"867","<p style=""color:white; font-size: 35px;"">无能</p>","e","categorize-html","82","195771","0.0-6.0-0.0-6.0-1.11","4","4","4","4","3","3","3","4","4","3","4","4","4","3","4","4","4","3","4","4","2","3","3","2","2","2","2","3","1","1","0","1","1","0","0","0","1","0","1","1","0","1","0","1","4","3","3","2","2","","1","3","4","4","3","784384274496491522","王","110","","","","","","","","","","","","","","","","","","","true","3","3","ability","867","negative","无能","","","","","","","","","","","","","","","","",""
"null","","null","html-keyboard-response","83","196029","0.0-6.0-0.0-6.0-0.12","4","4","4","4","3","3","3","4","4","3","4","4","4","3","4","4","4","3","4","4","2","3","3","2","2","2","2","3","1","1","0","1","1","0","0","0","1","0","1","1","0","1","0","1","4","3","3","2","2","","1","3","4","4","3","784384274496491522","王","110","","","","","","","","","","","","","","","","","","","","","","","","","","","","","","","","","","","","","","","","","",""
"575","<p style=""color:rgb(150, 250, 100); font-size: 35px;"">我</p>","i","categorize-html","84","196607","0.0-6.0-0.0-6.0-1.12","4","4","4","4","3","3","3","4","4","3","4","4","4","3","4","4","4","3","4","4","2","3","3","2","2","2","2","3","1","1","0","1","1","0","0","0","1","0","1","1","0","1","0","1","4","3","3","2","2","","1","3","4","4","3","784384274496491522","王","110","","","","","","","","","","","","","","","","","","","true","3","3","ability","575","self","我","","","","","","","","","","","","","","","","",""
"null","","null","html-keyboard-response","85","196873","0.0-6.0-0.0-6.0-0.13","4","4","4","4","3","3","3","4","4","3","4","4","4","3","4","4","4","3","4","4","2","3","3","2","2","2","2","3","1","1","0","1","1","0","0","0","1","0","1","1","0","1","0","1","4","3","3","2","2","","1","3","4","4","3","784384274496491522","王","110","","","","","","","","","","","","","","","","","","","","","","","","","","","","","","","","","","","","","","","","","",""
"661","<p style=""color:white; font-size: 35px;"">能干</p>","i","categorize-html","86","197539","0.0-6.0-0.0-6.0-1.13","4","4","4","4","3","3","3","4","4","3","4","4","4","3","4","4","4","3","4","4","2","3","3","2","2","2","2","3","1","1","0","1","1","0","0","0","1","0","1","1","0","1","0","1","4","3","3","2","2","","1","3","4","4","3","784384274496491522","王","110","","","","","","","","","","","","","","","","","","","true","3","3","ability","661","positive","能干","","","","","","","","","","","","","","","","",""
"null","","null","html-keyboard-response","87","197802","0.0-6.0-0.0-6.0-0.14","4","4","4","4","3","3","3","4","4","3","4","4","4","3","4","4","4","3","4","4","2","3","3","2","2","2","2","3","1","1","0","1","1","0","0","0","1","0","1","1","0","1","0","1","4","3","3","2","2","","1","3","4","4","3","784384274496491522","王","110","","","","","","","","","","","","","","","","","","","","","","","","","","","","","","","","","","","","","","","","","",""
"634","<p style=""color:rgb(150, 250, 100); font-size: 35px;"">他的</p>","e","categorize-html","88","198439","0.0-6.0-0.0-6.0-1.14","4","4","4","4","3","3","3","4","4","3","4","4","4","3","4","4","4","3","4","4","2","3","3","2","2","2","2","3","1","1","0","1","1","0","0","0","1","0","1","1","0","1","0","1","4","3","3","2","2","","1","3","4","4","3","784384274496491522","王","110","","","","","","","","","","","","","","","","","","","true","3","3","ability","634","other","他的","","","","","","","","","","","","","","","","",""
"null","","null","html-keyboard-response","89","198691","0.0-6.0-0.0-6.0-0.15","4","4","4","4","3","3","3","4","4","3","4","4","4","3","4","4","4","3","4","4","2","3","3","2","2","2","2","3","1","1","0","1","1","0","0","0","1","0","1","1","0","1","0","1","4","3","3","2","2","","1","3","4","4","3","784384274496491522","王","110","","","","","","","","","","","","","","","","","","","","","","","","","","","","","","","","","","","","","","","","","",""
"662","<p style=""color:white; font-size: 35px;"">废物</p>","e","categorize-html","90","199358","0.0-6.0-0.0-6.0-1.15","4","4","4","4","3","3","3","4","4","3","4","4","4","3","4","4","4","3","4","4","2","3","3","2","2","2","2","3","1","1","0","1","1","0","0","0","1","0","1","1","0","1","0","1","4","3","3","2","2","","1","3","4","4","3","784384274496491522","王","110","","","","","","","","","","","","","","","","","","","true","3","3","ability","662","negative","废物","","","","","","","","","","","","","","","","",""
"null","","null","html-keyboard-response","91","199609","0.0-6.0-0.0-6.0-0.16","4","4","4","4","3","3","3","4","4","3","4","4","4","3","4","4","4","3","4","4","2","3","3","2","2","2","2","3","1","1","0","1","1","0","0","0","1","0","1","1","0","1","0","1","4","3","3","2","2","","1","3","4","4","3","784384274496491522","王","110","","","","","","","","","","","","","","","","","","","","","","","","","","","","","","","","","","","","","","","","","",""
"628","<p style=""color:rgb(150, 250, 100); font-size: 35px;"">我的</p>","i","categorize-html","92","200241","0.0-6.0-0.0-6.0-1.16","4","4","4","4","3","3","3","4","4","3","4","4","4","3","4","4","4","3","4","4","2","3","3","2","2","2","2","3","1","1","0","1","1","0","0","0","1","0","1","1","0","1","0","1","4","3","3","2","2","","1","3","4","4","3","784384274496491522","王","110","","","","","","","","","","","","","","","","","","","true","3","3","ability","628","self","我的","","","","","","","","","","","","","","","","",""
"null","","null","html-keyboard-response","93","200496","0.0-6.0-0.0-6.0-0.17","4","4","4","4","3","3","3","4","4","3","4","4","4","3","4","4","4","3","4","4","2","3","3","2","2","2","2","3","1","1","0","1","1","0","0","0","1","0","1","1","0","1","0","1","4","3","3","2","2","","1","3","4","4","3","784384274496491522","王","110","","","","","","","","","","","","","","","","","","","","","","","","","","","","","","","","","","","","","","","","","",""
"973","<p style=""color:white; font-size: 35px;"">低能</p>","e","categorize-html","94","201472","0.0-6.0-0.0-6.0-1.17","4","4","4","4","3","3","3","4","4","3","4","4","4","3","4","4","4","3","4","4","2","3","3","2","2","2","2","3","1","1","0","1","1","0","0","0","1","0","1","1","0","1","0","1","4","3","3","2","2","","1","3","4","4","3","784384274496491522","王","110","","","","","","","","","","","","","","","","","","","true","3","3","ability","973","negative","低能","","","","","","","","","","","","","","","","",""
"null","","null","html-keyboard-response","95","201724","0.0-6.0-0.0-6.0-0.18","4","4","4","4","3","3","3","4","4","3","4","4","4","3","4","4","4","3","4","4","2","3","3","2","2","2","2","3","1","1","0","1","1","0","0","0","1","0","1","1","0","1","0","1","4","3","3","2","2","","1","3","4","4","3","784384274496491522","王","110","","","","","","","","","","","","","","","","","","","","","","","","","","","","","","","","","","","","","","","","","",""
"991","<p style=""color:rgb(150, 250, 100); font-size: 35px;"">别人的</p>","e","categorize-html","96","202719","0.0-6.0-0.0-6.0-1.18","4","4","4","4","3","3","3","4","4","3","4","4","4","3","4","4","4","3","4","4","2","3","3","2","2","2","2","3","1","1","0","1","1","0","0","0","1","0","1","1","0","1","0","1","4","3","3","2","2","","1","3","4","4","3","784384274496491522","王","110","","","","","","","","","","","","","","","","","","","true","3","3","ability","991","other","别人的","","","","","","","","","","","","","","","","",""
"null","","null","html-keyboard-response","97","202971","0.0-6.0-0.0-6.0-0.19","4","4","4","4","3","3","3","4","4","3","4","4","4","3","4","4","4","3","4","4","2","3","3","2","2","2","2","3","1","1","0","1","1","0","0","0","1","0","1","1","0","1","0","1","4","3","3","2","2","","1","3","4","4","3","784384274496491522","王","110","","","","","","","","","","","","","","","","","","","","","","","","","","","","","","","","","","","","","","","","","",""
"832","<p style=""color:white; font-size: 35px;"">高效</p>","i","categorize-html","98","203807","0.0-6.0-0.0-6.0-1.19","4","4","4","4","3","3","3","4","4","3","4","4","4","3","4","4","4","3","4","4","2","3","3","2","2","2","2","3","1","1","0","1","1","0","0","0","1","0","1","1","0","1","0","1","4","3","3","2","2","","1","3","4","4","3","784384274496491522","王","110","","","","","","","","","","","","","","","","","","","true","3","3","ability","832","positive","高效","","","","","","","","","","","","","","","","",""
"null","","null","html-keyboard-response","99","204060","0.0-6.0-0.0-6.0-0.20","4","4","4","4","3","3","3","4","4","3","4","4","4","3","4","4","4","3","4","4","2","3","3","2","2","2","2","3","1","1","0","1","1","0","0","0","1","0","1","1","0","1","0","1","4","3","3","2","2","","1","3","4","4","3","784384274496491522","王","110","","","","","","","","","","","","","","","","","","","","","","","","","","","","","","","","","","","","","","","","","",""
"492","<p style=""color:rgb(150, 250, 100); font-size: 35px;"">自己</p>","i","categorize-html","100","204556","0.0-6.0-0.0-6.0-1.20","4","4","4","4","3","3","3","4","4","3","4","4","4","3","4","4","4","3","4","4","2","3","3","2","2","2","2","3","1","1","0","1","1","0","0","0","1","0","1","1","0","1","0","1","4","3","3","2","2","","1","3","4","4","3","784384274496491522","王","110","","","","","","","","","","","","","","","","","","","true","3","3","ability","492","self","自己","","","","","","","","","","","","","","","","",""
"null","","null","html-keyboard-response","101","204808","0.0-6.0-0.0-6.0-0.21","4","4","4","4","3","3","3","4","4","3","4","4","4","3","4","4","4","3","4","4","2","3","3","2","2","2","2","3","1","1","0","1","1","0","0","0","1","0","1","1","0","1","0","1","4","3","3","2","2","","1","3","4","4","3","784384274496491522","王","110","","","","","","","","","","","","","","","","","","","","","","","","","","","","","","","","","","","","","","","","","",""
"586","<p style=""color:white; font-size: 35px;"">全才</p>","i","categorize-html","102","205397","0.0-6.0-0.0-6.0-1.21","4","4","4","4","3","3","3","4","4","3","4","4","4","3","4","4","4","3","4","4","2","3","3","2","2","2","2","3","1","1","0","1","1","0","0","0","1","0","1","1","0","1","0","1","4","3","3","2","2","","1","3","4","4","3","784384274496491522","王","110","","","","","","","","","","","","","","","","","","","true","3","3","ability","586","positive","全才","","","","","","","","","","","","","","","","",""
"null","","null","html-keyboard-response","103","205663","0.0-6.0-0.0-6.0-0.22","4","4","4","4","3","3","3","4","4","3","4","4","4","3","4","4","4","3","4","4","2","3","3","2","2","2","2","3","1","1","0","1","1","0","0","0","1","0","1","1","0","1","0","1","4","3","3","2","2","","1","3","4","4","3","784384274496491522","王","110","","","","","","","","","","","","","","","","","","","","","","","","","","","","","","","","","","","","","","","","","",""
"652","<p style=""color:rgb(150, 250, 100); font-size: 35px;"">他人</p>","e","categorize-html","104","206319","0.0-6.0-0.0-6.0-1.22","4","4","4","4","3","3","3","4","4","3","4","4","4","3","4","4","4","3","4","4","2","3","3","2","2","2","2","3","1","1","0","1","1","0","0","0","1","0","1","1","0","1","0","1","4","3","3","2","2","","1","3","4","4","3","784384274496491522","王","110","","","","","","","","","","","","","","","","","","","true","3","3","ability","652","other","他人","","","","","","","","","","","","","","","","",""
"null","","null","html-keyboard-response","105","206578","0.0-6.0-0.0-6.0-0.23","4","4","4","4","3","3","3","4","4","3","4","4","4","3","4","4","4","3","4","4","2","3","3","2","2","2","2","3","1","1","0","1","1","0","0","0","1","0","1","1","0","1","0","1","4","3","3","2","2","","1","3","4","4","3","784384274496491522","王","110","","","","","","","","","","","","","","","","","","","","","","","","","","","","","","","","","","","","","","","","","",""
"946","<p style=""color:white; font-size: 35px;"">蠢笨</p>","e","categorize-html","106","207527","0.0-6.0-0.0-6.0-1.23","4","4","4","4","3","3","3","4","4","3","4","4","4","3","4","4","4","3","4","4","2","3","3","2","2","2","2","3","1","1","0","1","1","0","0","0","1","0","1","1","0","1","0","1","4","3","3","2","2","","1","3","4","4","3","784384274496491522","王","110","","","","","","","","","","","","","","","","","","","true","3","3","ability","946","negative","蠢笨","","","","","","","","","","","","","","","","",""
"3962","
    <div class=""tag-bottom""><p>
    —— 任务4：对“他人/消极”词和“自我/积极”词分类 ——<p/>
    <span style=""color:#78DCE8""><b>与刚才的任务完全相同，请再次对这四类词语分类</b></span><p/>
    <span style=""color:#FFD866""><b>请根据上方标签的提示，尽可能正确并且快速地做出按键反应</b></span><p/>
    当按键错误时屏幕中会出现<span style=""color:red""> X </span>，需要按另一个键纠正才能继续<br/><p/>
    请把双手食指分别放在键盘的“E”键和“I”键上<p/>
    按<空格键>开始
    </p></div>"," ","html-keyboard-response","107","211491","0.0-6.0-0.0-7.0","4","4","4","4","3","3","3","4","4","3","4","4","4","3","4","4","4","3","4","4","2","3","3","2","2","2","2","3","1","1","0","1","1","0","0","0","1","0","1","1","0","1","0","1","4","3","3","2","2","","1","3","4","4","3","784384274496491522","王","110","","","","","","","","","","","","","","","","","","","","","","","","","","","","","","","","","","","","","","","","","",""
"null","","null","html-keyboard-response","108","211756","0.0-6.0-0.0-8.0-0.0","4","4","4","4","3","3","3","4","4","3","4","4","4","3","4","4","4","3","4","4","2","3","3","2","2","2","2","3","1","1","0","1","1","0","0","0","1","0","1","1","0","1","0","1","4","3","3","2","2","","1","3","4","4","3","784384274496491522","王","110","","","","","","","","","","","","","","","","","","","","","","","","","","","","","","","","","","","","","","","","","",""
"869","<p style=""color:rgb(150, 250, 100); font-size: 35px;"">他的</p>","e","categorize-html","109","212628","0.0-6.0-0.0-8.0-1.0","4","4","4","4","3","3","3","4","4","3","4","4","4","3","4","4","4","3","4","4","2","3","3","2","2","2","2","3","1","1","0","1","1","0","0","0","1","0","1","1","0","1","0","1","4","3","3","2","2","","1","3","4","4","3","784384274496491522","王","110","","","","","","","","","","","","","","","","","","","true","4","4","ability","869","other","他的","","","","","","","","","","","","","","","","",""
"null","","null","html-keyboard-response","110","212893","0.0-6.0-0.0-8.0-0.1","4","4","4","4","3","3","3","4","4","3","4","4","4","3","4","4","4","3","4","4","2","3","3","2","2","2","2","3","1","1","0","1","1","0","0","0","1","0","1","1","0","1","0","1","4","3","3","2","2","","1","3","4","4","3","784384274496491522","王","110","","","","","","","","","","","","","","","","","","","","","","","","","","","","","","","","","","","","","","","","","",""
"655","<p style=""color:white; font-size: 35px;"">拙笨</p>","e","categorize-html","111","213551","0.0-6.0-0.0-8.0-1.1","4","4","4","4","3","3","3","4","4","3","4","4","4","3","4","4","4","3","4","4","2","3","3","2","2","2","2","3","1","1","0","1","1","0","0","0","1","0","1","1","0","1","0","1","4","3","3","2","2","","1","3","4","4","3","784384274496491522","王","110","","","","","","","","","","","","","","","","","","","true","4","4","ability","655","negative","拙笨","","","","","","","","","","","","","","","","",""
"null","","null","html-keyboard-response","112","213809","0.0-6.0-0.0-8.0-0.2","4","4","4","4","3","3","3","4","4","3","4","4","4","3","4","4","4","3","4","4","2","3","3","2","2","2","2","3","1","1","0","1","1","0","0","0","1","0","1","1","0","1","0","1","4","3","3","2","2","","1","3","4","4","3","784384274496491522","王","110","","","","","","","","","","","","","","","","","","","","","","","","","","","","","","","","","","","","","","","","","",""
"649","<p style=""color:rgb(150, 250, 100); font-size: 35px;"">自己</p>","i","categorize-html","113","214462","0.0-6.0-0.0-8.0-1.2","4","4","4","4","3","3","3","4","4","3","4","4","4","3","4","4","4","3","4","4","2","3","3","2","2","2","2","3","1","1","0","1","1","0","0","0","1","0","1","1","0","1","0","1","4","3","3","2","2","","1","3","4","4","3","784384274496491522","王","110","","","","","","","","","","","","","","","","","","","true","4","4","ability","649","self","自己","","","","","","","","","","","","","","","","",""
"null","","null","html-keyboard-response","114","214726","0.0-6.0-0.0-8.0-0.3","4","4","4","4","3","3","3","4","4","3","4","4","4","3","4","4","4","3","4","4","2","3","3","2","2","2","2","3","1","1","0","1","1","0","0","0","1","0","1","1","0","1","0","1","4","3","3","2","2","","1","3","4","4","3","784384274496491522","王","110","","","","","","","","","","","","","","","","","","","","","","","","","","","","","","","","","","","","","","","","","",""
"471","<p style=""color:white; font-size: 35px;"">精干</p>","i","categorize-html","115","215202","0.0-6.0-0.0-8.0-1.3","4","4","4","4","3","3","3","4","4","3","4","4","4","3","4","4","4","3","4","4","2","3","3","2","2","2","2","3","1","1","0","1","1","0","0","0","1","0","1","1","0","1","0","1","4","3","3","2","2","","1","3","4","4","3","784384274496491522","王","110","","","","","","","","","","","","","","","","","","","true","4","4","ability","471","positive","精干","","","","","","","","","","","","","","","","",""
"null","","null","html-keyboard-response","116","215460","0.0-6.0-0.0-8.0-0.4","4","4","4","4","3","3","3","4","4","3","4","4","4","3","4","4","4","3","4","4","2","3","3","2","2","2","2","3","1","1","0","1","1","0","0","0","1","0","1","1","0","1","0","1","4","3","3","2","2","","1","3","4","4","3","784384274496491522","王","110","","","","","","","","","","","","","","","","","","","","","","","","","","","","","","","","","","","","","","","","","",""
"497","<p style=""color:rgb(150, 250, 100); font-size: 35px;"">自己的</p>","i","categorize-html","117","215960","0.0-6.0-0.0-8.0-1.4","4","4","4","4","3","3","3","4","4","3","4","4","4","3","4","4","4","3","4","4","2","3","3","2","2","2","2","3","1","1","0","1","1","0","0","0","1","0","1","1","0","1","0","1","4","3","3","2","2","","1","3","4","4","3","784384274496491522","王","110","","","","","","","","","","","","","","","","","","","true","4","4","ability","497","self","自己的","","","","","","","","","","","","","","","","",""
"null","","null","html-keyboard-response","118","216223","0.0-6.0-0.0-8.0-0.5","4","4","4","4","3","3","3","4","4","3","4","4","4","3","4","4","4","3","4","4","2","3","3","2","2","2","2","3","1","1","0","1","1","0","0","0","1","0","1","1","0","1","0","1","4","3","3","2","2","","1","3","4","4","3","784384274496491522","王","110","","","","","","","","","","","","","","","","","","","","","","","","","","","","","","","","","","","","","","","","","",""
"572","<p style=""color:white; font-size: 35px;"">废物</p>","e","categorize-html","119","216799","0.0-6.0-0.0-8.0-1.5","4","4","4","4","3","3","3","4","4","3","4","4","4","3","4","4","4","3","4","4","2","3","3","2","2","2","2","3","1","1","0","1","1","0","0","0","1","0","1","1","0","1","0","1","4","3","3","2","2","","1","3","4","4","3","784384274496491522","王","110","","","","","","","","","","","","","","","","","","","true","4","4","ability","572","negative","废物","","","","","","","","","","","","","","","","",""
"null","","null","html-keyboard-response","120","217062","0.0-6.0-0.0-8.0-0.6","4","4","4","4","3","3","3","4","4","3","4","4","4","3","4","4","4","3","4","4","2","3","3","2","2","2","2","3","1","1","0","1","1","0","0","0","1","0","1","1","0","1","0","1","4","3","3","2","2","","1","3","4","4","3","784384274496491522","王","110","","","","","","","","","","","","","","","","","","","","","","","","","","","","","","","","","","","","","","","","","",""
"971","<p style=""color:rgb(150, 250, 100); font-size: 35px;"">别人的</p>","e","categorize-html","121","218036","0.0-6.0-0.0-8.0-1.6","4","4","4","4","3","3","3","4","4","3","4","4","4","3","4","4","4","3","4","4","2","3","3","2","2","2","2","3","1","1","0","1","1","0","0","0","1","0","1","1","0","1","0","1","4","3","3","2","2","","1","3","4","4","3","784384274496491522","王","110","","","","","","","","","","","","","","","","","","","true","4","4","ability","971","other","别人的","","","","","","","","","","","","","","","","",""
"null","","null","html-keyboard-response","122","218290","0.0-6.0-0.0-8.0-0.7","4","4","4","4","3","3","3","4","4","3","4","4","4","3","4","4","4","3","4","4","2","3","3","2","2","2","2","3","1","1","0","1","1","0","0","0","1","0","1","1","0","1","0","1","4","3","3","2","2","","1","3","4","4","3","784384274496491522","王","110","","","","","","","","","","","","","","","","","","","","","","","","","","","","","","","","","","","","","","","","","",""
"1068","<p style=""color:white; font-size: 35px;"">高效</p>","i","categorize-html","123","219361","0.0-6.0-0.0-8.0-1.7","4","4","4","4","3","3","3","4","4","3","4","4","4","3","4","4","4","3","4","4","2","3","3","2","2","2","2","3","1","1","0","1","1","0","0","0","1","0","1","1","0","1","0","1","4","3","3","2","2","","1","3","4","4","3","784384274496491522","王","110","","","","","","","","","","","","","","","","","","","true","4","4","ability","1068","positive","高效","","","","","","","","","","","","","","","","",""
"null","","null","html-keyboard-response","124","219613","0.0-6.0-0.0-8.0-0.8","4","4","4","4","3","3","3","4","4","3","4","4","4","3","4","4","4","3","4","4","2","3","3","2","2","2","2","3","1","1","0","1","1","0","0","0","1","0","1","1","0","1","0","1","4","3","3","2","2","","1","3","4","4","3","784384274496491522","王","110","","","","","","","","","","","","","","","","","","","","","","","","","","","","","","","","","","","","","","","","","",""
"484","<p style=""color:rgb(150, 250, 100); font-size: 35px;"">本人的</p>","i","categorize-html","125","220101","0.0-6.0-0.0-8.0-1.8","4","4","4","4","3","3","3","4","4","3","4","4","4","3","4","4","4","3","4","4","2","3","3","2","2","2","2","3","1","1","0","1","1","0","0","0","1","0","1","1","0","1","0","1","4","3","3","2","2","","1","3","4","4","3","784384274496491522","王","110","","","","","","","","","","","","","","","","","","","true","4","4","ability","484","self","本人的","","","","","","","","","","","","","","","","",""
"null","","null","html-keyboard-response","126","220359","0.0-6.0-0.0-8.0-0.9","4","4","4","4","3","3","3","4","4","3","4","4","4","3","4","4","4","3","4","4","2","3","3","2","2","2","2","3","1","1","0","1","1","0","0","0","1","0","1","1","0","1","0","1","4","3","3","2","2","","1","3","4","4","3","784384274496491522","王","110","","","","","","","","","","","","","","","","","","","","","","","","","","","","","","","","","","","","","","","","","",""
"509","<p style=""color:white; font-size: 35px;"">高效</p>","i","categorize-html","127","220871","0.0-6.0-0.0-8.0-1.9","4","4","4","4","3","3","3","4","4","3","4","4","4","3","4","4","4","3","4","4","2","3","3","2","2","2","2","3","1","1","0","1","1","0","0","0","1","0","1","1","0","1","0","1","4","3","3","2","2","","1","3","4","4","3","784384274496491522","王","110","","","","","","","","","","","","","","","","","","","true","4","4","ability","509","positive","高效","","","","","","","","","","","","","","","","",""
"null","","null","html-keyboard-response","128","221134","0.0-6.0-0.0-8.0-0.10","4","4","4","4","3","3","3","4","4","3","4","4","4","3","4","4","4","3","4","4","2","3","3","2","2","2","2","3","1","1","0","1","1","0","0","0","1","0","1","1","0","1","0","1","4","3","3","2","2","","1","3","4","4","3","784384274496491522","王","110","","","","","","","","","","","","","","","","","","","","","","","","","","","","","","","","","","","","","","","","","",""
"661","<p style=""color:rgb(150, 250, 100); font-size: 35px;"">别人</p>","e","categorize-html","129","221799","0.0-6.0-0.0-8.0-1.10","4","4","4","4","3","3","3","4","4","3","4","4","4","3","4","4","4","3","4","4","2","3","3","2","2","2","2","3","1","1","0","1","1","0","0","0","1","0","1","1","0","1","0","1","4","3","3","2","2","","1","3","4","4","3","784384274496491522","王","110","","","","","","","","","","","","","","","","","","","true","4","4","ability","661","other","别人","","","","","","","","","","","","","","","","",""
"null","","null","html-keyboard-response","130","222053","0.0-6.0-0.0-8.0-0.11","4","4","4","4","3","3","3","4","4","3","4","4","4","3","4","4","4","3","4","4","2","3","3","2","2","2","2","3","1","1","0","1","1","0","0","0","1","0","1","1","0","1","0","1","4","3","3","2","2","","1","3","4","4","3","784384274496491522","王","110","","","","","","","","","","","","","","","","","","","","","","","","","","","","","","","","","","","","","","","","","",""
"592","<p style=""color:white; font-size: 35px;"">愚钝</p>","e","categorize-html","131","222649","0.0-6.0-0.0-8.0-1.11","4","4","4","4","3","3","3","4","4","3","4","4","4","3","4","4","4","3","4","4","2","3","3","2","2","2","2","3","1","1","0","1","1","0","0","0","1","0","1","1","0","1","0","1","4","3","3","2","2","","1","3","4","4","3","784384274496491522","王","110","","","","","","","","","","","","","","","","","","","true","4","4","ability","592","negative","愚钝","","","","","","","","","","","","","","","","",""
"null","","null","html-keyboard-response","132","222908","0.0-6.0-0.0-8.0-0.12","4","4","4","4","3","3","3","4","4","3","4","4","4","3","4","4","4","3","4","4","2","3","3","2","2","2","2","3","1","1","0","1","1","0","0","0","1","0","1","1","0","1","0","1","4","3","3","2","2","","1","3","4","4","3","784384274496491522","王","110","","","","","","","","","","","","","","","","","","","","","","","","","","","","","","","","","","","","","","","","","",""
"624","<p style=""color:rgb(150, 250, 100); font-size: 35px;"">别人</p>","e","categorize-html","133","223536","0.0-6.0-0.0-8.0-1.12","4","4","4","4","3","3","3","4","4","3","4","4","4","3","4","4","4","3","4","4","2","3","3","2","2","2","2","3","1","1","0","1","1","0","0","0","1","0","1","1","0","1","0","1","4","3","3","2","2","","1","3","4","4","3","784384274496491522","王","110","","","","","","","","","","","","","","","","","","","true","4","4","ability","624","other","别人","","","","","","","","","","","","","","","","",""
"null","","null","html-keyboard-response","134","223794","0.0-6.0-0.0-8.0-0.13","4","4","4","4","3","3","3","4","4","3","4","4","4","3","4","4","4","3","4","4","2","3","3","2","2","2","2","3","1","1","0","1","1","0","0","0","1","0","1","1","0","1","0","1","4","3","3","2","2","","1","3","4","4","3","784384274496491522","王","110","","","","","","","","","","","","","","","","","","","","","","","","","","","","","","","","","","","","","","","","","",""
"515","<p style=""color:white; font-size: 35px;"">无能</p>","e","categorize-html","135","224312","0.0-6.0-0.0-8.0-1.13","4","4","4","4","3","3","3","4","4","3","4","4","4","3","4","4","4","3","4","4","2","3","3","2","2","2","2","3","1","1","0","1","1","0","0","0","1","0","1","1","0","1","0","1","4","3","3","2","2","","1","3","4","4","3","784384274496491522","王","110","","","","","","","","","","","","","","","","","","","true","4","4","ability","515","negative","无能","","","","","","","","","","","","","","","","",""
"null","","null","html-keyboard-response","136","224572","0.0-6.0-0.0-8.0-0.14","4","4","4","4","3","3","3","4","4","3","4","4","4","3","4","4","4","3","4","4","2","3","3","2","2","2","2","3","1","1","0","1","1","0","0","0","1","0","1","1","0","1","0","1","4","3","3","2","2","","1","3","4","4","3","784384274496491522","王","110","","","","","","","","","","","","","","","","","","","","","","","","","","","","","","","","","","","","","","","","","",""
"562","<p style=""color:rgb(150, 250, 100); font-size: 35px;"">本人</p>","i","categorize-html","137","225137","0.0-6.0-0.0-8.0-1.14","4","4","4","4","3","3","3","4","4","3","4","4","4","3","4","4","4","3","4","4","2","3","3","2","2","2","2","3","1","1","0","1","1","0","0","0","1","0","1","1","0","1","0","1","4","3","3","2","2","","1","3","4","4","3","784384274496491522","王","110","","","","","","","","","","","","","","","","","","","true","4","4","ability","562","self","本人","","","","","","","","","","","","","","","","",""
"null","","null","html-keyboard-response","138","225396","0.0-6.0-0.0-8.0-0.15","4","4","4","4","3","3","3","4","4","3","4","4","4","3","4","4","4","3","4","4","2","3","3","2","2","2","2","3","1","1","0","1","1","0","0","0","1","0","1","1","0","1","0","1","4","3","3","2","2","","1","3","4","4","3","784384274496491522","王","110","","","","","","","","","","","","","","","","","","","","","","","","","","","","","","","","","","","","","","","","","",""
"508","<p style=""color:white; font-size: 35px;"">天才</p>","i","categorize-html","139","225908","0.0-6.0-0.0-8.0-1.15","4","4","4","4","3","3","3","4","4","3","4","4","4","3","4","4","4","3","4","4","2","3","3","2","2","2","2","3","1","1","0","1","1","0","0","0","1","0","1","1","0","1","0","1","4","3","3","2","2","","1","3","4","4","3","784384274496491522","王","110","","","","","","","","","","","","","","","","","","","true","4","4","ability","508","positive","天才","","","","","","","","","","","","","","","","",""
"null","","null","html-keyboard-response","140","226174","0.0-6.0-0.0-8.0-0.16","4","4","4","4","3","3","3","4","4","3","4","4","4","3","4","4","4","3","4","4","2","3","3","2","2","2","2","3","1","1","0","1","1","0","0","0","1","0","1","1","0","1","0","1","4","3","3","2","2","","1","3","4","4","3","784384274496491522","王","110","","","","","","","","","","","","","","","","","","","","","","","","","","","","","","","","","","","","","","","","","",""
"521","<p style=""color:rgb(150, 250, 100); font-size: 35px;"">自己</p>","i","categorize-html","141","226699","0.0-6.0-0.0-8.0-1.16","4","4","4","4","3","3","3","4","4","3","4","4","4","3","4","4","4","3","4","4","2","3","3","2","2","2","2","3","1","1","0","1","1","0","0","0","1","0","1","1","0","1","0","1","4","3","3","2","2","","1","3","4","4","3","784384274496491522","王","110","","","","","","","","","","","","","","","","","","","true","4","4","ability","521","self","自己","","","","","","","","","","","","","","","","",""
"null","","null","html-keyboard-response","142","226955","0.0-6.0-0.0-8.0-0.17","4","4","4","4","3","3","3","4","4","3","4","4","4","3","4","4","4","3","4","4","2","3","3","2","2","2","2","3","1","1","0","1","1","0","0","0","1","0","1","1","0","1","0","1","4","3","3","2","2","","1","3","4","4","3","784384274496491522","王","110","","","","","","","","","","","","","","","","","","","","","","","","","","","","","","","","","","","","","","","","","",""
"447","<p style=""color:white; font-size: 35px;"">能干</p>","i","categorize-html","143","227405","0.0-6.0-0.0-8.0-1.17","4","4","4","4","3","3","3","4","4","3","4","4","4","3","4","4","4","3","4","4","2","3","3","2","2","2","2","3","1","1","0","1","1","0","0","0","1","0","1","1","0","1","0","1","4","3","3","2","2","","1","3","4","4","3","784384274496491522","王","110","","","","","","","","","","","","","","","","","","","true","4","4","ability","447","positive","能干","","","","","","","","","","","","","","","","",""
"null","","null","html-keyboard-response","144","227670","0.0-6.0-0.0-8.0-0.18","4","4","4","4","3","3","3","4","4","3","4","4","4","3","4","4","4","3","4","4","2","3","3","2","2","2","2","3","1","1","0","1","1","0","0","0","1","0","1","1","0","1","0","1","4","3","3","2","2","","1","3","4","4","3","784384274496491522","王","110","","","","","","","","","","","","","","","","","","","","","","","","","","","","","","","","","","","","","","","","","",""
"645","<p style=""color:rgb(150, 250, 100); font-size: 35px;"">他人</p>","e","categorize-html","145","228318","0.0-6.0-0.0-8.0-1.18","4","4","4","4","3","3","3","4","4","3","4","4","4","3","4","4","4","3","4","4","2","3","3","2","2","2","2","3","1","1","0","1","1","0","0","0","1","0","1","1","0","1","0","1","4","3","3","2","2","","1","3","4","4","3","784384274496491522","王","110","","","","","","","","","","","","","","","","","","","true","4","4","ability","645","other","他人","","","","","","","","","","","","","","","","",""
"null","","null","html-keyboard-response","146","228572","0.0-6.0-0.0-8.0-0.19","4","4","4","4","3","3","3","4","4","3","4","4","4","3","4","4","4","3","4","4","2","3","3","2","2","2","2","3","1","1","0","1","1","0","0","0","1","0","1","1","0","1","0","1","4","3","3","2","2","","1","3","4","4","3","784384274496491522","王","110","","","","","","","","","","","","","","","","","","","","","","","","","","","","","","","","","","","","","","","","","",""
"484","<p style=""color:white; font-size: 35px;"">低能</p>","e","categorize-html","147","229059","0.0-6.0-0.0-8.0-1.19","4","4","4","4","3","3","3","4","4","3","4","4","4","3","4","4","4","3","4","4","2","3","3","2","2","2","2","3","1","1","0","1","1","0","0","0","1","0","1","1","0","1","0","1","4","3","3","2","2","","1","3","4","4","3","784384274496491522","王","110","","","","","","","","","","","","","","","","","","","true","4","4","ability","484","negative","低能","","","","","","","","","","","","","","","","",""
"null","","null","html-keyboard-response","148","229321","0.0-6.0-0.0-8.0-0.20","4","4","4","4","3","3","3","4","4","3","4","4","4","3","4","4","4","3","4","4","2","3","3","2","2","2","2","3","1","1","0","1","1","0","0","0","1","0","1","1","0","1","0","1","4","3","3","2","2","","1","3","4","4","3","784384274496491522","王","110","","","","","","","","","","","","","","","","","","","","","","","","","","","","","","","","","","","","","","","","","",""
"500","<p style=""color:rgb(150, 250, 100); font-size: 35px;"">我</p>","i","categorize-html","149","229825","0.0-6.0-0.0-8.0-1.20","4","4","4","4","3","3","3","4","4","3","4","4","4","3","4","4","4","3","4","4","2","3","3","2","2","2","2","3","1","1","0","1","1","0","0","0","1","0","1","1","0","1","0","1","4","3","3","2","2","","1","3","4","4","3","784384274496491522","王","110","","","","","","","","","","","","","","","","","","","true","4","4","ability","500","self","我","","","","","","","","","","","","","","","","",""
"null","","null","html-keyboard-response","150","230086","0.0-6.0-0.0-8.0-0.21","4","4","4","4","3","3","3","4","4","3","4","4","4","3","4","4","4","3","4","4","2","3","3","2","2","2","2","3","1","1","0","1","1","0","0","0","1","0","1","1","0","1","0","1","4","3","3","2","2","","1","3","4","4","3","784384274496491522","王","110","","","","","","","","","","","","","","","","","","","","","","","","","","","","","","","","","","","","","","","","","",""
"566","<p style=""color:white; font-size: 35px;"">全才</p>","i","categorize-html","151","230656","0.0-6.0-0.0-8.0-1.21","4","4","4","4","3","3","3","4","4","3","4","4","4","3","4","4","4","3","4","4","2","3","3","2","2","2","2","3","1","1","0","1","1","0","0","0","1","0","1","1","0","1","0","1","4","3","3","2","2","","1","3","4","4","3","784384274496491522","王","110","","","","","","","","","","","","","","","","","","","true","4","4","ability","566","positive","全才","","","","","","","","","","","","","","","","",""
"null","","null","html-keyboard-response","152","230910","0.0-6.0-0.0-8.0-0.22","4","4","4","4","3","3","3","4","4","3","4","4","4","3","4","4","4","3","4","4","2","3","3","2","2","2","2","3","1","1","0","1","1","0","0","0","1","0","1","1","0","1","0","1","4","3","3","2","2","","1","3","4","4","3","784384274496491522","王","110","","","","","","","","","","","","","","","","","","","","","","","","","","","","","","","","","","","","","","","","","",""
"587","<p style=""color:rgb(150, 250, 100); font-size: 35px;"">他</p>","e","categorize-html","153","231501","0.0-6.0-0.0-8.0-1.22","4","4","4","4","3","3","3","4","4","3","4","4","4","3","4","4","4","3","4","4","2","3","3","2","2","2","2","3","1","1","0","1","1","0","0","0","1","0","1","1","0","1","0","1","4","3","3","2","2","","1","3","4","4","3","784384274496491522","王","110","","","","","","","","","","","","","","","","","","","true","4","4","ability","587","other","他","","","","","","","","","","","","","","","","",""
"null","","null","html-keyboard-response","154","231765","0.0-6.0-0.0-8.0-0.23","4","4","4","4","3","3","3","4","4","3","4","4","4","3","4","4","4","3","4","4","2","3","3","2","2","2","2","3","1","1","0","1","1","0","0","0","1","0","1","1","0","1","0","1","4","3","3","2","2","","1","3","4","4","3","784384274496491522","王","110","","","","","","","","","","","","","","","","","","","","","","","","","","","","","","","","","","","","","","","","","",""
"491","<p style=""color:white; font-size: 35px;"">无能</p>","e","categorize-html","155","232260","0.0-6.0-0.0-8.0-1.23","4","4","4","4","3","3","3","4","4","3","4","4","4","3","4","4","4","3","4","4","2","3","3","2","2","2","2","3","1","1","0","1","1","0","0","0","1","0","1","1","0","1","0","1","4","3","3","2","2","","1","3","4","4","3","784384274496491522","王","110","","","","","","","","","","","","","","","","","","","true","4","4","ability","491","negative","无能","","","","","","","","","","","","","","","","",""
"null","","null","html-keyboard-response","156","232541","0.0-6.0-0.0-8.0-0.24","4","4","4","4","3","3","3","4","4","3","4","4","4","3","4","4","4","3","4","4","2","3","3","2","2","2","2","3","1","1","0","1","1","0","0","0","1","0","1","1","0","1","0","1","4","3","3","2","2","","1","3","4","4","3","784384274496491522","王","110","","","","","","","","","","","","","","","","","","","","","","","","","","","","","","","","","","","","","","","","","",""
"639","<p style=""color:rgb(150, 250, 100); font-size: 35px;"">别人的</p>","e","categorize-html","157","233184","0.0-6.0-0.0-8.0-1.24","4","4","4","4","3","3","3","4","4","3","4","4","4","3","4","4","4","3","4","4","2","3","3","2","2","2","2","3","1","1","0","1","1","0","0","0","1","0","1","1","0","1","0","1","4","3","3","2","2","","1","3","4","4","3","784384274496491522","王","110","","","","","","","","","","","","","","","","","","","true","4","4","ability","639","other","别人的","","","","","","","","","","","","","","","","",""
"null","","null","html-keyboard-response","158","233445","0.0-6.0-0.0-8.0-0.25","4","4","4","4","3","3","3","4","4","3","4","4","4","3","4","4","4","3","4","4","2","3","3","2","2","2","2","3","1","1","0","1","1","0","0","0","1","0","1","1","0","1","0","1","4","3","3","2","2","","1","3","4","4","3","784384274496491522","王","110","","","","","","","","","","","","","","","","","","","","","","","","","","","","","","","","","","","","","","","","","",""
"465","<p style=""color:white; font-size: 35px;"">愚钝</p>","e","categorize-html","159","233914","0.0-6.0-0.0-8.0-1.25","4","4","4","4","3","3","3","4","4","3","4","4","4","3","4","4","4","3","4","4","2","3","3","2","2","2","2","3","1","1","0","1","1","0","0","0","1","0","1","1","0","1","0","1","4","3","3","2","2","","1","3","4","4","3","784384274496491522","王","110","","","","","","","","","","","","","","","","","","","true","4","4","ability","465","negative","愚钝","","","","","","","","","","","","","","","","",""
"null","","null","html-keyboard-response","160","234176","0.0-6.0-0.0-8.0-0.26","4","4","4","4","3","3","3","4","4","3","4","4","4","3","4","4","4","3","4","4","2","3","3","2","2","2","2","3","1","1","0","1","1","0","0","0","1","0","1","1","0","1","0","1","4","3","3","2","2","","1","3","4","4","3","784384274496491522","王","110","","","","","","","","","","","","","","","","","","","","","","","","","","","","","","","","","","","","","","","","","",""
"489","<p style=""color:rgb(150, 250, 100); font-size: 35px;"">我</p>","i","categorize-html","161","234668","0.0-6.0-0.0-8.0-1.26","4","4","4","4","3","3","3","4","4","3","4","4","4","3","4","4","4","3","4","4","2","3","3","2","2","2","2","3","1","1","0","1","1","0","0","0","1","0","1","1","0","1","0","1","4","3","3","2","2","","1","3","4","4","3","784384274496491522","王","110","","","","","","","","","","","","","","","","","","","true","4","4","ability","489","self","我","","","","","","","","","","","","","","","","",""
"null","","null","html-keyboard-response","162","234923","0.0-6.0-0.0-8.0-0.27","4","4","4","4","3","3","3","4","4","3","4","4","4","3","4","4","4","3","4","4","2","3","3","2","2","2","2","3","1","1","0","1","1","0","0","0","1","0","1","1","0","1","0","1","4","3","3","2","2","","1","3","4","4","3","784384274496491522","王","110","","","","","","","","","","","","","","","","","","","","","","","","","","","","","","","","","","","","","","","","","",""
"563","<p style=""color:white; font-size: 35px;"">精干</p>","i","categorize-html","163","235490","0.0-6.0-0.0-8.0-1.27","4","4","4","4","3","3","3","4","4","3","4","4","4","3","4","4","4","3","4","4","2","3","3","2","2","2","2","3","1","1","0","1","1","0","0","0","1","0","1","1","0","1","0","1","4","3","3","2","2","","1","3","4","4","3","784384274496491522","王","110","","","","","","","","","","","","","","","","","","","true","4","4","ability","563","positive","精干","","","","","","","","","","","","","","","","",""
"null","","null","html-keyboard-response","164","235749","0.0-6.0-0.0-8.0-0.28","4","4","4","4","3","3","3","4","4","3","4","4","4","3","4","4","4","3","4","4","2","3","3","2","2","2","2","3","1","1","0","1","1","0","0","0","1","0","1","1","0","1","0","1","4","3","3","2","2","","1","3","4","4","3","784384274496491522","王","110","","","","","","","","","","","","","","","","","","","","","","","","","","","","","","","","","","","","","","","","","",""
"501","<p style=""color:rgb(150, 250, 100); font-size: 35px;"">他人的</p>","e","categorize-html","165","236253","0.0-6.0-0.0-8.0-1.28","4","4","4","4","3","3","3","4","4","3","4","4","4","3","4","4","4","3","4","4","2","3","3","2","2","2","2","3","1","1","0","1","1","0","0","0","1","0","1","1","0","1","0","1","4","3","3","2","2","","1","3","4","4","3","784384274496491522","王","110","","","","","","","","","","","","","","","","","","","true","4","4","ability","501","other","他人的","","","","","","","","","","","","","","","","",""
"null","","null","html-keyboard-response","166","236512","0.0-6.0-0.0-8.0-0.29","4","4","4","4","3","3","3","4","4","3","4","4","4","3","4","4","4","3","4","4","2","3","3","2","2","2","2","3","1","1","0","1","1","0","0","0","1","0","1","1","0","1","0","1","4","3","3","2","2","","1","3","4","4","3","784384274496491522","王","110","","","","","","","","","","","","","","","","","","","","","","","","","","","","","","","","","","","","","","","","","",""
"820","<p style=""color:white; font-size: 35px;"">能干</p>","i","categorize-html","167","237335","0.0-6.0-0.0-8.0-1.29","4","4","4","4","3","3","3","4","4","3","4","4","4","3","4","4","4","3","4","4","2","3","3","2","2","2","2","3","1","1","0","1","1","0","0","0","1","0","1","1","0","1","0","1","4","3","3","2","2","","1","3","4","4","3","784384274496491522","王","110","","","","","","","","","","","","","","","","","","","true","4","4","ability","820","positive","能干","","","","","","","","","","","","","","","","",""
"null","","null","html-keyboard-response","168","237591","0.0-6.0-0.0-8.0-0.30","4","4","4","4","3","3","3","4","4","3","4","4","4","3","4","4","4","3","4","4","2","3","3","2","2","2","2","3","1","1","0","1","1","0","0","0","1","0","1","1","0","1","0","1","4","3","3","2","2","","1","3","4","4","3","784384274496491522","王","110","","","","","","","","","","","","","","","","","","","","","","","","","","","","","","","","","","","","","","","","","",""
"602","<p style=""color:rgb(150, 250, 100); font-size: 35px;"">我的</p>","i","categorize-html","169","238197","0.0-6.0-0.0-8.0-1.30","4","4","4","4","3","3","3","4","4","3","4","4","4","3","4","4","4","3","4","4","2","3","3","2","2","2","2","3","1","1","0","1","1","0","0","0","1","0","1","1","0","1","0","1","4","3","3","2","2","","1","3","4","4","3","784384274496491522","王","110","","","","","","","","","","","","","","","","","","","true","4","4","ability","602","self","我的","","","","","","","","","","","","","","","","",""
"null","","null","html-keyboard-response","170","238448","0.0-6.0-0.0-8.0-0.31","4","4","4","4","3","3","3","4","4","3","4","4","4","3","4","4","4","3","4","4","2","3","3","2","2","2","2","3","1","1","0","1","1","0","0","0","1","0","1","1","0","1","0","1","4","3","3","2","2","","1","3","4","4","3","784384274496491522","王","110","","","","","","","","","","","","","","","","","","","","","","","","","","","","","","","","","","","","","","","","","",""
"547","<p style=""color:white; font-size: 35px;"">拙笨</p>","e","categorize-html","171","238999","0.0-6.0-0.0-8.0-1.31","4","4","4","4","3","3","3","4","4","3","4","4","4","3","4","4","4","3","4","4","2","3","3","2","2","2","2","3","1","1","0","1","1","0","0","0","1","0","1","1","0","1","0","1","4","3","3","2","2","","1","3","4","4","3","784384274496491522","王","110","","","","","","","","","","","","","","","","","","","true","4","4","ability","547","negative","拙笨","","","","","","","","","","","","","","","","",""
"null","","null","html-keyboard-response","172","239259","0.0-6.0-0.0-8.0-0.32","4","4","4","4","3","3","3","4","4","3","4","4","4","3","4","4","4","3","4","4","2","3","3","2","2","2","2","3","1","1","0","1","1","0","0","0","1","0","1","1","0","1","0","1","4","3","3","2","2","","1","3","4","4","3","784384274496491522","王","110","","","","","","","","","","","","","","","","","","","","","","","","","","","","","","","","","","","","","","","","","",""
"655","<p style=""color:rgb(150, 250, 100); font-size: 35px;"">本人</p>","i","categorize-html","173","239917","0.0-6.0-0.0-8.0-1.32","4","4","4","4","3","3","3","4","4","3","4","4","4","3","4","4","4","3","4","4","2","3","3","2","2","2","2","3","1","1","0","1","1","0","0","0","1","0","1","1","0","1","0","1","4","3","3","2","2","","1","3","4","4","3","784384274496491522","王","110","","","","","","","","","","","","","","","","","","","true","4","4","ability","655","self","本人","","","","","","","","","","","","","","","","",""
"null","","null","html-keyboard-response","174","240177","0.0-6.0-0.0-8.0-0.33","4","4","4","4","3","3","3","4","4","3","4","4","4","3","4","4","4","3","4","4","2","3","3","2","2","2","2","3","1","1","0","1","1","0","0","0","1","0","1","1","0","1","0","1","4","3","3","2","2","","1","3","4","4","3","784384274496491522","王","110","","","","","","","","","","","","","","","","","","","","","","","","","","","","","","","","","","","","","","","","","",""
"887","<p style=""color:white; font-size: 35px;"">蠢笨</p>","e","categorize-html","175","241068","0.0-6.0-0.0-8.0-1.33","4","4","4","4","3","3","3","4","4","3","4","4","4","3","4","4","4","3","4","4","2","3","3","2","2","2","2","3","1","1","0","1","1","0","0","0","1","0","1","1","0","1","0","1","4","3","3","2","2","","1","3","4","4","3","784384274496491522","王","110","","","","","","","","","","","","","","","","","","","true","4","4","ability","887","negative","蠢笨","","","","","","","","","","","","","","","","",""
"null","","null","html-keyboard-response","176","241328","0.0-6.0-0.0-8.0-0.34","4","4","4","4","3","3","3","4","4","3","4","4","4","3","4","4","4","3","4","4","2","3","3","2","2","2","2","3","1","1","0","1","1","0","0","0","1","0","1","1","0","1","0","1","4","3","3","2","2","","1","3","4","4","3","784384274496491522","王","110","","","","","","","","","","","","","","","","","","","","","","","","","","","","","","","","","","","","","","","","","",""
"498","<p style=""color:rgb(150, 250, 100); font-size: 35px;"">他</p>","e","categorize-html","177","241829","0.0-6.0-0.0-8.0-1.34","4","4","4","4","3","3","3","4","4","3","4","4","4","3","4","4","4","3","4","4","2","3","3","2","2","2","2","3","1","1","0","1","1","0","0","0","1","0","1","1","0","1","0","1","4","3","3","2","2","","1","3","4","4","3","784384274496491522","王","110","","","","","","","","","","","","","","","","","","","true","4","4","ability","498","other","他","","","","","","","","","","","","","","","","",""
"null","","null","html-keyboard-response","178","242090","0.0-6.0-0.0-8.0-0.35","4","4","4","4","3","3","3","4","4","3","4","4","4","3","4","4","4","3","4","4","2","3","3","2","2","2","2","3","1","1","0","1","1","0","0","0","1","0","1","1","0","1","0","1","4","3","3","2","2","","1","3","4","4","3","784384274496491522","王","110","","","","","","","","","","","","","","","","","","","","","","","","","","","","","","","","","","","","","","","","","",""
"530","<p style=""color:white; font-size: 35px;"">天才</p>","i","categorize-html","179","242623","0.0-6.0-0.0-8.0-1.35","4","4","4","4","3","3","3","4","4","3","4","4","4","3","4","4","4","3","4","4","2","3","3","2","2","2","2","3","1","1","0","1","1","0","0","0","1","0","1","1","0","1","0","1","4","3","3","2","2","","1","3","4","4","3","784384274496491522","王","110","","","","","","","","","","","","","","","","","","","true","4","4","ability","530","positive","天才","","","","","","","","","","","","","","","","",""
"null","","null","html-keyboard-response","180","242883","0.0-6.0-0.0-8.0-0.36","4","4","4","4","3","3","3","4","4","3","4","4","4","3","4","4","4","3","4","4","2","3","3","2","2","2","2","3","1","1","0","1","1","0","0","0","1","0","1","1","0","1","0","1","4","3","3","2","2","","1","3","4","4","3","784384274496491522","王","110","","","","","","","","","","","","","","","","","","","","","","","","","","","","","","","","","","","","","","","","","",""
"645","<p style=""color:rgb(150, 250, 100); font-size: 35px;"">他人的</p>","e","categorize-html","181","243531","0.0-6.0-0.0-8.0-1.36","4","4","4","4","3","3","3","4","4","3","4","4","4","3","4","4","4","3","4","4","2","3","3","2","2","2","2","3","1","1","0","1","1","0","0","0","1","0","1","1","0","1","0","1","4","3","3","2","2","","1","3","4","4","3","784384274496491522","王","110","","","","","","","","","","","","","","","","","","","true","4","4","ability","645","other","他人的","","","","","","","","","","","","","","","","",""
"null","","null","html-keyboard-response","182","243787","0.0-6.0-0.0-8.0-0.37","4","4","4","4","3","3","3","4","4","3","4","4","4","3","4","4","4","3","4","4","2","3","3","2","2","2","2","3","1","1","0","1","1","0","0","0","1","0","1","1","0","1","0","1","4","3","3","2","2","","1","3","4","4","3","784384274496491522","王","110","","","","","","","","","","","","","","","","","","","","","","","","","","","","","","","","","","","","","","","","","",""
"600","<p style=""color:white; font-size: 35px;"">废物</p>","e","categorize-html","183","244390","0.0-6.0-0.0-8.0-1.37","4","4","4","4","3","3","3","4","4","3","4","4","4","3","4","4","4","3","4","4","2","3","3","2","2","2","2","3","1","1","0","1","1","0","0","0","1","0","1","1","0","1","0","1","4","3","3","2","2","","1","3","4","4","3","784384274496491522","王","110","","","","","","","","","","","","","","","","","","","true","4","4","ability","600","negative","废物","","","","","","","","","","","","","","","","",""
"null","","null","html-keyboard-response","184","244655","0.0-6.0-0.0-8.0-0.38","4","4","4","4","3","3","3","4","4","3","4","4","4","3","4","4","4","3","4","4","2","3","3","2","2","2","2","3","1","1","0","1","1","0","0","0","1","0","1","1","0","1","0","1","4","3","3","2","2","","1","3","4","4","3","784384274496491522","王","110","","","","","","","","","","","","","","","","","","","","","","","","","","","","","","","","","","","","","","","","","",""
"521","<p style=""color:rgb(150, 250, 100); font-size: 35px;"">本人的</p>","i","categorize-html","185","245180","0.0-6.0-0.0-8.0-1.38","4","4","4","4","3","3","3","4","4","3","4","4","4","3","4","4","4","3","4","4","2","3","3","2","2","2","2","3","1","1","0","1","1","0","0","0","1","0","1","1","0","1","0","1","4","3","3","2","2","","1","3","4","4","3","784384274496491522","王","110","","","","","","","","","","","","","","","","","","","true","4","4","ability","521","self","本人的","","","","","","","","","","","","","","","","",""
"null","","null","html-keyboard-response","186","245432","0.0-6.0-0.0-8.0-0.39","4","4","4","4","3","3","3","4","4","3","4","4","4","3","4","4","4","3","4","4","2","3","3","2","2","2","2","3","1","1","0","1","1","0","0","0","1","0","1","1","0","1","0","1","4","3","3","2","2","","1","3","4","4","3","784384274496491522","王","110","","","","","","","","","","","","","","","","","","","","","","","","","","","","","","","","","","","","","","","","","",""
"610","<p style=""color:white; font-size: 35px;"">全能</p>","i","categorize-html","187","246046","0.0-6.0-0.0-8.0-1.39","4","4","4","4","3","3","3","4","4","3","4","4","4","3","4","4","4","3","4","4","2","3","3","2","2","2","2","3","1","1","0","1","1","0","0","0","1","0","1","1","0","1","0","1","4","3","3","2","2","","1","3","4","4","3","784384274496491522","王","110","","","","","","","","","","","","","","","","","","","true","4","4","ability","610","positive","全能","","","","","","","","","","","","","","","","",""
"null","","null","html-keyboard-response","188","246304","0.0-6.0-0.0-8.0-0.40","4","4","4","4","3","3","3","4","4","3","4","4","4","3","4","4","4","3","4","4","2","3","3","2","2","2","2","3","1","1","0","1","1","0","0","0","1","0","1","1","0","1","0","1","4","3","3","2","2","","1","3","4","4","3","784384274496491522","王","110","","","","","","","","","","","","","","","","","","","","","","","","","","","","","","","","","","","","","","","","","",""
"523","<p style=""color:rgb(150, 250, 100); font-size: 35px;"">自己的</p>","i","categorize-html","189","246831","0.0-6.0-0.0-8.0-1.40","4","4","4","4","3","3","3","4","4","3","4","4","4","3","4","4","4","3","4","4","2","3","3","2","2","2","2","3","1","1","0","1","1","0","0","0","1","0","1","1","0","1","0","1","4","3","3","2","2","","1","3","4","4","3","784384274496491522","王","110","","","","","","","","","","","","","","","","","","","true","4","4","ability","523","self","自己的","","","","","","","","","","","","","","","","",""
"null","","null","html-keyboard-response","190","247085","0.0-6.0-0.0-8.0-0.41","4","4","4","4","3","3","3","4","4","3","4","4","4","3","4","4","4","3","4","4","2","3","3","2","2","2","2","3","1","1","0","1","1","0","0","0","1","0","1","1","0","1","0","1","4","3","3","2","2","","1","3","4","4","3","784384274496491522","王","110","","","","","","","","","","","","","","","","","","","","","","","","","","","","","","","","","","","","","","","","","",""
"817","<p style=""color:white; font-size: 35px;"">低能</p>","e","categorize-html","191","247906","0.0-6.0-0.0-8.0-1.41","4","4","4","4","3","3","3","4","4","3","4","4","4","3","4","4","4","3","4","4","2","3","3","2","2","2","2","3","1","1","0","1","1","0","0","0","1","0","1","1","0","1","0","1","4","3","3","2","2","","1","3","4","4","3","784384274496491522","王","110","","","","","","","","","","","","","","","","","","","true","4","4","ability","817","negative","低能","","","","","","","","","","","","","","","","",""
"null","","null","html-keyboard-response","192","248170","0.0-6.0-0.0-8.0-0.42","4","4","4","4","3","3","3","4","4","3","4","4","4","3","4","4","4","3","4","4","2","3","3","2","2","2","2","3","1","1","0","1","1","0","0","0","1","0","1","1","0","1","0","1","4","3","3","2","2","","1","3","4","4","3","784384274496491522","王","110","","","","","","","","","","","","","","","","","","","","","","","","","","","","","","","","","","","","","","","","","",""
"562","<p style=""color:rgb(150, 250, 100); font-size: 35px;"">他人</p>","e","categorize-html","193","248736","0.0-6.0-0.0-8.0-1.42","4","4","4","4","3","3","3","4","4","3","4","4","4","3","4","4","4","3","4","4","2","3","3","2","2","2","2","3","1","1","0","1","1","0","0","0","1","0","1","1","0","1","0","1","4","3","3","2","2","","1","3","4","4","3","784384274496491522","王","110","","","","","","","","","","","","","","","","","","","true","4","4","ability","562","other","他人","","","","","","","","","","","","","","","","",""
