"rt","stimulus","response","trial_type","trial_index","time_elapsed","internal_node_id","ses_1","ses_2","ses_3","ses_4","ses_5","ses_6","ses_7","ses_8","ses_9","ses_10","coreself_1","coreself_2","coreself_3","coreself_4","coreself_5","coreself_6","coreself_7","coreself_8","coreself_9","coreself_10","SGPS_1","SGPS_2","SGPS_3","SGPS_4","SGPS_5","SGPS_6","SGPS_7","SGPS_8","SGPS_9","NPI1","NPI2","NPI3","NPI4","NPI5","NPI6","NPI7","NPI8","NPI9","NPI10","NPI11","NPI12","NPI13","NPI14","NPI15","hsns_1","hsns_2","hsns_3","hsns_4","hsns_5","trap1","hsns_6","hsns_7","hsns_8","hsns_9","hsns_10","subj_idx","friend_name","ParticipantID","value","success","user_agent","responses","item_order","radio_event_ids","radio_event_times","key_event_times","mouse_event_times","straightlining","zigzagging","honeypot","timeout","failed_images","failed_audio","failed_video","version_attrib2","version_target2","correct","IAT","screen_id","task_id","RT","condition","word","varname","summary","version_attrib","version_target","time_stamp","view_history","response_type","key_press","avg_frame_time","center_x","center_y","correct_response","identity","Image","question_order","correct_answer","trap1_item"
"975","
   <p><div style = ""color: white;font-size:25px;"">您好，欢迎参加本次实验。</div> </p>
   <p><div style = ""color: white;font-size:25px;"">为充分保障您的权利，请确保您已经知晓并同意《参与实验同意书》以及《数据公开知情同意书》。</div></p>
   <p><div style = ""color: white;font-size:25px;"">如果您未见过上述内容，请咨询实验员。</div></p>
   <p><div style = ""color: white;font-size:25px;"">如果您选择继续实验，则表示您已经清楚两份知情同意书的内容并同意。</div></p>
   <p><div style = ""color: pink;font-size:30px;"">请确保您记得day0的实验编号，您将在本次实验输入该编号，若您忘记，请咨询实验员后作答。</div></p>
   <p><div style = ""color: lightblue;font-size:25px;"">请您尽可能认真地作答，我们将依据您在各问卷和按键任务中的作答质量发放报酬。</div></p>
   <p> <div style = ""color: green;font-size:25px;""><按空格键至下页></div> </p>
   "," ","html-keyboard-response","0","977","0.0-0.0","4","4","4","4","4","4","4","4","4","4","5","5","5","5","5","4","5","5","5","5","1","1","1","1","1","1","1","1","1","1","0","1","1","0","0","0","1","0","1","1","0","0","1","1","5","1","1","1","2","1","2","3","5","1","","672909992034041856","王","700","","","","","","","","","","","","","","","","","","","","","","","","","","","","","","","","","","","","","","","","","",""
"","","","call-function","1","977","0.0-1.0-0.0","4","4","4","4","4","4","4","4","4","4","5","5","5","5","5","4","5","5","5","5","1","1","1","1","1","1","1","1","1","1","0","1","1","0","0","0","1","0","1","1","0","0","1","1","5","1","1","1","2","1","2","3","5","1","","672909992034041856","王","700","","","","","","","","","","","","","","","","","","","","","","","","","","","","","","","","","","","","","","","","","",""
"9898","","{""friend_name"":""王"",""ParticipantID"":""700""}","survey-html-form","2","10876","0.0-1.0-1.0","4","4","4","4","4","4","4","4","4","4","5","5","5","5","5","4","5","5","5","5","1","1","1","1","1","1","1","1","1","1","0","1","1","0","0","0","1","0","1","1","0","0","1","1","5","1","1","1","2","1","2","3","5","1","","672909992034041856","王","700","","","","","","","","","","","","","","","","","","","","","","","","","","","","","","","","","","","","","","","","","",""
"","","","fullscreen","3","12737","0.0-2.0","4","4","4","4","4","4","4","4","4","4","5","5","5","5","5","4","5","5","5","5","1","1","1","1","1","1","1","1","1","1","0","1","1","0","0","0","1","0","1","1","0","0","1","1","5","1","1","1","2","1","2","3","5","1","","672909992034041856","王","700","","true","{}","","","","","","","","","","","","","","","","","","","","","","","","","","","","","","","","","","","","","","",""
"77921.70000004768","","{""Q01"":""4"",""Q02"":""4"",""Q03"":""4"",""Q04"":""4"",""Q05"":""4"",""Q06"":""4"",""Q07"":""4"",""Q08"":""4"",""Q09"":""4"",""Q10"":""4""}","survey-template","4","90660","0.0-3.0","4","4","4","4","4","4","4","4","4","4","5","5","5","5","5","4","5","5","5","5","1","1","1","1","1","1","1","1","1","1","0","1","1","0","0","0","1","0","1","1","0","0","1","1","5","1","1","1","2","1","2","3","5","1","","672909992034041856","王","700","","","","{""Q01"":""4"",""Q02"":""4"",""Q03"":""4"",""Q04"":""4"",""Q05"":""4"",""Q06"":""4"",""Q07"":""4"",""Q08"":""4"",""Q09"":""4"",""Q10"":""4""}","[0,1,2,3,4,5,6,7,8,9]","[""Q01"",""Q02"",""Q03"",""Q04"",""Q05"",""Q05"",""Q06"",""Q07"",""Q08"",""Q09"",""Q10""]","[39169.60000002384,39992.799999952316,40777.200000047684,41897.299999952316,42720.89999997616,42889,43856.5,44416.700000047684,45058.200000047684,45329,46288.60000002384]","[]","[39169.60000002384,39992.799999952316,40777.200000047684,41897.299999952316,42720.89999997616,42889,43856.5,44416.700000047684,45058.200000047684,45329,45744.700000047684,46288.60000002384,77920.89999997616]","0.5","0.5555555555555556","0","","","","","","","","","","","","","","","","","","","","","","","","","","","","","",""
"37684.200000047684","","{""Q01"":""5"",""Q02"":""5"",""Q03"":""5"",""Q04"":""5"",""Q05"":""5"",""Q06"":""4"",""Q07"":""5"",""Q08"":""5"",""Q09"":""5"",""Q10"":""5""}","survey-template","5","128348","0.0-4.0","4","4","4","4","4","4","4","4","4","4","5","5","5","5","5","4","5","5","5","5","1","1","1","1","1","1","1","1","1","1","0","1","1","0","0","0","1","0","1","1","0","0","1","1","5","1","1","1","2","1","2","3","5","1","","672909992034041856","王","700","","","","{""Q01"":""5"",""Q02"":""5"",""Q03"":""5"",""Q04"":""5"",""Q05"":""5"",""Q06"":""4"",""Q07"":""5"",""Q08"":""5"",""Q09"":""5"",""Q10"":""5""}","[0,1,2,3,4,5,6,7,8,9]","[""Q01"",""Q02"",""Q03"",""Q04"",""Q05"",""Q06"",""Q07"",""Q08"",""Q09"",""Q10"",""Q06""]","[1515.3000000715256,2939.7000000476837,3227.5,4244,5299.400000095367,6123.800000071526,7331.900000095367,7971.900000095367,8811.300000071526,9763.600000023842,30795.5]","[]","[1515.3000000715256,2492.100000023842,2939.7000000476837,3227.5,4244,5299.400000095367,6123.800000071526,7331.900000095367,7971.900000095367,8811.300000071526,9763.600000023842,30795.5,37683.40000009537]","0.6","0.5555555555555556","0","","","","","","","","","","","","","","","","","","","","","","","","","","","","","",""
"","","","preload","6","128782","0.0-5.0","4","4","4","4","4","4","4","4","4","4","5","5","5","5","5","4","5","5","5","5","1","1","1","1","1","1","1","1","1","1","0","1","1","0","0","0","1","0","1","1","0","0","1","1","5","1","1","1","2","1","2","3","5","1","","672909992034041856","王","700","","true","","","","","","","","","","","false","[]","[]","[]","","","","","","","","","","","","","","","","","","","","","","","","","",""
"34685","
    <h3>词语分类任务</h3>
    <p>在接下来的任务中，你需要对一系列词语进行分类。<p/>
    请先熟悉这些词语，这有利于你完成接下来的任务。</p>
    <table align=""center"" border=1 cellpadding=3 cellspacing=0>
    <tr> <th>类别</th> <th>词语</th> </tr>
    <tr> <td>&emsp;积极&emsp;</td> <td>&emsp;高尚、诚信、善良、君子、廉正、正直&emsp;</td> </tr>
    <tr> <td>&emsp;消极&emsp;</td> <td>&emsp;缺德、卑鄙、不孝、不仁、小人、黑心&emsp;</td> </tr>
    <tr> <td>&emsp;自我&emsp;</td> <td>&emsp;我、我的、自己、自己的、本人、本人的&emsp;</td> </tr>
    <tr> <td>&emsp;他人&emsp;</td> <td>&emsp;他、他的、别人、别人的、他人、他人的&emsp;</td> </tr>
    </table><br/>","0","html-button-response","7","163468","0.0-6.0-1.0-0.0","4","4","4","4","4","4","4","4","4","4","5","5","5","5","5","4","5","5","5","5","1","1","1","1","1","1","1","1","1","1","0","1","1","0","0","0","1","0","1","1","0","0","1","1","5","1","1","1","2","1","2","3","5","1","","672909992034041856","王","700","","","","","","","","","","","","","","","","","1","1","","","","","","","","","","","","","","","","","","","","","","","",""
"23457","
    <div class=""tag-bottom""><p>
    —— 任务1：对“自我”词和“他人”词分类 ——<p/>
    不同词语会出现在屏幕中央，类别标签将始终显示在屏幕上方<p/>   
    <span style=""color:#FFD866""><b>请根据上方标签的提示，尽可能正确并且快速地做出按键反应</b></span><p/>
    当按键错误时屏幕中会出现<span style=""color:red""> X </span>，需要按另一个键纠正才能继续<br/><p/>
    请把双手食指分别放在键盘的“E”键和“I”键上<p/>
    按<空格键>开始
    </p></div>"," ","html-keyboard-response","8","186927","0.0-6.0-1.0-1.0","4","4","4","4","4","4","4","4","4","4","5","5","5","5","5","4","5","5","5","5","1","1","1","1","1","1","1","1","1","1","0","1","1","0","0","0","1","0","1","1","0","0","1","1","5","1","1","1","2","1","2","3","5","1","","672909992034041856","王","700","","","","","","","","","","","","","","","","","","","","","","","","","","","","","","","","","","","","","","","","","",""
"null","","null","html-keyboard-response","9","187177","0.0-6.0-1.0-2.0-0.0","4","4","4","4","4","4","4","4","4","4","5","5","5","5","5","4","5","5","5","5","1","1","1","1","1","1","1","1","1","1","0","1","1","0","0","0","1","0","1","1","0","0","1","1","5","1","1","1","2","1","2","3","5","1","","672909992034041856","王","700","","","","","","","","","","","","","","","","","","","","","","","","","","","","","","","","","","","","","","","","","",""
"575","<p style=""color:rgb(150, 250, 100); font-size: 35px;"">他</p>","i","categorize-html","10","187757","0.0-6.0-1.0-2.0-1.0","4","4","4","4","4","4","4","4","4","4","5","5","5","5","5","4","5","5","5","5","1","1","1","1","1","1","1","1","1","1","0","1","1","0","0","0","1","0","1","1","0","0","1","1","5","1","1","1","2","1","2","3","5","1","","672909992034041856","王","700","","","","","","","","","","","","","","","","","","","true","11","1","moral","575","other","他","","","","","","","","","","","","","","","","",""
"null","","null","html-keyboard-response","11","188008","0.0-6.0-1.0-2.0-0.1","4","4","4","4","4","4","4","4","4","4","5","5","5","5","5","4","5","5","5","5","1","1","1","1","1","1","1","1","1","1","0","1","1","0","0","0","1","0","1","1","0","0","1","1","5","1","1","1","2","1","2","3","5","1","","672909992034041856","王","700","","","","","","","","","","","","","","","","","","","","","","","","","","","","","","","","","","","","","","","","","",""
"418","<p style=""color:rgb(150, 250, 100); font-size: 35px;"">自己的</p>","e","categorize-html","12","188428","0.0-6.0-1.0-2.0-1.1","4","4","4","4","4","4","4","4","4","4","5","5","5","5","5","4","5","5","5","5","1","1","1","1","1","1","1","1","1","1","0","1","1","0","0","0","1","0","1","1","0","0","1","1","5","1","1","1","2","1","2","3","5","1","","672909992034041856","王","700","","","","","","","","","","","","","","","","","","","true","11","1","moral","418","self","自己的","","","","","","","","","","","","","","","","",""
"null","","null","html-keyboard-response","13","188679","0.0-6.0-1.0-2.0-0.2","4","4","4","4","4","4","4","4","4","4","5","5","5","5","5","4","5","5","5","5","1","1","1","1","1","1","1","1","1","1","0","1","1","0","0","0","1","0","1","1","0","0","1","1","5","1","1","1","2","1","2","3","5","1","","672909992034041856","王","700","","","","","","","","","","","","","","","","","","","","","","","","","","","","","","","","","","","","","","","","","",""
"435","<p style=""color:rgb(150, 250, 100); font-size: 35px;"">别人的</p>","i","categorize-html","14","189116","0.0-6.0-1.0-2.0-1.2","4","4","4","4","4","4","4","4","4","4","5","5","5","5","5","4","5","5","5","5","1","1","1","1","1","1","1","1","1","1","0","1","1","0","0","0","1","0","1","1","0","0","1","1","5","1","1","1","2","1","2","3","5","1","","672909992034041856","王","700","","","","","","","","","","","","","","","","","","","true","11","1","moral","435","other","别人的","","","","","","","","","","","","","","","","",""
"null","","null","html-keyboard-response","15","189366","0.0-6.0-1.0-2.0-0.3","4","4","4","4","4","4","4","4","4","4","5","5","5","5","5","4","5","5","5","5","1","1","1","1","1","1","1","1","1","1","0","1","1","0","0","0","1","0","1","1","0","0","1","1","5","1","1","1","2","1","2","3","5","1","","672909992034041856","王","700","","","","","","","","","","","","","","","","","","","","","","","","","","","","","","","","","","","","","","","","","",""
"353","<p style=""color:rgb(150, 250, 100); font-size: 35px;"">他人的</p>","i","categorize-html","16","189719","0.0-6.0-1.0-2.0-1.3","4","4","4","4","4","4","4","4","4","4","5","5","5","5","5","4","5","5","5","5","1","1","1","1","1","1","1","1","1","1","0","1","1","0","0","0","1","0","1","1","0","0","1","1","5","1","1","1","2","1","2","3","5","1","","672909992034041856","王","700","","","","","","","","","","","","","","","","","","","true","11","1","moral","353","other","他人的","","","","","","","","","","","","","","","","",""
"null","","null","html-keyboard-response","17","189971","0.0-6.0-1.0-2.0-0.4","4","4","4","4","4","4","4","4","4","4","5","5","5","5","5","4","5","5","5","5","1","1","1","1","1","1","1","1","1","1","0","1","1","0","0","0","1","0","1","1","0","0","1","1","5","1","1","1","2","1","2","3","5","1","","672909992034041856","王","700","","","","","","","","","","","","","","","","","","","","","","","","","","","","","","","","","","","","","","","","","",""
"486","<p style=""color:rgb(150, 250, 100); font-size: 35px;"">他的</p>","i","categorize-html","18","190458","0.0-6.0-1.0-2.0-1.4","4","4","4","4","4","4","4","4","4","4","5","5","5","5","5","4","5","5","5","5","1","1","1","1","1","1","1","1","1","1","0","1","1","0","0","0","1","0","1","1","0","0","1","1","5","1","1","1","2","1","2","3","5","1","","672909992034041856","王","700","","","","","","","","","","","","","","","","","","","true","11","1","moral","486","other","他的","","","","","","","","","","","","","","","","",""
"null","","null","html-keyboard-response","19","190711","0.0-6.0-1.0-2.0-0.5","4","4","4","4","4","4","4","4","4","4","5","5","5","5","5","4","5","5","5","5","1","1","1","1","1","1","1","1","1","1","0","1","1","0","0","0","1","0","1","1","0","0","1","1","5","1","1","1","2","1","2","3","5","1","","672909992034041856","王","700","","","","","","","","","","","","","","","","","","","","","","","","","","","","","","","","","","","","","","","","","",""
"679","<p style=""color:rgb(150, 250, 100); font-size: 35px;"">他人</p>","i","categorize-html","20","191390","0.0-6.0-1.0-2.0-1.5","4","4","4","4","4","4","4","4","4","4","5","5","5","5","5","4","5","5","5","5","1","1","1","1","1","1","1","1","1","1","0","1","1","0","0","0","1","0","1","1","0","0","1","1","5","1","1","1","2","1","2","3","5","1","","672909992034041856","王","700","","","","","","","","","","","","","","","","","","","true","11","1","moral","679","other","他人","","","","","","","","","","","","","","","","",""
"null","","null","html-keyboard-response","21","191641","0.0-6.0-1.0-2.0-0.6","4","4","4","4","4","4","4","4","4","4","5","5","5","5","5","4","5","5","5","5","1","1","1","1","1","1","1","1","1","1","0","1","1","0","0","0","1","0","1","1","0","0","1","1","5","1","1","1","2","1","2","3","5","1","","672909992034041856","王","700","","","","","","","","","","","","","","","","","","","","","","","","","","","","","","","","","","","","","","","","","",""
"492","<p style=""color:rgb(150, 250, 100); font-size: 35px;"">我</p>","e","categorize-html","22","192133","0.0-6.0-1.0-2.0-1.6","4","4","4","4","4","4","4","4","4","4","5","5","5","5","5","4","5","5","5","5","1","1","1","1","1","1","1","1","1","1","0","1","1","0","0","0","1","0","1","1","0","0","1","1","5","1","1","1","2","1","2","3","5","1","","672909992034041856","王","700","","","","","","","","","","","","","","","","","","","true","11","1","moral","492","self","我","","","","","","","","","","","","","","","","",""
"null","","null","html-keyboard-response","23","192384","0.0-6.0-1.0-2.0-0.7","4","4","4","4","4","4","4","4","4","4","5","5","5","5","5","4","5","5","5","5","1","1","1","1","1","1","1","1","1","1","0","1","1","0","0","0","1","0","1","1","0","0","1","1","5","1","1","1","2","1","2","3","5","1","","672909992034041856","王","700","","","","","","","","","","","","","","","","","","","","","","","","","","","","","","","","","","","","","","","","","",""
"516","<p style=""color:rgb(150, 250, 100); font-size: 35px;"">自己</p>","e","categorize-html","24","192901","0.0-6.0-1.0-2.0-1.7","4","4","4","4","4","4","4","4","4","4","5","5","5","5","5","4","5","5","5","5","1","1","1","1","1","1","1","1","1","1","0","1","1","0","0","0","1","0","1","1","0","0","1","1","5","1","1","1","2","1","2","3","5","1","","672909992034041856","王","700","","","","","","","","","","","","","","","","","","","true","11","1","moral","516","self","自己","","","","","","","","","","","","","","","","",""
"null","","null","html-keyboard-response","25","193153","0.0-6.0-1.0-2.0-0.8","4","4","4","4","4","4","4","4","4","4","5","5","5","5","5","4","5","5","5","5","1","1","1","1","1","1","1","1","1","1","0","1","1","0","0","0","1","0","1","1","0","0","1","1","5","1","1","1","2","1","2","3","5","1","","672909992034041856","王","700","","","","","","","","","","","","","","","","","","","","","","","","","","","","","","","","","","","","","","","","","",""
"729","<p style=""color:rgb(150, 250, 100); font-size: 35px;"">我的</p>","e","categorize-html","26","193884","0.0-6.0-1.0-2.0-1.8","4","4","4","4","4","4","4","4","4","4","5","5","5","5","5","4","5","5","5","5","1","1","1","1","1","1","1","1","1","1","0","1","1","0","0","0","1","0","1","1","0","0","1","1","5","1","1","1","2","1","2","3","5","1","","672909992034041856","王","700","","","","","","","","","","","","","","","","","","","true","11","1","moral","729","self","我的","","","","","","","","","","","","","","","","",""
"null","","null","html-keyboard-response","27","194135","0.0-6.0-1.0-2.0-0.9","4","4","4","4","4","4","4","4","4","4","5","5","5","5","5","4","5","5","5","5","1","1","1","1","1","1","1","1","1","1","0","1","1","0","0","0","1","0","1","1","0","0","1","1","5","1","1","1","2","1","2","3","5","1","","672909992034041856","王","700","","","","","","","","","","","","","","","","","","","","","","","","","","","","","","","","","","","","","","","","","",""
"461","<p style=""color:rgb(150, 250, 100); font-size: 35px;"">本人</p>","i","categorize-html","28","195011","0.0-6.0-1.0-2.0-1.9","4","4","4","4","4","4","4","4","4","4","5","5","5","5","5","4","5","5","5","5","1","1","1","1","1","1","1","1","1","1","0","1","1","0","0","0","1","0","1","1","0","0","1","1","5","1","1","1","2","1","2","3","5","1","","672909992034041856","王","700","","","","","","","","","","","","","","","","","","","false","11","1","moral","461","self","本人","","","","","","","","","","","","","","","","",""
"null","","null","html-keyboard-response","29","195262","0.0-6.0-1.0-2.0-0.10","4","4","4","4","4","4","4","4","4","4","5","5","5","5","5","4","5","5","5","5","1","1","1","1","1","1","1","1","1","1","0","1","1","0","0","0","1","0","1","1","0","0","1","1","5","1","1","1","2","1","2","3","5","1","","672909992034041856","王","700","","","","","","","","","","","","","","","","","","","","","","","","","","","","","","","","","","","","","","","","","",""
"616","<p style=""color:rgb(150, 250, 100); font-size: 35px;"">别人</p>","i","categorize-html","30","195879","0.0-6.0-1.0-2.0-1.10","4","4","4","4","4","4","4","4","4","4","5","5","5","5","5","4","5","5","5","5","1","1","1","1","1","1","1","1","1","1","0","1","1","0","0","0","1","0","1","1","0","0","1","1","5","1","1","1","2","1","2","3","5","1","","672909992034041856","王","700","","","","","","","","","","","","","","","","","","","true","11","1","moral","616","other","别人","","","","","","","","","","","","","","","","",""
"null","","null","html-keyboard-response","31","196131","0.0-6.0-1.0-2.0-0.11","4","4","4","4","4","4","4","4","4","4","5","5","5","5","5","4","5","5","5","5","1","1","1","1","1","1","1","1","1","1","0","1","1","0","0","0","1","0","1","1","0","0","1","1","5","1","1","1","2","1","2","3","5","1","","672909992034041856","王","700","","","","","","","","","","","","","","","","","","","","","","","","","","","","","","","","","","","","","","","","","",""
"545","<p style=""color:rgb(150, 250, 100); font-size: 35px;"">本人的</p>","e","categorize-html","32","196677","0.0-6.0-1.0-2.0-1.11","4","4","4","4","4","4","4","4","4","4","5","5","5","5","5","4","5","5","5","5","1","1","1","1","1","1","1","1","1","1","0","1","1","0","0","0","1","0","1","1","0","0","1","1","5","1","1","1","2","1","2","3","5","1","","672909992034041856","王","700","","","","","","","","","","","","","","","","","","","true","11","1","moral","545","self","本人的","","","","","","","","","","","","","","","","",""
"26066","
    <div class=""tag-bottom""><p>
    —— 任务2：对“积极”词和“消极”词分类 ——<p/>   
    <span style=""color:#78DCE8""><b>注意上方，类别标签和需要分类的词语都已经改变</b></span><p/>
    <span style=""color:#FFD866""><b>请根据上方标签的提示，尽可能正确并且快速地做出按键反应</b></span><p/>
    当按键错误时屏幕中会出现<span style=""color:red""> X </span>，需要按另一个键纠正才能继续<br/><p/>
    请把双手食指分别放在键盘的“E”键和“I”键上<p/>
    按<空格键>开始
    </p></div>"," ","html-keyboard-response","33","222743","0.0-6.0-1.0-3.0","4","4","4","4","4","4","4","4","4","4","5","5","5","5","5","4","5","5","5","5","1","1","1","1","1","1","1","1","1","1","0","1","1","0","0","0","1","0","1","1","0","0","1","1","5","1","1","1","2","1","2","3","5","1","","672909992034041856","王","700","","","","","","","","","","","","","","","","","","","","","","","","","","","","","","","","","","","","","","","","","",""
"null","","null","html-keyboard-response","34","222995","0.0-6.0-1.0-4.0-0.0","4","4","4","4","4","4","4","4","4","4","5","5","5","5","5","4","5","5","5","5","1","1","1","1","1","1","1","1","1","1","0","1","1","0","0","0","1","0","1","1","0","0","1","1","5","1","1","1","2","1","2","3","5","1","","672909992034041856","王","700","","","","","","","","","","","","","","","","","","","","","","","","","","","","","","","","","","","","","","","","","",""
"485","<p style=""color:white; font-size: 35px;"">诚信</p>","e","categorize-html","35","223481","0.0-6.0-1.0-4.0-1.0","4","4","4","4","4","4","4","4","4","4","5","5","5","5","5","4","5","5","5","5","1","1","1","1","1","1","1","1","1","1","0","1","1","0","0","0","1","0","1","1","0","0","1","1","5","1","1","1","2","1","2","3","5","1","","672909992034041856","王","700","","","","","","","","","","","","","","","","","","","true","12","2","moral","485","positive","诚信","","","","","","","","","","","","","","","","",""
"null","","null","html-keyboard-response","36","223733","0.0-6.0-1.0-4.0-0.1","4","4","4","4","4","4","4","4","4","4","5","5","5","5","5","4","5","5","5","5","1","1","1","1","1","1","1","1","1","1","0","1","1","0","0","0","1","0","1","1","0","0","1","1","5","1","1","1","2","1","2","3","5","1","","672909992034041856","王","700","","","","","","","","","","","","","","","","","","","","","","","","","","","","","","","","","","","","","","","","","",""
"576","<p style=""color:white; font-size: 35px;"">卑鄙</p>","i","categorize-html","37","224312","0.0-6.0-1.0-4.0-1.1","4","4","4","4","4","4","4","4","4","4","5","5","5","5","5","4","5","5","5","5","1","1","1","1","1","1","1","1","1","1","0","1","1","0","0","0","1","0","1","1","0","0","1","1","5","1","1","1","2","1","2","3","5","1","","672909992034041856","王","700","","","","","","","","","","","","","","","","","","","true","12","2","moral","576","negative","卑鄙","","","","","","","","","","","","","","","","",""
"null","","null","html-keyboard-response","38","224564","0.0-6.0-1.0-4.0-0.2","4","4","4","4","4","4","4","4","4","4","5","5","5","5","5","4","5","5","5","5","1","1","1","1","1","1","1","1","1","1","0","1","1","0","0","0","1","0","1","1","0","0","1","1","5","1","1","1","2","1","2","3","5","1","","672909992034041856","王","700","","","","","","","","","","","","","","","","","","","","","","","","","","","","","","","","","","","","","","","","","",""
"413","<p style=""color:white; font-size: 35px;"">缺德</p>","i","categorize-html","39","224978","0.0-6.0-1.0-4.0-1.2","4","4","4","4","4","4","4","4","4","4","5","5","5","5","5","4","5","5","5","5","1","1","1","1","1","1","1","1","1","1","0","1","1","0","0","0","1","0","1","1","0","0","1","1","5","1","1","1","2","1","2","3","5","1","","672909992034041856","王","700","","","","","","","","","","","","","","","","","","","true","12","2","moral","413","negative","缺德","","","","","","","","","","","","","","","","",""
"null","","null","html-keyboard-response","40","225229","0.0-6.0-1.0-4.0-0.3","4","4","4","4","4","4","4","4","4","4","5","5","5","5","5","4","5","5","5","5","1","1","1","1","1","1","1","1","1","1","0","1","1","0","0","0","1","0","1","1","0","0","1","1","5","1","1","1","2","1","2","3","5","1","","672909992034041856","王","700","","","","","","","","","","","","","","","","","","","","","","","","","","","","","","","","","","","","","","","","","",""
"576","<p style=""color:white; font-size: 35px;"">廉正</p>","i","categorize-html","41","226204","0.0-6.0-1.0-4.0-1.3","4","4","4","4","4","4","4","4","4","4","5","5","5","5","5","4","5","5","5","5","1","1","1","1","1","1","1","1","1","1","0","1","1","0","0","0","1","0","1","1","0","0","1","1","5","1","1","1","2","1","2","3","5","1","","672909992034041856","王","700","","","","","","","","","","","","","","","","","","","false","12","2","moral","576","positive","廉正","","","","","","","","","","","","","","","","",""
"null","","null","html-keyboard-response","42","226454","0.0-6.0-1.0-4.0-0.4","4","4","4","4","4","4","4","4","4","4","5","5","5","5","5","4","5","5","5","5","1","1","1","1","1","1","1","1","1","1","0","1","1","0","0","0","1","0","1","1","0","0","1","1","5","1","1","1","2","1","2","3","5","1","","672909992034041856","王","700","","","","","","","","","","","","","","","","","","","","","","","","","","","","","","","","","","","","","","","","","",""
"488","<p style=""color:white; font-size: 35px;"">善良</p>","e","categorize-html","43","226942","0.0-6.0-1.0-4.0-1.4","4","4","4","4","4","4","4","4","4","4","5","5","5","5","5","4","5","5","5","5","1","1","1","1","1","1","1","1","1","1","0","1","1","0","0","0","1","0","1","1","0","0","1","1","5","1","1","1","2","1","2","3","5","1","","672909992034041856","王","700","","","","","","","","","","","","","","","","","","","true","12","2","moral","488","positive","善良","","","","","","","","","","","","","","","","",""
"null","","null","html-keyboard-response","44","227193","0.0-6.0-1.0-4.0-0.5","4","4","4","4","4","4","4","4","4","4","5","5","5","5","5","4","5","5","5","5","1","1","1","1","1","1","1","1","1","1","0","1","1","0","0","0","1","0","1","1","0","0","1","1","5","1","1","1","2","1","2","3","5","1","","672909992034041856","王","700","","","","","","","","","","","","","","","","","","","","","","","","","","","","","","","","","","","","","","","","","",""
"571","<p style=""color:white; font-size: 35px;"">不仁</p>","i","categorize-html","45","227765","0.0-6.0-1.0-4.0-1.5","4","4","4","4","4","4","4","4","4","4","5","5","5","5","5","4","5","5","5","5","1","1","1","1","1","1","1","1","1","1","0","1","1","0","0","0","1","0","1","1","0","0","1","1","5","1","1","1","2","1","2","3","5","1","","672909992034041856","王","700","","","","","","","","","","","","","","","","","","","true","12","2","moral","571","negative","不仁","","","","","","","","","","","","","","","","",""
"null","","null","html-keyboard-response","46","228016","0.0-6.0-1.0-4.0-0.6","4","4","4","4","4","4","4","4","4","4","5","5","5","5","5","4","5","5","5","5","1","1","1","1","1","1","1","1","1","1","0","1","1","0","0","0","1","0","1","1","0","0","1","1","5","1","1","1","2","1","2","3","5","1","","672909992034041856","王","700","","","","","","","","","","","","","","","","","","","","","","","","","","","","","","","","","","","","","","","","","",""
"501","<p style=""color:white; font-size: 35px;"">高尚</p>","e","categorize-html","47","228518","0.0-6.0-1.0-4.0-1.6","4","4","4","4","4","4","4","4","4","4","5","5","5","5","5","4","5","5","5","5","1","1","1","1","1","1","1","1","1","1","0","1","1","0","0","0","1","0","1","1","0","0","1","1","5","1","1","1","2","1","2","3","5","1","","672909992034041856","王","700","","","","","","","","","","","","","","","","","","","true","12","2","moral","501","positive","高尚","","","","","","","","","","","","","","","","",""
"null","","null","html-keyboard-response","48","228771","0.0-6.0-1.0-4.0-0.7","4","4","4","4","4","4","4","4","4","4","5","5","5","5","5","4","5","5","5","5","1","1","1","1","1","1","1","1","1","1","0","1","1","0","0","0","1","0","1","1","0","0","1","1","5","1","1","1","2","1","2","3","5","1","","672909992034041856","王","700","","","","","","","","","","","","","","","","","","","","","","","","","","","","","","","","","","","","","","","","","",""
"549","<p style=""color:white; font-size: 35px;"">不孝</p>","i","categorize-html","49","229321","0.0-6.0-1.0-4.0-1.7","4","4","4","4","4","4","4","4","4","4","5","5","5","5","5","4","5","5","5","5","1","1","1","1","1","1","1","1","1","1","0","1","1","0","0","0","1","0","1","1","0","0","1","1","5","1","1","1","2","1","2","3","5","1","","672909992034041856","王","700","","","","","","","","","","","","","","","","","","","true","12","2","moral","549","negative","不孝","","","","","","","","","","","","","","","","",""
"null","","null","html-keyboard-response","50","229571","0.0-6.0-1.0-4.0-0.8","4","4","4","4","4","4","4","4","4","4","5","5","5","5","5","4","5","5","5","5","1","1","1","1","1","1","1","1","1","1","0","1","1","0","0","0","1","0","1","1","0","0","1","1","5","1","1","1","2","1","2","3","5","1","","672909992034041856","王","700","","","","","","","","","","","","","","","","","","","","","","","","","","","","","","","","","","","","","","","","","",""
"548","<p style=""color:white; font-size: 35px;"">君子</p>","e","categorize-html","51","230120","0.0-6.0-1.0-4.0-1.8","4","4","4","4","4","4","4","4","4","4","5","5","5","5","5","4","5","5","5","5","1","1","1","1","1","1","1","1","1","1","0","1","1","0","0","0","1","0","1","1","0","0","1","1","5","1","1","1","2","1","2","3","5","1","","672909992034041856","王","700","","","","","","","","","","","","","","","","","","","true","12","2","moral","548","positive","君子","","","","","","","","","","","","","","","","",""
"null","","null","html-keyboard-response","52","230371","0.0-6.0-1.0-4.0-0.9","4","4","4","4","4","4","4","4","4","4","5","5","5","5","5","4","5","5","5","5","1","1","1","1","1","1","1","1","1","1","0","1","1","0","0","0","1","0","1","1","0","0","1","1","5","1","1","1","2","1","2","3","5","1","","672909992034041856","王","700","","","","","","","","","","","","","","","","","","","","","","","","","","","","","","","","","","","","","","","","","",""
"605","<p style=""color:white; font-size: 35px;"">黑心</p>","i","categorize-html","53","230976","0.0-6.0-1.0-4.0-1.9","4","4","4","4","4","4","4","4","4","4","5","5","5","5","5","4","5","5","5","5","1","1","1","1","1","1","1","1","1","1","0","1","1","0","0","0","1","0","1","1","0","0","1","1","5","1","1","1","2","1","2","3","5","1","","672909992034041856","王","700","","","","","","","","","","","","","","","","","","","true","12","2","moral","605","negative","黑心","","","","","","","","","","","","","","","","",""
"null","","null","html-keyboard-response","54","231227","0.0-6.0-1.0-4.0-0.10","4","4","4","4","4","4","4","4","4","4","5","5","5","5","5","4","5","5","5","5","1","1","1","1","1","1","1","1","1","1","0","1","1","0","0","0","1","0","1","1","0","0","1","1","5","1","1","1","2","1","2","3","5","1","","672909992034041856","王","700","","","","","","","","","","","","","","","","","","","","","","","","","","","","","","","","","","","","","","","","","",""
"512","<p style=""color:white; font-size: 35px;"">正直</p>","e","categorize-html","55","231741","0.0-6.0-1.0-4.0-1.10","4","4","4","4","4","4","4","4","4","4","5","5","5","5","5","4","5","5","5","5","1","1","1","1","1","1","1","1","1","1","0","1","1","0","0","0","1","0","1","1","0","0","1","1","5","1","1","1","2","1","2","3","5","1","","672909992034041856","王","700","","","","","","","","","","","","","","","","","","","true","12","2","moral","512","positive","正直","","","","","","","","","","","","","","","","",""
"null","","null","html-keyboard-response","56","231992","0.0-6.0-1.0-4.0-0.11","4","4","4","4","4","4","4","4","4","4","5","5","5","5","5","4","5","5","5","5","1","1","1","1","1","1","1","1","1","1","0","1","1","0","0","0","1","0","1","1","0","0","1","1","5","1","1","1","2","1","2","3","5","1","","672909992034041856","王","700","","","","","","","","","","","","","","","","","","","","","","","","","","","","","","","","","","","","","","","","","",""
"505","<p style=""color:white; font-size: 35px;"">小人</p>","i","categorize-html","57","232497","0.0-6.0-1.0-4.0-1.11","4","4","4","4","4","4","4","4","4","4","5","5","5","5","5","4","5","5","5","5","1","1","1","1","1","1","1","1","1","1","0","1","1","0","0","0","1","0","1","1","0","0","1","1","5","1","1","1","2","1","2","3","5","1","","672909992034041856","王","700","","","","","","","","","","","","","","","","","","","true","12","2","moral","505","negative","小人","","","","","","","","","","","","","","","","",""
"1019","
    <div class=""tag-bottom""><p>
    —— 任务3：对“自我/积极”词和“他人/消极”词分类 ——<p/>
    <span style=""color:#78DCE8""><b>注意上方，之前的四类词语将混合在一起交替呈现</b></span><p/>
    <span style=""color:#FFD866""><b>请根据上方标签的提示，尽可能正确并且快速地做出按键反应</b></span><p/>
    当按键错误时屏幕中会出现<span style=""color:red""> X </span>，需要按另一个键纠正才能继续<br/><p/>
    请把双手食指分别放在键盘的“E”键和“I”键上<p/>
    按<空格键>开始
    </p></div>"," ","html-keyboard-response","58","233517","0.0-6.0-1.0-5.0","4","4","4","4","4","4","4","4","4","4","5","5","5","5","5","4","5","5","5","5","1","1","1","1","1","1","1","1","1","1","0","1","1","0","0","0","1","0","1","1","0","0","1","1","5","1","1","1","2","1","2","3","5","1","","672909992034041856","王","700","","","","","","","","","","","","","","","","","","","","","","","","","","","","","","","","","","","","","","","","","",""
"null","","null","html-keyboard-response","59","233769","0.0-6.0-1.0-6.0-0.0","4","4","4","4","4","4","4","4","4","4","5","5","5","5","5","4","5","5","5","5","1","1","1","1","1","1","1","1","1","1","0","1","1","0","0","0","1","0","1","1","0","0","1","1","5","1","1","1","2","1","2","3","5","1","","672909992034041856","王","700","","","","","","","","","","","","","","","","","","","","","","","","","","","","","","","","","","","","","","","","","",""
"503","<p style=""color:rgb(150, 250, 100); font-size: 35px;"">他</p>","i","categorize-html","60","234273","0.0-6.0-1.0-6.0-1.0","4","4","4","4","4","4","4","4","4","4","5","5","5","5","5","4","5","5","5","5","1","1","1","1","1","1","1","1","1","1","0","1","1","0","0","0","1","0","1","1","0","0","1","1","5","1","1","1","2","1","2","3","5","1","","672909992034041856","王","700","","","","","","","","","","","","","","","","","","","true","13","3","moral","503","other","他","","","","","","","","","","","","","","","","",""
"null","","null","html-keyboard-response","61","234523","0.0-6.0-1.0-6.0-0.1","4","4","4","4","4","4","4","4","4","4","5","5","5","5","5","4","5","5","5","5","1","1","1","1","1","1","1","1","1","1","0","1","1","0","0","0","1","0","1","1","0","0","1","1","5","1","1","1","2","1","2","3","5","1","","672909992034041856","王","700","","","","","","","","","","","","","","","","","","","","","","","","","","","","","","","","","","","","","","","","","",""
"677","<p style=""color:white; font-size: 35px;"">善良</p>","e","categorize-html","62","235202","0.0-6.0-1.0-6.0-1.1","4","4","4","4","4","4","4","4","4","4","5","5","5","5","5","4","5","5","5","5","1","1","1","1","1","1","1","1","1","1","0","1","1","0","0","0","1","0","1","1","0","0","1","1","5","1","1","1","2","1","2","3","5","1","","672909992034041856","王","700","","","","","","","","","","","","","","","","","","","true","13","3","moral","677","positive","善良","","","","","","","","","","","","","","","","",""
"null","","null","html-keyboard-response","63","235453","0.0-6.0-1.0-6.0-0.2","4","4","4","4","4","4","4","4","4","4","5","5","5","5","5","4","5","5","5","5","1","1","1","1","1","1","1","1","1","1","0","1","1","0","0","0","1","0","1","1","0","0","1","1","5","1","1","1","2","1","2","3","5","1","","672909992034041856","王","700","","","","","","","","","","","","","","","","","","","","","","","","","","","","","","","","","","","","","","","","","",""
"525","<p style=""color:rgb(150, 250, 100); font-size: 35px;"">我的</p>","e","categorize-html","64","235978","0.0-6.0-1.0-6.0-1.2","4","4","4","4","4","4","4","4","4","4","5","5","5","5","5","4","5","5","5","5","1","1","1","1","1","1","1","1","1","1","0","1","1","0","0","0","1","0","1","1","0","0","1","1","5","1","1","1","2","1","2","3","5","1","","672909992034041856","王","700","","","","","","","","","","","","","","","","","","","true","13","3","moral","525","self","我的","","","","","","","","","","","","","","","","",""
"null","","null","html-keyboard-response","65","236230","0.0-6.0-1.0-6.0-0.3","4","4","4","4","4","4","4","4","4","4","5","5","5","5","5","4","5","5","5","5","1","1","1","1","1","1","1","1","1","1","0","1","1","0","0","0","1","0","1","1","0","0","1","1","5","1","1","1","2","1","2","3","5","1","","672909992034041856","王","700","","","","","","","","","","","","","","","","","","","","","","","","","","","","","","","","","","","","","","","","","",""
"401","<p style=""color:white; font-size: 35px;"">不孝</p>","i","categorize-html","66","236631","0.0-6.0-1.0-6.0-1.3","4","4","4","4","4","4","4","4","4","4","5","5","5","5","5","4","5","5","5","5","1","1","1","1","1","1","1","1","1","1","0","1","1","0","0","0","1","0","1","1","0","0","1","1","5","1","1","1","2","1","2","3","5","1","","672909992034041856","王","700","","","","","","","","","","","","","","","","","","","true","13","3","moral","401","negative","不孝","","","","","","","","","","","","","","","","",""
"null","","null","html-keyboard-response","67","236882","0.0-6.0-1.0-6.0-0.4","4","4","4","4","4","4","4","4","4","4","5","5","5","5","5","4","5","5","5","5","1","1","1","1","1","1","1","1","1","1","0","1","1","0","0","0","1","0","1","1","0","0","1","1","5","1","1","1","2","1","2","3","5","1","","672909992034041856","王","700","","","","","","","","","","","","","","","","","","","","","","","","","","","","","","","","","","","","","","","","","",""
"516","<p style=""color:rgb(150, 250, 100); font-size: 35px;"">本人</p>","e","categorize-html","68","237400","0.0-6.0-1.0-6.0-1.4","4","4","4","4","4","4","4","4","4","4","5","5","5","5","5","4","5","5","5","5","1","1","1","1","1","1","1","1","1","1","0","1","1","0","0","0","1","0","1","1","0","0","1","1","5","1","1","1","2","1","2","3","5","1","","672909992034041856","王","700","","","","","","","","","","","","","","","","","","","true","13","3","moral","516","self","本人","","","","","","","","","","","","","","","","",""
"null","","null","html-keyboard-response","69","237652","0.0-6.0-1.0-6.0-0.5","4","4","4","4","4","4","4","4","4","4","5","5","5","5","5","4","5","5","5","5","1","1","1","1","1","1","1","1","1","1","0","1","1","0","0","0","1","0","1","1","0","0","1","1","5","1","1","1","2","1","2","3","5","1","","672909992034041856","王","700","","","","","","","","","","","","","","","","","","","","","","","","","","","","","","","","","","","","","","","","","",""
"470","<p style=""color:white; font-size: 35px;"">小人</p>","i","categorize-html","70","238124","0.0-6.0-1.0-6.0-1.5","4","4","4","4","4","4","4","4","4","4","5","5","5","5","5","4","5","5","5","5","1","1","1","1","1","1","1","1","1","1","0","1","1","0","0","0","1","0","1","1","0","0","1","1","5","1","1","1","2","1","2","3","5","1","","672909992034041856","王","700","","","","","","","","","","","","","","","","","","","true","13","3","moral","470","negative","小人","","","","","","","","","","","","","","","","",""
"null","","null","html-keyboard-response","71","238375","0.0-6.0-1.0-6.0-0.6","4","4","4","4","4","4","4","4","4","4","5","5","5","5","5","4","5","5","5","5","1","1","1","1","1","1","1","1","1","1","0","1","1","0","0","0","1","0","1","1","0","0","1","1","5","1","1","1","2","1","2","3","5","1","","672909992034041856","王","700","","","","","","","","","","","","","","","","","","","","","","","","","","","","","","","","","","","","","","","","","",""
"531","<p style=""color:rgb(150, 250, 100); font-size: 35px;"">他的</p>","e","categorize-html","72","239285","0.0-6.0-1.0-6.0-1.6","4","4","4","4","4","4","4","4","4","4","5","5","5","5","5","4","5","5","5","5","1","1","1","1","1","1","1","1","1","1","0","1","1","0","0","0","1","0","1","1","0","0","1","1","5","1","1","1","2","1","2","3","5","1","","672909992034041856","王","700","","","","","","","","","","","","","","","","","","","false","13","3","moral","1095.0434782608695","other","他的","","","","","","","","","","","","","","","","",""
"null","","null","html-keyboard-response","73","239536","0.0-6.0-1.0-6.0-0.7","4","4","4","4","4","4","4","4","4","4","5","5","5","5","5","4","5","5","5","5","1","1","1","1","1","1","1","1","1","1","0","1","1","0","0","0","1","0","1","1","0","0","1","1","5","1","1","1","2","1","2","3","5","1","","672909992034041856","王","700","","","","","","","","","","","","","","","","","","","","","","","","","","","","","","","","","","","","","","","","","",""
"462","<p style=""color:white; font-size: 35px;"">君子</p>","e","categorize-html","74","239998","0.0-6.0-1.0-6.0-1.7","4","4","4","4","4","4","4","4","4","4","5","5","5","5","5","4","5","5","5","5","1","1","1","1","1","1","1","1","1","1","0","1","1","0","0","0","1","0","1","1","0","0","1","1","5","1","1","1","2","1","2","3","5","1","","672909992034041856","王","700","","","","","","","","","","","","","","","","","","","true","13","3","moral","462","positive","君子","","","","","","","","","","","","","","","","",""
"null","","null","html-keyboard-response","75","240250","0.0-6.0-1.0-6.0-0.8","4","4","4","4","4","4","4","4","4","4","5","5","5","5","5","4","5","5","5","5","1","1","1","1","1","1","1","1","1","1","0","1","1","0","0","0","1","0","1","1","0","0","1","1","5","1","1","1","2","1","2","3","5","1","","672909992034041856","王","700","","","","","","","","","","","","","","","","","","","","","","","","","","","","","","","","","","","","","","","","","",""
"665","<p style=""color:rgb(150, 250, 100); font-size: 35px;"">自己</p>","e","categorize-html","76","240916","0.0-6.0-1.0-6.0-1.8","4","4","4","4","4","4","4","4","4","4","5","5","5","5","5","4","5","5","5","5","1","1","1","1","1","1","1","1","1","1","0","1","1","0","0","0","1","0","1","1","0","0","1","1","5","1","1","1","2","1","2","3","5","1","","672909992034041856","王","700","","","","","","","","","","","","","","","","","","","true","13","3","moral","665","self","自己","","","","","","","","","","","","","","","","",""
"null","","null","html-keyboard-response","77","241168","0.0-6.0-1.0-6.0-0.9","4","4","4","4","4","4","4","4","4","4","5","5","5","5","5","4","5","5","5","5","1","1","1","1","1","1","1","1","1","1","0","1","1","0","0","0","1","0","1","1","0","0","1","1","5","1","1","1","2","1","2","3","5","1","","672909992034041856","王","700","","","","","","","","","","","","","","","","","","","","","","","","","","","","","","","","","","","","","","","","","",""
"515","<p style=""color:white; font-size: 35px;"">诚信</p>","e","categorize-html","78","241685","0.0-6.0-1.0-6.0-1.9","4","4","4","4","4","4","4","4","4","4","5","5","5","5","5","4","5","5","5","5","1","1","1","1","1","1","1","1","1","1","0","1","1","0","0","0","1","0","1","1","0","0","1","1","5","1","1","1","2","1","2","3","5","1","","672909992034041856","王","700","","","","","","","","","","","","","","","","","","","true","13","3","moral","515","positive","诚信","","","","","","","","","","","","","","","","",""
"null","","null","html-keyboard-response","79","241936","0.0-6.0-1.0-6.0-0.10","4","4","4","4","4","4","4","4","4","4","5","5","5","5","5","4","5","5","5","5","1","1","1","1","1","1","1","1","1","1","0","1","1","0","0","0","1","0","1","1","0","0","1","1","5","1","1","1","2","1","2","3","5","1","","672909992034041856","王","700","","","","","","","","","","","","","","","","","","","","","","","","","","","","","","","","","","","","","","","","","",""
"515","<p style=""color:rgb(150, 250, 100); font-size: 35px;"">别人的</p>","i","categorize-html","80","242452","0.0-6.0-1.0-6.0-1.10","4","4","4","4","4","4","4","4","4","4","5","5","5","5","5","4","5","5","5","5","1","1","1","1","1","1","1","1","1","1","0","1","1","0","0","0","1","0","1","1","0","0","1","1","5","1","1","1","2","1","2","3","5","1","","672909992034041856","王","700","","","","","","","","","","","","","","","","","","","true","13","3","moral","515","other","别人的","","","","","","","","","","","","","","","","",""
"null","","null","html-keyboard-response","81","242704","0.0-6.0-1.0-6.0-0.11","4","4","4","4","4","4","4","4","4","4","5","5","5","5","5","4","5","5","5","5","1","1","1","1","1","1","1","1","1","1","0","1","1","0","0","0","1","0","1","1","0","0","1","1","5","1","1","1","2","1","2","3","5","1","","672909992034041856","王","700","","","","","","","","","","","","","","","","","","","","","","","","","","","","","","","","","","","","","","","","","",""
"415","<p style=""color:white; font-size: 35px;"">黑心</p>","i","categorize-html","82","243120","0.0-6.0-1.0-6.0-1.11","4","4","4","4","4","4","4","4","4","4","5","5","5","5","5","4","5","5","5","5","1","1","1","1","1","1","1","1","1","1","0","1","1","0","0","0","1","0","1","1","0","0","1","1","5","1","1","1","2","1","2","3","5","1","","672909992034041856","王","700","","","","","","","","","","","","","","","","","","","true","13","3","moral","415","negative","黑心","","","","","","","","","","","","","","","","",""
"null","","null","html-keyboard-response","83","243371","0.0-6.0-1.0-6.0-0.12","4","4","4","4","4","4","4","4","4","4","5","5","5","5","5","4","5","5","5","5","1","1","1","1","1","1","1","1","1","1","0","1","1","0","0","0","1","0","1","1","0","0","1","1","5","1","1","1","2","1","2","3","5","1","","672909992034041856","王","700","","","","","","","","","","","","","","","","","","","","","","","","","","","","","","","","","","","","","","","","","",""
"447","<p style=""color:rgb(150, 250, 100); font-size: 35px;"">别人</p>","i","categorize-html","84","243819","0.0-6.0-1.0-6.0-1.12","4","4","4","4","4","4","4","4","4","4","5","5","5","5","5","4","5","5","5","5","1","1","1","1","1","1","1","1","1","1","0","1","1","0","0","0","1","0","1","1","0","0","1","1","5","1","1","1","2","1","2","3","5","1","","672909992034041856","王","700","","","","","","","","","","","","","","","","","","","true","13","3","moral","447","other","别人","","","","","","","","","","","","","","","","",""
"null","","null","html-keyboard-response","85","244071","0.0-6.0-1.0-6.0-0.13","4","4","4","4","4","4","4","4","4","4","5","5","5","5","5","4","5","5","5","5","1","1","1","1","1","1","1","1","1","1","0","1","1","0","0","0","1","0","1","1","0","0","1","1","5","1","1","1","2","1","2","3","5","1","","672909992034041856","王","700","","","","","","","","","","","","","","","","","","","","","","","","","","","","","","","","","","","","","","","","","",""
"425","<p style=""color:white; font-size: 35px;"">缺德</p>","i","categorize-html","86","244498","0.0-6.0-1.0-6.0-1.13","4","4","4","4","4","4","4","4","4","4","5","5","5","5","5","4","5","5","5","5","1","1","1","1","1","1","1","1","1","1","0","1","1","0","0","0","1","0","1","1","0","0","1","1","5","1","1","1","2","1","2","3","5","1","","672909992034041856","王","700","","","","","","","","","","","","","","","","","","","true","13","3","moral","425","negative","缺德","","","","","","","","","","","","","","","","",""
"null","","null","html-keyboard-response","87","244750","0.0-6.0-1.0-6.0-0.14","4","4","4","4","4","4","4","4","4","4","5","5","5","5","5","4","5","5","5","5","1","1","1","1","1","1","1","1","1","1","0","1","1","0","0","0","1","0","1","1","0","0","1","1","5","1","1","1","2","1","2","3","5","1","","672909992034041856","王","700","","","","","","","","","","","","","","","","","","","","","","","","","","","","","","","","","","","","","","","","","",""
"485","<p style=""color:rgb(150, 250, 100); font-size: 35px;"">本人的</p>","e","categorize-html","88","245236","0.0-6.0-1.0-6.0-1.14","4","4","4","4","4","4","4","4","4","4","5","5","5","5","5","4","5","5","5","5","1","1","1","1","1","1","1","1","1","1","0","1","1","0","0","0","1","0","1","1","0","0","1","1","5","1","1","1","2","1","2","3","5","1","","672909992034041856","王","700","","","","","","","","","","","","","","","","","","","true","13","3","moral","485","self","本人的","","","","","","","","","","","","","","","","",""
"null","","null","html-keyboard-response","89","245486","0.0-6.0-1.0-6.0-0.15","4","4","4","4","4","4","4","4","4","4","5","5","5","5","5","4","5","5","5","5","1","1","1","1","1","1","1","1","1","1","0","1","1","0","0","0","1","0","1","1","0","0","1","1","5","1","1","1","2","1","2","3","5","1","","672909992034041856","王","700","","","","","","","","","","","","","","","","","","","","","","","","","","","","","","","","","","","","","","","","","",""
"397","<p style=""color:white; font-size: 35px;"">廉正</p>","e","categorize-html","90","245883","0.0-6.0-1.0-6.0-1.15","4","4","4","4","4","4","4","4","4","4","5","5","5","5","5","4","5","5","5","5","1","1","1","1","1","1","1","1","1","1","0","1","1","0","0","0","1","0","1","1","0","0","1","1","5","1","1","1","2","1","2","3","5","1","","672909992034041856","王","700","","","","","","","","","","","","","","","","","","","true","13","3","moral","397","positive","廉正","","","","","","","","","","","","","","","","",""
"null","","null","html-keyboard-response","91","246134","0.0-6.0-1.0-6.0-0.16","4","4","4","4","4","4","4","4","4","4","5","5","5","5","5","4","5","5","5","5","1","1","1","1","1","1","1","1","1","1","0","1","1","0","0","0","1","0","1","1","0","0","1","1","5","1","1","1","2","1","2","3","5","1","","672909992034041856","王","700","","","","","","","","","","","","","","","","","","","","","","","","","","","","","","","","","","","","","","","","","",""
"546","<p style=""color:rgb(150, 250, 100); font-size: 35px;"">自己的</p>","e","categorize-html","92","246681","0.0-6.0-1.0-6.0-1.16","4","4","4","4","4","4","4","4","4","4","5","5","5","5","5","4","5","5","5","5","1","1","1","1","1","1","1","1","1","1","0","1","1","0","0","0","1","0","1","1","0","0","1","1","5","1","1","1","2","1","2","3","5","1","","672909992034041856","王","700","","","","","","","","","","","","","","","","","","","true","13","3","moral","546","self","自己的","","","","","","","","","","","","","","","","",""
"null","","null","html-keyboard-response","93","246933","0.0-6.0-1.0-6.0-0.17","4","4","4","4","4","4","4","4","4","4","5","5","5","5","5","4","5","5","5","5","1","1","1","1","1","1","1","1","1","1","0","1","1","0","0","0","1","0","1","1","0","0","1","1","5","1","1","1","2","1","2","3","5","1","","672909992034041856","王","700","","","","","","","","","","","","","","","","","","","","","","","","","","","","","","","","","","","","","","","","","",""
"531","<p style=""color:white; font-size: 35px;"">高尚</p>","e","categorize-html","94","247465","0.0-6.0-1.0-6.0-1.17","4","4","4","4","4","4","4","4","4","4","5","5","5","5","5","4","5","5","5","5","1","1","1","1","1","1","1","1","1","1","0","1","1","0","0","0","1","0","1","1","0","0","1","1","5","1","1","1","2","1","2","3","5","1","","672909992034041856","王","700","","","","","","","","","","","","","","","","","","","true","13","3","moral","531","positive","高尚","","","","","","","","","","","","","","","","",""
"null","","null","html-keyboard-response","95","247717","0.0-6.0-1.0-6.0-0.18","4","4","4","4","4","4","4","4","4","4","5","5","5","5","5","4","5","5","5","5","1","1","1","1","1","1","1","1","1","1","0","1","1","0","0","0","1","0","1","1","0","0","1","1","5","1","1","1","2","1","2","3","5","1","","672909992034041856","王","700","","","","","","","","","","","","","","","","","","","","","","","","","","","","","","","","","","","","","","","","","",""
"536","<p style=""color:rgb(150, 250, 100); font-size: 35px;"">他人的</p>","i","categorize-html","96","248253","0.0-6.0-1.0-6.0-1.18","4","4","4","4","4","4","4","4","4","4","5","5","5","5","5","4","5","5","5","5","1","1","1","1","1","1","1","1","1","1","0","1","1","0","0","0","1","0","1","1","0","0","1","1","5","1","1","1","2","1","2","3","5","1","","672909992034041856","王","700","","","","","","","","","","","","","","","","","","","true","13","3","moral","536","other","他人的","","","","","","","","","","","","","","","","",""
"null","","null","html-keyboard-response","97","248504","0.0-6.0-1.0-6.0-0.19","4","4","4","4","4","4","4","4","4","4","5","5","5","5","5","4","5","5","5","5","1","1","1","1","1","1","1","1","1","1","0","1","1","0","0","0","1","0","1","1","0","0","1","1","5","1","1","1","2","1","2","3","5","1","","672909992034041856","王","700","","","","","","","","","","","","","","","","","","","","","","","","","","","","","","","","","","","","","","","","","",""
"456","<p style=""color:white; font-size: 35px;"">不仁</p>","i","categorize-html","98","248961","0.0-6.0-1.0-6.0-1.19","4","4","4","4","4","4","4","4","4","4","5","5","5","5","5","4","5","5","5","5","1","1","1","1","1","1","1","1","1","1","0","1","1","0","0","0","1","0","1","1","0","0","1","1","5","1","1","1","2","1","2","3","5","1","","672909992034041856","王","700","","","","","","","","","","","","","","","","","","","true","13","3","moral","456","negative","不仁","","","","","","","","","","","","","","","","",""
"null","","null","html-keyboard-response","99","249212","0.0-6.0-1.0-6.0-0.20","4","4","4","4","4","4","4","4","4","4","5","5","5","5","5","4","5","5","5","5","1","1","1","1","1","1","1","1","1","1","0","1","1","0","0","0","1","0","1","1","0","0","1","1","5","1","1","1","2","1","2","3","5","1","","672909992034041856","王","700","","","","","","","","","","","","","","","","","","","","","","","","","","","","","","","","","","","","","","","","","",""
"457","<p style=""color:rgb(150, 250, 100); font-size: 35px;"">我</p>","e","categorize-html","100","249669","0.0-6.0-1.0-6.0-1.20","4","4","4","4","4","4","4","4","4","4","5","5","5","5","5","4","5","5","5","5","1","1","1","1","1","1","1","1","1","1","0","1","1","0","0","0","1","0","1","1","0","0","1","1","5","1","1","1","2","1","2","3","5","1","","672909992034041856","王","700","","","","","","","","","","","","","","","","","","","true","13","3","moral","457","self","我","","","","","","","","","","","","","","","","",""
"null","","null","html-keyboard-response","101","249921","0.0-6.0-1.0-6.0-0.21","4","4","4","4","4","4","4","4","4","4","5","5","5","5","5","4","5","5","5","5","1","1","1","1","1","1","1","1","1","1","0","1","1","0","0","0","1","0","1","1","0","0","1","1","5","1","1","1","2","1","2","3","5","1","","672909992034041856","王","700","","","","","","","","","","","","","","","","","","","","","","","","","","","","","","","","","","","","","","","","","",""
"511","<p style=""color:white; font-size: 35px;"">卑鄙</p>","i","categorize-html","102","250432","0.0-6.0-1.0-6.0-1.21","4","4","4","4","4","4","4","4","4","4","5","5","5","5","5","4","5","5","5","5","1","1","1","1","1","1","1","1","1","1","0","1","1","0","0","0","1","0","1","1","0","0","1","1","5","1","1","1","2","1","2","3","5","1","","672909992034041856","王","700","","","","","","","","","","","","","","","","","","","true","13","3","moral","511","negative","卑鄙","","","","","","","","","","","","","","","","",""
"null","","null","html-keyboard-response","103","250684","0.0-6.0-1.0-6.0-0.22","4","4","4","4","4","4","4","4","4","4","5","5","5","5","5","4","5","5","5","5","1","1","1","1","1","1","1","1","1","1","0","1","1","0","0","0","1","0","1","1","0","0","1","1","5","1","1","1","2","1","2","3","5","1","","672909992034041856","王","700","","","","","","","","","","","","","","","","","","","","","","","","","","","","","","","","","","","","","","","","","",""
"490","<p style=""color:rgb(150, 250, 100); font-size: 35px;"">他人</p>","i","categorize-html","104","251176","0.0-6.0-1.0-6.0-1.22","4","4","4","4","4","4","4","4","4","4","5","5","5","5","5","4","5","5","5","5","1","1","1","1","1","1","1","1","1","1","0","1","1","0","0","0","1","0","1","1","0","0","1","1","5","1","1","1","2","1","2","3","5","1","","672909992034041856","王","700","","","","","","","","","","","","","","","","","","","true","13","3","moral","490","other","他人","","","","","","","","","","","","","","","","",""
"null","","null","html-keyboard-response","105","251427","0.0-6.0-1.0-6.0-0.23","4","4","4","4","4","4","4","4","4","4","5","5","5","5","5","4","5","5","5","5","1","1","1","1","1","1","1","1","1","1","0","1","1","0","0","0","1","0","1","1","0","0","1","1","5","1","1","1","2","1","2","3","5","1","","672909992034041856","王","700","","","","","","","","","","","","","","","","","","","","","","","","","","","","","","","","","","","","","","","","","",""
"441","<p style=""color:white; font-size: 35px;"">正直</p>","e","categorize-html","106","251869","0.0-6.0-1.0-6.0-1.23","4","4","4","4","4","4","4","4","4","4","5","5","5","5","5","4","5","5","5","5","1","1","1","1","1","1","1","1","1","1","0","1","1","0","0","0","1","0","1","1","0","0","1","1","5","1","1","1","2","1","2","3","5","1","","672909992034041856","王","700","","","","","","","","","","","","","","","","","","","true","13","3","moral","441","positive","正直","","","","","","","","","","","","","","","","",""
"572","
    <div class=""tag-bottom""><p>
    —— 任务4：对“自我/积极”词和“他人/消极”词分类 ——<p/>
    <span style=""color:#78DCE8""><b>与刚才的任务完全相同，请再次对这四类词语分类</b></span><p/>
    <span style=""color:#FFD866""><b>请根据上方标签的提示，尽可能正确并且快速地做出按键反应</b></span><p/>
    当按键错误时屏幕中会出现<span style=""color:red""> X </span>，需要按另一个键纠正才能继续<br/><p/>
    请把双手食指分别放在键盘的“E”键和“I”键上<p/>
    按<空格键>开始
    </p></div>"," ","html-keyboard-response","107","252441","0.0-6.0-1.0-7.0","4","4","4","4","4","4","4","4","4","4","5","5","5","5","5","4","5","5","5","5","1","1","1","1","1","1","1","1","1","1","0","1","1","0","0","0","1","0","1","1","0","0","1","1","5","1","1","1","2","1","2","3","5","1","","672909992034041856","王","700","","","","","","","","","","","","","","","","","","","","","","","","","","","","","","","","","","","","","","","","","",""
"null","","null","html-keyboard-response","108","252692","0.0-6.0-1.0-8.0-0.0","4","4","4","4","4","4","4","4","4","4","5","5","5","5","5","4","5","5","5","5","1","1","1","1","1","1","1","1","1","1","0","1","1","0","0","0","1","0","1","1","0","0","1","1","5","1","1","1","2","1","2","3","5","1","","672909992034041856","王","700","","","","","","","","","","","","","","","","","","","","","","","","","","","","","","","","","","","","","","","","","",""
"512","<p style=""color:rgb(150, 250, 100); font-size: 35px;"">我的</p>","e","categorize-html","109","253205","0.0-6.0-1.0-8.0-1.0","4","4","4","4","4","4","4","4","4","4","5","5","5","5","5","4","5","5","5","5","1","1","1","1","1","1","1","1","1","1","0","1","1","0","0","0","1","0","1","1","0","0","1","1","5","1","1","1","2","1","2","3","5","1","","672909992034041856","王","700","","","","","","","","","","","","","","","","","","","true","14","4","moral","512","self","我的","","","","","","","","","","","","","","","","",""
"null","","null","html-keyboard-response","110","253456","0.0-6.0-1.0-8.0-0.1","4","4","4","4","4","4","4","4","4","4","5","5","5","5","5","4","5","5","5","5","1","1","1","1","1","1","1","1","1","1","0","1","1","0","0","0","1","0","1","1","0","0","1","1","5","1","1","1","2","1","2","3","5","1","","672909992034041856","王","700","","","","","","","","","","","","","","","","","","","","","","","","","","","","","","","","","","","","","","","","","",""
"493","<p style=""color:white; font-size: 35px;"">小人</p>","i","categorize-html","111","253951","0.0-6.0-1.0-8.0-1.1","4","4","4","4","4","4","4","4","4","4","5","5","5","5","5","4","5","5","5","5","1","1","1","1","1","1","1","1","1","1","0","1","1","0","0","0","1","0","1","1","0","0","1","1","5","1","1","1","2","1","2","3","5","1","","672909992034041856","王","700","","","","","","","","","","","","","","","","","","","true","14","4","moral","493","negative","小人","","","","","","","","","","","","","","","","",""
"null","","null","html-keyboard-response","112","254202","0.0-6.0-1.0-8.0-0.2","4","4","4","4","4","4","4","4","4","4","5","5","5","5","5","4","5","5","5","5","1","1","1","1","1","1","1","1","1","1","0","1","1","0","0","0","1","0","1","1","0","0","1","1","5","1","1","1","2","1","2","3","5","1","","672909992034041856","王","700","","","","","","","","","","","","","","","","","","","","","","","","","","","","","","","","","","","","","","","","","",""
"583","<p style=""color:rgb(150, 250, 100); font-size: 35px;"">别人</p>","i","categorize-html","113","254786","0.0-6.0-1.0-8.0-1.2","4","4","4","4","4","4","4","4","4","4","5","5","5","5","5","4","5","5","5","5","1","1","1","1","1","1","1","1","1","1","0","1","1","0","0","0","1","0","1","1","0","0","1","1","5","1","1","1","2","1","2","3","5","1","","672909992034041856","王","700","","","","","","","","","","","","","","","","","","","true","14","4","moral","583","other","别人","","","","","","","","","","","","","","","","",""
"null","","null","html-keyboard-response","114","255037","0.0-6.0-1.0-8.0-0.3","4","4","4","4","4","4","4","4","4","4","5","5","5","5","5","4","5","5","5","5","1","1","1","1","1","1","1","1","1","1","0","1","1","0","0","0","1","0","1","1","0","0","1","1","5","1","1","1","2","1","2","3","5","1","","672909992034041856","王","700","","","","","","","","","","","","","","","","","","","","","","","","","","","","","","","","","","","","","","","","","",""
"506","<p style=""color:white; font-size: 35px;"">善良</p>","e","categorize-html","115","255544","0.0-6.0-1.0-8.0-1.3","4","4","4","4","4","4","4","4","4","4","5","5","5","5","5","4","5","5","5","5","1","1","1","1","1","1","1","1","1","1","0","1","1","0","0","0","1","0","1","1","0","0","1","1","5","1","1","1","2","1","2","3","5","1","","672909992034041856","王","700","","","","","","","","","","","","","","","","","","","true","14","4","moral","506","positive","善良","","","","","","","","","","","","","","","","",""
"null","","null","html-keyboard-response","116","255796","0.0-6.0-1.0-8.0-0.4","4","4","4","4","4","4","4","4","4","4","5","5","5","5","5","4","5","5","5","5","1","1","1","1","1","1","1","1","1","1","0","1","1","0","0","0","1","0","1","1","0","0","1","1","5","1","1","1","2","1","2","3","5","1","","672909992034041856","王","700","","","","","","","","","","","","","","","","","","","","","","","","","","","","","","","","","","","","","","","","","",""
"373","<p style=""color:rgb(150, 250, 100); font-size: 35px;"">他</p>","e","categorize-html","117","256581","0.0-6.0-1.0-8.0-1.4","4","4","4","4","4","4","4","4","4","4","5","5","5","5","5","4","5","5","5","5","1","1","1","1","1","1","1","1","1","1","0","1","1","0","0","0","1","0","1","1","0","0","1","1","5","1","1","1","2","1","2","3","5","1","","672909992034041856","王","700","","","","","","","","","","","","","","","","","","","false","14","4","moral","1121.7954545454545","other","他","","","","","","","","","","","","","","","","",""
"null","","null","html-keyboard-response","118","256833","0.0-6.0-1.0-8.0-0.5","4","4","4","4","4","4","4","4","4","4","5","5","5","5","5","4","5","5","5","5","1","1","1","1","1","1","1","1","1","1","0","1","1","0","0","0","1","0","1","1","0","0","1","1","5","1","1","1","2","1","2","3","5","1","","672909992034041856","王","700","","","","","","","","","","","","","","","","","","","","","","","","","","","","","","","","","","","","","","","","","",""
"476","<p style=""color:white; font-size: 35px;"">诚信</p>","e","categorize-html","119","257309","0.0-6.0-1.0-8.0-1.5","4","4","4","4","4","4","4","4","4","4","5","5","5","5","5","4","5","5","5","5","1","1","1","1","1","1","1","1","1","1","0","1","1","0","0","0","1","0","1","1","0","0","1","1","5","1","1","1","2","1","2","3","5","1","","672909992034041856","王","700","","","","","","","","","","","","","","","","","","","true","14","4","moral","476","positive","诚信","","","","","","","","","","","","","","","","",""
"null","","null","html-keyboard-response","120","257559","0.0-6.0-1.0-8.0-0.6","4","4","4","4","4","4","4","4","4","4","5","5","5","5","5","4","5","5","5","5","1","1","1","1","1","1","1","1","1","1","0","1","1","0","0","0","1","0","1","1","0","0","1","1","5","1","1","1","2","1","2","3","5","1","","672909992034041856","王","700","","","","","","","","","","","","","","","","","","","","","","","","","","","","","","","","","","","","","","","","","",""
"463","<p style=""color:rgb(150, 250, 100); font-size: 35px;"">本人</p>","e","categorize-html","121","258022","0.0-6.0-1.0-8.0-1.6","4","4","4","4","4","4","4","4","4","4","5","5","5","5","5","4","5","5","5","5","1","1","1","1","1","1","1","1","1","1","0","1","1","0","0","0","1","0","1","1","0","0","1","1","5","1","1","1","2","1","2","3","5","1","","672909992034041856","王","700","","","","","","","","","","","","","","","","","","","true","14","4","moral","463","self","本人","","","","","","","","","","","","","","","","",""
"null","","null","html-keyboard-response","122","258274","0.0-6.0-1.0-8.0-0.7","4","4","4","4","4","4","4","4","4","4","5","5","5","5","5","4","5","5","5","5","1","1","1","1","1","1","1","1","1","1","0","1","1","0","0","0","1","0","1","1","0","0","1","1","5","1","1","1","2","1","2","3","5","1","","672909992034041856","王","700","","","","","","","","","","","","","","","","","","","","","","","","","","","","","","","","","","","","","","","","","",""
"467","<p style=""color:white; font-size: 35px;"">缺德</p>","i","categorize-html","123","258741","0.0-6.0-1.0-8.0-1.7","4","4","4","4","4","4","4","4","4","4","5","5","5","5","5","4","5","5","5","5","1","1","1","1","1","1","1","1","1","1","0","1","1","0","0","0","1","0","1","1","0","0","1","1","5","1","1","1","2","1","2","3","5","1","","672909992034041856","王","700","","","","","","","","","","","","","","","","","","","true","14","4","moral","467","negative","缺德","","","","","","","","","","","","","","","","",""
"null","","null","html-keyboard-response","124","258992","0.0-6.0-1.0-8.0-0.8","4","4","4","4","4","4","4","4","4","4","5","5","5","5","5","4","5","5","5","5","1","1","1","1","1","1","1","1","1","1","0","1","1","0","0","0","1","0","1","1","0","0","1","1","5","1","1","1","2","1","2","3","5","1","","672909992034041856","王","700","","","","","","","","","","","","","","","","","","","","","","","","","","","","","","","","","","","","","","","","","",""
"551","<p style=""color:rgb(150, 250, 100); font-size: 35px;"">自己</p>","e","categorize-html","125","259543","0.0-6.0-1.0-8.0-1.8","4","4","4","4","4","4","4","4","4","4","5","5","5","5","5","4","5","5","5","5","1","1","1","1","1","1","1","1","1","1","0","1","1","0","0","0","1","0","1","1","0","0","1","1","5","1","1","1","2","1","2","3","5","1","","672909992034041856","王","700","","","","","","","","","","","","","","","","","","","true","14","4","moral","551","self","自己","","","","","","","","","","","","","","","","",""
"null","","null","html-keyboard-response","126","259794","0.0-6.0-1.0-8.0-0.9","4","4","4","4","4","4","4","4","4","4","5","5","5","5","5","4","5","5","5","5","1","1","1","1","1","1","1","1","1","1","0","1","1","0","0","0","1","0","1","1","0","0","1","1","5","1","1","1","2","1","2","3","5","1","","672909992034041856","王","700","","","","","","","","","","","","","","","","","","","","","","","","","","","","","","","","","","","","","","","","","",""
"462","<p style=""color:white; font-size: 35px;"">善良</p>","e","categorize-html","127","260257","0.0-6.0-1.0-8.0-1.9","4","4","4","4","4","4","4","4","4","4","5","5","5","5","5","4","5","5","5","5","1","1","1","1","1","1","1","1","1","1","0","1","1","0","0","0","1","0","1","1","0","0","1","1","5","1","1","1","2","1","2","3","5","1","","672909992034041856","王","700","","","","","","","","","","","","","","","","","","","true","14","4","moral","462","positive","善良","","","","","","","","","","","","","","","","",""
"null","","null","html-keyboard-response","128","260509","0.0-6.0-1.0-8.0-0.10","4","4","4","4","4","4","4","4","4","4","5","5","5","5","5","4","5","5","5","5","1","1","1","1","1","1","1","1","1","1","0","1","1","0","0","0","1","0","1","1","0","0","1","1","5","1","1","1","2","1","2","3","5","1","","672909992034041856","王","700","","","","","","","","","","","","","","","","","","","","","","","","","","","","","","","","","","","","","","","","","",""
"511","<p style=""color:rgb(150, 250, 100); font-size: 35px;"">别人</p>","i","categorize-html","129","261020","0.0-6.0-1.0-8.0-1.10","4","4","4","4","4","4","4","4","4","4","5","5","5","5","5","4","5","5","5","5","1","1","1","1","1","1","1","1","1","1","0","1","1","0","0","0","1","0","1","1","0","0","1","1","5","1","1","1","2","1","2","3","5","1","","672909992034041856","王","700","","","","","","","","","","","","","","","","","","","true","14","4","moral","511","other","别人","","","","","","","","","","","","","","","","",""
"null","","null","html-keyboard-response","130","261271","0.0-6.0-1.0-8.0-0.11","4","4","4","4","4","4","4","4","4","4","5","5","5","5","5","4","5","5","5","5","1","1","1","1","1","1","1","1","1","1","0","1","1","0","0","0","1","0","1","1","0","0","1","1","5","1","1","1","2","1","2","3","5","1","","672909992034041856","王","700","","","","","","","","","","","","","","","","","","","","","","","","","","","","","","","","","","","","","","","","","",""
"406","<p style=""color:white; font-size: 35px;"">小人</p>","i","categorize-html","131","261678","0.0-6.0-1.0-8.0-1.11","4","4","4","4","4","4","4","4","4","4","5","5","5","5","5","4","5","5","5","5","1","1","1","1","1","1","1","1","1","1","0","1","1","0","0","0","1","0","1","1","0","0","1","1","5","1","1","1","2","1","2","3","5","1","","672909992034041856","王","700","","","","","","","","","","","","","","","","","","","true","14","4","moral","406","negative","小人","","","","","","","","","","","","","","","","",""
"null","","null","html-keyboard-response","132","261930","0.0-6.0-1.0-8.0-0.12","4","4","4","4","4","4","4","4","4","4","5","5","5","5","5","4","5","5","5","5","1","1","1","1","1","1","1","1","1","1","0","1","1","0","0","0","1","0","1","1","0","0","1","1","5","1","1","1","2","1","2","3","5","1","","672909992034041856","王","700","","","","","","","","","","","","","","","","","","","","","","","","","","","","","","","","","","","","","","","","","",""
"446","<p style=""color:rgb(150, 250, 100); font-size: 35px;"">我的</p>","e","categorize-html","133","262376","0.0-6.0-1.0-8.0-1.12","4","4","4","4","4","4","4","4","4","4","5","5","5","5","5","4","5","5","5","5","1","1","1","1","1","1","1","1","1","1","0","1","1","0","0","0","1","0","1","1","0","0","1","1","5","1","1","1","2","1","2","3","5","1","","672909992034041856","王","700","","","","","","","","","","","","","","","","","","","true","14","4","moral","446","self","我的","","","","","","","","","","","","","","","","",""
"null","","null","html-keyboard-response","134","262627","0.0-6.0-1.0-8.0-0.13","4","4","4","4","4","4","4","4","4","4","5","5","5","5","5","4","5","5","5","5","1","1","1","1","1","1","1","1","1","1","0","1","1","0","0","0","1","0","1","1","0","0","1","1","5","1","1","1","2","1","2","3","5","1","","672909992034041856","王","700","","","","","","","","","","","","","","","","","","","","","","","","","","","","","","","","","","","","","","","","","",""
"403","<p style=""color:white; font-size: 35px;"">正直</p>","e","categorize-html","135","263031","0.0-6.0-1.0-8.0-1.13","4","4","4","4","4","4","4","4","4","4","5","5","5","5","5","4","5","5","5","5","1","1","1","1","1","1","1","1","1","1","0","1","1","0","0","0","1","0","1","1","0","0","1","1","5","1","1","1","2","1","2","3","5","1","","672909992034041856","王","700","","","","","","","","","","","","","","","","","","","true","14","4","moral","403","positive","正直","","","","","","","","","","","","","","","","",""
"null","","null","html-keyboard-response","136","263282","0.0-6.0-1.0-8.0-0.14","4","4","4","4","4","4","4","4","4","4","5","5","5","5","5","4","5","5","5","5","1","1","1","1","1","1","1","1","1","1","0","1","1","0","0","0","1","0","1","1","0","0","1","1","5","1","1","1","2","1","2","3","5","1","","672909992034041856","王","700","","","","","","","","","","","","","","","","","","","","","","","","","","","","","","","","","","","","","","","","","",""
"506","<p style=""color:rgb(150, 250, 100); font-size: 35px;"">他人的</p>","i","categorize-html","137","263788","0.0-6.0-1.0-8.0-1.14","4","4","4","4","4","4","4","4","4","4","5","5","5","5","5","4","5","5","5","5","1","1","1","1","1","1","1","1","1","1","0","1","1","0","0","0","1","0","1","1","0","0","1","1","5","1","1","1","2","1","2","3","5","1","","672909992034041856","王","700","","","","","","","","","","","","","","","","","","","true","14","4","moral","506","other","他人的","","","","","","","","","","","","","","","","",""
"null","","null","html-keyboard-response","138","264040","0.0-6.0-1.0-8.0-0.15","4","4","4","4","4","4","4","4","4","4","5","5","5","5","5","4","5","5","5","5","1","1","1","1","1","1","1","1","1","1","0","1","1","0","0","0","1","0","1","1","0","0","1","1","5","1","1","1","2","1","2","3","5","1","","672909992034041856","王","700","","","","","","","","","","","","","","","","","","","","","","","","","","","","","","","","","","","","","","","","","",""
"526","<p style=""color:white; font-size: 35px;"">卑鄙</p>","i","categorize-html","139","264566","0.0-6.0-1.0-8.0-1.15","4","4","4","4","4","4","4","4","4","4","5","5","5","5","5","4","5","5","5","5","1","1","1","1","1","1","1","1","1","1","0","1","1","0","0","0","1","0","1","1","0","0","1","1","5","1","1","1","2","1","2","3","5","1","","672909992034041856","王","700","","","","","","","","","","","","","","","","","","","true","14","4","moral","526","negative","卑鄙","","","","","","","","","","","","","","","","",""
"null","","null","html-keyboard-response","140","264817","0.0-6.0-1.0-8.0-0.16","4","4","4","4","4","4","4","4","4","4","5","5","5","5","5","4","5","5","5","5","1","1","1","1","1","1","1","1","1","1","0","1","1","0","0","0","1","0","1","1","0","0","1","1","5","1","1","1","2","1","2","3","5","1","","672909992034041856","王","700","","","","","","","","","","","","","","","","","","","","","","","","","","","","","","","","","","","","","","","","","",""
"472","<p style=""color:rgb(150, 250, 100); font-size: 35px;"">自己的</p>","e","categorize-html","141","265291","0.0-6.0-1.0-8.0-1.16","4","4","4","4","4","4","4","4","4","4","5","5","5","5","5","4","5","5","5","5","1","1","1","1","1","1","1","1","1","1","0","1","1","0","0","0","1","0","1","1","0","0","1","1","5","1","1","1","2","1","2","3","5","1","","672909992034041856","王","700","","","","","","","","","","","","","","","","","","","true","14","4","moral","472","self","自己的","","","","","","","","","","","","","","","","",""
"null","","null","html-keyboard-response","142","265543","0.0-6.0-1.0-8.0-0.17","4","4","4","4","4","4","4","4","4","4","5","5","5","5","5","4","5","5","5","5","1","1","1","1","1","1","1","1","1","1","0","1","1","0","0","0","1","0","1","1","0","0","1","1","5","1","1","1","2","1","2","3","5","1","","672909992034041856","王","700","","","","","","","","","","","","","","","","","","","","","","","","","","","","","","","","","","","","","","","","","",""
"484","<p style=""color:white; font-size: 35px;"">不仁</p>","i","categorize-html","143","266027","0.0-6.0-1.0-8.0-1.17","4","4","4","4","4","4","4","4","4","4","5","5","5","5","5","4","5","5","5","5","1","1","1","1","1","1","1","1","1","1","0","1","1","0","0","0","1","0","1","1","0","0","1","1","5","1","1","1","2","1","2","3","5","1","","672909992034041856","王","700","","","","","","","","","","","","","","","","","","","true","14","4","moral","484","negative","不仁","","","","","","","","","","","","","","","","",""
"null","","null","html-keyboard-response","144","266278","0.0-6.0-1.0-8.0-0.18","4","4","4","4","4","4","4","4","4","4","5","5","5","5","5","4","5","5","5","5","1","1","1","1","1","1","1","1","1","1","0","1","1","0","0","0","1","0","1","1","0","0","1","1","5","1","1","1","2","1","2","3","5","1","","672909992034041856","王","700","","","","","","","","","","","","","","","","","","","","","","","","","","","","","","","","","","","","","","","","","",""
"431","<p style=""color:rgb(150, 250, 100); font-size: 35px;"">他人</p>","i","categorize-html","145","266711","0.0-6.0-1.0-8.0-1.18","4","4","4","4","4","4","4","4","4","4","5","5","5","5","5","4","5","5","5","5","1","1","1","1","1","1","1","1","1","1","0","1","1","0","0","0","1","0","1","1","0","0","1","1","5","1","1","1","2","1","2","3","5","1","","672909992034041856","王","700","","","","","","","","","","","","","","","","","","","true","14","4","moral","431","other","他人","","","","","","","","","","","","","","","","",""
"null","","null","html-keyboard-response","146","266961","0.0-6.0-1.0-8.0-0.19","4","4","4","4","4","4","4","4","4","4","5","5","5","5","5","4","5","5","5","5","1","1","1","1","1","1","1","1","1","1","0","1","1","0","0","0","1","0","1","1","0","0","1","1","5","1","1","1","2","1","2","3","5","1","","672909992034041856","王","700","","","","","","","","","","","","","","","","","","","","","","","","","","","","","","","","","","","","","","","","","",""
"561","<p style=""color:white; font-size: 35px;"">廉正</p>","e","categorize-html","147","267523","0.0-6.0-1.0-8.0-1.19","4","4","4","4","4","4","4","4","4","4","5","5","5","5","5","4","5","5","5","5","1","1","1","1","1","1","1","1","1","1","0","1","1","0","0","0","1","0","1","1","0","0","1","1","5","1","1","1","2","1","2","3","5","1","","672909992034041856","王","700","","","","","","","","","","","","","","","","","","","true","14","4","moral","561","positive","廉正","","","","","","","","","","","","","","","","",""
"null","","null","html-keyboard-response","148","267774","0.0-6.0-1.0-8.0-0.20","4","4","4","4","4","4","4","4","4","4","5","5","5","5","5","4","5","5","5","5","1","1","1","1","1","1","1","1","1","1","0","1","1","0","0","0","1","0","1","1","0","0","1","1","5","1","1","1","2","1","2","3","5","1","","672909992034041856","王","700","","","","","","","","","","","","","","","","","","","","","","","","","","","","","","","","","","","","","","","","","",""
"557","<p style=""color:rgb(150, 250, 100); font-size: 35px;"">别人的</p>","i","categorize-html","149","268332","0.0-6.0-1.0-8.0-1.20","4","4","4","4","4","4","4","4","4","4","5","5","5","5","5","4","5","5","5","5","1","1","1","1","1","1","1","1","1","1","0","1","1","0","0","0","1","0","1","1","0","0","1","1","5","1","1","1","2","1","2","3","5","1","","672909992034041856","王","700","","","","","","","","","","","","","","","","","","","true","14","4","moral","557","other","别人的","","","","","","","","","","","","","","","","",""
"null","","null","html-keyboard-response","150","268583","0.0-6.0-1.0-8.0-0.21","4","4","4","4","4","4","4","4","4","4","5","5","5","5","5","4","5","5","5","5","1","1","1","1","1","1","1","1","1","1","0","1","1","0","0","0","1","0","1","1","0","0","1","1","5","1","1","1","2","1","2","3","5","1","","672909992034041856","王","700","","","","","","","","","","","","","","","","","","","","","","","","","","","","","","","","","","","","","","","","","",""
"471","<p style=""color:white; font-size: 35px;"">不仁</p>","i","categorize-html","151","269054","0.0-6.0-1.0-8.0-1.21","4","4","4","4","4","4","4","4","4","4","5","5","5","5","5","4","5","5","5","5","1","1","1","1","1","1","1","1","1","1","0","1","1","0","0","0","1","0","1","1","0","0","1","1","5","1","1","1","2","1","2","3","5","1","","672909992034041856","王","700","","","","","","","","","","","","","","","","","","","true","14","4","moral","471","negative","不仁","","","","","","","","","","","","","","","","",""
"null","","null","html-keyboard-response","152","269305","0.0-6.0-1.0-8.0-0.22","4","4","4","4","4","4","4","4","4","4","5","5","5","5","5","4","5","5","5","5","1","1","1","1","1","1","1","1","1","1","0","1","1","0","0","0","1","0","1","1","0","0","1","1","5","1","1","1","2","1","2","3","5","1","","672909992034041856","王","700","","","","","","","","","","","","","","","","","","","","","","","","","","","","","","","","","","","","","","","","","",""
"492","<p style=""color:rgb(150, 250, 100); font-size: 35px;"">我</p>","e","categorize-html","153","269797","0.0-6.0-1.0-8.0-1.22","4","4","4","4","4","4","4","4","4","4","5","5","5","5","5","4","5","5","5","5","1","1","1","1","1","1","1","1","1","1","0","1","1","0","0","0","1","0","1","1","0","0","1","1","5","1","1","1","2","1","2","3","5","1","","672909992034041856","王","700","","","","","","","","","","","","","","","","","","","true","14","4","moral","492","self","我","","","","","","","","","","","","","","","","",""
"null","","null","html-keyboard-response","154","270047","0.0-6.0-1.0-8.0-0.23","4","4","4","4","4","4","4","4","4","4","5","5","5","5","5","4","5","5","5","5","1","1","1","1","1","1","1","1","1","1","0","1","1","0","0","0","1","0","1","1","0","0","1","1","5","1","1","1","2","1","2","3","5","1","","672909992034041856","王","700","","","","","","","","","","","","","","","","","","","","","","","","","","","","","","","","","","","","","","","","","",""
"404","<p style=""color:white; font-size: 35px;"">高尚</p>","e","categorize-html","155","270452","0.0-6.0-1.0-8.0-1.23","4","4","4","4","4","4","4","4","4","4","5","5","5","5","5","4","5","5","5","5","1","1","1","1","1","1","1","1","1","1","0","1","1","0","0","0","1","0","1","1","0","0","1","1","5","1","1","1","2","1","2","3","5","1","","672909992034041856","王","700","","","","","","","","","","","","","","","","","","","true","14","4","moral","404","positive","高尚","","","","","","","","","","","","","","","","",""
"null","","null","html-keyboard-response","156","270704","0.0-6.0-1.0-8.0-0.24","4","4","4","4","4","4","4","4","4","4","5","5","5","5","5","4","5","5","5","5","1","1","1","1","1","1","1","1","1","1","0","1","1","0","0","0","1","0","1","1","0","0","1","1","5","1","1","1","2","1","2","3","5","1","","672909992034041856","王","700","","","","","","","","","","","","","","","","","","","","","","","","","","","","","","","","","","","","","","","","","",""
"469","<p style=""color:rgb(150, 250, 100); font-size: 35px;"">他人的</p>","i","categorize-html","157","271174","0.0-6.0-1.0-8.0-1.24","4","4","4","4","4","4","4","4","4","4","5","5","5","5","5","4","5","5","5","5","1","1","1","1","1","1","1","1","1","1","0","1","1","0","0","0","1","0","1","1","0","0","1","1","5","1","1","1","2","1","2","3","5","1","","672909992034041856","王","700","","","","","","","","","","","","","","","","","","","true","14","4","moral","469","other","他人的","","","","","","","","","","","","","","","","",""
"null","","null","html-keyboard-response","158","271425","0.0-6.0-1.0-8.0-0.25","4","4","4","4","4","4","4","4","4","4","5","5","5","5","5","4","5","5","5","5","1","1","1","1","1","1","1","1","1","1","0","1","1","0","0","0","1","0","1","1","0","0","1","1","5","1","1","1","2","1","2","3","5","1","","672909992034041856","王","700","","","","","","","","","","","","","","","","","","","","","","","","","","","","","","","","","","","","","","","","","",""
"436","<p style=""color:white; font-size: 35px;"">不孝</p>","i","categorize-html","159","271862","0.0-6.0-1.0-8.0-1.25","4","4","4","4","4","4","4","4","4","4","5","5","5","5","5","4","5","5","5","5","1","1","1","1","1","1","1","1","1","1","0","1","1","0","0","0","1","0","1","1","0","0","1","1","5","1","1","1","2","1","2","3","5","1","","672909992034041856","王","700","","","","","","","","","","","","","","","","","","","true","14","4","moral","436","negative","不孝","","","","","","","","","","","","","","","","",""
"null","","null","html-keyboard-response","160","272113","0.0-6.0-1.0-8.0-0.26","4","4","4","4","4","4","4","4","4","4","5","5","5","5","5","4","5","5","5","5","1","1","1","1","1","1","1","1","1","1","0","1","1","0","0","0","1","0","1","1","0","0","1","1","5","1","1","1","2","1","2","3","5","1","","672909992034041856","王","700","","","","","","","","","","","","","","","","","","","","","","","","","","","","","","","","","","","","","","","","","",""
"491","<p style=""color:rgb(150, 250, 100); font-size: 35px;"">本人的</p>","e","categorize-html","161","272605","0.0-6.0-1.0-8.0-1.26","4","4","4","4","4","4","4","4","4","4","5","5","5","5","5","4","5","5","5","5","1","1","1","1","1","1","1","1","1","1","0","1","1","0","0","0","1","0","1","1","0","0","1","1","5","1","1","1","2","1","2","3","5","1","","672909992034041856","王","700","","","","","","","","","","","","","","","","","","","true","14","4","moral","491","self","本人的","","","","","","","","","","","","","","","","",""
"null","","null","html-keyboard-response","162","272857","0.0-6.0-1.0-8.0-0.27","4","4","4","4","4","4","4","4","4","4","5","5","5","5","5","4","5","5","5","5","1","1","1","1","1","1","1","1","1","1","0","1","1","0","0","0","1","0","1","1","0","0","1","1","5","1","1","1","2","1","2","3","5","1","","672909992034041856","王","700","","","","","","","","","","","","","","","","","","","","","","","","","","","","","","","","","","","","","","","","","",""
"635","<p style=""color:white; font-size: 35px;"">廉正</p>","e","categorize-html","163","273492","0.0-6.0-1.0-8.0-1.27","4","4","4","4","4","4","4","4","4","4","5","5","5","5","5","4","5","5","5","5","1","1","1","1","1","1","1","1","1","1","0","1","1","0","0","0","1","0","1","1","0","0","1","1","5","1","1","1","2","1","2","3","5","1","","672909992034041856","王","700","","","","","","","","","","","","","","","","","","","true","14","4","moral","635","positive","廉正","","","","","","","","","","","","","","","","",""
"null","","null","html-keyboard-response","164","273744","0.0-6.0-1.0-8.0-0.28","4","4","4","4","4","4","4","4","4","4","5","5","5","5","5","4","5","5","5","5","1","1","1","1","1","1","1","1","1","1","0","1","1","0","0","0","1","0","1","1","0","0","1","1","5","1","1","1","2","1","2","3","5","1","","672909992034041856","王","700","","","","","","","","","","","","","","","","","","","","","","","","","","","","","","","","","","","","","","","","","",""
"511","<p style=""color:rgb(150, 250, 100); font-size: 35px;"">别人的</p>","i","categorize-html","165","274256","0.0-6.0-1.0-8.0-1.28","4","4","4","4","4","4","4","4","4","4","5","5","5","5","5","4","5","5","5","5","1","1","1","1","1","1","1","1","1","1","0","1","1","0","0","0","1","0","1","1","0","0","1","1","5","1","1","1","2","1","2","3","5","1","","672909992034041856","王","700","","","","","","","","","","","","","","","","","","","true","14","4","moral","511","other","别人的","","","","","","","","","","","","","","","","",""
"null","","null","html-keyboard-response","166","274508","0.0-6.0-1.0-8.0-0.29","4","4","4","4","4","4","4","4","4","4","5","5","5","5","5","4","5","5","5","5","1","1","1","1","1","1","1","1","1","1","0","1","1","0","0","0","1","0","1","1","0","0","1","1","5","1","1","1","2","1","2","3","5","1","","672909992034041856","王","700","","","","","","","","","","","","","","","","","","","","","","","","","","","","","","","","","","","","","","","","","",""
"580","<p style=""color:white; font-size: 35px;"">正直</p>","e","categorize-html","167","275089","0.0-6.0-1.0-8.0-1.29","4","4","4","4","4","4","4","4","4","4","5","5","5","5","5","4","5","5","5","5","1","1","1","1","1","1","1","1","1","1","0","1","1","0","0","0","1","0","1","1","0","0","1","1","5","1","1","1","2","1","2","3","5","1","","672909992034041856","王","700","","","","","","","","","","","","","","","","","","","true","14","4","moral","580","positive","正直","","","","","","","","","","","","","","","","",""
"null","","null","html-keyboard-response","168","275340","0.0-6.0-1.0-8.0-0.30","4","4","4","4","4","4","4","4","4","4","5","5","5","5","5","4","5","5","5","5","1","1","1","1","1","1","1","1","1","1","0","1","1","0","0","0","1","0","1","1","0","0","1","1","5","1","1","1","2","1","2","3","5","1","","672909992034041856","王","700","","","","","","","","","","","","","","","","","","","","","","","","","","","","","","","","","","","","","","","","","",""
"487","<p style=""color:rgb(150, 250, 100); font-size: 35px;"">我</p>","e","categorize-html","169","275830","0.0-6.0-1.0-8.0-1.30","4","4","4","4","4","4","4","4","4","4","5","5","5","5","5","4","5","5","5","5","1","1","1","1","1","1","1","1","1","1","0","1","1","0","0","0","1","0","1","1","0","0","1","1","5","1","1","1","2","1","2","3","5","1","","672909992034041856","王","700","","","","","","","","","","","","","","","","","","","true","14","4","moral","487","self","我","","","","","","","","","","","","","","","","",""
"null","","null","html-keyboard-response","170","276082","0.0-6.0-1.0-8.0-0.31","4","4","4","4","4","4","4","4","4","4","5","5","5","5","5","4","5","5","5","5","1","1","1","1","1","1","1","1","1","1","0","1","1","0","0","0","1","0","1","1","0","0","1","1","5","1","1","1","2","1","2","3","5","1","","672909992034041856","王","700","","","","","","","","","","","","","","","","","","","","","","","","","","","","","","","","","","","","","","","","","",""
"583","<p style=""color:white; font-size: 35px;"">卑鄙</p>","i","categorize-html","171","276666","0.0-6.0-1.0-8.0-1.31","4","4","4","4","4","4","4","4","4","4","5","5","5","5","5","4","5","5","5","5","1","1","1","1","1","1","1","1","1","1","0","1","1","0","0","0","1","0","1","1","0","0","1","1","5","1","1","1","2","1","2","3","5","1","","672909992034041856","王","700","","","","","","","","","","","","","","","","","","","true","14","4","moral","583","negative","卑鄙","","","","","","","","","","","","","","","","",""
"null","","null","html-keyboard-response","172","276918","0.0-6.0-1.0-8.0-0.32","4","4","4","4","4","4","4","4","4","4","5","5","5","5","5","4","5","5","5","5","1","1","1","1","1","1","1","1","1","1","0","1","1","0","0","0","1","0","1","1","0","0","1","1","5","1","1","1","2","1","2","3","5","1","","672909992034041856","王","700","","","","","","","","","","","","","","","","","","","","","","","","","","","","","","","","","","","","","","","","","",""
"495","<p style=""color:rgb(150, 250, 100); font-size: 35px;"">他</p>","i","categorize-html","173","277413","0.0-6.0-1.0-8.0-1.32","4","4","4","4","4","4","4","4","4","4","5","5","5","5","5","4","5","5","5","5","1","1","1","1","1","1","1","1","1","1","0","1","1","0","0","0","1","0","1","1","0","0","1","1","5","1","1","1","2","1","2","3","5","1","","672909992034041856","王","700","","","","","","","","","","","","","","","","","","","true","14","4","moral","495","other","他","","","","","","","","","","","","","","","","",""
"null","","null","html-keyboard-response","174","277664","0.0-6.0-1.0-8.0-0.33","4","4","4","4","4","4","4","4","4","4","5","5","5","5","5","4","5","5","5","5","1","1","1","1","1","1","1","1","1","1","0","1","1","0","0","0","1","0","1","1","0","0","1","1","5","1","1","1","2","1","2","3","5","1","","672909992034041856","王","700","","","","","","","","","","","","","","","","","","","","","","","","","","","","","","","","","","","","","","","","","",""
"497","<p style=""color:white; font-size: 35px;"">君子</p>","i","categorize-html","175","278220","0.0-6.0-1.0-8.0-1.33","4","4","4","4","4","4","4","4","4","4","5","5","5","5","5","4","5","5","5","5","1","1","1","1","1","1","1","1","1","1","0","1","1","0","0","0","1","0","1","1","0","0","1","1","5","1","1","1","2","1","2","3","5","1","","672909992034041856","王","700","","","","","","","","","","","","","","","","","","","false","14","4","moral","1121.7954545454545","positive","君子","","","","","","","","","","","","","","","","",""
"null","","null","html-keyboard-response","176","278471","0.0-6.0-1.0-8.0-0.34","4","4","4","4","4","4","4","4","4","4","5","5","5","5","5","4","5","5","5","5","1","1","1","1","1","1","1","1","1","1","0","1","1","0","0","0","1","0","1","1","0","0","1","1","5","1","1","1","2","1","2","3","5","1","","672909992034041856","王","700","","","","","","","","","","","","","","","","","","","","","","","","","","","","","","","","","","","","","","","","","",""
"662","<p style=""color:rgb(150, 250, 100); font-size: 35px;"">本人的</p>","e","categorize-html","177","279134","0.0-6.0-1.0-8.0-1.34","4","4","4","4","4","4","4","4","4","4","5","5","5","5","5","4","5","5","5","5","1","1","1","1","1","1","1","1","1","1","0","1","1","0","0","0","1","0","1","1","0","0","1","1","5","1","1","1","2","1","2","3","5","1","","672909992034041856","王","700","","","","","","","","","","","","","","","","","","","true","14","4","moral","662","self","本人的","","","","","","","","","","","","","","","","",""
"null","","null","html-keyboard-response","178","279384","0.0-6.0-1.0-8.0-0.35","4","4","4","4","4","4","4","4","4","4","5","5","5","5","5","4","5","5","5","5","1","1","1","1","1","1","1","1","1","1","0","1","1","0","0","0","1","0","1","1","0","0","1","1","5","1","1","1","2","1","2","3","5","1","","672909992034041856","王","700","","","","","","","","","","","","","","","","","","","","","","","","","","","","","","","","","","","","","","","","","",""
"496","<p style=""color:white; font-size: 35px;"">黑心</p>","i","categorize-html","179","279881","0.0-6.0-1.0-8.0-1.35","4","4","4","4","4","4","4","4","4","4","5","5","5","5","5","4","5","5","5","5","1","1","1","1","1","1","1","1","1","1","0","1","1","0","0","0","1","0","1","1","0","0","1","1","5","1","1","1","2","1","2","3","5","1","","672909992034041856","王","700","","","","","","","","","","","","","","","","","","","true","14","4","moral","496","negative","黑心","","","","","","","","","","","","","","","","",""
"null","","null","html-keyboard-response","180","280133","0.0-6.0-1.0-8.0-0.36","4","4","4","4","4","4","4","4","4","4","5","5","5","5","5","4","5","5","5","5","1","1","1","1","1","1","1","1","1","1","0","1","1","0","0","0","1","0","1","1","0","0","1","1","5","1","1","1","2","1","2","3","5","1","","672909992034041856","王","700","","","","","","","","","","","","","","","","","","","","","","","","","","","","","","","","","","","","","","","","","",""
"591","<p style=""color:rgb(150, 250, 100); font-size: 35px;"">自己</p>","i","categorize-html","181","281053","0.0-6.0-1.0-8.0-1.36","4","4","4","4","4","4","4","4","4","4","5","5","5","5","5","4","5","5","5","5","1","1","1","1","1","1","1","1","1","1","0","1","1","0","0","0","1","0","1","1","0","0","1","1","5","1","1","1","2","1","2","3","5","1","","672909992034041856","王","700","","","","","","","","","","","","","","","","","","","false","14","4","moral","1121.7954545454545","self","自己","","","","","","","","","","","","","","","","",""
"null","","null","html-keyboard-response","182","281304","0.0-6.0-1.0-8.0-0.37","4","4","4","4","4","4","4","4","4","4","5","5","5","5","5","4","5","5","5","5","1","1","1","1","1","1","1","1","1","1","0","1","1","0","0","0","1","0","1","1","0","0","1","1","5","1","1","1","2","1","2","3","5","1","","672909992034041856","王","700","","","","","","","","","","","","","","","","","","","","","","","","","","","","","","","","","","","","","","","","","",""
"493","<p style=""color:white; font-size: 35px;"">高尚</p>","e","categorize-html","183","281800","0.0-6.0-1.0-8.0-1.37","4","4","4","4","4","4","4","4","4","4","5","5","5","5","5","4","5","5","5","5","1","1","1","1","1","1","1","1","1","1","0","1","1","0","0","0","1","0","1","1","0","0","1","1","5","1","1","1","2","1","2","3","5","1","","672909992034041856","王","700","","","","","","","","","","","","","","","","","","","true","14","4","moral","493","positive","高尚","","","","","","","","","","","","","","","","",""
"null","","null","html-keyboard-response","184","282052","0.0-6.0-1.0-8.0-0.38","4","4","4","4","4","4","4","4","4","4","5","5","5","5","5","4","5","5","5","5","1","1","1","1","1","1","1","1","1","1","0","1","1","0","0","0","1","0","1","1","0","0","1","1","5","1","1","1","2","1","2","3","5","1","","672909992034041856","王","700","","","","","","","","","","","","","","","","","","","","","","","","","","","","","","","","","","","","","","","","","",""
"552","<p style=""color:rgb(150, 250, 100); font-size: 35px;"">他人</p>","i","categorize-html","185","282604","0.0-6.0-1.0-8.0-1.38","4","4","4","4","4","4","4","4","4","4","5","5","5","5","5","4","5","5","5","5","1","1","1","1","1","1","1","1","1","1","0","1","1","0","0","0","1","0","1","1","0","0","1","1","5","1","1","1","2","1","2","3","5","1","","672909992034041856","王","700","","","","","","","","","","","","","","","","","","","true","14","4","moral","552","other","他人","","","","","","","","","","","","","","","","",""
"null","","null","html-keyboard-response","186","282856","0.0-6.0-1.0-8.0-0.39","4","4","4","4","4","4","4","4","4","4","5","5","5","5","5","4","5","5","5","5","1","1","1","1","1","1","1","1","1","1","0","1","1","0","0","0","1","0","1","1","0","0","1","1","5","1","1","1","2","1","2","3","5","1","","672909992034041856","王","700","","","","","","","","","","","","","","","","","","","","","","","","","","","","","","","","","","","","","","","","","",""
"501","<p style=""color:white; font-size: 35px;"">缺德</p>","i","categorize-html","187","283357","0.0-6.0-1.0-8.0-1.39","4","4","4","4","4","4","4","4","4","4","5","5","5","5","5","4","5","5","5","5","1","1","1","1","1","1","1","1","1","1","0","1","1","0","0","0","1","0","1","1","0","0","1","1","5","1","1","1","2","1","2","3","5","1","","672909992034041856","王","700","","","","","","","","","","","","","","","","","","","true","14","4","moral","501","negative","缺德","","","","","","","","","","","","","","","","",""
"null","","null","html-keyboard-response","188","283608","0.0-6.0-1.0-8.0-0.40","4","4","4","4","4","4","4","4","4","4","5","5","5","5","5","4","5","5","5","5","1","1","1","1","1","1","1","1","1","1","0","1","1","0","0","0","1","0","1","1","0","0","1","1","5","1","1","1","2","1","2","3","5","1","","672909992034041856","王","700","","","","","","","","","","","","","","","","","","","","","","","","","","","","","","","","","","","","","","","","","",""
"551","<p style=""color:rgb(150, 250, 100); font-size: 35px;"">自己的</p>","e","categorize-html","189","284160","0.0-6.0-1.0-8.0-1.40","4","4","4","4","4","4","4","4","4","4","5","5","5","5","5","4","5","5","5","5","1","1","1","1","1","1","1","1","1","1","0","1","1","0","0","0","1","0","1","1","0","0","1","1","5","1","1","1","2","1","2","3","5","1","","672909992034041856","王","700","","","","","","","","","","","","","","","","","","","true","14","4","moral","551","self","自己的","","","","","","","","","","","","","","","","",""
"null","","null","html-keyboard-response","190","284411","0.0-6.0-1.0-8.0-0.41","4","4","4","4","4","4","4","4","4","4","5","5","5","5","5","4","5","5","5","5","1","1","1","1","1","1","1","1","1","1","0","1","1","0","0","0","1","0","1","1","0","0","1","1","5","1","1","1","2","1","2","3","5","1","","672909992034041856","王","700","","","","","","","","","","","","","","","","","","","","","","","","","","","","","","","","","","","","","","","","","",""
"502","<p style=""color:white; font-size: 35px;"">黑心</p>","i","categorize-html","191","284914","0.0-6.0-1.0-8.0-1.41","4","4","4","4","4","4","4","4","4","4","5","5","5","5","5","4","5","5","5","5","1","1","1","1","1","1","1","1","1","1","0","1","1","0","0","0","1","0","1","1","0","0","1","1","5","1","1","1","2","1","2","3","5","1","","672909992034041856","王","700","","","","","","","","","","","","","","","","","","","true","14","4","moral","502","negative","黑心","","","","","","","","","","","","","","","","",""
"null","","null","html-keyboard-response","192","285165","0.0-6.0-1.0-8.0-0.42","4","4","4","4","4","4","4","4","4","4","5","5","5","5","5","4","5","5","5","5","1","1","1","1","1","1","1","1","1","1","0","1","1","0","0","0","1","0","1","1","0","0","1","1","5","1","1","1","2","1","2","3","5","1","","672909992034041856","王","700","","","","","","","","","","","","","","","","","","","","","","","","","","","","","","","","","","","","","","","","","",""
"531","<p style=""color:rgb(150, 250, 100); font-size: 35px;"">他的</p>","e","categorize-html","193","286061","0.0-6.0-1.0-8.0-1.42","4","4","4","4","4","4","4","4","4","4","5","5","5","5","5","4","5","5","5","5","1","1","1","1","1","1","1","1","1","1","0","1","1","0","0","0","1","0","1","1","0","0","1","1","5","1","1","1","2","1","2","3","5","1","","672909992034041856","王","700","","","","","","","","","","","","","","","","","","","false","14","4","moral","1121.7954545454545","other","他的","","","","","","","","","","","","","","","","",""
