"rt","stimulus","response","trial_type","trial_index","time_elapsed","internal_node_id","ses_1","ses_2","ses_3","ses_4","ses_5","ses_6","ses_7","ses_8","ses_9","ses_10","coreself_1","coreself_2","coreself_3","coreself_4","coreself_5","coreself_6","coreself_7","coreself_8","coreself_9","coreself_10","SGPS_1","SGPS_2","SGPS_3","SGPS_4","SGPS_5","SGPS_6","SGPS_7","SGPS_8","SGPS_9","NPI1","NPI2","NPI3","NPI4","NPI5","NPI6","NPI7","NPI8","NPI9","NPI10","NPI11","NPI12","NPI13","NPI14","NPI15","hsns_1","hsns_2","hsns_3","hsns_4","hsns_5","trap1","hsns_6","hsns_7","hsns_8","hsns_9","hsns_10","subj_idx","friend_name","ParticipantID","value","success","user_agent","responses","item_order","radio_event_ids","radio_event_times","key_event_times","mouse_event_times","straightlining","zigzagging","honeypot","timeout","failed_images","failed_audio","failed_video","version_attrib2","version_target2","correct","IAT","screen_id","task_id","RT","condition","word","varname","summary","version_attrib","version_target","time_stamp","view_history","response_type","key_press","avg_frame_time","center_x","center_y","correct_response","identity","Image","question_order","correct_answer","trap1_item"
"61314","
   <p><div style = ""color: white;font-size:25px;"">您好，欢迎参加本次实验。</div> </p>
   <p><div style = ""color: white;font-size:25px;"">为充分保障您的权利，请确保您已经知晓并同意《参与实验同意书》以及《数据公开知情同意书》。</div></p>
   <p><div style = ""color: white;font-size:25px;"">如果您未见过上述内容，请咨询实验员。</div></p>
   <p><div style = ""color: white;font-size:25px;"">如果您选择继续实验，则表示您已经清楚两份知情同意书的内容并同意。</div></p>
   <p><div style = ""color: pink;font-size:30px;"">请确保您记得day0的实验编号，您将在本次实验输入该编号，若您忘记，请咨询实验员后作答。</div></p>
   <p><div style = ""color: lightblue;font-size:25px;"">请您尽可能认真地作答，我们将依据您在各问卷和按键任务中的作答质量发放报酬。</div></p>
   <p> <div style = ""color: green;font-size:25px;""><按空格键至下页></div> </p>
   "," ","html-keyboard-response","0","61320","0.0-0.0","4","4","4","4","3","4","4","4","4","4","4","4","2","4","4","5","4","4","4","5","1","4","4","2","2","2","2","2","2","1","0","0","1","0","0","1","1","1","1","1","0","1","0","1","4","4","4","2","2","1","2","4","2","3","2","718982212988436480","王","322","","","","","","","","","","","","","","","","","","","","","","","","","","","","","","","","","","","","","","","","","",""
"","","","call-function","1","61321","0.0-1.0-0.0","4","4","4","4","3","4","4","4","4","4","4","4","2","4","4","5","4","4","4","5","1","4","4","2","2","2","2","2","2","1","0","0","1","0","0","1","1","1","1","1","0","1","0","1","4","4","4","2","2","1","2","4","2","3","2","718982212988436480","王","322","","","","","","","","","","","","","","","","","","","","","","","","","","","","","","","","","","","","","","","","","",""
"19236","","{""friend_name"":""王"",""ParticipantID"":""322""}","survey-html-form","2","80558","0.0-1.0-1.0","4","4","4","4","3","4","4","4","4","4","4","4","2","4","4","5","4","4","4","5","1","4","4","2","2","2","2","2","2","1","0","0","1","0","0","1","1","1","1","1","0","1","0","1","4","4","4","2","2","1","2","4","2","3","2","718982212988436480","王","322","","","","","","","","","","","","","","","","","","","","","","","","","","","","","","","","","","","","","","","","","",""
"","","","fullscreen","3","180992","0.0-2.0","4","4","4","4","3","4","4","4","4","4","4","4","2","4","4","5","4","4","4","5","1","4","4","2","2","2","2","2","2","1","0","0","1","0","0","1","1","1","1","1","0","1","0","1","4","4","4","2","2","1","2","4","2","3","2","718982212988436480","王","322","","true","{}","","","","","","","","","","","","","","","","","","","","","","","","","","","","","","","","","","","","","","",""
"29361.09999999404","","{""Q01"":""4"",""Q02"":""4"",""Q03"":""4"",""Q04"":""4"",""Q05"":""3"",""Q06"":""4"",""Q07"":""4"",""Q08"":""4"",""Q09"":""4"",""Q10"":""4""}","survey-template","4","210355","0.0-3.0","4","4","4","4","3","4","4","4","4","4","4","4","2","4","4","5","4","4","4","5","1","4","4","2","2","2","2","2","2","1","0","0","1","0","0","1","1","1","1","1","0","1","0","1","4","4","4","2","2","1","2","4","2","3","2","718982212988436480","王","322","","","","{""Q01"":""4"",""Q02"":""4"",""Q03"":""4"",""Q04"":""4"",""Q05"":""3"",""Q06"":""4"",""Q07"":""4"",""Q08"":""4"",""Q09"":""4"",""Q10"":""4""}","[0,1,2,3,4,5,6,7,8,9]","[""Q01"",""Q02"",""Q03"",""Q04"",""Q05"",""Q06"",""Q07"",""Q08"",""Q09"",""Q10""]","[9687.700000017881,11674.59999999404,14569.5,16197.40000000596,20490.80000001192,22415.20000001788,23839.70000001788,25963,27484.80000001192,28189.80000001192]","[]","[9687.700000017881,11674.59999999404,14569.5,16197.40000000596,20490.80000001192,22415.20000001788,23839.70000001788,25963,27484.80000001192,28189.80000001192,29360.09999999404]","0.5","0.3333333333333333","0","","","","","","","","","","","","","","","","","","","","","","","","","","","","","",""
"34548.30000001192","","{""Q01"":""4"",""Q02"":""4"",""Q03"":""2"",""Q04"":""4"",""Q05"":""4"",""Q06"":""5"",""Q07"":""4"",""Q08"":""4"",""Q09"":""4"",""Q10"":""5""}","survey-template","5","244909","0.0-4.0","4","4","4","4","3","4","4","4","4","4","4","4","2","4","4","5","4","4","4","5","1","4","4","2","2","2","2","2","2","1","0","0","1","0","0","1","1","1","1","1","0","1","0","1","4","4","4","2","2","1","2","4","2","3","2","718982212988436480","王","322","","","","{""Q01"":""4"",""Q02"":""4"",""Q03"":""2"",""Q04"":""4"",""Q05"":""4"",""Q06"":""5"",""Q07"":""4"",""Q08"":""4"",""Q09"":""4"",""Q10"":""5""}","[0,1,2,3,4,5,6,7,8,9]","[""Q01"",""Q02"",""Q03"",""Q04"",""Q05"",""Q06"",""Q07"",""Q08"",""Q09"",""Q10""]","[7096.800000011921,10614.09999999404,16103.199999988079,17572.90000000596,21001.80000001192,24204,27234.40000000596,30114.19999998808,31546.40000000596,33691.90000000596]","[]","[6196.0999999940395,7096.800000011921,10614.09999999404,16103.199999988079,17572.90000000596,21001.80000001192,23041.69999998808,24204,27234.40000000596,30114.19999998808,31546.40000000596,33691.90000000596,34547.19999998808]","0.4","0","0","","","","","","","","","","","","","","","","","","","","","","","","","","","","","",""
"","","","preload","6","245278","0.0-5.0","4","4","4","4","3","4","4","4","4","4","4","4","2","4","4","5","4","4","4","5","1","4","4","2","2","2","2","2","2","1","0","0","1","0","0","1","1","1","1","1","0","1","0","1","4","4","4","2","2","1","2","4","2","3","2","718982212988436480","王","322","","true","","","","","","","","","","","false","[]","[]","[]","","","","","","","","","","","","","","","","","","","","","","","","","",""
"37136","
    <h3>词语分类任务</h3>
    <p>在接下来的任务中，你需要对一系列词语进行分类。<p/>
    请先熟悉这些词语，这有利于你完成接下来的任务。</p>
    <table align=""center"" border=1 cellpadding=3 cellspacing=0>
    <tr> <th>类别</th> <th>词语</th> </tr>
    <tr> <td>&emsp;积极&emsp;</td> <td>&emsp;高尚、诚信、善良、君子、廉正、正直&emsp;</td> </tr>
    <tr> <td>&emsp;消极&emsp;</td> <td>&emsp;缺德、卑鄙、不孝、不仁、小人、黑心&emsp;</td> </tr>
    <tr> <td>&emsp;自我&emsp;</td> <td>&emsp;我、我的、自己、自己的、本人、本人的&emsp;</td> </tr>
    <tr> <td>&emsp;他人&emsp;</td> <td>&emsp;他、他的、别人、别人的、他人、他人的&emsp;</td> </tr>
    </table><br/>","0","html-button-response","7","282417","0.0-6.0-1.0-0.0","4","4","4","4","3","4","4","4","4","4","4","4","2","4","4","5","4","4","4","5","1","4","4","2","2","2","2","2","2","1","0","0","1","0","0","1","1","1","1","1","0","1","0","1","4","4","4","2","2","1","2","4","2","3","2","718982212988436480","王","322","","","","","","","","","","","","","","","","","1","2","","","","","","","","","","","","","","","","","","","","","","","",""
"30276","
    <div class=""tag-bottom""><p>
    —— 任务1：对“他人”词和“自我”词分类 ——<p/>
    不同词语会出现在屏幕中央，类别标签将始终显示在屏幕上方<p/>   
    <span style=""color:#FFD866""><b>请根据上方标签的提示，尽可能正确并且快速地做出按键反应</b></span><p/>
    当按键错误时屏幕中会出现<span style=""color:red""> X </span>，需要按另一个键纠正才能继续<br/><p/>
    请把双手食指分别放在键盘的“E”键和“I”键上<p/>
    按<空格键>开始
    </p></div>"," ","html-keyboard-response","8","312696","0.0-6.0-1.0-1.0","4","4","4","4","3","4","4","4","4","4","4","4","2","4","4","5","4","4","4","5","1","4","4","2","2","2","2","2","2","1","0","0","1","0","0","1","1","1","1","1","0","1","0","1","4","4","4","2","2","1","2","4","2","3","2","718982212988436480","王","322","","","","","","","","","","","","","","","","","","","","","","","","","","","","","","","","","","","","","","","","","",""
"null","","null","html-keyboard-response","9","312950","0.0-6.0-1.0-2.0-0.0","4","4","4","4","3","4","4","4","4","4","4","4","2","4","4","5","4","4","4","5","1","4","4","2","2","2","2","2","2","1","0","0","1","0","0","1","1","1","1","1","0","1","0","1","4","4","4","2","2","1","2","4","2","3","2","718982212988436480","王","322","","","","","","","","","","","","","","","","","","","","","","","","","","","","","","","","","","","","","","","","","",""
"731","<p style=""color:rgb(150, 250, 100); font-size: 35px;"">他人的</p>","e","categorize-html","10","313690","0.0-6.0-1.0-2.0-1.0","4","4","4","4","3","4","4","4","4","4","4","4","2","4","4","5","4","4","4","5","1","4","4","2","2","2","2","2","2","1","0","0","1","0","0","1","1","1","1","1","0","1","0","1","4","4","4","2","2","1","2","4","2","3","2","718982212988436480","王","322","","","","","","","","","","","","","","","","","","","true","11","1","moral","731","other","他人的","","","","","","","","","","","","","","","","",""
"null","","null","html-keyboard-response","11","313943","0.0-6.0-1.0-2.0-0.1","4","4","4","4","3","4","4","4","4","4","4","4","2","4","4","5","4","4","4","5","1","4","4","2","2","2","2","2","2","1","0","0","1","0","0","1","1","1","1","1","0","1","0","1","4","4","4","2","2","1","2","4","2","3","2","718982212988436480","王","322","","","","","","","","","","","","","","","","","","","","","","","","","","","","","","","","","","","","","","","","","",""
"654","<p style=""color:rgb(150, 250, 100); font-size: 35px;"">我</p>","i","categorize-html","12","314601","0.0-6.0-1.0-2.0-1.1","4","4","4","4","3","4","4","4","4","4","4","4","2","4","4","5","4","4","4","5","1","4","4","2","2","2","2","2","2","1","0","0","1","0","0","1","1","1","1","1","0","1","0","1","4","4","4","2","2","1","2","4","2","3","2","718982212988436480","王","322","","","","","","","","","","","","","","","","","","","true","11","1","moral","654","self","我","","","","","","","","","","","","","","","","",""
"null","","null","html-keyboard-response","13","314855","0.0-6.0-1.0-2.0-0.2","4","4","4","4","3","4","4","4","4","4","4","4","2","4","4","5","4","4","4","5","1","4","4","2","2","2","2","2","2","1","0","0","1","0","0","1","1","1","1","1","0","1","0","1","4","4","4","2","2","1","2","4","2","3","2","718982212988436480","王","322","","","","","","","","","","","","","","","","","","","","","","","","","","","","","","","","","","","","","","","","","",""
"590","<p style=""color:rgb(150, 250, 100); font-size: 35px;"">本人</p>","i","categorize-html","14","315450","0.0-6.0-1.0-2.0-1.2","4","4","4","4","3","4","4","4","4","4","4","4","2","4","4","5","4","4","4","5","1","4","4","2","2","2","2","2","2","1","0","0","1","0","0","1","1","1","1","1","0","1","0","1","4","4","4","2","2","1","2","4","2","3","2","718982212988436480","王","322","","","","","","","","","","","","","","","","","","","true","11","1","moral","590","self","本人","","","","","","","","","","","","","","","","",""
"null","","null","html-keyboard-response","15","315709","0.0-6.0-1.0-2.0-0.3","4","4","4","4","3","4","4","4","4","4","4","4","2","4","4","5","4","4","4","5","1","4","4","2","2","2","2","2","2","1","0","0","1","0","0","1","1","1","1","1","0","1","0","1","4","4","4","2","2","1","2","4","2","3","2","718982212988436480","王","322","","","","","","","","","","","","","","","","","","","","","","","","","","","","","","","","","","","","","","","","","",""
"713","<p style=""color:rgb(150, 250, 100); font-size: 35px;"">别人的</p>","e","categorize-html","16","316429","0.0-6.0-1.0-2.0-1.3","4","4","4","4","3","4","4","4","4","4","4","4","2","4","4","5","4","4","4","5","1","4","4","2","2","2","2","2","2","1","0","0","1","0","0","1","1","1","1","1","0","1","0","1","4","4","4","2","2","1","2","4","2","3","2","718982212988436480","王","322","","","","","","","","","","","","","","","","","","","true","11","1","moral","713","other","别人的","","","","","","","","","","","","","","","","",""
"null","","null","html-keyboard-response","17","316680","0.0-6.0-1.0-2.0-0.4","4","4","4","4","3","4","4","4","4","4","4","4","2","4","4","5","4","4","4","5","1","4","4","2","2","2","2","2","2","1","0","0","1","0","0","1","1","1","1","1","0","1","0","1","4","4","4","2","2","1","2","4","2","3","2","718982212988436480","王","322","","","","","","","","","","","","","","","","","","","","","","","","","","","","","","","","","","","","","","","","","",""
"595","<p style=""color:rgb(150, 250, 100); font-size: 35px;"">我的</p>","i","categorize-html","18","317281","0.0-6.0-1.0-2.0-1.4","4","4","4","4","3","4","4","4","4","4","4","4","2","4","4","5","4","4","4","5","1","4","4","2","2","2","2","2","2","1","0","0","1","0","0","1","1","1","1","1","0","1","0","1","4","4","4","2","2","1","2","4","2","3","2","718982212988436480","王","322","","","","","","","","","","","","","","","","","","","true","11","1","moral","595","self","我的","","","","","","","","","","","","","","","","",""
"null","","null","html-keyboard-response","19","317539","0.0-6.0-1.0-2.0-0.5","4","4","4","4","3","4","4","4","4","4","4","4","2","4","4","5","4","4","4","5","1","4","4","2","2","2","2","2","2","1","0","0","1","0","0","1","1","1","1","1","0","1","0","1","4","4","4","2","2","1","2","4","2","3","2","718982212988436480","王","322","","","","","","","","","","","","","","","","","","","","","","","","","","","","","","","","","","","","","","","","","",""
"553","<p style=""color:rgb(150, 250, 100); font-size: 35px;"">别人</p>","e","categorize-html","20","318094","0.0-6.0-1.0-2.0-1.5","4","4","4","4","3","4","4","4","4","4","4","4","2","4","4","5","4","4","4","5","1","4","4","2","2","2","2","2","2","1","0","0","1","0","0","1","1","1","1","1","0","1","0","1","4","4","4","2","2","1","2","4","2","3","2","718982212988436480","王","322","","","","","","","","","","","","","","","","","","","true","11","1","moral","553","other","别人","","","","","","","","","","","","","","","","",""
"null","","null","html-keyboard-response","21","318345","0.0-6.0-1.0-2.0-0.6","4","4","4","4","3","4","4","4","4","4","4","4","2","4","4","5","4","4","4","5","1","4","4","2","2","2","2","2","2","1","0","0","1","0","0","1","1","1","1","1","0","1","0","1","4","4","4","2","2","1","2","4","2","3","2","718982212988436480","王","322","","","","","","","","","","","","","","","","","","","","","","","","","","","","","","","","","","","","","","","","","",""
"583","<p style=""color:rgb(150, 250, 100); font-size: 35px;"">他的</p>","e","categorize-html","22","318931","0.0-6.0-1.0-2.0-1.6","4","4","4","4","3","4","4","4","4","4","4","4","2","4","4","5","4","4","4","5","1","4","4","2","2","2","2","2","2","1","0","0","1","0","0","1","1","1","1","1","0","1","0","1","4","4","4","2","2","1","2","4","2","3","2","718982212988436480","王","322","","","","","","","","","","","","","","","","","","","true","11","1","moral","583","other","他的","","","","","","","","","","","","","","","","",""
"null","","null","html-keyboard-response","23","319183","0.0-6.0-1.0-2.0-0.7","4","4","4","4","3","4","4","4","4","4","4","4","2","4","4","5","4","4","4","5","1","4","4","2","2","2","2","2","2","1","0","0","1","0","0","1","1","1","1","1","0","1","0","1","4","4","4","2","2","1","2","4","2","3","2","718982212988436480","王","322","","","","","","","","","","","","","","","","","","","","","","","","","","","","","","","","","","","","","","","","","",""
"663","<p style=""color:rgb(150, 250, 100); font-size: 35px;"">本人的</p>","i","categorize-html","24","319851","0.0-6.0-1.0-2.0-1.7","4","4","4","4","3","4","4","4","4","4","4","4","2","4","4","5","4","4","4","5","1","4","4","2","2","2","2","2","2","1","0","0","1","0","0","1","1","1","1","1","0","1","0","1","4","4","4","2","2","1","2","4","2","3","2","718982212988436480","王","322","","","","","","","","","","","","","","","","","","","true","11","1","moral","663","self","本人的","","","","","","","","","","","","","","","","",""
"null","","null","html-keyboard-response","25","320109","0.0-6.0-1.0-2.0-0.8","4","4","4","4","3","4","4","4","4","4","4","4","2","4","4","5","4","4","4","5","1","4","4","2","2","2","2","2","2","1","0","0","1","0","0","1","1","1","1","1","0","1","0","1","4","4","4","2","2","1","2","4","2","3","2","718982212988436480","王","322","","","","","","","","","","","","","","","","","","","","","","","","","","","","","","","","","","","","","","","","","",""
"414","<p style=""color:rgb(150, 250, 100); font-size: 35px;"">自己的</p>","i","categorize-html","26","320528","0.0-6.0-1.0-2.0-1.8","4","4","4","4","3","4","4","4","4","4","4","4","2","4","4","5","4","4","4","5","1","4","4","2","2","2","2","2","2","1","0","0","1","0","0","1","1","1","1","1","0","1","0","1","4","4","4","2","2","1","2","4","2","3","2","718982212988436480","王","322","","","","","","","","","","","","","","","","","","","true","11","1","moral","414","self","自己的","","","","","","","","","","","","","","","","",""
"null","","null","html-keyboard-response","27","320787","0.0-6.0-1.0-2.0-0.9","4","4","4","4","3","4","4","4","4","4","4","4","2","4","4","5","4","4","4","5","1","4","4","2","2","2","2","2","2","1","0","0","1","0","0","1","1","1","1","1","0","1","0","1","4","4","4","2","2","1","2","4","2","3","2","718982212988436480","王","322","","","","","","","","","","","","","","","","","","","","","","","","","","","","","","","","","","","","","","","","","",""
"404","<p style=""color:rgb(150, 250, 100); font-size: 35px;"">自己</p>","i","categorize-html","28","321192","0.0-6.0-1.0-2.0-1.9","4","4","4","4","3","4","4","4","4","4","4","4","2","4","4","5","4","4","4","5","1","4","4","2","2","2","2","2","2","1","0","0","1","0","0","1","1","1","1","1","0","1","0","1","4","4","4","2","2","1","2","4","2","3","2","718982212988436480","王","322","","","","","","","","","","","","","","","","","","","true","11","1","moral","404","self","自己","","","","","","","","","","","","","","","","",""
"null","","null","html-keyboard-response","29","321446","0.0-6.0-1.0-2.0-0.10","4","4","4","4","3","4","4","4","4","4","4","4","2","4","4","5","4","4","4","5","1","4","4","2","2","2","2","2","2","1","0","0","1","0","0","1","1","1","1","1","0","1","0","1","4","4","4","2","2","1","2","4","2","3","2","718982212988436480","王","322","","","","","","","","","","","","","","","","","","","","","","","","","","","","","","","","","","","","","","","","","",""
"555","<p style=""color:rgb(150, 250, 100); font-size: 35px;"">他人</p>","e","categorize-html","30","322004","0.0-6.0-1.0-2.0-1.10","4","4","4","4","3","4","4","4","4","4","4","4","2","4","4","5","4","4","4","5","1","4","4","2","2","2","2","2","2","1","0","0","1","0","0","1","1","1","1","1","0","1","0","1","4","4","4","2","2","1","2","4","2","3","2","718982212988436480","王","322","","","","","","","","","","","","","","","","","","","true","11","1","moral","555","other","他人","","","","","","","","","","","","","","","","",""
"null","","null","html-keyboard-response","31","322257","0.0-6.0-1.0-2.0-0.11","4","4","4","4","3","4","4","4","4","4","4","4","2","4","4","5","4","4","4","5","1","4","4","2","2","2","2","2","2","1","0","0","1","0","0","1","1","1","1","1","0","1","0","1","4","4","4","2","2","1","2","4","2","3","2","718982212988436480","王","322","","","","","","","","","","","","","","","","","","","","","","","","","","","","","","","","","","","","","","","","","",""
"568","<p style=""color:rgb(150, 250, 100); font-size: 35px;"">他</p>","e","categorize-html","32","322829","0.0-6.0-1.0-2.0-1.11","4","4","4","4","3","4","4","4","4","4","4","4","2","4","4","5","4","4","4","5","1","4","4","2","2","2","2","2","2","1","0","0","1","0","0","1","1","1","1","1","0","1","0","1","4","4","4","2","2","1","2","4","2","3","2","718982212988436480","王","322","","","","","","","","","","","","","","","","","","","true","11","1","moral","568","other","他","","","","","","","","","","","","","","","","",""
"4896","
    <div class=""tag-bottom""><p>
    —— 任务2：对“积极”词和“消极”词分类 ——<p/>   
    <span style=""color:#78DCE8""><b>注意上方，类别标签和需要分类的词语都已经改变</b></span><p/>
    <span style=""color:#FFD866""><b>请根据上方标签的提示，尽可能正确并且快速地做出按键反应</b></span><p/>
    当按键错误时屏幕中会出现<span style=""color:red""> X </span>，需要按另一个键纠正才能继续<br/><p/>
    请把双手食指分别放在键盘的“E”键和“I”键上<p/>
    按<空格键>开始
    </p></div>"," ","html-keyboard-response","33","327725","0.0-6.0-1.0-3.0","4","4","4","4","3","4","4","4","4","4","4","4","2","4","4","5","4","4","4","5","1","4","4","2","2","2","2","2","2","1","0","0","1","0","0","1","1","1","1","1","0","1","0","1","4","4","4","2","2","1","2","4","2","3","2","718982212988436480","王","322","","","","","","","","","","","","","","","","","","","","","","","","","","","","","","","","","","","","","","","","","",""
"null","","null","html-keyboard-response","34","327980","0.0-6.0-1.0-4.0-0.0","4","4","4","4","3","4","4","4","4","4","4","4","2","4","4","5","4","4","4","5","1","4","4","2","2","2","2","2","2","1","0","0","1","0","0","1","1","1","1","1","0","1","0","1","4","4","4","2","2","1","2","4","2","3","2","718982212988436480","王","322","","","","","","","","","","","","","","","","","","","","","","","","","","","","","","","","","","","","","","","","","",""
"544","<p style=""color:white; font-size: 35px;"">高尚</p>","e","categorize-html","35","328528","0.0-6.0-1.0-4.0-1.0","4","4","4","4","3","4","4","4","4","4","4","4","2","4","4","5","4","4","4","5","1","4","4","2","2","2","2","2","2","1","0","0","1","0","0","1","1","1","1","1","0","1","0","1","4","4","4","2","2","1","2","4","2","3","2","718982212988436480","王","322","","","","","","","","","","","","","","","","","","","true","12","2","moral","544","positive","高尚","","","","","","","","","","","","","","","","",""
"null","","null","html-keyboard-response","36","328786","0.0-6.0-1.0-4.0-0.1","4","4","4","4","3","4","4","4","4","4","4","4","2","4","4","5","4","4","4","5","1","4","4","2","2","2","2","2","2","1","0","0","1","0","0","1","1","1","1","1","0","1","0","1","4","4","4","2","2","1","2","4","2","3","2","718982212988436480","王","322","","","","","","","","","","","","","","","","","","","","","","","","","","","","","","","","","","","","","","","","","",""
"622","<p style=""color:white; font-size: 35px;"">小人</p>","i","categorize-html","37","329413","0.0-6.0-1.0-4.0-1.1","4","4","4","4","3","4","4","4","4","4","4","4","2","4","4","5","4","4","4","5","1","4","4","2","2","2","2","2","2","1","0","0","1","0","0","1","1","1","1","1","0","1","0","1","4","4","4","2","2","1","2","4","2","3","2","718982212988436480","王","322","","","","","","","","","","","","","","","","","","","true","12","2","moral","622","negative","小人","","","","","","","","","","","","","","","","",""
"null","","null","html-keyboard-response","38","329672","0.0-6.0-1.0-4.0-0.2","4","4","4","4","3","4","4","4","4","4","4","4","2","4","4","5","4","4","4","5","1","4","4","2","2","2","2","2","2","1","0","0","1","0","0","1","1","1","1","1","0","1","0","1","4","4","4","2","2","1","2","4","2","3","2","718982212988436480","王","322","","","","","","","","","","","","","","","","","","","","","","","","","","","","","","","","","","","","","","","","","",""
"757","<p style=""color:white; font-size: 35px;"">廉正</p>","e","categorize-html","39","330432","0.0-6.0-1.0-4.0-1.2","4","4","4","4","3","4","4","4","4","4","4","4","2","4","4","5","4","4","4","5","1","4","4","2","2","2","2","2","2","1","0","0","1","0","0","1","1","1","1","1","0","1","0","1","4","4","4","2","2","1","2","4","2","3","2","718982212988436480","王","322","","","","","","","","","","","","","","","","","","","true","12","2","moral","757","positive","廉正","","","","","","","","","","","","","","","","",""
"null","","null","html-keyboard-response","40","330688","0.0-6.0-1.0-4.0-0.3","4","4","4","4","3","4","4","4","4","4","4","4","2","4","4","5","4","4","4","5","1","4","4","2","2","2","2","2","2","1","0","0","1","0","0","1","1","1","1","1","0","1","0","1","4","4","4","2","2","1","2","4","2","3","2","718982212988436480","王","322","","","","","","","","","","","","","","","","","","","","","","","","","","","","","","","","","","","","","","","","","",""
"580","<p style=""color:white; font-size: 35px;"">君子</p>","e","categorize-html","41","331272","0.0-6.0-1.0-4.0-1.3","4","4","4","4","3","4","4","4","4","4","4","4","2","4","4","5","4","4","4","5","1","4","4","2","2","2","2","2","2","1","0","0","1","0","0","1","1","1","1","1","0","1","0","1","4","4","4","2","2","1","2","4","2","3","2","718982212988436480","王","322","","","","","","","","","","","","","","","","","","","true","12","2","moral","580","positive","君子","","","","","","","","","","","","","","","","",""
"null","","null","html-keyboard-response","42","331529","0.0-6.0-1.0-4.0-0.4","4","4","4","4","3","4","4","4","4","4","4","4","2","4","4","5","4","4","4","5","1","4","4","2","2","2","2","2","2","1","0","0","1","0","0","1","1","1","1","1","0","1","0","1","4","4","4","2","2","1","2","4","2","3","2","718982212988436480","王","322","","","","","","","","","","","","","","","","","","","","","","","","","","","","","","","","","","","","","","","","","",""
"506","<p style=""color:white; font-size: 35px;"">诚信</p>","e","categorize-html","43","332040","0.0-6.0-1.0-4.0-1.4","4","4","4","4","3","4","4","4","4","4","4","4","2","4","4","5","4","4","4","5","1","4","4","2","2","2","2","2","2","1","0","0","1","0","0","1","1","1","1","1","0","1","0","1","4","4","4","2","2","1","2","4","2","3","2","718982212988436480","王","322","","","","","","","","","","","","","","","","","","","true","12","2","moral","506","positive","诚信","","","","","","","","","","","","","","","","",""
"null","","null","html-keyboard-response","44","332292","0.0-6.0-1.0-4.0-0.5","4","4","4","4","3","4","4","4","4","4","4","4","2","4","4","5","4","4","4","5","1","4","4","2","2","2","2","2","2","1","0","0","1","0","0","1","1","1","1","1","0","1","0","1","4","4","4","2","2","1","2","4","2","3","2","718982212988436480","王","322","","","","","","","","","","","","","","","","","","","","","","","","","","","","","","","","","","","","","","","","","",""
"480","<p style=""color:white; font-size: 35px;"">黑心</p>","i","categorize-html","45","332778","0.0-6.0-1.0-4.0-1.5","4","4","4","4","3","4","4","4","4","4","4","4","2","4","4","5","4","4","4","5","1","4","4","2","2","2","2","2","2","1","0","0","1","0","0","1","1","1","1","1","0","1","0","1","4","4","4","2","2","1","2","4","2","3","2","718982212988436480","王","322","","","","","","","","","","","","","","","","","","","true","12","2","moral","480","negative","黑心","","","","","","","","","","","","","","","","",""
"null","","null","html-keyboard-response","46","333036","0.0-6.0-1.0-4.0-0.6","4","4","4","4","3","4","4","4","4","4","4","4","2","4","4","5","4","4","4","5","1","4","4","2","2","2","2","2","2","1","0","0","1","0","0","1","1","1","1","1","0","1","0","1","4","4","4","2","2","1","2","4","2","3","2","718982212988436480","王","322","","","","","","","","","","","","","","","","","","","","","","","","","","","","","","","","","","","","","","","","","",""
"585","<p style=""color:white; font-size: 35px;"">善良</p>","e","categorize-html","47","333626","0.0-6.0-1.0-4.0-1.6","4","4","4","4","3","4","4","4","4","4","4","4","2","4","4","5","4","4","4","5","1","4","4","2","2","2","2","2","2","1","0","0","1","0","0","1","1","1","1","1","0","1","0","1","4","4","4","2","2","1","2","4","2","3","2","718982212988436480","王","322","","","","","","","","","","","","","","","","","","","true","12","2","moral","585","positive","善良","","","","","","","","","","","","","","","","",""
"null","","null","html-keyboard-response","48","333881","0.0-6.0-1.0-4.0-0.7","4","4","4","4","3","4","4","4","4","4","4","4","2","4","4","5","4","4","4","5","1","4","4","2","2","2","2","2","2","1","0","0","1","0","0","1","1","1","1","1","0","1","0","1","4","4","4","2","2","1","2","4","2","3","2","718982212988436480","王","322","","","","","","","","","","","","","","","","","","","","","","","","","","","","","","","","","","","","","","","","","",""
"611","<p style=""color:white; font-size: 35px;"">不孝</p>","i","categorize-html","49","334497","0.0-6.0-1.0-4.0-1.7","4","4","4","4","3","4","4","4","4","4","4","4","2","4","4","5","4","4","4","5","1","4","4","2","2","2","2","2","2","1","0","0","1","0","0","1","1","1","1","1","0","1","0","1","4","4","4","2","2","1","2","4","2","3","2","718982212988436480","王","322","","","","","","","","","","","","","","","","","","","true","12","2","moral","611","negative","不孝","","","","","","","","","","","","","","","","",""
"null","","null","html-keyboard-response","50","334751","0.0-6.0-1.0-4.0-0.8","4","4","4","4","3","4","4","4","4","4","4","4","2","4","4","5","4","4","4","5","1","4","4","2","2","2","2","2","2","1","0","0","1","0","0","1","1","1","1","1","0","1","0","1","4","4","4","2","2","1","2","4","2","3","2","718982212988436480","王","322","","","","","","","","","","","","","","","","","","","","","","","","","","","","","","","","","","","","","","","","","",""
"502","<p style=""color:white; font-size: 35px;"">卑鄙</p>","i","categorize-html","51","335258","0.0-6.0-1.0-4.0-1.8","4","4","4","4","3","4","4","4","4","4","4","4","2","4","4","5","4","4","4","5","1","4","4","2","2","2","2","2","2","1","0","0","1","0","0","1","1","1","1","1","0","1","0","1","4","4","4","2","2","1","2","4","2","3","2","718982212988436480","王","322","","","","","","","","","","","","","","","","","","","true","12","2","moral","502","negative","卑鄙","","","","","","","","","","","","","","","","",""
"null","","null","html-keyboard-response","52","335515","0.0-6.0-1.0-4.0-0.9","4","4","4","4","3","4","4","4","4","4","4","4","2","4","4","5","4","4","4","5","1","4","4","2","2","2","2","2","2","1","0","0","1","0","0","1","1","1","1","1","0","1","0","1","4","4","4","2","2","1","2","4","2","3","2","718982212988436480","王","322","","","","","","","","","","","","","","","","","","","","","","","","","","","","","","","","","","","","","","","","","",""
"405","<p style=""color:white; font-size: 35px;"">缺德</p>","i","categorize-html","53","335924","0.0-6.0-1.0-4.0-1.9","4","4","4","4","3","4","4","4","4","4","4","4","2","4","4","5","4","4","4","5","1","4","4","2","2","2","2","2","2","1","0","0","1","0","0","1","1","1","1","1","0","1","0","1","4","4","4","2","2","1","2","4","2","3","2","718982212988436480","王","322","","","","","","","","","","","","","","","","","","","true","12","2","moral","405","negative","缺德","","","","","","","","","","","","","","","","",""
"null","","null","html-keyboard-response","54","336177","0.0-6.0-1.0-4.0-0.10","4","4","4","4","3","4","4","4","4","4","4","4","2","4","4","5","4","4","4","5","1","4","4","2","2","2","2","2","2","1","0","0","1","0","0","1","1","1","1","1","0","1","0","1","4","4","4","2","2","1","2","4","2","3","2","718982212988436480","王","322","","","","","","","","","","","","","","","","","","","","","","","","","","","","","","","","","","","","","","","","","",""
"446","<p style=""color:white; font-size: 35px;"">正直</p>","e","categorize-html","55","336627","0.0-6.0-1.0-4.0-1.10","4","4","4","4","3","4","4","4","4","4","4","4","2","4","4","5","4","4","4","5","1","4","4","2","2","2","2","2","2","1","0","0","1","0","0","1","1","1","1","1","0","1","0","1","4","4","4","2","2","1","2","4","2","3","2","718982212988436480","王","322","","","","","","","","","","","","","","","","","","","true","12","2","moral","446","positive","正直","","","","","","","","","","","","","","","","",""
"null","","null","html-keyboard-response","56","336882","0.0-6.0-1.0-4.0-0.11","4","4","4","4","3","4","4","4","4","4","4","4","2","4","4","5","4","4","4","5","1","4","4","2","2","2","2","2","2","1","0","0","1","0","0","1","1","1","1","1","0","1","0","1","4","4","4","2","2","1","2","4","2","3","2","718982212988436480","王","322","","","","","","","","","","","","","","","","","","","","","","","","","","","","","","","","","","","","","","","","","",""
"597","<p style=""color:white; font-size: 35px;"">不仁</p>","i","categorize-html","57","337481","0.0-6.0-1.0-4.0-1.11","4","4","4","4","3","4","4","4","4","4","4","4","2","4","4","5","4","4","4","5","1","4","4","2","2","2","2","2","2","1","0","0","1","0","0","1","1","1","1","1","0","1","0","1","4","4","4","2","2","1","2","4","2","3","2","718982212988436480","王","322","","","","","","","","","","","","","","","","","","","true","12","2","moral","597","negative","不仁","","","","","","","","","","","","","","","","",""
"7287","
    <div class=""tag-bottom""><p>
    —— 任务3：对“他人/积极”词和“自我/消极”词分类 ——<p/>
    <span style=""color:#78DCE8""><b>注意上方，之前的四类词语将混合在一起交替呈现</b></span><p/>
    <span style=""color:#FFD866""><b>请根据上方标签的提示，尽可能正确并且快速地做出按键反应</b></span><p/>
    当按键错误时屏幕中会出现<span style=""color:red""> X </span>，需要按另一个键纠正才能继续<br/><p/>
    请把双手食指分别放在键盘的“E”键和“I”键上<p/>
    按<空格键>开始
    </p></div>"," ","html-keyboard-response","58","344769","0.0-6.0-1.0-5.0","4","4","4","4","3","4","4","4","4","4","4","4","2","4","4","5","4","4","4","5","1","4","4","2","2","2","2","2","2","1","0","0","1","0","0","1","1","1","1","1","0","1","0","1","4","4","4","2","2","1","2","4","2","3","2","718982212988436480","王","322","","","","","","","","","","","","","","","","","","","","","","","","","","","","","","","","","","","","","","","","","",""
"null","","null","html-keyboard-response","59","345025","0.0-6.0-1.0-6.0-0.0","4","4","4","4","3","4","4","4","4","4","4","4","2","4","4","5","4","4","4","5","1","4","4","2","2","2","2","2","2","1","0","0","1","0","0","1","1","1","1","1","0","1","0","1","4","4","4","2","2","1","2","4","2","3","2","718982212988436480","王","322","","","","","","","","","","","","","","","","","","","","","","","","","","","","","","","","","","","","","","","","","",""
"775","<p style=""color:rgb(150, 250, 100); font-size: 35px;"">他的</p>","e","categorize-html","60","345806","0.0-6.0-1.0-6.0-1.0","4","4","4","4","3","4","4","4","4","4","4","4","2","4","4","5","4","4","4","5","1","4","4","2","2","2","2","2","2","1","0","0","1","0","0","1","1","1","1","1","0","1","0","1","4","4","4","2","2","1","2","4","2","3","2","718982212988436480","王","322","","","","","","","","","","","","","","","","","","","true","13","3","moral","775","other","他的","","","","","","","","","","","","","","","","",""
"null","","null","html-keyboard-response","61","346065","0.0-6.0-1.0-6.0-0.1","4","4","4","4","3","4","4","4","4","4","4","4","2","4","4","5","4","4","4","5","1","4","4","2","2","2","2","2","2","1","0","0","1","0","0","1","1","1","1","1","0","1","0","1","4","4","4","2","2","1","2","4","2","3","2","718982212988436480","王","322","","","","","","","","","","","","","","","","","","","","","","","","","","","","","","","","","","","","","","","","","",""
"640","<p style=""color:white; font-size: 35px;"">小人</p>","i","categorize-html","62","346710","0.0-6.0-1.0-6.0-1.1","4","4","4","4","3","4","4","4","4","4","4","4","2","4","4","5","4","4","4","5","1","4","4","2","2","2","2","2","2","1","0","0","1","0","0","1","1","1","1","1","0","1","0","1","4","4","4","2","2","1","2","4","2","3","2","718982212988436480","王","322","","","","","","","","","","","","","","","","","","","true","13","3","moral","640","negative","小人","","","","","","","","","","","","","","","","",""
"null","","null","html-keyboard-response","63","346965","0.0-6.0-1.0-6.0-0.2","4","4","4","4","3","4","4","4","4","4","4","4","2","4","4","5","4","4","4","5","1","4","4","2","2","2","2","2","2","1","0","0","1","0","0","1","1","1","1","1","0","1","0","1","4","4","4","2","2","1","2","4","2","3","2","718982212988436480","王","322","","","","","","","","","","","","","","","","","","","","","","","","","","","","","","","","","","","","","","","","","",""
"583","<p style=""color:rgb(150, 250, 100); font-size: 35px;"">本人的</p>","i","categorize-html","64","347550","0.0-6.0-1.0-6.0-1.2","4","4","4","4","3","4","4","4","4","4","4","4","2","4","4","5","4","4","4","5","1","4","4","2","2","2","2","2","2","1","0","0","1","0","0","1","1","1","1","1","0","1","0","1","4","4","4","2","2","1","2","4","2","3","2","718982212988436480","王","322","","","","","","","","","","","","","","","","","","","true","13","3","moral","583","self","本人的","","","","","","","","","","","","","","","","",""
"null","","null","html-keyboard-response","65","347813","0.0-6.0-1.0-6.0-0.3","4","4","4","4","3","4","4","4","4","4","4","4","2","4","4","5","4","4","4","5","1","4","4","2","2","2","2","2","2","1","0","0","1","0","0","1","1","1","1","1","0","1","0","1","4","4","4","2","2","1","2","4","2","3","2","718982212988436480","王","322","","","","","","","","","","","","","","","","","","","","","","","","","","","","","","","","","","","","","","","","","",""
"977","<p style=""color:white; font-size: 35px;"">正直</p>","e","categorize-html","66","348793","0.0-6.0-1.0-6.0-1.3","4","4","4","4","3","4","4","4","4","4","4","4","2","4","4","5","4","4","4","5","1","4","4","2","2","2","2","2","2","1","0","0","1","0","0","1","1","1","1","1","0","1","0","1","4","4","4","2","2","1","2","4","2","3","2","718982212988436480","王","322","","","","","","","","","","","","","","","","","","","true","13","3","moral","977","positive","正直","","","","","","","","","","","","","","","","",""
"null","","null","html-keyboard-response","67","349045","0.0-6.0-1.0-6.0-0.4","4","4","4","4","3","4","4","4","4","4","4","4","2","4","4","5","4","4","4","5","1","4","4","2","2","2","2","2","2","1","0","0","1","0","0","1","1","1","1","1","0","1","0","1","4","4","4","2","2","1","2","4","2","3","2","718982212988436480","王","322","","","","","","","","","","","","","","","","","","","","","","","","","","","","","","","","","","","","","","","","","",""
"688","<p style=""color:rgb(150, 250, 100); font-size: 35px;"">我的</p>","i","categorize-html","68","349738","0.0-6.0-1.0-6.0-1.4","4","4","4","4","3","4","4","4","4","4","4","4","2","4","4","5","4","4","4","5","1","4","4","2","2","2","2","2","2","1","0","0","1","0","0","1","1","1","1","1","0","1","0","1","4","4","4","2","2","1","2","4","2","3","2","718982212988436480","王","322","","","","","","","","","","","","","","","","","","","true","13","3","moral","688","self","我的","","","","","","","","","","","","","","","","",""
"null","","null","html-keyboard-response","69","349997","0.0-6.0-1.0-6.0-0.5","4","4","4","4","3","4","4","4","4","4","4","4","2","4","4","5","4","4","4","5","1","4","4","2","2","2","2","2","2","1","0","0","1","0","0","1","1","1","1","1","0","1","0","1","4","4","4","2","2","1","2","4","2","3","2","718982212988436480","王","322","","","","","","","","","","","","","","","","","","","","","","","","","","","","","","","","","","","","","","","","","",""
"1617","<p style=""color:white; font-size: 35px;"">不孝</p>","i","categorize-html","70","351616","0.0-6.0-1.0-6.0-1.5","4","4","4","4","3","4","4","4","4","4","4","4","2","4","4","5","4","4","4","5","1","4","4","2","2","2","2","2","2","1","0","0","1","0","0","1","1","1","1","1","0","1","0","1","4","4","4","2","2","1","2","4","2","3","2","718982212988436480","王","322","","","","","","","","","","","","","","","","","","","true","13","3","moral","1617","negative","不孝","","","","","","","","","","","","","","","","",""
"null","","null","html-keyboard-response","71","351868","0.0-6.0-1.0-6.0-0.6","4","4","4","4","3","4","4","4","4","4","4","4","2","4","4","5","4","4","4","5","1","4","4","2","2","2","2","2","2","1","0","0","1","0","0","1","1","1","1","1","0","1","0","1","4","4","4","2","2","1","2","4","2","3","2","718982212988436480","王","322","","","","","","","","","","","","","","","","","","","","","","","","","","","","","","","","","","","","","","","","","",""
"664","<p style=""color:rgb(150, 250, 100); font-size: 35px;"">他人的</p>","e","categorize-html","72","352534","0.0-6.0-1.0-6.0-1.6","4","4","4","4","3","4","4","4","4","4","4","4","2","4","4","5","4","4","4","5","1","4","4","2","2","2","2","2","2","1","0","0","1","0","0","1","1","1","1","1","0","1","0","1","4","4","4","2","2","1","2","4","2","3","2","718982212988436480","王","322","","","","","","","","","","","","","","","","","","","true","13","3","moral","664","other","他人的","","","","","","","","","","","","","","","","",""
"null","","null","html-keyboard-response","73","352793","0.0-6.0-1.0-6.0-0.7","4","4","4","4","3","4","4","4","4","4","4","4","2","4","4","5","4","4","4","5","1","4","4","2","2","2","2","2","2","1","0","0","1","0","0","1","1","1","1","1","0","1","0","1","4","4","4","2","2","1","2","4","2","3","2","718982212988436480","王","322","","","","","","","","","","","","","","","","","","","","","","","","","","","","","","","","","","","","","","","","","",""
"556","<p style=""color:white; font-size: 35px;"">诚信</p>","e","categorize-html","74","353353","0.0-6.0-1.0-6.0-1.7","4","4","4","4","3","4","4","4","4","4","4","4","2","4","4","5","4","4","4","5","1","4","4","2","2","2","2","2","2","1","0","0","1","0","0","1","1","1","1","1","0","1","0","1","4","4","4","2","2","1","2","4","2","3","2","718982212988436480","王","322","","","","","","","","","","","","","","","","","","","true","13","3","moral","556","positive","诚信","","","","","","","","","","","","","","","","",""
"null","","null","html-keyboard-response","75","353607","0.0-6.0-1.0-6.0-0.8","4","4","4","4","3","4","4","4","4","4","4","4","2","4","4","5","4","4","4","5","1","4","4","2","2","2","2","2","2","1","0","0","1","0","0","1","1","1","1","1","0","1","0","1","4","4","4","2","2","1","2","4","2","3","2","718982212988436480","王","322","","","","","","","","","","","","","","","","","","","","","","","","","","","","","","","","","","","","","","","","","",""
"804","<p style=""color:rgb(150, 250, 100); font-size: 35px;"">别人</p>","e","categorize-html","76","354416","0.0-6.0-1.0-6.0-1.8","4","4","4","4","3","4","4","4","4","4","4","4","2","4","4","5","4","4","4","5","1","4","4","2","2","2","2","2","2","1","0","0","1","0","0","1","1","1","1","1","0","1","0","1","4","4","4","2","2","1","2","4","2","3","2","718982212988436480","王","322","","","","","","","","","","","","","","","","","","","true","13","3","moral","804","other","别人","","","","","","","","","","","","","","","","",""
"null","","null","html-keyboard-response","77","354670","0.0-6.0-1.0-6.0-0.9","4","4","4","4","3","4","4","4","4","4","4","4","2","4","4","5","4","4","4","5","1","4","4","2","2","2","2","2","2","1","0","0","1","0","0","1","1","1","1","1","0","1","0","1","4","4","4","2","2","1","2","4","2","3","2","718982212988436480","王","322","","","","","","","","","","","","","","","","","","","","","","","","","","","","","","","","","","","","","","","","","",""
"519","<p style=""color:white; font-size: 35px;"">廉正</p>","e","categorize-html","78","355194","0.0-6.0-1.0-6.0-1.9","4","4","4","4","3","4","4","4","4","4","4","4","2","4","4","5","4","4","4","5","1","4","4","2","2","2","2","2","2","1","0","0","1","0","0","1","1","1","1","1","0","1","0","1","4","4","4","2","2","1","2","4","2","3","2","718982212988436480","王","322","","","","","","","","","","","","","","","","","","","true","13","3","moral","519","positive","廉正","","","","","","","","","","","","","","","","",""
"null","","null","html-keyboard-response","79","355451","0.0-6.0-1.0-6.0-0.10","4","4","4","4","3","4","4","4","4","4","4","4","2","4","4","5","4","4","4","5","1","4","4","2","2","2","2","2","2","1","0","0","1","0","0","1","1","1","1","1","0","1","0","1","4","4","4","2","2","1","2","4","2","3","2","718982212988436480","王","322","","","","","","","","","","","","","","","","","","","","","","","","","","","","","","","","","","","","","","","","","",""
"479","<p style=""color:rgb(150, 250, 100); font-size: 35px;"">自己</p>","e","categorize-html","80","356755","0.0-6.0-1.0-6.0-1.10","4","4","4","4","3","4","4","4","4","4","4","4","2","4","4","5","4","4","4","5","1","4","4","2","2","2","2","2","2","1","0","0","1","0","0","1","1","1","1","1","0","1","0","1","4","4","4","2","2","1","2","4","2","3","2","718982212988436480","王","322","","","","","","","","","","","","","","","","","","","false","13","3","moral","1264.217391304348","self","自己","","","","","","","","","","","","","","","","",""
"null","","null","html-keyboard-response","81","357009","0.0-6.0-1.0-6.0-0.11","4","4","4","4","3","4","4","4","4","4","4","4","2","4","4","5","4","4","4","5","1","4","4","2","2","2","2","2","2","1","0","0","1","0","0","1","1","1","1","1","0","1","0","1","4","4","4","2","2","1","2","4","2","3","2","718982212988436480","王","322","","","","","","","","","","","","","","","","","","","","","","","","","","","","","","","","","","","","","","","","","",""
"740","<p style=""color:white; font-size: 35px;"">不仁</p>","i","categorize-html","82","357755","0.0-6.0-1.0-6.0-1.11","4","4","4","4","3","4","4","4","4","4","4","4","2","4","4","5","4","4","4","5","1","4","4","2","2","2","2","2","2","1","0","0","1","0","0","1","1","1","1","1","0","1","0","1","4","4","4","2","2","1","2","4","2","3","2","718982212988436480","王","322","","","","","","","","","","","","","","","","","","","true","13","3","moral","740","negative","不仁","","","","","","","","","","","","","","","","",""
"null","","null","html-keyboard-response","83","358010","0.0-6.0-1.0-6.0-0.12","4","4","4","4","3","4","4","4","4","4","4","4","2","4","4","5","4","4","4","5","1","4","4","2","2","2","2","2","2","1","0","0","1","0","0","1","1","1","1","1","0","1","0","1","4","4","4","2","2","1","2","4","2","3","2","718982212988436480","王","322","","","","","","","","","","","","","","","","","","","","","","","","","","","","","","","","","","","","","","","","","",""
"728","<p style=""color:rgb(150, 250, 100); font-size: 35px;"">本人</p>","i","categorize-html","84","358743","0.0-6.0-1.0-6.0-1.12","4","4","4","4","3","4","4","4","4","4","4","4","2","4","4","5","4","4","4","5","1","4","4","2","2","2","2","2","2","1","0","0","1","0","0","1","1","1","1","1","0","1","0","1","4","4","4","2","2","1","2","4","2","3","2","718982212988436480","王","322","","","","","","","","","","","","","","","","","","","true","13","3","moral","728","self","本人","","","","","","","","","","","","","","","","",""
"null","","null","html-keyboard-response","85","358996","0.0-6.0-1.0-6.0-0.13","4","4","4","4","3","4","4","4","4","4","4","4","2","4","4","5","4","4","4","5","1","4","4","2","2","2","2","2","2","1","0","0","1","0","0","1","1","1","1","1","0","1","0","1","4","4","4","2","2","1","2","4","2","3","2","718982212988436480","王","322","","","","","","","","","","","","","","","","","","","","","","","","","","","","","","","","","","","","","","","","","",""
"565","<p style=""color:white; font-size: 35px;"">善良</p>","e","categorize-html","86","359566","0.0-6.0-1.0-6.0-1.13","4","4","4","4","3","4","4","4","4","4","4","4","2","4","4","5","4","4","4","5","1","4","4","2","2","2","2","2","2","1","0","0","1","0","0","1","1","1","1","1","0","1","0","1","4","4","4","2","2","1","2","4","2","3","2","718982212988436480","王","322","","","","","","","","","","","","","","","","","","","true","13","3","moral","565","positive","善良","","","","","","","","","","","","","","","","",""
"null","","null","html-keyboard-response","87","359826","0.0-6.0-1.0-6.0-0.14","4","4","4","4","3","4","4","4","4","4","4","4","2","4","4","5","4","4","4","5","1","4","4","2","2","2","2","2","2","1","0","0","1","0","0","1","1","1","1","1","0","1","0","1","4","4","4","2","2","1","2","4","2","3","2","718982212988436480","王","322","","","","","","","","","","","","","","","","","","","","","","","","","","","","","","","","","","","","","","","","","",""
"507","<p style=""color:rgb(150, 250, 100); font-size: 35px;"">他</p>","e","categorize-html","88","360335","0.0-6.0-1.0-6.0-1.14","4","4","4","4","3","4","4","4","4","4","4","4","2","4","4","5","4","4","4","5","1","4","4","2","2","2","2","2","2","1","0","0","1","0","0","1","1","1","1","1","0","1","0","1","4","4","4","2","2","1","2","4","2","3","2","718982212988436480","王","322","","","","","","","","","","","","","","","","","","","true","13","3","moral","507","other","他","","","","","","","","","","","","","","","","",""
"null","","null","html-keyboard-response","89","360598","0.0-6.0-1.0-6.0-0.15","4","4","4","4","3","4","4","4","4","4","4","4","2","4","4","5","4","4","4","5","1","4","4","2","2","2","2","2","2","1","0","0","1","0","0","1","1","1","1","1","0","1","0","1","4","4","4","2","2","1","2","4","2","3","2","718982212988436480","王","322","","","","","","","","","","","","","","","","","","","","","","","","","","","","","","","","","","","","","","","","","",""
"617","<p style=""color:white; font-size: 35px;"">黑心</p>","i","categorize-html","90","361220","0.0-6.0-1.0-6.0-1.15","4","4","4","4","3","4","4","4","4","4","4","4","2","4","4","5","4","4","4","5","1","4","4","2","2","2","2","2","2","1","0","0","1","0","0","1","1","1","1","1","0","1","0","1","4","4","4","2","2","1","2","4","2","3","2","718982212988436480","王","322","","","","","","","","","","","","","","","","","","","true","13","3","moral","617","negative","黑心","","","","","","","","","","","","","","","","",""
"null","","null","html-keyboard-response","91","361477","0.0-6.0-1.0-6.0-0.16","4","4","4","4","3","4","4","4","4","4","4","4","2","4","4","5","4","4","4","5","1","4","4","2","2","2","2","2","2","1","0","0","1","0","0","1","1","1","1","1","0","1","0","1","4","4","4","2","2","1","2","4","2","3","2","718982212988436480","王","322","","","","","","","","","","","","","","","","","","","","","","","","","","","","","","","","","","","","","","","","","",""
"491","<p style=""color:rgb(150, 250, 100); font-size: 35px;"">我</p>","i","categorize-html","92","361972","0.0-6.0-1.0-6.0-1.16","4","4","4","4","3","4","4","4","4","4","4","4","2","4","4","5","4","4","4","5","1","4","4","2","2","2","2","2","2","1","0","0","1","0","0","1","1","1","1","1","0","1","0","1","4","4","4","2","2","1","2","4","2","3","2","718982212988436480","王","322","","","","","","","","","","","","","","","","","","","true","13","3","moral","491","self","我","","","","","","","","","","","","","","","","",""
"null","","null","html-keyboard-response","93","362231","0.0-6.0-1.0-6.0-0.17","4","4","4","4","3","4","4","4","4","4","4","4","2","4","4","5","4","4","4","5","1","4","4","2","2","2","2","2","2","1","0","0","1","0","0","1","1","1","1","1","0","1","0","1","4","4","4","2","2","1","2","4","2","3","2","718982212988436480","王","322","","","","","","","","","","","","","","","","","","","","","","","","","","","","","","","","","","","","","","","","","",""
"563","<p style=""color:white; font-size: 35px;"">高尚</p>","e","categorize-html","94","362797","0.0-6.0-1.0-6.0-1.17","4","4","4","4","3","4","4","4","4","4","4","4","2","4","4","5","4","4","4","5","1","4","4","2","2","2","2","2","2","1","0","0","1","0","0","1","1","1","1","1","0","1","0","1","4","4","4","2","2","1","2","4","2","3","2","718982212988436480","王","322","","","","","","","","","","","","","","","","","","","true","13","3","moral","563","positive","高尚","","","","","","","","","","","","","","","","",""
"null","","null","html-keyboard-response","95","363056","0.0-6.0-1.0-6.0-0.18","4","4","4","4","3","4","4","4","4","4","4","4","2","4","4","5","4","4","4","5","1","4","4","2","2","2","2","2","2","1","0","0","1","0","0","1","1","1","1","1","0","1","0","1","4","4","4","2","2","1","2","4","2","3","2","718982212988436480","王","322","","","","","","","","","","","","","","","","","","","","","","","","","","","","","","","","","","","","","","","","","",""
"586","<p style=""color:rgb(150, 250, 100); font-size: 35px;"">别人的</p>","e","categorize-html","96","363644","0.0-6.0-1.0-6.0-1.18","4","4","4","4","3","4","4","4","4","4","4","4","2","4","4","5","4","4","4","5","1","4","4","2","2","2","2","2","2","1","0","0","1","0","0","1","1","1","1","1","0","1","0","1","4","4","4","2","2","1","2","4","2","3","2","718982212988436480","王","322","","","","","","","","","","","","","","","","","","","true","13","3","moral","586","other","别人的","","","","","","","","","","","","","","","","",""
"null","","null","html-keyboard-response","97","363903","0.0-6.0-1.0-6.0-0.19","4","4","4","4","3","4","4","4","4","4","4","4","2","4","4","5","4","4","4","5","1","4","4","2","2","2","2","2","2","1","0","0","1","0","0","1","1","1","1","1","0","1","0","1","4","4","4","2","2","1","2","4","2","3","2","718982212988436480","王","322","","","","","","","","","","","","","","","","","","","","","","","","","","","","","","","","","","","","","","","","","",""
"511","<p style=""color:white; font-size: 35px;"">卑鄙</p>","i","categorize-html","98","364416","0.0-6.0-1.0-6.0-1.19","4","4","4","4","3","4","4","4","4","4","4","4","2","4","4","5","4","4","4","5","1","4","4","2","2","2","2","2","2","1","0","0","1","0","0","1","1","1","1","1","0","1","0","1","4","4","4","2","2","1","2","4","2","3","2","718982212988436480","王","322","","","","","","","","","","","","","","","","","","","true","13","3","moral","511","negative","卑鄙","","","","","","","","","","","","","","","","",""
"null","","null","html-keyboard-response","99","364678","0.0-6.0-1.0-6.0-0.20","4","4","4","4","3","4","4","4","4","4","4","4","2","4","4","5","4","4","4","5","1","4","4","2","2","2","2","2","2","1","0","0","1","0","0","1","1","1","1","1","0","1","0","1","4","4","4","2","2","1","2","4","2","3","2","718982212988436480","王","322","","","","","","","","","","","","","","","","","","","","","","","","","","","","","","","","","","","","","","","","","",""
"629","<p style=""color:rgb(150, 250, 100); font-size: 35px;"">他人</p>","e","categorize-html","100","365313","0.0-6.0-1.0-6.0-1.20","4","4","4","4","3","4","4","4","4","4","4","4","2","4","4","5","4","4","4","5","1","4","4","2","2","2","2","2","2","1","0","0","1","0","0","1","1","1","1","1","0","1","0","1","4","4","4","2","2","1","2","4","2","3","2","718982212988436480","王","322","","","","","","","","","","","","","","","","","","","true","13","3","moral","629","other","他人","","","","","","","","","","","","","","","","",""
"null","","null","html-keyboard-response","101","365565","0.0-6.0-1.0-6.0-0.21","4","4","4","4","3","4","4","4","4","4","4","4","2","4","4","5","4","4","4","5","1","4","4","2","2","2","2","2","2","1","0","0","1","0","0","1","1","1","1","1","0","1","0","1","4","4","4","2","2","1","2","4","2","3","2","718982212988436480","王","322","","","","","","","","","","","","","","","","","","","","","","","","","","","","","","","","","","","","","","","","","",""
"569","<p style=""color:white; font-size: 35px;"">君子</p>","e","categorize-html","102","366136","0.0-6.0-1.0-6.0-1.21","4","4","4","4","3","4","4","4","4","4","4","4","2","4","4","5","4","4","4","5","1","4","4","2","2","2","2","2","2","1","0","0","1","0","0","1","1","1","1","1","0","1","0","1","4","4","4","2","2","1","2","4","2","3","2","718982212988436480","王","322","","","","","","","","","","","","","","","","","","","true","13","3","moral","569","positive","君子","","","","","","","","","","","","","","","","",""
"null","","null","html-keyboard-response","103","366391","0.0-6.0-1.0-6.0-0.22","4","4","4","4","3","4","4","4","4","4","4","4","2","4","4","5","4","4","4","5","1","4","4","2","2","2","2","2","2","1","0","0","1","0","0","1","1","1","1","1","0","1","0","1","4","4","4","2","2","1","2","4","2","3","2","718982212988436480","王","322","","","","","","","","","","","","","","","","","","","","","","","","","","","","","","","","","","","","","","","","","",""
"449","<p style=""color:rgb(150, 250, 100); font-size: 35px;"">自己的</p>","i","categorize-html","104","366844","0.0-6.0-1.0-6.0-1.22","4","4","4","4","3","4","4","4","4","4","4","4","2","4","4","5","4","4","4","5","1","4","4","2","2","2","2","2","2","1","0","0","1","0","0","1","1","1","1","1","0","1","0","1","4","4","4","2","2","1","2","4","2","3","2","718982212988436480","王","322","","","","","","","","","","","","","","","","","","","true","13","3","moral","449","self","自己的","","","","","","","","","","","","","","","","",""
"null","","null","html-keyboard-response","105","367100","0.0-6.0-1.0-6.0-0.23","4","4","4","4","3","4","4","4","4","4","4","4","2","4","4","5","4","4","4","5","1","4","4","2","2","2","2","2","2","1","0","0","1","0","0","1","1","1","1","1","0","1","0","1","4","4","4","2","2","1","2","4","2","3","2","718982212988436480","王","322","","","","","","","","","","","","","","","","","","","","","","","","","","","","","","","","","","","","","","","","","",""
"499","<p style=""color:white; font-size: 35px;"">缺德</p>","i","categorize-html","106","367603","0.0-6.0-1.0-6.0-1.23","4","4","4","4","3","4","4","4","4","4","4","4","2","4","4","5","4","4","4","5","1","4","4","2","2","2","2","2","2","1","0","0","1","0","0","1","1","1","1","1","0","1","0","1","4","4","4","2","2","1","2","4","2","3","2","718982212988436480","王","322","","","","","","","","","","","","","","","","","","","true","13","3","moral","499","negative","缺德","","","","","","","","","","","","","","","","",""
"7337","
    <div class=""tag-bottom""><p>
    —— 任务4：对“他人/积极”词和“自我/消极”词分类 ——<p/>
    <span style=""color:#78DCE8""><b>与刚才的任务完全相同，请再次对这四类词语分类</b></span><p/>
    <span style=""color:#FFD866""><b>请根据上方标签的提示，尽可能正确并且快速地做出按键反应</b></span><p/>
    当按键错误时屏幕中会出现<span style=""color:red""> X </span>，需要按另一个键纠正才能继续<br/><p/>
    请把双手食指分别放在键盘的“E”键和“I”键上<p/>
    按<空格键>开始
    </p></div>"," ","html-keyboard-response","107","374942","0.0-6.0-1.0-7.0","4","4","4","4","3","4","4","4","4","4","4","4","2","4","4","5","4","4","4","5","1","4","4","2","2","2","2","2","2","1","0","0","1","0","0","1","1","1","1","1","0","1","0","1","4","4","4","2","2","1","2","4","2","3","2","718982212988436480","王","322","","","","","","","","","","","","","","","","","","","","","","","","","","","","","","","","","","","","","","","","","",""
"null","","null","html-keyboard-response","108","375194","0.0-6.0-1.0-8.0-0.0","4","4","4","4","3","4","4","4","4","4","4","4","2","4","4","5","4","4","4","5","1","4","4","2","2","2","2","2","2","1","0","0","1","0","0","1","1","1","1","1","0","1","0","1","4","4","4","2","2","1","2","4","2","3","2","718982212988436480","王","322","","","","","","","","","","","","","","","","","","","","","","","","","","","","","","","","","","","","","","","","","",""
"824","<p style=""color:rgb(150, 250, 100); font-size: 35px;"">自己</p>","i","categorize-html","109","376019","0.0-6.0-1.0-8.0-1.0","4","4","4","4","3","4","4","4","4","4","4","4","2","4","4","5","4","4","4","5","1","4","4","2","2","2","2","2","2","1","0","0","1","0","0","1","1","1","1","1","0","1","0","1","4","4","4","2","2","1","2","4","2","3","2","718982212988436480","王","322","","","","","","","","","","","","","","","","","","","true","14","4","moral","824","self","自己","","","","","","","","","","","","","","","","",""
"null","","null","html-keyboard-response","110","376273","0.0-6.0-1.0-8.0-0.1","4","4","4","4","3","4","4","4","4","4","4","4","2","4","4","5","4","4","4","5","1","4","4","2","2","2","2","2","2","1","0","0","1","0","0","1","1","1","1","1","0","1","0","1","4","4","4","2","2","1","2","4","2","3","2","718982212988436480","王","322","","","","","","","","","","","","","","","","","","","","","","","","","","","","","","","","","","","","","","","","","",""
"580","<p style=""color:white; font-size: 35px;"">黑心</p>","i","categorize-html","111","376857","0.0-6.0-1.0-8.0-1.1","4","4","4","4","3","4","4","4","4","4","4","4","2","4","4","5","4","4","4","5","1","4","4","2","2","2","2","2","2","1","0","0","1","0","0","1","1","1","1","1","0","1","0","1","4","4","4","2","2","1","2","4","2","3","2","718982212988436480","王","322","","","","","","","","","","","","","","","","","","","true","14","4","moral","580","negative","黑心","","","","","","","","","","","","","","","","",""
"null","","null","html-keyboard-response","112","377111","0.0-6.0-1.0-8.0-0.2","4","4","4","4","3","4","4","4","4","4","4","4","2","4","4","5","4","4","4","5","1","4","4","2","2","2","2","2","2","1","0","0","1","0","0","1","1","1","1","1","0","1","0","1","4","4","4","2","2","1","2","4","2","3","2","718982212988436480","王","322","","","","","","","","","","","","","","","","","","","","","","","","","","","","","","","","","","","","","","","","","",""
"620","<p style=""color:rgb(150, 250, 100); font-size: 35px;"">别人的</p>","e","categorize-html","113","377734","0.0-6.0-1.0-8.0-1.2","4","4","4","4","3","4","4","4","4","4","4","4","2","4","4","5","4","4","4","5","1","4","4","2","2","2","2","2","2","1","0","0","1","0","0","1","1","1","1","1","0","1","0","1","4","4","4","2","2","1","2","4","2","3","2","718982212988436480","王","322","","","","","","","","","","","","","","","","","","","true","14","4","moral","620","other","别人的","","","","","","","","","","","","","","","","",""
"null","","null","html-keyboard-response","114","377995","0.0-6.0-1.0-8.0-0.3","4","4","4","4","3","4","4","4","4","4","4","4","2","4","4","5","4","4","4","5","1","4","4","2","2","2","2","2","2","1","0","0","1","0","0","1","1","1","1","1","0","1","0","1","4","4","4","2","2","1","2","4","2","3","2","718982212988436480","王","322","","","","","","","","","","","","","","","","","","","","","","","","","","","","","","","","","","","","","","","","","",""
"483","<p style=""color:white; font-size: 35px;"">廉正</p>","e","categorize-html","115","378480","0.0-6.0-1.0-8.0-1.3","4","4","4","4","3","4","4","4","4","4","4","4","2","4","4","5","4","4","4","5","1","4","4","2","2","2","2","2","2","1","0","0","1","0","0","1","1","1","1","1","0","1","0","1","4","4","4","2","2","1","2","4","2","3","2","718982212988436480","王","322","","","","","","","","","","","","","","","","","","","true","14","4","moral","483","positive","廉正","","","","","","","","","","","","","","","","",""
"null","","null","html-keyboard-response","116","378732","0.0-6.0-1.0-8.0-0.4","4","4","4","4","3","4","4","4","4","4","4","4","2","4","4","5","4","4","4","5","1","4","4","2","2","2","2","2","2","1","0","0","1","0","0","1","1","1","1","1","0","1","0","1","4","4","4","2","2","1","2","4","2","3","2","718982212988436480","王","322","","","","","","","","","","","","","","","","","","","","","","","","","","","","","","","","","","","","","","","","","",""
"569","<p style=""color:rgb(150, 250, 100); font-size: 35px;"">别人</p>","e","categorize-html","117","379305","0.0-6.0-1.0-8.0-1.4","4","4","4","4","3","4","4","4","4","4","4","4","2","4","4","5","4","4","4","5","1","4","4","2","2","2","2","2","2","1","0","0","1","0","0","1","1","1","1","1","0","1","0","1","4","4","4","2","2","1","2","4","2","3","2","718982212988436480","王","322","","","","","","","","","","","","","","","","","","","true","14","4","moral","569","other","别人","","","","","","","","","","","","","","","","",""
"null","","null","html-keyboard-response","118","379561","0.0-6.0-1.0-8.0-0.5","4","4","4","4","3","4","4","4","4","4","4","4","2","4","4","5","4","4","4","5","1","4","4","2","2","2","2","2","2","1","0","0","1","0","0","1","1","1","1","1","0","1","0","1","4","4","4","2","2","1","2","4","2","3","2","718982212988436480","王","322","","","","","","","","","","","","","","","","","","","","","","","","","","","","","","","","","","","","","","","","","",""
"470","<p style=""color:white; font-size: 35px;"">高尚</p>","e","categorize-html","119","380034","0.0-6.0-1.0-8.0-1.5","4","4","4","4","3","4","4","4","4","4","4","4","2","4","4","5","4","4","4","5","1","4","4","2","2","2","2","2","2","1","0","0","1","0","0","1","1","1","1","1","0","1","0","1","4","4","4","2","2","1","2","4","2","3","2","718982212988436480","王","322","","","","","","","","","","","","","","","","","","","true","14","4","moral","470","positive","高尚","","","","","","","","","","","","","","","","",""
"null","","null","html-keyboard-response","120","380286","0.0-6.0-1.0-8.0-0.6","4","4","4","4","3","4","4","4","4","4","4","4","2","4","4","5","4","4","4","5","1","4","4","2","2","2","2","2","2","1","0","0","1","0","0","1","1","1","1","1","0","1","0","1","4","4","4","2","2","1","2","4","2","3","2","718982212988436480","王","322","","","","","","","","","","","","","","","","","","","","","","","","","","","","","","","","","","","","","","","","","",""
"791","<p style=""color:rgb(150, 250, 100); font-size: 35px;"">本人</p>","i","categorize-html","121","381077","0.0-6.0-1.0-8.0-1.6","4","4","4","4","3","4","4","4","4","4","4","4","2","4","4","5","4","4","4","5","1","4","4","2","2","2","2","2","2","1","0","0","1","0","0","1","1","1","1","1","0","1","0","1","4","4","4","2","2","1","2","4","2","3","2","718982212988436480","王","322","","","","","","","","","","","","","","","","","","","true","14","4","moral","791","self","本人","","","","","","","","","","","","","","","","",""
"null","","null","html-keyboard-response","122","381336","0.0-6.0-1.0-8.0-0.7","4","4","4","4","3","4","4","4","4","4","4","4","2","4","4","5","4","4","4","5","1","4","4","2","2","2","2","2","2","1","0","0","1","0","0","1","1","1","1","1","0","1","0","1","4","4","4","2","2","1","2","4","2","3","2","718982212988436480","王","322","","","","","","","","","","","","","","","","","","","","","","","","","","","","","","","","","","","","","","","","","",""
"521","<p style=""color:white; font-size: 35px;"">不孝</p>","i","categorize-html","123","381859","0.0-6.0-1.0-8.0-1.7","4","4","4","4","3","4","4","4","4","4","4","4","2","4","4","5","4","4","4","5","1","4","4","2","2","2","2","2","2","1","0","0","1","0","0","1","1","1","1","1","0","1","0","1","4","4","4","2","2","1","2","4","2","3","2","718982212988436480","王","322","","","","","","","","","","","","","","","","","","","true","14","4","moral","521","negative","不孝","","","","","","","","","","","","","","","","",""
"null","","null","html-keyboard-response","124","382115","0.0-6.0-1.0-8.0-0.8","4","4","4","4","3","4","4","4","4","4","4","4","2","4","4","5","4","4","4","5","1","4","4","2","2","2","2","2","2","1","0","0","1","0","0","1","1","1","1","1","0","1","0","1","4","4","4","2","2","1","2","4","2","3","2","718982212988436480","王","322","","","","","","","","","","","","","","","","","","","","","","","","","","","","","","","","","","","","","","","","","",""
"767","<p style=""color:rgb(150, 250, 100); font-size: 35px;"">他的</p>","e","categorize-html","125","382884","0.0-6.0-1.0-8.0-1.8","4","4","4","4","3","4","4","4","4","4","4","4","2","4","4","5","4","4","4","5","1","4","4","2","2","2","2","2","2","1","0","0","1","0","0","1","1","1","1","1","0","1","0","1","4","4","4","2","2","1","2","4","2","3","2","718982212988436480","王","322","","","","","","","","","","","","","","","","","","","true","14","4","moral","767","other","他的","","","","","","","","","","","","","","","","",""
"null","","null","html-keyboard-response","126","383137","0.0-6.0-1.0-8.0-0.9","4","4","4","4","3","4","4","4","4","4","4","4","2","4","4","5","4","4","4","5","1","4","4","2","2","2","2","2","2","1","0","0","1","0","0","1","1","1","1","1","0","1","0","1","4","4","4","2","2","1","2","4","2","3","2","718982212988436480","王","322","","","","","","","","","","","","","","","","","","","","","","","","","","","","","","","","","","","","","","","","","",""
"615","<p style=""color:white; font-size: 35px;"">卑鄙</p>","i","categorize-html","127","383755","0.0-6.0-1.0-8.0-1.9","4","4","4","4","3","4","4","4","4","4","4","4","2","4","4","5","4","4","4","5","1","4","4","2","2","2","2","2","2","1","0","0","1","0","0","1","1","1","1","1","0","1","0","1","4","4","4","2","2","1","2","4","2","3","2","718982212988436480","王","322","","","","","","","","","","","","","","","","","","","true","14","4","moral","615","negative","卑鄙","","","","","","","","","","","","","","","","",""
"null","","null","html-keyboard-response","128","384006","0.0-6.0-1.0-8.0-0.10","4","4","4","4","3","4","4","4","4","4","4","4","2","4","4","5","4","4","4","5","1","4","4","2","2","2","2","2","2","1","0","0","1","0","0","1","1","1","1","1","0","1","0","1","4","4","4","2","2","1","2","4","2","3","2","718982212988436480","王","322","","","","","","","","","","","","","","","","","","","","","","","","","","","","","","","","","","","","","","","","","",""
"595","<p style=""color:rgb(150, 250, 100); font-size: 35px;"">我</p>","i","categorize-html","129","384603","0.0-6.0-1.0-8.0-1.10","4","4","4","4","3","4","4","4","4","4","4","4","2","4","4","5","4","4","4","5","1","4","4","2","2","2","2","2","2","1","0","0","1","0","0","1","1","1","1","1","0","1","0","1","4","4","4","2","2","1","2","4","2","3","2","718982212988436480","王","322","","","","","","","","","","","","","","","","","","","true","14","4","moral","595","self","我","","","","","","","","","","","","","","","","",""
"null","","null","html-keyboard-response","130","384858","0.0-6.0-1.0-8.0-0.11","4","4","4","4","3","4","4","4","4","4","4","4","2","4","4","5","4","4","4","5","1","4","4","2","2","2","2","2","2","1","0","0","1","0","0","1","1","1","1","1","0","1","0","1","4","4","4","2","2","1","2","4","2","3","2","718982212988436480","王","322","","","","","","","","","","","","","","","","","","","","","","","","","","","","","","","","","","","","","","","","","",""
"569","<p style=""color:white; font-size: 35px;"">君子</p>","e","categorize-html","131","385430","0.0-6.0-1.0-8.0-1.11","4","4","4","4","3","4","4","4","4","4","4","4","2","4","4","5","4","4","4","5","1","4","4","2","2","2","2","2","2","1","0","0","1","0","0","1","1","1","1","1","0","1","0","1","4","4","4","2","2","1","2","4","2","3","2","718982212988436480","王","322","","","","","","","","","","","","","","","","","","","true","14","4","moral","569","positive","君子","","","","","","","","","","","","","","","","",""
"null","","null","html-keyboard-response","132","385686","0.0-6.0-1.0-8.0-0.12","4","4","4","4","3","4","4","4","4","4","4","4","2","4","4","5","4","4","4","5","1","4","4","2","2","2","2","2","2","1","0","0","1","0","0","1","1","1","1","1","0","1","0","1","4","4","4","2","2","1","2","4","2","3","2","718982212988436480","王","322","","","","","","","","","","","","","","","","","","","","","","","","","","","","","","","","","","","","","","","","","",""
"796","<p style=""color:rgb(150, 250, 100); font-size: 35px;"">他人的</p>","e","categorize-html","133","386483","0.0-6.0-1.0-8.0-1.12","4","4","4","4","3","4","4","4","4","4","4","4","2","4","4","5","4","4","4","5","1","4","4","2","2","2","2","2","2","1","0","0","1","0","0","1","1","1","1","1","0","1","0","1","4","4","4","2","2","1","2","4","2","3","2","718982212988436480","王","322","","","","","","","","","","","","","","","","","","","true","14","4","moral","796","other","他人的","","","","","","","","","","","","","","","","",""
"null","","null","html-keyboard-response","134","386737","0.0-6.0-1.0-8.0-0.13","4","4","4","4","3","4","4","4","4","4","4","4","2","4","4","5","4","4","4","5","1","4","4","2","2","2","2","2","2","1","0","0","1","0","0","1","1","1","1","1","0","1","0","1","4","4","4","2","2","1","2","4","2","3","2","718982212988436480","王","322","","","","","","","","","","","","","","","","","","","","","","","","","","","","","","","","","","","","","","","","","",""
"480","<p style=""color:white; font-size: 35px;"">不仁</p>","i","categorize-html","135","387219","0.0-6.0-1.0-8.0-1.13","4","4","4","4","3","4","4","4","4","4","4","4","2","4","4","5","4","4","4","5","1","4","4","2","2","2","2","2","2","1","0","0","1","0","0","1","1","1","1","1","0","1","0","1","4","4","4","2","2","1","2","4","2","3","2","718982212988436480","王","322","","","","","","","","","","","","","","","","","","","true","14","4","moral","480","negative","不仁","","","","","","","","","","","","","","","","",""
"null","","null","html-keyboard-response","136","387473","0.0-6.0-1.0-8.0-0.14","4","4","4","4","3","4","4","4","4","4","4","4","2","4","4","5","4","4","4","5","1","4","4","2","2","2","2","2","2","1","0","0","1","0","0","1","1","1","1","1","0","1","0","1","4","4","4","2","2","1","2","4","2","3","2","718982212988436480","王","322","","","","","","","","","","","","","","","","","","","","","","","","","","","","","","","","","","","","","","","","","",""
"826","<p style=""color:rgb(150, 250, 100); font-size: 35px;"">自己</p>","i","categorize-html","137","388302","0.0-6.0-1.0-8.0-1.14","4","4","4","4","3","4","4","4","4","4","4","4","2","4","4","5","4","4","4","5","1","4","4","2","2","2","2","2","2","1","0","0","1","0","0","1","1","1","1","1","0","1","0","1","4","4","4","2","2","1","2","4","2","3","2","718982212988436480","王","322","","","","","","","","","","","","","","","","","","","true","14","4","moral","826","self","自己","","","","","","","","","","","","","","","","",""
"null","","null","html-keyboard-response","138","388555","0.0-6.0-1.0-8.0-0.15","4","4","4","4","3","4","4","4","4","4","4","4","2","4","4","5","4","4","4","5","1","4","4","2","2","2","2","2","2","1","0","0","1","0","0","1","1","1","1","1","0","1","0","1","4","4","4","2","2","1","2","4","2","3","2","718982212988436480","王","322","","","","","","","","","","","","","","","","","","","","","","","","","","","","","","","","","","","","","","","","","",""
"537","<p style=""color:white; font-size: 35px;"">诚信</p>","e","categorize-html","139","389097","0.0-6.0-1.0-8.0-1.15","4","4","4","4","3","4","4","4","4","4","4","4","2","4","4","5","4","4","4","5","1","4","4","2","2","2","2","2","2","1","0","0","1","0","0","1","1","1","1","1","0","1","0","1","4","4","4","2","2","1","2","4","2","3","2","718982212988436480","王","322","","","","","","","","","","","","","","","","","","","true","14","4","moral","537","positive","诚信","","","","","","","","","","","","","","","","",""
"null","","null","html-keyboard-response","140","389356","0.0-6.0-1.0-8.0-0.16","4","4","4","4","3","4","4","4","4","4","4","4","2","4","4","5","4","4","4","5","1","4","4","2","2","2","2","2","2","1","0","0","1","0","0","1","1","1","1","1","0","1","0","1","4","4","4","2","2","1","2","4","2","3","2","718982212988436480","王","322","","","","","","","","","","","","","","","","","","","","","","","","","","","","","","","","","","","","","","","","","",""
"673","<p style=""color:rgb(150, 250, 100); font-size: 35px;"">他</p>","e","categorize-html","141","390032","0.0-6.0-1.0-8.0-1.16","4","4","4","4","3","4","4","4","4","4","4","4","2","4","4","5","4","4","4","5","1","4","4","2","2","2","2","2","2","1","0","0","1","0","0","1","1","1","1","1","0","1","0","1","4","4","4","2","2","1","2","4","2","3","2","718982212988436480","王","322","","","","","","","","","","","","","","","","","","","true","14","4","moral","673","other","他","","","","","","","","","","","","","","","","",""
"null","","null","html-keyboard-response","142","390285","0.0-6.0-1.0-8.0-0.17","4","4","4","4","3","4","4","4","4","4","4","4","2","4","4","5","4","4","4","5","1","4","4","2","2","2","2","2","2","1","0","0","1","0","0","1","1","1","1","1","0","1","0","1","4","4","4","2","2","1","2","4","2","3","2","718982212988436480","王","322","","","","","","","","","","","","","","","","","","","","","","","","","","","","","","","","","","","","","","","","","",""
"642","<p style=""color:white; font-size: 35px;"">正直</p>","e","categorize-html","143","390932","0.0-6.0-1.0-8.0-1.17","4","4","4","4","3","4","4","4","4","4","4","4","2","4","4","5","4","4","4","5","1","4","4","2","2","2","2","2","2","1","0","0","1","0","0","1","1","1","1","1","0","1","0","1","4","4","4","2","2","1","2","4","2","3","2","718982212988436480","王","322","","","","","","","","","","","","","","","","","","","true","14","4","moral","642","positive","正直","","","","","","","","","","","","","","","","",""
"null","","null","html-keyboard-response","144","391188","0.0-6.0-1.0-8.0-0.18","4","4","4","4","3","4","4","4","4","4","4","4","2","4","4","5","4","4","4","5","1","4","4","2","2","2","2","2","2","1","0","0","1","0","0","1","1","1","1","1","0","1","0","1","4","4","4","2","2","1","2","4","2","3","2","718982212988436480","王","322","","","","","","","","","","","","","","","","","","","","","","","","","","","","","","","","","","","","","","","","","",""
"617","<p style=""color:rgb(150, 250, 100); font-size: 35px;"">本人的</p>","i","categorize-html","145","391807","0.0-6.0-1.0-8.0-1.18","4","4","4","4","3","4","4","4","4","4","4","4","2","4","4","5","4","4","4","5","1","4","4","2","2","2","2","2","2","1","0","0","1","0","0","1","1","1","1","1","0","1","0","1","4","4","4","2","2","1","2","4","2","3","2","718982212988436480","王","322","","","","","","","","","","","","","","","","","","","true","14","4","moral","617","self","本人的","","","","","","","","","","","","","","","","",""
"null","","null","html-keyboard-response","146","392061","0.0-6.0-1.0-8.0-0.19","4","4","4","4","3","4","4","4","4","4","4","4","2","4","4","5","4","4","4","5","1","4","4","2","2","2","2","2","2","1","0","0","1","0","0","1","1","1","1","1","0","1","0","1","4","4","4","2","2","1","2","4","2","3","2","718982212988436480","王","322","","","","","","","","","","","","","","","","","","","","","","","","","","","","","","","","","","","","","","","","","",""
"600","<p style=""color:white; font-size: 35px;"">小人</p>","i","categorize-html","147","392663","0.0-6.0-1.0-8.0-1.19","4","4","4","4","3","4","4","4","4","4","4","4","2","4","4","5","4","4","4","5","1","4","4","2","2","2","2","2","2","1","0","0","1","0","0","1","1","1","1","1","0","1","0","1","4","4","4","2","2","1","2","4","2","3","2","718982212988436480","王","322","","","","","","","","","","","","","","","","","","","true","14","4","moral","600","negative","小人","","","","","","","","","","","","","","","","",""
"null","","null","html-keyboard-response","148","392920","0.0-6.0-1.0-8.0-0.20","4","4","4","4","3","4","4","4","4","4","4","4","2","4","4","5","4","4","4","5","1","4","4","2","2","2","2","2","2","1","0","0","1","0","0","1","1","1","1","1","0","1","0","1","4","4","4","2","2","1","2","4","2","3","2","718982212988436480","王","322","","","","","","","","","","","","","","","","","","","","","","","","","","","","","","","","","","","","","","","","","",""
"521","<p style=""color:rgb(150, 250, 100); font-size: 35px;"">他人</p>","e","categorize-html","149","393444","0.0-6.0-1.0-8.0-1.20","4","4","4","4","3","4","4","4","4","4","4","4","2","4","4","5","4","4","4","5","1","4","4","2","2","2","2","2","2","1","0","0","1","0","0","1","1","1","1","1","0","1","0","1","4","4","4","2","2","1","2","4","2","3","2","718982212988436480","王","322","","","","","","","","","","","","","","","","","","","true","14","4","moral","521","other","他人","","","","","","","","","","","","","","","","",""
"null","","null","html-keyboard-response","150","393702","0.0-6.0-1.0-8.0-0.21","4","4","4","4","3","4","4","4","4","4","4","4","2","4","4","5","4","4","4","5","1","4","4","2","2","2","2","2","2","1","0","0","1","0","0","1","1","1","1","1","0","1","0","1","4","4","4","2","2","1","2","4","2","3","2","718982212988436480","王","322","","","","","","","","","","","","","","","","","","","","","","","","","","","","","","","","","","","","","","","","","",""
"658","<p style=""color:white; font-size: 35px;"">缺德</p>","i","categorize-html","151","394366","0.0-6.0-1.0-8.0-1.21","4","4","4","4","3","4","4","4","4","4","4","4","2","4","4","5","4","4","4","5","1","4","4","2","2","2","2","2","2","1","0","0","1","0","0","1","1","1","1","1","0","1","0","1","4","4","4","2","2","1","2","4","2","3","2","718982212988436480","王","322","","","","","","","","","","","","","","","","","","","true","14","4","moral","658","negative","缺德","","","","","","","","","","","","","","","","",""
"null","","null","html-keyboard-response","152","394618","0.0-6.0-1.0-8.0-0.22","4","4","4","4","3","4","4","4","4","4","4","4","2","4","4","5","4","4","4","5","1","4","4","2","2","2","2","2","2","1","0","0","1","0","0","1","1","1","1","1","0","1","0","1","4","4","4","2","2","1","2","4","2","3","2","718982212988436480","王","322","","","","","","","","","","","","","","","","","","","","","","","","","","","","","","","","","","","","","","","","","",""
"616","<p style=""color:rgb(150, 250, 100); font-size: 35px;"">本人</p>","i","categorize-html","153","395238","0.0-6.0-1.0-8.0-1.22","4","4","4","4","3","4","4","4","4","4","4","4","2","4","4","5","4","4","4","5","1","4","4","2","2","2","2","2","2","1","0","0","1","0","0","1","1","1","1","1","0","1","0","1","4","4","4","2","2","1","2","4","2","3","2","718982212988436480","王","322","","","","","","","","","","","","","","","","","","","true","14","4","moral","616","self","本人","","","","","","","","","","","","","","","","",""
"null","","null","html-keyboard-response","154","395495","0.0-6.0-1.0-8.0-0.23","4","4","4","4","3","4","4","4","4","4","4","4","2","4","4","5","4","4","4","5","1","4","4","2","2","2","2","2","2","1","0","0","1","0","0","1","1","1","1","1","0","1","0","1","4","4","4","2","2","1","2","4","2","3","2","718982212988436480","王","322","","","","","","","","","","","","","","","","","","","","","","","","","","","","","","","","","","","","","","","","","",""
"730","<p style=""color:white; font-size: 35px;"">善良</p>","e","categorize-html","155","396230","0.0-6.0-1.0-8.0-1.23","4","4","4","4","3","4","4","4","4","4","4","4","2","4","4","5","4","4","4","5","1","4","4","2","2","2","2","2","2","1","0","0","1","0","0","1","1","1","1","1","0","1","0","1","4","4","4","2","2","1","2","4","2","3","2","718982212988436480","王","322","","","","","","","","","","","","","","","","","","","true","14","4","moral","730","positive","善良","","","","","","","","","","","","","","","","",""
"null","","null","html-keyboard-response","156","396488","0.0-6.0-1.0-8.0-0.24","4","4","4","4","3","4","4","4","4","4","4","4","2","4","4","5","4","4","4","5","1","4","4","2","2","2","2","2","2","1","0","0","1","0","0","1","1","1","1","1","0","1","0","1","4","4","4","2","2","1","2","4","2","3","2","718982212988436480","王","322","","","","","","","","","","","","","","","","","","","","","","","","","","","","","","","","","","","","","","","","","",""
"745","<p style=""color:rgb(150, 250, 100); font-size: 35px;"">别人</p>","e","categorize-html","157","397234","0.0-6.0-1.0-8.0-1.24","4","4","4","4","3","4","4","4","4","4","4","4","2","4","4","5","4","4","4","5","1","4","4","2","2","2","2","2","2","1","0","0","1","0","0","1","1","1","1","1","0","1","0","1","4","4","4","2","2","1","2","4","2","3","2","718982212988436480","王","322","","","","","","","","","","","","","","","","","","","true","14","4","moral","745","other","别人","","","","","","","","","","","","","","","","",""
"null","","null","html-keyboard-response","158","397492","0.0-6.0-1.0-8.0-0.25","4","4","4","4","3","4","4","4","4","4","4","4","2","4","4","5","4","4","4","5","1","4","4","2","2","2","2","2","2","1","0","0","1","0","0","1","1","1","1","1","0","1","0","1","4","4","4","2","2","1","2","4","2","3","2","718982212988436480","王","322","","","","","","","","","","","","","","","","","","","","","","","","","","","","","","","","","","","","","","","","","",""
"490","<p style=""color:white; font-size: 35px;"">不仁</p>","i","categorize-html","159","397986","0.0-6.0-1.0-8.0-1.25","4","4","4","4","3","4","4","4","4","4","4","4","2","4","4","5","4","4","4","5","1","4","4","2","2","2","2","2","2","1","0","0","1","0","0","1","1","1","1","1","0","1","0","1","4","4","4","2","2","1","2","4","2","3","2","718982212988436480","王","322","","","","","","","","","","","","","","","","","","","true","14","4","moral","490","negative","不仁","","","","","","","","","","","","","","","","",""
"null","","null","html-keyboard-response","160","398238","0.0-6.0-1.0-8.0-0.26","4","4","4","4","3","4","4","4","4","4","4","4","2","4","4","5","4","4","4","5","1","4","4","2","2","2","2","2","2","1","0","0","1","0","0","1","1","1","1","1","0","1","0","1","4","4","4","2","2","1","2","4","2","3","2","718982212988436480","王","322","","","","","","","","","","","","","","","","","","","","","","","","","","","","","","","","","","","","","","","","","",""
"545","<p style=""color:rgb(150, 250, 100); font-size: 35px;"">自己的</p>","i","categorize-html","161","398790","0.0-6.0-1.0-8.0-1.26","4","4","4","4","3","4","4","4","4","4","4","4","2","4","4","5","4","4","4","5","1","4","4","2","2","2","2","2","2","1","0","0","1","0","0","1","1","1","1","1","0","1","0","1","4","4","4","2","2","1","2","4","2","3","2","718982212988436480","王","322","","","","","","","","","","","","","","","","","","","true","14","4","moral","545","self","自己的","","","","","","","","","","","","","","","","",""
"null","","null","html-keyboard-response","162","399043","0.0-6.0-1.0-8.0-0.27","4","4","4","4","3","4","4","4","4","4","4","4","2","4","4","5","4","4","4","5","1","4","4","2","2","2","2","2","2","1","0","0","1","0","0","1","1","1","1","1","0","1","0","1","4","4","4","2","2","1","2","4","2","3","2","718982212988436480","王","322","","","","","","","","","","","","","","","","","","","","","","","","","","","","","","","","","","","","","","","","","",""
"643","<p style=""color:white; font-size: 35px;"">正直</p>","e","categorize-html","163","399692","0.0-6.0-1.0-8.0-1.27","4","4","4","4","3","4","4","4","4","4","4","4","2","4","4","5","4","4","4","5","1","4","4","2","2","2","2","2","2","1","0","0","1","0","0","1","1","1","1","1","0","1","0","1","4","4","4","2","2","1","2","4","2","3","2","718982212988436480","王","322","","","","","","","","","","","","","","","","","","","true","14","4","moral","643","positive","正直","","","","","","","","","","","","","","","","",""
"null","","null","html-keyboard-response","164","399944","0.0-6.0-1.0-8.0-0.28","4","4","4","4","3","4","4","4","4","4","4","4","2","4","4","5","4","4","4","5","1","4","4","2","2","2","2","2","2","1","0","0","1","0","0","1","1","1","1","1","0","1","0","1","4","4","4","2","2","1","2","4","2","3","2","718982212988436480","王","322","","","","","","","","","","","","","","","","","","","","","","","","","","","","","","","","","","","","","","","","","",""
"761","<p style=""color:rgb(150, 250, 100); font-size: 35px;"">我的</p>","i","categorize-html","165","400707","0.0-6.0-1.0-8.0-1.28","4","4","4","4","3","4","4","4","4","4","4","4","2","4","4","5","4","4","4","5","1","4","4","2","2","2","2","2","2","1","0","0","1","0","0","1","1","1","1","1","0","1","0","1","4","4","4","2","2","1","2","4","2","3","2","718982212988436480","王","322","","","","","","","","","","","","","","","","","","","true","14","4","moral","761","self","我的","","","","","","","","","","","","","","","","",""
"null","","null","html-keyboard-response","166","400958","0.0-6.0-1.0-8.0-0.29","4","4","4","4","3","4","4","4","4","4","4","4","2","4","4","5","4","4","4","5","1","4","4","2","2","2","2","2","2","1","0","0","1","0","0","1","1","1","1","1","0","1","0","1","4","4","4","2","2","1","2","4","2","3","2","718982212988436480","王","322","","","","","","","","","","","","","","","","","","","","","","","","","","","","","","","","","","","","","","","","","",""
"523","<p style=""color:white; font-size: 35px;"">不孝</p>","i","categorize-html","167","401485","0.0-6.0-1.0-8.0-1.29","4","4","4","4","3","4","4","4","4","4","4","4","2","4","4","5","4","4","4","5","1","4","4","2","2","2","2","2","2","1","0","0","1","0","0","1","1","1","1","1","0","1","0","1","4","4","4","2","2","1","2","4","2","3","2","718982212988436480","王","322","","","","","","","","","","","","","","","","","","","true","14","4","moral","523","negative","不孝","","","","","","","","","","","","","","","","",""
"null","","null","html-keyboard-response","168","401742","0.0-6.0-1.0-8.0-0.30","4","4","4","4","3","4","4","4","4","4","4","4","2","4","4","5","4","4","4","5","1","4","4","2","2","2","2","2","2","1","0","0","1","0","0","1","1","1","1","1","0","1","0","1","4","4","4","2","2","1","2","4","2","3","2","718982212988436480","王","322","","","","","","","","","","","","","","","","","","","","","","","","","","","","","","","","","","","","","","","","","",""
"487","<p style=""color:rgb(150, 250, 100); font-size: 35px;"">他</p>","e","categorize-html","169","402233","0.0-6.0-1.0-8.0-1.30","4","4","4","4","3","4","4","4","4","4","4","4","2","4","4","5","4","4","4","5","1","4","4","2","2","2","2","2","2","1","0","0","1","0","0","1","1","1","1","1","0","1","0","1","4","4","4","2","2","1","2","4","2","3","2","718982212988436480","王","322","","","","","","","","","","","","","","","","","","","true","14","4","moral","487","other","他","","","","","","","","","","","","","","","","",""
"null","","null","html-keyboard-response","170","402490","0.0-6.0-1.0-8.0-0.31","4","4","4","4","3","4","4","4","4","4","4","4","2","4","4","5","4","4","4","5","1","4","4","2","2","2","2","2","2","1","0","0","1","0","0","1","1","1","1","1","0","1","0","1","4","4","4","2","2","1","2","4","2","3","2","718982212988436480","王","322","","","","","","","","","","","","","","","","","","","","","","","","","","","","","","","","","","","","","","","","","",""
"811","<p style=""color:white; font-size: 35px;"">君子</p>","e","categorize-html","171","403307","0.0-6.0-1.0-8.0-1.31","4","4","4","4","3","4","4","4","4","4","4","4","2","4","4","5","4","4","4","5","1","4","4","2","2","2","2","2","2","1","0","0","1","0","0","1","1","1","1","1","0","1","0","1","4","4","4","2","2","1","2","4","2","3","2","718982212988436480","王","322","","","","","","","","","","","","","","","","","","","true","14","4","moral","811","positive","君子","","","","","","","","","","","","","","","","",""
"null","","null","html-keyboard-response","172","403558","0.0-6.0-1.0-8.0-0.32","4","4","4","4","3","4","4","4","4","4","4","4","2","4","4","5","4","4","4","5","1","4","4","2","2","2","2","2","2","1","0","0","1","0","0","1","1","1","1","1","0","1","0","1","4","4","4","2","2","1","2","4","2","3","2","718982212988436480","王","322","","","","","","","","","","","","","","","","","","","","","","","","","","","","","","","","","","","","","","","","","",""
"710","<p style=""color:rgb(150, 250, 100); font-size: 35px;"">我的</p>","i","categorize-html","173","404273","0.0-6.0-1.0-8.0-1.32","4","4","4","4","3","4","4","4","4","4","4","4","2","4","4","5","4","4","4","5","1","4","4","2","2","2","2","2","2","1","0","0","1","0","0","1","1","1","1","1","0","1","0","1","4","4","4","2","2","1","2","4","2","3","2","718982212988436480","王","322","","","","","","","","","","","","","","","","","","","true","14","4","moral","710","self","我的","","","","","","","","","","","","","","","","",""
"null","","null","html-keyboard-response","174","404525","0.0-6.0-1.0-8.0-0.33","4","4","4","4","3","4","4","4","4","4","4","4","2","4","4","5","4","4","4","5","1","4","4","2","2","2","2","2","2","1","0","0","1","0","0","1","1","1","1","1","0","1","0","1","4","4","4","2","2","1","2","4","2","3","2","718982212988436480","王","322","","","","","","","","","","","","","","","","","","","","","","","","","","","","","","","","","","","","","","","","","",""
"476","<p style=""color:white; font-size: 35px;"">卑鄙</p>","i","categorize-html","175","405003","0.0-6.0-1.0-8.0-1.33","4","4","4","4","3","4","4","4","4","4","4","4","2","4","4","5","4","4","4","5","1","4","4","2","2","2","2","2","2","1","0","0","1","0","0","1","1","1","1","1","0","1","0","1","4","4","4","2","2","1","2","4","2","3","2","718982212988436480","王","322","","","","","","","","","","","","","","","","","","","true","14","4","moral","476","negative","卑鄙","","","","","","","","","","","","","","","","",""
"null","","null","html-keyboard-response","176","405261","0.0-6.0-1.0-8.0-0.34","4","4","4","4","3","4","4","4","4","4","4","4","2","4","4","5","4","4","4","5","1","4","4","2","2","2","2","2","2","1","0","0","1","0","0","1","1","1","1","1","0","1","0","1","4","4","4","2","2","1","2","4","2","3","2","718982212988436480","王","322","","","","","","","","","","","","","","","","","","","","","","","","","","","","","","","","","","","","","","","","","",""
"714","<p style=""color:rgb(150, 250, 100); font-size: 35px;"">他人的</p>","e","categorize-html","177","405980","0.0-6.0-1.0-8.0-1.34","4","4","4","4","3","4","4","4","4","4","4","4","2","4","4","5","4","4","4","5","1","4","4","2","2","2","2","2","2","1","0","0","1","0","0","1","1","1","1","1","0","1","0","1","4","4","4","2","2","1","2","4","2","3","2","718982212988436480","王","322","","","","","","","","","","","","","","","","","","","true","14","4","moral","714","other","他人的","","","","","","","","","","","","","","","","",""
"null","","null","html-keyboard-response","178","406242","0.0-6.0-1.0-8.0-0.35","4","4","4","4","3","4","4","4","4","4","4","4","2","4","4","5","4","4","4","5","1","4","4","2","2","2","2","2","2","1","0","0","1","0","0","1","1","1","1","1","0","1","0","1","4","4","4","2","2","1","2","4","2","3","2","718982212988436480","王","322","","","","","","","","","","","","","","","","","","","","","","","","","","","","","","","","","","","","","","","","","",""
"499","<p style=""color:white; font-size: 35px;"">廉正</p>","e","categorize-html","179","406743","0.0-6.0-1.0-8.0-1.35","4","4","4","4","3","4","4","4","4","4","4","4","2","4","4","5","4","4","4","5","1","4","4","2","2","2","2","2","2","1","0","0","1","0","0","1","1","1","1","1","0","1","0","1","4","4","4","2","2","1","2","4","2","3","2","718982212988436480","王","322","","","","","","","","","","","","","","","","","","","true","14","4","moral","499","positive","廉正","","","","","","","","","","","","","","","","",""
"null","","null","html-keyboard-response","180","406998","0.0-6.0-1.0-8.0-0.36","4","4","4","4","3","4","4","4","4","4","4","4","2","4","4","5","4","4","4","5","1","4","4","2","2","2","2","2","2","1","0","0","1","0","0","1","1","1","1","1","0","1","0","1","4","4","4","2","2","1","2","4","2","3","2","718982212988436480","王","322","","","","","","","","","","","","","","","","","","","","","","","","","","","","","","","","","","","","","","","","","",""
"529","<p style=""color:rgb(150, 250, 100); font-size: 35px;"">自己的</p>","i","categorize-html","181","407530","0.0-6.0-1.0-8.0-1.36","4","4","4","4","3","4","4","4","4","4","4","4","2","4","4","5","4","4","4","5","1","4","4","2","2","2","2","2","2","1","0","0","1","0","0","1","1","1","1","1","0","1","0","1","4","4","4","2","2","1","2","4","2","3","2","718982212988436480","王","322","","","","","","","","","","","","","","","","","","","true","14","4","moral","529","self","自己的","","","","","","","","","","","","","","","","",""
"null","","null","html-keyboard-response","182","407781","0.0-6.0-1.0-8.0-0.37","4","4","4","4","3","4","4","4","4","4","4","4","2","4","4","5","4","4","4","5","1","4","4","2","2","2","2","2","2","1","0","0","1","0","0","1","1","1","1","1","0","1","0","1","4","4","4","2","2","1","2","4","2","3","2","718982212988436480","王","322","","","","","","","","","","","","","","","","","","","","","","","","","","","","","","","","","","","","","","","","","",""
"604","<p style=""color:white; font-size: 35px;"">高尚</p>","e","categorize-html","183","408388","0.0-6.0-1.0-8.0-1.37","4","4","4","4","3","4","4","4","4","4","4","4","2","4","4","5","4","4","4","5","1","4","4","2","2","2","2","2","2","1","0","0","1","0","0","1","1","1","1","1","0","1","0","1","4","4","4","2","2","1","2","4","2","3","2","718982212988436480","王","322","","","","","","","","","","","","","","","","","","","true","14","4","moral","604","positive","高尚","","","","","","","","","","","","","","","","",""
"null","","null","html-keyboard-response","184","408640","0.0-6.0-1.0-8.0-0.38","4","4","4","4","3","4","4","4","4","4","4","4","2","4","4","5","4","4","4","5","1","4","4","2","2","2","2","2","2","1","0","0","1","0","0","1","1","1","1","1","0","1","0","1","4","4","4","2","2","1","2","4","2","3","2","718982212988436480","王","322","","","","","","","","","","","","","","","","","","","","","","","","","","","","","","","","","","","","","","","","","",""
"710","<p style=""color:rgb(150, 250, 100); font-size: 35px;"">他人</p>","i","categorize-html","185","410218","0.0-6.0-1.0-8.0-1.38","4","4","4","4","3","4","4","4","4","4","4","4","2","4","4","5","4","4","4","5","1","4","4","2","2","2","2","2","2","1","0","0","1","0","0","1","1","1","1","1","0","1","0","1","4","4","4","2","2","1","2","4","2","3","2","718982212988436480","王","322","","","","","","","","","","","","","","","","","","","false","14","4","moral","1226.595744680851","other","他人","","","","","","","","","","","","","","","","",""
"null","","null","html-keyboard-response","186","410475","0.0-6.0-1.0-8.0-0.39","4","4","4","4","3","4","4","4","4","4","4","4","2","4","4","5","4","4","4","5","1","4","4","2","2","2","2","2","2","1","0","0","1","0","0","1","1","1","1","1","0","1","0","1","4","4","4","2","2","1","2","4","2","3","2","718982212988436480","王","322","","","","","","","","","","","","","","","","","","","","","","","","","","","","","","","","","","","","","","","","","",""
"1110","<p style=""color:white; font-size: 35px;"">黑心</p>","i","categorize-html","187","411589","0.0-6.0-1.0-8.0-1.39","4","4","4","4","3","4","4","4","4","4","4","4","2","4","4","5","4","4","4","5","1","4","4","2","2","2","2","2","2","1","0","0","1","0","0","1","1","1","1","1","0","1","0","1","4","4","4","2","2","1","2","4","2","3","2","718982212988436480","王","322","","","","","","","","","","","","","","","","","","","true","14","4","moral","1110","negative","黑心","","","","","","","","","","","","","","","","",""
"null","","null","html-keyboard-response","188","411841","0.0-6.0-1.0-8.0-0.40","4","4","4","4","3","4","4","4","4","4","4","4","2","4","4","5","4","4","4","5","1","4","4","2","2","2","2","2","2","1","0","0","1","0","0","1","1","1","1","1","0","1","0","1","4","4","4","2","2","1","2","4","2","3","2","718982212988436480","王","322","","","","","","","","","","","","","","","","","","","","","","","","","","","","","","","","","","","","","","","","","",""
"907","<p style=""color:rgb(150, 250, 100); font-size: 35px;"">别人的</p>","e","categorize-html","189","412751","0.0-6.0-1.0-8.0-1.40","4","4","4","4","3","4","4","4","4","4","4","4","2","4","4","5","4","4","4","5","1","4","4","2","2","2","2","2","2","1","0","0","1","0","0","1","1","1","1","1","0","1","0","1","4","4","4","2","2","1","2","4","2","3","2","718982212988436480","王","322","","","","","","","","","","","","","","","","","","","true","14","4","moral","907","other","别人的","","","","","","","","","","","","","","","","",""
"null","","null","html-keyboard-response","190","413007","0.0-6.0-1.0-8.0-0.41","4","4","4","4","3","4","4","4","4","4","4","4","2","4","4","5","4","4","4","5","1","4","4","2","2","2","2","2","2","1","0","0","1","0","0","1","1","1","1","1","0","1","0","1","4","4","4","2","2","1","2","4","2","3","2","718982212988436480","王","322","","","","","","","","","","","","","","","","","","","","","","","","","","","","","","","","","","","","","","","","","",""
"539","<p style=""color:white; font-size: 35px;"">诚信</p>","e","categorize-html","191","413549","0.0-6.0-1.0-8.0-1.41","4","4","4","4","3","4","4","4","4","4","4","4","2","4","4","5","4","4","4","5","1","4","4","2","2","2","2","2","2","1","0","0","1","0","0","1","1","1","1","1","0","1","0","1","4","4","4","2","2","1","2","4","2","3","2","718982212988436480","王","322","","","","","","","","","","","","","","","","","","","true","14","4","moral","539","positive","诚信","","","","","","","","","","","","","","","","",""
"null","","null","html-keyboard-response","192","413806","0.0-6.0-1.0-8.0-0.42","4","4","4","4","3","4","4","4","4","4","4","4","2","4","4","5","4","4","4","5","1","4","4","2","2","2","2","2","2","1","0","0","1","0","0","1","1","1","1","1","0","1","0","1","4","4","4","2","2","1","2","4","2","3","2","718982212988436480","王","322","","","","","","","","","","","","","","","","","","","","","","","","","","","","","","","","","","","","","","","","","",""
"610","<p style=""color:rgb(150, 250, 100); font-size: 35px;"">本人的</p>","i","categorize-html","193","414422","0.0-6.0-1.0-8.0-1.42","4","4","4","4","3","4","4","4","4","4","4","4","2","4","4","5","4","4","4","5","1","4","4","2","2","2","2","2","2","1","0","0","1","0","0","1","1","1","1","1","0","1","0","1","4","4","4","2","2","1","2","4","2","3","2","718982212988436480","王","322","","","","","","","","","","","","","","","","","","","true","14","4","moral","610","self","本人的","","","","","","","","","","","","","","","","",""
