"rt","stimulus","response","trial_type","trial_index","time_elapsed","internal_node_id","ses_1","ses_2","ses_3","ses_4","ses_5","ses_6","ses_7","ses_8","ses_9","ses_10","coreself_1","coreself_2","coreself_3","coreself_4","coreself_5","coreself_6","coreself_7","coreself_8","coreself_9","coreself_10","SGPS_1","SGPS_2","SGPS_3","SGPS_4","SGPS_5","SGPS_6","SGPS_7","SGPS_8","SGPS_9","NPI1","NPI2","NPI3","NPI4","NPI5","NPI6","NPI7","NPI8","NPI9","NPI10","NPI11","NPI12","NPI13","NPI14","NPI15","hsns_1","hsns_2","hsns_3","hsns_4","hsns_5","trap1","hsns_6","hsns_7","hsns_8","hsns_9","hsns_10","subj_idx","friend_name","ParticipantID","value","success","user_agent","responses","item_order","radio_event_ids","radio_event_times","key_event_times","mouse_event_times","straightlining","zigzagging","honeypot","timeout","failed_images","failed_audio","failed_video","version_attrib","version_target","correct","IAT","screen_id","task_id","RT","condition","word","varname","summary","version_attrib2","version_target2","time_stamp","view_history","response_type","key_press","avg_frame_time","center_x","center_y","correct_response","identity","Image","question_order","correct_answer","trap1_item"
"16923","
   <p><div style = ""color: white;font-size:25px;"">您好，欢迎参加本次实验。</div> </p>
   <p><div style = ""color: white;font-size:25px;"">为充分保障您的权利，请确保您已经知晓并同意《参与实验同意书》以及《数据公开知情同意书》。</div></p>
   <p><div style = ""color: white;font-size:25px;"">如果您未见过上述内容，请咨询实验员。</div></p>
   <p><div style = ""color: white;font-size:25px;"">如果您选择继续实验，则表示您已经清楚两份知情同意书的内容并同意。</div></p>
   <p><div style = ""color: pink;font-size:30px;"">请确保您记得day0的实验编号，您将在本次实验输入该编号，若您忘记，请咨询实验员后作答。</div></p>
   <p><div style = ""color: lightblue;font-size:25px;"">请您尽可能认真地作答，我们将依据您在各问卷和按键任务中的作答质量发放报酬。</div></p>
   <p> <div style = ""color: green;font-size:25px;""><按空格键至下页></div> </p>
   "," ","html-keyboard-response","0","16924","0.0-0.0","4","3","4","3","3","3","4","4","4","3","4","4","3","4","5","5","4","4","4","5","2","1","2","2","1","2","1","2","1","1","0","1","1","0","1","0","1","1","1","1","0","0","0","1","4","1","4","2","1","2","1","4","3","2","3","735455183198490626","张","507","","","","","","","","","","","","","","","","","","","","","","","","","","","","","","","","","","","","","","","","","",""
"","","","call-function","1","16925","0.0-1.0-0.0","4","3","4","3","3","3","4","4","4","3","4","4","3","4","5","5","4","4","4","5","2","1","2","2","1","2","1","2","1","1","0","1","1","0","1","0","1","1","1","1","0","0","0","1","4","1","4","2","1","2","1","4","3","2","3","735455183198490626","张","507","","","","","","","","","","","","","","","","","","","","","","","","","","","","","","","","","","","","","","","","","",""
"28599","","{""friend_name"":""张"",""ParticipantID"":""507""}","survey-html-form","2","45525","0.0-1.0-1.0","4","3","4","3","3","3","4","4","4","3","4","4","3","4","5","5","4","4","4","5","2","1","2","2","1","2","1","2","1","1","0","1","1","0","1","0","1","1","1","1","0","0","0","1","4","1","4","2","1","2","1","4","3","2","3","735455183198490626","张","507","","","","","","","","","","","","","","","","","","","","","","","","","","","","","","","","","","","","","","","","","",""
"","","","fullscreen","3","60762","0.0-2.0","4","3","4","3","3","3","4","4","4","3","4","4","3","4","5","5","4","4","4","5","2","1","2","2","1","2","1","2","1","1","0","1","1","0","1","0","1","1","1","1","0","0","0","1","4","1","4","2","1","2","1","4","3","2","3","735455183198490626","张","507","","true","{}","","","","","","","","","","","","","","","","","","","","","","","","","","","","","","","","","","","","","","",""
"37683","","{""Q01"":""4"",""Q02"":""3"",""Q03"":""4"",""Q04"":""3"",""Q05"":""3"",""Q06"":""3"",""Q07"":""4"",""Q08"":""4"",""Q09"":""4"",""Q10"":""3""}","survey-template","4","98446","0.0-3.0","4","3","4","3","3","3","4","4","4","3","4","4","3","4","5","5","4","4","4","5","2","1","2","2","1","2","1","2","1","1","0","1","1","0","1","0","1","1","1","1","0","0","0","1","4","1","4","2","1","2","1","4","3","2","3","735455183198490626","张","507","","","","{""Q01"":""4"",""Q02"":""3"",""Q03"":""4"",""Q04"":""3"",""Q05"":""3"",""Q06"":""3"",""Q07"":""4"",""Q08"":""4"",""Q09"":""4"",""Q10"":""3""}","[0,1,2,3,4,5,6,7,8,9]","[""Q01"",""Q02"",""Q01"",""Q03"",""Q04"",""Q05"",""Q06"",""Q07"",""Q08"",""Q09"",""Q10""]","[4410.5,6888.299999952316,8076.699999928474,11984,14075.199999928474,16901,21885.699999928474,24432.899999976158,29299.5,31822.099999904633,36687.39999997616]","[]","[3756.899999976158,4410.5,6460.699999928474,6888.299999952316,7689.799999952316,8076.699999928474,11984,14075.199999928474,16901,21885.699999928474,24432.899999976158,29299.5,31822.099999904633,36104.5,36687.39999997616,37682]","0.3","0.6666666666666666","0","","","","","","","","","","","","","","","","","","","","","","","","","","","","","",""
"39612.10000002384","","{""Q01"":""4"",""Q02"":""4"",""Q03"":""3"",""Q04"":""4"",""Q05"":""5"",""Q06"":""5"",""Q07"":""4"",""Q08"":""4"",""Q09"":""4"",""Q10"":""5""}","survey-template","5","138063","0.0-4.0","4","3","4","3","3","3","4","4","4","3","4","4","3","4","5","5","4","4","4","5","2","1","2","2","1","2","1","2","1","1","0","1","1","0","1","0","1","1","1","1","0","0","0","1","4","1","4","2","1","2","1","4","3","2","3","735455183198490626","张","507","","","","{""Q01"":""4"",""Q02"":""4"",""Q03"":""3"",""Q04"":""4"",""Q05"":""5"",""Q06"":""5"",""Q07"":""4"",""Q08"":""4"",""Q09"":""4"",""Q10"":""5""}","[0,1,2,3,4,5,6,7,8,9]","[""Q01"",""Q02"",""Q03"",""Q03"",""Q03"",""Q04"",""Q05"",""Q06"",""Q07"",""Q08"",""Q09"",""Q09"",""Q10""]","[10318.899999976158,12294.100000023842,16019.100000023842,16581.100000023842,17162,19577.899999976158,22263.5,24992.399999976158,28304,30834,34871.200000047684,35917.800000071526,38974.5]","[]","[10318.899999976158,12294.100000023842,16019.100000023842,16581.100000023842,17162,19111.100000023842,19577.899999976158,22263.5,24992.399999976158,28304,30834,34871.200000047684,35512.800000071526,35917.800000071526,38974.5,39611.300000071526]","0.3","0.3333333333333333","0","","","","","","","","","","","","","","","","","","","","","","","","","","","","","",""
"","","","preload","6","138623","0.0-5.0","4","3","4","3","3","3","4","4","4","3","4","4","3","4","5","5","4","4","4","5","2","1","2","2","1","2","1","2","1","1","0","1","1","0","1","0","1","1","1","1","0","0","0","1","4","1","4","2","1","2","1","4","3","2","3","735455183198490626","张","507","","true","","","","","","","","","","","false","[]","[]","[]","","","","","","","","","","","","","","","","","","","","","","","","","",""
"16266","
    <h3>词语分类任务</h3>
    <p>在接下来的任务中，你需要对一系列词语进行分类。</p>
    <p>请先熟悉这些词语，这有利于你完成接下来的任务。</p>
    <table align=""center"" border=1 cellpadding=3 cellspacing=0>
    <tr> <th>类别</th> <th>词语</th> </tr>
    <tr> <td>&emsp;积极&emsp;</td> <td>&emsp;能干、全能、全才、高效、精干、天才&emsp;</td> </tr>
    <tr> <td>&emsp;消极&emsp;</td> <td>&emsp;无能、低能、废物、拙笨、愚钝、蠢笨&emsp;</td> </tr>
    <tr> <td>&emsp;自我&emsp;</td> <td>&emsp;我、我的、自己、自己的、本人、本人的&emsp;</td> </tr>
    <tr> <td>&emsp;他人&emsp;</td> <td>&emsp;他、他的、别人、别人的、他人、他人的&emsp;</td> </tr>
    </table><br/>","0","html-button-response","7","154890","0.0-6.0-0.0-0.0","4","3","4","3","3","3","4","4","4","3","4","4","3","4","5","5","4","4","4","5","2","1","2","2","1","2","1","2","1","1","0","1","1","0","1","0","1","1","1","1","0","0","0","1","4","1","4","2","1","2","1","4","3","2","3","735455183198490626","张","507","","","","","","","","","","","","","","","","","2","1","","","","","","","","","","","","","","","","","","","","","","","",""
"24471","
    <div class=""tag-bottom"">
    <p> —— 任务1：对“自我”词和“他人”词分类 ——<p/>
    不同词语会出现在屏幕中央，类别标签将始终显示在屏幕上方<p/>   
    <span style=""color:#FFD866""><b>请根据上方标签的提示，尽可能正确并且快速地做出按键反应</b></span><p/>
    当按键错误时屏幕中会出现<span style=""color:red""> X </span>，需要按另一个键纠正才能继续<br/><p/>
    请把双手食指分别放在键盘的“E”键和“I”键上<p/>
    按<空格键>开始
    </p></div>"," ","html-keyboard-response","8","179363","0.0-6.0-0.0-1.0","4","3","4","3","3","3","4","4","4","3","4","4","3","4","5","5","4","4","4","5","2","1","2","2","1","2","1","2","1","1","0","1","1","0","1","0","1","1","1","1","0","0","0","1","4","1","4","2","1","2","1","4","3","2","3","735455183198490626","张","507","","","","","","","","","","","","","","","","","","","","","","","","","","","","","","","","","","","","","","","","","",""
"null","","null","html-keyboard-response","9","179614","0.0-6.0-0.0-2.0-0.0","4","3","4","3","3","3","4","4","4","3","4","4","3","4","5","5","4","4","4","5","2","1","2","2","1","2","1","2","1","1","0","1","1","0","1","0","1","1","1","1","0","0","0","1","4","1","4","2","1","2","1","4","3","2","3","735455183198490626","张","507","","","","","","","","","","","","","","","","","","","","","","","","","","","","","","","","","","","","","","","","","",""
"1098","<p style=""color:rgb(150, 250, 100); font-size: 35px;"">他</p>","i","categorize-html","10","180714","0.0-6.0-0.0-2.0-1.0","4","3","4","3","3","3","4","4","4","3","4","4","3","4","5","5","4","4","4","5","2","1","2","2","1","2","1","2","1","1","0","1","1","0","1","0","1","1","1","1","0","0","0","1","4","1","4","2","1","2","1","4","3","2","3","735455183198490626","张","507","","","","","","","","","","","","","","","","","","","true","1","1","ability","1098","other","他","","","","","","","","","","","","","","","","",""
"null","","null","html-keyboard-response","11","180964","0.0-6.0-0.0-2.0-0.1","4","3","4","3","3","3","4","4","4","3","4","4","3","4","5","5","4","4","4","5","2","1","2","2","1","2","1","2","1","1","0","1","1","0","1","0","1","1","1","1","0","0","0","1","4","1","4","2","1","2","1","4","3","2","3","735455183198490626","张","507","","","","","","","","","","","","","","","","","","","","","","","","","","","","","","","","","","","","","","","","","",""
"1339","<p style=""color:rgb(150, 250, 100); font-size: 35px;"">本人的</p>","e","categorize-html","12","182305","0.0-6.0-0.0-2.0-1.1","4","3","4","3","3","3","4","4","4","3","4","4","3","4","5","5","4","4","4","5","2","1","2","2","1","2","1","2","1","1","0","1","1","0","1","0","1","1","1","1","0","0","0","1","4","1","4","2","1","2","1","4","3","2","3","735455183198490626","张","507","","","","","","","","","","","","","","","","","","","true","1","1","ability","1339","self","本人的","","","","","","","","","","","","","","","","",""
"null","","null","html-keyboard-response","13","182556","0.0-6.0-0.0-2.0-0.2","4","3","4","3","3","3","4","4","4","3","4","4","3","4","5","5","4","4","4","5","2","1","2","2","1","2","1","2","1","1","0","1","1","0","1","0","1","1","1","1","0","0","0","1","4","1","4","2","1","2","1","4","3","2","3","735455183198490626","张","507","","","","","","","","","","","","","","","","","","","","","","","","","","","","","","","","","","","","","","","","","",""
"1205","<p style=""color:rgb(150, 250, 100); font-size: 35px;"">别人的</p>","i","categorize-html","14","183762","0.0-6.0-0.0-2.0-1.2","4","3","4","3","3","3","4","4","4","3","4","4","3","4","5","5","4","4","4","5","2","1","2","2","1","2","1","2","1","1","0","1","1","0","1","0","1","1","1","1","0","0","0","1","4","1","4","2","1","2","1","4","3","2","3","735455183198490626","张","507","","","","","","","","","","","","","","","","","","","true","1","1","ability","1205","other","别人的","","","","","","","","","","","","","","","","",""
"null","","null","html-keyboard-response","15","184013","0.0-6.0-0.0-2.0-0.3","4","3","4","3","3","3","4","4","4","3","4","4","3","4","5","5","4","4","4","5","2","1","2","2","1","2","1","2","1","1","0","1","1","0","1","0","1","1","1","1","0","0","0","1","4","1","4","2","1","2","1","4","3","2","3","735455183198490626","张","507","","","","","","","","","","","","","","","","","","","","","","","","","","","","","","","","","","","","","","","","","",""
"663","<p style=""color:rgb(150, 250, 100); font-size: 35px;"">本人</p>","e","categorize-html","16","184677","0.0-6.0-0.0-2.0-1.3","4","3","4","3","3","3","4","4","4","3","4","4","3","4","5","5","4","4","4","5","2","1","2","2","1","2","1","2","1","1","0","1","1","0","1","0","1","1","1","1","0","0","0","1","4","1","4","2","1","2","1","4","3","2","3","735455183198490626","张","507","","","","","","","","","","","","","","","","","","","true","1","1","ability","663","self","本人","","","","","","","","","","","","","","","","",""
"null","","null","html-keyboard-response","17","184928","0.0-6.0-0.0-2.0-0.4","4","3","4","3","3","3","4","4","4","3","4","4","3","4","5","5","4","4","4","5","2","1","2","2","1","2","1","2","1","1","0","1","1","0","1","0","1","1","1","1","0","0","0","1","4","1","4","2","1","2","1","4","3","2","3","735455183198490626","张","507","","","","","","","","","","","","","","","","","","","","","","","","","","","","","","","","","","","","","","","","","",""
"644","<p style=""color:rgb(150, 250, 100); font-size: 35px;"">自己</p>","e","categorize-html","18","185573","0.0-6.0-0.0-2.0-1.4","4","3","4","3","3","3","4","4","4","3","4","4","3","4","5","5","4","4","4","5","2","1","2","2","1","2","1","2","1","1","0","1","1","0","1","0","1","1","1","1","0","0","0","1","4","1","4","2","1","2","1","4","3","2","3","735455183198490626","张","507","","","","","","","","","","","","","","","","","","","true","1","1","ability","644","self","自己","","","","","","","","","","","","","","","","",""
"null","","null","html-keyboard-response","19","185826","0.0-6.0-0.0-2.0-0.5","4","3","4","3","3","3","4","4","4","3","4","4","3","4","5","5","4","4","4","5","2","1","2","2","1","2","1","2","1","1","0","1","1","0","1","0","1","1","1","1","0","0","0","1","4","1","4","2","1","2","1","4","3","2","3","735455183198490626","张","507","","","","","","","","","","","","","","","","","","","","","","","","","","","","","","","","","","","","","","","","","",""
"641","<p style=""color:rgb(150, 250, 100); font-size: 35px;"">我</p>","e","categorize-html","20","186467","0.0-6.0-0.0-2.0-1.5","4","3","4","3","3","3","4","4","4","3","4","4","3","4","5","5","4","4","4","5","2","1","2","2","1","2","1","2","1","1","0","1","1","0","1","0","1","1","1","1","0","0","0","1","4","1","4","2","1","2","1","4","3","2","3","735455183198490626","张","507","","","","","","","","","","","","","","","","","","","true","1","1","ability","641","self","我","","","","","","","","","","","","","","","","",""
"null","","null","html-keyboard-response","21","186718","0.0-6.0-0.0-2.0-0.6","4","3","4","3","3","3","4","4","4","3","4","4","3","4","5","5","4","4","4","5","2","1","2","2","1","2","1","2","1","1","0","1","1","0","1","0","1","1","1","1","0","0","0","1","4","1","4","2","1","2","1","4","3","2","3","735455183198490626","张","507","","","","","","","","","","","","","","","","","","","","","","","","","","","","","","","","","","","","","","","","","",""
"665","<p style=""color:rgb(150, 250, 100); font-size: 35px;"">别人</p>","i","categorize-html","22","187384","0.0-6.0-0.0-2.0-1.6","4","3","4","3","3","3","4","4","4","3","4","4","3","4","5","5","4","4","4","5","2","1","2","2","1","2","1","2","1","1","0","1","1","0","1","0","1","1","1","1","0","0","0","1","4","1","4","2","1","2","1","4","3","2","3","735455183198490626","张","507","","","","","","","","","","","","","","","","","","","true","1","1","ability","665","other","别人","","","","","","","","","","","","","","","","",""
"null","","null","html-keyboard-response","23","187635","0.0-6.0-0.0-2.0-0.7","4","3","4","3","3","3","4","4","4","3","4","4","3","4","5","5","4","4","4","5","2","1","2","2","1","2","1","2","1","1","0","1","1","0","1","0","1","1","1","1","0","0","0","1","4","1","4","2","1","2","1","4","3","2","3","735455183198490626","张","507","","","","","","","","","","","","","","","","","","","","","","","","","","","","","","","","","","","","","","","","","",""
"619","<p style=""color:rgb(150, 250, 100); font-size: 35px;"">他的</p>","i","categorize-html","24","188255","0.0-6.0-0.0-2.0-1.7","4","3","4","3","3","3","4","4","4","3","4","4","3","4","5","5","4","4","4","5","2","1","2","2","1","2","1","2","1","1","0","1","1","0","1","0","1","1","1","1","0","0","0","1","4","1","4","2","1","2","1","4","3","2","3","735455183198490626","张","507","","","","","","","","","","","","","","","","","","","true","1","1","ability","619","other","他的","","","","","","","","","","","","","","","","",""
"null","","null","html-keyboard-response","25","188506","0.0-6.0-0.0-2.0-0.8","4","3","4","3","3","3","4","4","4","3","4","4","3","4","5","5","4","4","4","5","2","1","2","2","1","2","1","2","1","1","0","1","1","0","1","0","1","1","1","1","0","0","0","1","4","1","4","2","1","2","1","4","3","2","3","735455183198490626","张","507","","","","","","","","","","","","","","","","","","","","","","","","","","","","","","","","","","","","","","","","","",""
"666","<p style=""color:rgb(150, 250, 100); font-size: 35px;"">他人的</p>","i","categorize-html","26","189174","0.0-6.0-0.0-2.0-1.8","4","3","4","3","3","3","4","4","4","3","4","4","3","4","5","5","4","4","4","5","2","1","2","2","1","2","1","2","1","1","0","1","1","0","1","0","1","1","1","1","0","0","0","1","4","1","4","2","1","2","1","4","3","2","3","735455183198490626","张","507","","","","","","","","","","","","","","","","","","","true","1","1","ability","666","other","他人的","","","","","","","","","","","","","","","","",""
"null","","null","html-keyboard-response","27","189438","0.0-6.0-0.0-2.0-0.9","4","3","4","3","3","3","4","4","4","3","4","4","3","4","5","5","4","4","4","5","2","1","2","2","1","2","1","2","1","1","0","1","1","0","1","0","1","1","1","1","0","0","0","1","4","1","4","2","1","2","1","4","3","2","3","735455183198490626","张","507","","","","","","","","","","","","","","","","","","","","","","","","","","","","","","","","","","","","","","","","","",""
"597","<p style=""color:rgb(150, 250, 100); font-size: 35px;"">他人</p>","i","categorize-html","28","190038","0.0-6.0-0.0-2.0-1.9","4","3","4","3","3","3","4","4","4","3","4","4","3","4","5","5","4","4","4","5","2","1","2","2","1","2","1","2","1","1","0","1","1","0","1","0","1","1","1","1","0","0","0","1","4","1","4","2","1","2","1","4","3","2","3","735455183198490626","张","507","","","","","","","","","","","","","","","","","","","true","1","1","ability","597","other","他人","","","","","","","","","","","","","","","","",""
"null","","null","html-keyboard-response","29","190288","0.0-6.0-0.0-2.0-0.10","4","3","4","3","3","3","4","4","4","3","4","4","3","4","5","5","4","4","4","5","2","1","2","2","1","2","1","2","1","1","0","1","1","0","1","0","1","1","1","1","0","0","0","1","4","1","4","2","1","2","1","4","3","2","3","735455183198490626","张","507","","","","","","","","","","","","","","","","","","","","","","","","","","","","","","","","","","","","","","","","","",""
"551","<p style=""color:rgb(150, 250, 100); font-size: 35px;"">我的</p>","e","categorize-html","30","190840","0.0-6.0-0.0-2.0-1.10","4","3","4","3","3","3","4","4","4","3","4","4","3","4","5","5","4","4","4","5","2","1","2","2","1","2","1","2","1","1","0","1","1","0","1","0","1","1","1","1","0","0","0","1","4","1","4","2","1","2","1","4","3","2","3","735455183198490626","张","507","","","","","","","","","","","","","","","","","","","true","1","1","ability","551","self","我的","","","","","","","","","","","","","","","","",""
"null","","null","html-keyboard-response","31","191091","0.0-6.0-0.0-2.0-0.11","4","3","4","3","3","3","4","4","4","3","4","4","3","4","5","5","4","4","4","5","2","1","2","2","1","2","1","2","1","1","0","1","1","0","1","0","1","1","1","1","0","0","0","1","4","1","4","2","1","2","1","4","3","2","3","735455183198490626","张","507","","","","","","","","","","","","","","","","","","","","","","","","","","","","","","","","","","","","","","","","","",""
"634","<p style=""color:rgb(150, 250, 100); font-size: 35px;"">自己的</p>","e","categorize-html","32","191725","0.0-6.0-0.0-2.0-1.11","4","3","4","3","3","3","4","4","4","3","4","4","3","4","5","5","4","4","4","5","2","1","2","2","1","2","1","2","1","1","0","1","1","0","1","0","1","1","1","1","0","0","0","1","4","1","4","2","1","2","1","4","3","2","3","735455183198490626","张","507","","","","","","","","","","","","","","","","","","","true","1","1","ability","634","self","自己的","","","","","","","","","","","","","","","","",""
"8020","
    <div class=""tag-bottom""><p>
    —— 任务2：对“消极”词和“积极”词分类 ——<p/>   
    <span style=""color:#78DCE8""><b>注意上方，类别标签和需要分类的词语都已经改变</b></span><p/>
    <span style=""color:#FFD866""><b>请根据上方标签的提示，尽可能正确并且快速地做出按键反应</b></span><p/>
    当按键错误时屏幕中会出现<span style=""color:red""> X </span>，需要按另一个键纠正才能继续<br/><p/>
    请把双手食指分别放在键盘的“E”键和“I”键上<p/>
    按<空格键>开始
    </p></div>"," ","html-keyboard-response","33","199745","0.0-6.0-0.0-3.0","4","3","4","3","3","3","4","4","4","3","4","4","3","4","5","5","4","4","4","5","2","1","2","2","1","2","1","2","1","1","0","1","1","0","1","0","1","1","1","1","0","0","0","1","4","1","4","2","1","2","1","4","3","2","3","735455183198490626","张","507","","","","","","","","","","","","","","","","","","","","","","","","","","","","","","","","","","","","","","","","","",""
"null","","null","html-keyboard-response","34","199995","0.0-6.0-0.0-4.0-0.0","4","3","4","3","3","3","4","4","4","3","4","4","3","4","5","5","4","4","4","5","2","1","2","2","1","2","1","2","1","1","0","1","1","0","1","0","1","1","1","1","0","0","0","1","4","1","4","2","1","2","1","4","3","2","3","735455183198490626","张","507","","","","","","","","","","","","","","","","","","","","","","","","","","","","","","","","","","","","","","","","","",""
"1162","<p style=""color:white; font-size: 35px;"">精干</p>","e","categorize-html","35","202439","0.0-6.0-0.0-4.0-1.0","4","3","4","3","3","3","4","4","4","3","4","4","3","4","5","5","4","4","4","5","2","1","2","2","1","2","1","2","1","1","0","1","1","0","1","0","1","1","1","1","0","0","0","1","4","1","4","2","1","2","1","4","3","2","3","735455183198490626","张","507","","","","","","","","","","","","","","","","","","","false","2","2","ability","1162","positive","精干","","","","","","","","","","","","","","","","",""
"null","","null","html-keyboard-response","36","202692","0.0-6.0-0.0-4.0-0.1","4","3","4","3","3","3","4","4","4","3","4","4","3","4","5","5","4","4","4","5","2","1","2","2","1","2","1","2","1","1","0","1","1","0","1","0","1","1","1","1","0","0","0","1","4","1","4","2","1","2","1","4","3","2","3","735455183198490626","张","507","","","","","","","","","","","","","","","","","","","","","","","","","","","","","","","","","","","","","","","","","",""
"1934","<p style=""color:white; font-size: 35px;"">拙笨</p>","e","categorize-html","37","204627","0.0-6.0-0.0-4.0-1.1","4","3","4","3","3","3","4","4","4","3","4","4","3","4","5","5","4","4","4","5","2","1","2","2","1","2","1","2","1","1","0","1","1","0","1","0","1","1","1","1","0","0","0","1","4","1","4","2","1","2","1","4","3","2","3","735455183198490626","张","507","","","","","","","","","","","","","","","","","","","true","2","2","ability","1934","negative","拙笨","","","","","","","","","","","","","","","","",""
"null","","null","html-keyboard-response","38","204879","0.0-6.0-0.0-4.0-0.2","4","3","4","3","3","3","4","4","4","3","4","4","3","4","5","5","4","4","4","5","2","1","2","2","1","2","1","2","1","1","0","1","1","0","1","0","1","1","1","1","0","0","0","1","4","1","4","2","1","2","1","4","3","2","3","735455183198490626","张","507","","","","","","","","","","","","","","","","","","","","","","","","","","","","","","","","","","","","","","","","","",""
"984","<p style=""color:white; font-size: 35px;"">无能</p>","e","categorize-html","39","205864","0.0-6.0-0.0-4.0-1.2","4","3","4","3","3","3","4","4","4","3","4","4","3","4","5","5","4","4","4","5","2","1","2","2","1","2","1","2","1","1","0","1","1","0","1","0","1","1","1","1","0","0","0","1","4","1","4","2","1","2","1","4","3","2","3","735455183198490626","张","507","","","","","","","","","","","","","","","","","","","true","2","2","ability","984","negative","无能","","","","","","","","","","","","","","","","",""
"null","","null","html-keyboard-response","40","206116","0.0-6.0-0.0-4.0-0.3","4","3","4","3","3","3","4","4","4","3","4","4","3","4","5","5","4","4","4","5","2","1","2","2","1","2","1","2","1","1","0","1","1","0","1","0","1","1","1","1","0","0","0","1","4","1","4","2","1","2","1","4","3","2","3","735455183198490626","张","507","","","","","","","","","","","","","","","","","","","","","","","","","","","","","","","","","","","","","","","","","",""
"530","<p style=""color:white; font-size: 35px;"">全能</p>","i","categorize-html","41","206647","0.0-6.0-0.0-4.0-1.3","4","3","4","3","3","3","4","4","4","3","4","4","3","4","5","5","4","4","4","5","2","1","2","2","1","2","1","2","1","1","0","1","1","0","1","0","1","1","1","1","0","0","0","1","4","1","4","2","1","2","1","4","3","2","3","735455183198490626","张","507","","","","","","","","","","","","","","","","","","","true","2","2","ability","530","positive","全能","","","","","","","","","","","","","","","","",""
"null","","null","html-keyboard-response","42","206898","0.0-6.0-0.0-4.0-0.4","4","3","4","3","3","3","4","4","4","3","4","4","3","4","5","5","4","4","4","5","2","1","2","2","1","2","1","2","1","1","0","1","1","0","1","0","1","1","1","1","0","0","0","1","4","1","4","2","1","2","1","4","3","2","3","735455183198490626","张","507","","","","","","","","","","","","","","","","","","","","","","","","","","","","","","","","","","","","","","","","","",""
"488","<p style=""color:white; font-size: 35px;"">能干</p>","i","categorize-html","43","207387","0.0-6.0-0.0-4.0-1.4","4","3","4","3","3","3","4","4","4","3","4","4","3","4","5","5","4","4","4","5","2","1","2","2","1","2","1","2","1","1","0","1","1","0","1","0","1","1","1","1","0","0","0","1","4","1","4","2","1","2","1","4","3","2","3","735455183198490626","张","507","","","","","","","","","","","","","","","","","","","true","2","2","ability","488","positive","能干","","","","","","","","","","","","","","","","",""
"null","","null","html-keyboard-response","44","207637","0.0-6.0-0.0-4.0-0.5","4","3","4","3","3","3","4","4","4","3","4","4","3","4","5","5","4","4","4","5","2","1","2","2","1","2","1","2","1","1","0","1","1","0","1","0","1","1","1","1","0","0","0","1","4","1","4","2","1","2","1","4","3","2","3","735455183198490626","张","507","","","","","","","","","","","","","","","","","","","","","","","","","","","","","","","","","","","","","","","","","",""
"590","<p style=""color:white; font-size: 35px;"">低能</p>","e","categorize-html","45","208229","0.0-6.0-0.0-4.0-1.5","4","3","4","3","3","3","4","4","4","3","4","4","3","4","5","5","4","4","4","5","2","1","2","2","1","2","1","2","1","1","0","1","1","0","1","0","1","1","1","1","0","0","0","1","4","1","4","2","1","2","1","4","3","2","3","735455183198490626","张","507","","","","","","","","","","","","","","","","","","","true","2","2","ability","590","negative","低能","","","","","","","","","","","","","","","","",""
"null","","null","html-keyboard-response","46","208482","0.0-6.0-0.0-4.0-0.6","4","3","4","3","3","3","4","4","4","3","4","4","3","4","5","5","4","4","4","5","2","1","2","2","1","2","1","2","1","1","0","1","1","0","1","0","1","1","1","1","0","0","0","1","4","1","4","2","1","2","1","4","3","2","3","735455183198490626","张","507","","","","","","","","","","","","","","","","","","","","","","","","","","","","","","","","","","","","","","","","","",""
"562","<p style=""color:white; font-size: 35px;"">废物</p>","e","categorize-html","47","209044","0.0-6.0-0.0-4.0-1.6","4","3","4","3","3","3","4","4","4","3","4","4","3","4","5","5","4","4","4","5","2","1","2","2","1","2","1","2","1","1","0","1","1","0","1","0","1","1","1","1","0","0","0","1","4","1","4","2","1","2","1","4","3","2","3","735455183198490626","张","507","","","","","","","","","","","","","","","","","","","true","2","2","ability","562","negative","废物","","","","","","","","","","","","","","","","",""
"null","","null","html-keyboard-response","48","209296","0.0-6.0-0.0-4.0-0.7","4","3","4","3","3","3","4","4","4","3","4","4","3","4","5","5","4","4","4","5","2","1","2","2","1","2","1","2","1","1","0","1","1","0","1","0","1","1","1","1","0","0","0","1","4","1","4","2","1","2","1","4","3","2","3","735455183198490626","张","507","","","","","","","","","","","","","","","","","","","","","","","","","","","","","","","","","","","","","","","","","",""
"488","<p style=""color:white; font-size: 35px;"">愚钝</p>","e","categorize-html","49","209785","0.0-6.0-0.0-4.0-1.7","4","3","4","3","3","3","4","4","4","3","4","4","3","4","5","5","4","4","4","5","2","1","2","2","1","2","1","2","1","1","0","1","1","0","1","0","1","1","1","1","0","0","0","1","4","1","4","2","1","2","1","4","3","2","3","735455183198490626","张","507","","","","","","","","","","","","","","","","","","","true","2","2","ability","488","negative","愚钝","","","","","","","","","","","","","","","","",""
"null","","null","html-keyboard-response","50","210036","0.0-6.0-0.0-4.0-0.8","4","3","4","3","3","3","4","4","4","3","4","4","3","4","5","5","4","4","4","5","2","1","2","2","1","2","1","2","1","1","0","1","1","0","1","0","1","1","1","1","0","0","0","1","4","1","4","2","1","2","1","4","3","2","3","735455183198490626","张","507","","","","","","","","","","","","","","","","","","","","","","","","","","","","","","","","","","","","","","","","","",""
"653","<p style=""color:white; font-size: 35px;"">高效</p>","i","categorize-html","51","210691","0.0-6.0-0.0-4.0-1.8","4","3","4","3","3","3","4","4","4","3","4","4","3","4","5","5","4","4","4","5","2","1","2","2","1","2","1","2","1","1","0","1","1","0","1","0","1","1","1","1","0","0","0","1","4","1","4","2","1","2","1","4","3","2","3","735455183198490626","张","507","","","","","","","","","","","","","","","","","","","true","2","2","ability","653","positive","高效","","","","","","","","","","","","","","","","",""
"null","","null","html-keyboard-response","52","210954","0.0-6.0-0.0-4.0-0.9","4","3","4","3","3","3","4","4","4","3","4","4","3","4","5","5","4","4","4","5","2","1","2","2","1","2","1","2","1","1","0","1","1","0","1","0","1","1","1","1","0","0","0","1","4","1","4","2","1","2","1","4","3","2","3","735455183198490626","张","507","","","","","","","","","","","","","","","","","","","","","","","","","","","","","","","","","","","","","","","","","",""
"421","<p style=""color:white; font-size: 35px;"">全才</p>","i","categorize-html","53","211376","0.0-6.0-0.0-4.0-1.9","4","3","4","3","3","3","4","4","4","3","4","4","3","4","5","5","4","4","4","5","2","1","2","2","1","2","1","2","1","1","0","1","1","0","1","0","1","1","1","1","0","0","0","1","4","1","4","2","1","2","1","4","3","2","3","735455183198490626","张","507","","","","","","","","","","","","","","","","","","","true","2","2","ability","421","positive","全才","","","","","","","","","","","","","","","","",""
"null","","null","html-keyboard-response","54","211626","0.0-6.0-0.0-4.0-0.10","4","3","4","3","3","3","4","4","4","3","4","4","3","4","5","5","4","4","4","5","2","1","2","2","1","2","1","2","1","1","0","1","1","0","1","0","1","1","1","1","0","0","0","1","4","1","4","2","1","2","1","4","3","2","3","735455183198490626","张","507","","","","","","","","","","","","","","","","","","","","","","","","","","","","","","","","","","","","","","","","","",""
"786","<p style=""color:white; font-size: 35px;"">天才</p>","i","categorize-html","55","212413","0.0-6.0-0.0-4.0-1.10","4","3","4","3","3","3","4","4","4","3","4","4","3","4","5","5","4","4","4","5","2","1","2","2","1","2","1","2","1","1","0","1","1","0","1","0","1","1","1","1","0","0","0","1","4","1","4","2","1","2","1","4","3","2","3","735455183198490626","张","507","","","","","","","","","","","","","","","","","","","true","2","2","ability","786","positive","天才","","","","","","","","","","","","","","","","",""
"null","","null","html-keyboard-response","56","212665","0.0-6.0-0.0-4.0-0.11","4","3","4","3","3","3","4","4","4","3","4","4","3","4","5","5","4","4","4","5","2","1","2","2","1","2","1","2","1","1","0","1","1","0","1","0","1","1","1","1","0","0","0","1","4","1","4","2","1","2","1","4","3","2","3","735455183198490626","张","507","","","","","","","","","","","","","","","","","","","","","","","","","","","","","","","","","","","","","","","","","",""
"588","<p style=""color:white; font-size: 35px;"">蠢笨</p>","e","categorize-html","57","213253","0.0-6.0-0.0-4.0-1.11","4","3","4","3","3","3","4","4","4","3","4","4","3","4","5","5","4","4","4","5","2","1","2","2","1","2","1","2","1","1","0","1","1","0","1","0","1","1","1","1","0","0","0","1","4","1","4","2","1","2","1","4","3","2","3","735455183198490626","张","507","","","","","","","","","","","","","","","","","","","true","2","2","ability","588","negative","蠢笨","","","","","","","","","","","","","","","","",""
"10616","
    <div class=""tag-bottom""><p>
    —— 任务3：对“自我/消极”词和“他人/积极”词分类 ——<p/>
    <span style=""color:#78DCE8""><b>注意上方，之前的四类词语将混合在一起交替呈现</b></span><p/>
    <span style=""color:#FFD866""><b>请根据上方标签的提示，尽可能正确并且快速地做出按键反应</b></span><p/>
    当按键错误时屏幕中会出现<span style=""color:red""> X </span>，需要按另一个键纠正才能继续<br/><p/>
    请把双手食指分别放在键盘的“E”键和“I”键上<p/>
    按<空格键>开始
    </p></div>"," ","html-keyboard-response","58","223870","0.0-6.0-0.0-5.0","4","3","4","3","3","3","4","4","4","3","4","4","3","4","5","5","4","4","4","5","2","1","2","2","1","2","1","2","1","1","0","1","1","0","1","0","1","1","1","1","0","0","0","1","4","1","4","2","1","2","1","4","3","2","3","735455183198490626","张","507","","","","","","","","","","","","","","","","","","","","","","","","","","","","","","","","","","","","","","","","","",""
"null","","null","html-keyboard-response","59","224121","0.0-6.0-0.0-6.0-0.0","4","3","4","3","3","3","4","4","4","3","4","4","3","4","5","5","4","4","4","5","2","1","2","2","1","2","1","2","1","1","0","1","1","0","1","0","1","1","1","1","0","0","0","1","4","1","4","2","1","2","1","4","3","2","3","735455183198490626","张","507","","","","","","","","","","","","","","","","","","","","","","","","","","","","","","","","","","","","","","","","","",""
"862","<p style=""color:rgb(150, 250, 100); font-size: 35px;"">他人的</p>","i","categorize-html","60","224984","0.0-6.0-0.0-6.0-1.0","4","3","4","3","3","3","4","4","4","3","4","4","3","4","5","5","4","4","4","5","2","1","2","2","1","2","1","2","1","1","0","1","1","0","1","0","1","1","1","1","0","0","0","1","4","1","4","2","1","2","1","4","3","2","3","735455183198490626","张","507","","","","","","","","","","","","","","","","","","","true","3","3","ability","862","other","他人的","","","","","","","","","","","","","","","","",""
"null","","null","html-keyboard-response","61","225235","0.0-6.0-0.0-6.0-0.1","4","3","4","3","3","3","4","4","4","3","4","4","3","4","5","5","4","4","4","5","2","1","2","2","1","2","1","2","1","1","0","1","1","0","1","0","1","1","1","1","0","0","0","1","4","1","4","2","1","2","1","4","3","2","3","735455183198490626","张","507","","","","","","","","","","","","","","","","","","","","","","","","","","","","","","","","","","","","","","","","","",""
"998","<p style=""color:white; font-size: 35px;"">精干</p>","i","categorize-html","62","226235","0.0-6.0-0.0-6.0-1.1","4","3","4","3","3","3","4","4","4","3","4","4","3","4","5","5","4","4","4","5","2","1","2","2","1","2","1","2","1","1","0","1","1","0","1","0","1","1","1","1","0","0","0","1","4","1","4","2","1","2","1","4","3","2","3","735455183198490626","张","507","","","","","","","","","","","","","","","","","","","true","3","3","ability","998","positive","精干","","","","","","","","","","","","","","","","",""
"null","","null","html-keyboard-response","63","226487","0.0-6.0-0.0-6.0-0.2","4","3","4","3","3","3","4","4","4","3","4","4","3","4","5","5","4","4","4","5","2","1","2","2","1","2","1","2","1","1","0","1","1","0","1","0","1","1","1","1","0","0","0","1","4","1","4","2","1","2","1","4","3","2","3","735455183198490626","张","507","","","","","","","","","","","","","","","","","","","","","","","","","","","","","","","","","","","","","","","","","",""
"917","<p style=""color:rgb(150, 250, 100); font-size: 35px;"">我</p>","e","categorize-html","64","227405","0.0-6.0-0.0-6.0-1.2","4","3","4","3","3","3","4","4","4","3","4","4","3","4","5","5","4","4","4","5","2","1","2","2","1","2","1","2","1","1","0","1","1","0","1","0","1","1","1","1","0","0","0","1","4","1","4","2","1","2","1","4","3","2","3","735455183198490626","张","507","","","","","","","","","","","","","","","","","","","true","3","3","ability","917","self","我","","","","","","","","","","","","","","","","",""
"null","","null","html-keyboard-response","65","227656","0.0-6.0-0.0-6.0-0.3","4","3","4","3","3","3","4","4","4","3","4","4","3","4","5","5","4","4","4","5","2","1","2","2","1","2","1","2","1","1","0","1","1","0","1","0","1","1","1","1","0","0","0","1","4","1","4","2","1","2","1","4","3","2","3","735455183198490626","张","507","","","","","","","","","","","","","","","","","","","","","","","","","","","","","","","","","","","","","","","","","",""
"567","<p style=""color:white; font-size: 35px;"">废物</p>","e","categorize-html","66","228223","0.0-6.0-0.0-6.0-1.3","4","3","4","3","3","3","4","4","4","3","4","4","3","4","5","5","4","4","4","5","2","1","2","2","1","2","1","2","1","1","0","1","1","0","1","0","1","1","1","1","0","0","0","1","4","1","4","2","1","2","1","4","3","2","3","735455183198490626","张","507","","","","","","","","","","","","","","","","","","","true","3","3","ability","567","negative","废物","","","","","","","","","","","","","","","","",""
"null","","null","html-keyboard-response","67","228475","0.0-6.0-0.0-6.0-0.4","4","3","4","3","3","3","4","4","4","3","4","4","3","4","5","5","4","4","4","5","2","1","2","2","1","2","1","2","1","1","0","1","1","0","1","0","1","1","1","1","0","0","0","1","4","1","4","2","1","2","1","4","3","2","3","735455183198490626","张","507","","","","","","","","","","","","","","","","","","","","","","","","","","","","","","","","","","","","","","","","","",""
"816","<p style=""color:rgb(150, 250, 100); font-size: 35px;"">他</p>","i","categorize-html","68","229293","0.0-6.0-0.0-6.0-1.4","4","3","4","3","3","3","4","4","4","3","4","4","3","4","5","5","4","4","4","5","2","1","2","2","1","2","1","2","1","1","0","1","1","0","1","0","1","1","1","1","0","0","0","1","4","1","4","2","1","2","1","4","3","2","3","735455183198490626","张","507","","","","","","","","","","","","","","","","","","","true","3","3","ability","816","other","他","","","","","","","","","","","","","","","","",""
"null","","null","html-keyboard-response","69","229543","0.0-6.0-0.0-6.0-0.5","4","3","4","3","3","3","4","4","4","3","4","4","3","4","5","5","4","4","4","5","2","1","2","2","1","2","1","2","1","1","0","1","1","0","1","0","1","1","1","1","0","0","0","1","4","1","4","2","1","2","1","4","3","2","3","735455183198490626","张","507","","","","","","","","","","","","","","","","","","","","","","","","","","","","","","","","","","","","","","","","","",""
"1373","<p style=""color:white; font-size: 35px;"">高效</p>","i","categorize-html","70","230917","0.0-6.0-0.0-6.0-1.5","4","3","4","3","3","3","4","4","4","3","4","4","3","4","5","5","4","4","4","5","2","1","2","2","1","2","1","2","1","1","0","1","1","0","1","0","1","1","1","1","0","0","0","1","4","1","4","2","1","2","1","4","3","2","3","735455183198490626","张","507","","","","","","","","","","","","","","","","","","","true","3","3","ability","1373","positive","高效","","","","","","","","","","","","","","","","",""
"null","","null","html-keyboard-response","71","231168","0.0-6.0-0.0-6.0-0.6","4","3","4","3","3","3","4","4","4","3","4","4","3","4","5","5","4","4","4","5","2","1","2","2","1","2","1","2","1","1","0","1","1","0","1","0","1","1","1","1","0","0","0","1","4","1","4","2","1","2","1","4","3","2","3","735455183198490626","张","507","","","","","","","","","","","","","","","","","","","","","","","","","","","","","","","","","","","","","","","","","",""
"896","<p style=""color:rgb(150, 250, 100); font-size: 35px;"">自己</p>","e","categorize-html","72","232066","0.0-6.0-0.0-6.0-1.6","4","3","4","3","3","3","4","4","4","3","4","4","3","4","5","5","4","4","4","5","2","1","2","2","1","2","1","2","1","1","0","1","1","0","1","0","1","1","1","1","0","0","0","1","4","1","4","2","1","2","1","4","3","2","3","735455183198490626","张","507","","","","","","","","","","","","","","","","","","","true","3","3","ability","896","self","自己","","","","","","","","","","","","","","","","",""
"null","","null","html-keyboard-response","73","232317","0.0-6.0-0.0-6.0-0.7","4","3","4","3","3","3","4","4","4","3","4","4","3","4","5","5","4","4","4","5","2","1","2","2","1","2","1","2","1","1","0","1","1","0","1","0","1","1","1","1","0","0","0","1","4","1","4","2","1","2","1","4","3","2","3","735455183198490626","张","507","","","","","","","","","","","","","","","","","","","","","","","","","","","","","","","","","","","","","","","","","",""
"454","<p style=""color:white; font-size: 35px;"">愚钝</p>","e","categorize-html","74","232771","0.0-6.0-0.0-6.0-1.7","4","3","4","3","3","3","4","4","4","3","4","4","3","4","5","5","4","4","4","5","2","1","2","2","1","2","1","2","1","1","0","1","1","0","1","0","1","1","1","1","0","0","0","1","4","1","4","2","1","2","1","4","3","2","3","735455183198490626","张","507","","","","","","","","","","","","","","","","","","","true","3","3","ability","454","negative","愚钝","","","","","","","","","","","","","","","","",""
"null","","null","html-keyboard-response","75","233023","0.0-6.0-0.0-6.0-0.8","4","3","4","3","3","3","4","4","4","3","4","4","3","4","5","5","4","4","4","5","2","1","2","2","1","2","1","2","1","1","0","1","1","0","1","0","1","1","1","1","0","0","0","1","4","1","4","2","1","2","1","4","3","2","3","735455183198490626","张","507","","","","","","","","","","","","","","","","","","","","","","","","","","","","","","","","","","","","","","","","","",""
"665","<p style=""color:rgb(150, 250, 100); font-size: 35px;"">别人</p>","i","categorize-html","76","233689","0.0-6.0-0.0-6.0-1.8","4","3","4","3","3","3","4","4","4","3","4","4","3","4","5","5","4","4","4","5","2","1","2","2","1","2","1","2","1","1","0","1","1","0","1","0","1","1","1","1","0","0","0","1","4","1","4","2","1","2","1","4","3","2","3","735455183198490626","张","507","","","","","","","","","","","","","","","","","","","true","3","3","ability","665","other","别人","","","","","","","","","","","","","","","","",""
"null","","null","html-keyboard-response","77","233940","0.0-6.0-0.0-6.0-0.9","4","3","4","3","3","3","4","4","4","3","4","4","3","4","5","5","4","4","4","5","2","1","2","2","1","2","1","2","1","1","0","1","1","0","1","0","1","1","1","1","0","0","0","1","4","1","4","2","1","2","1","4","3","2","3","735455183198490626","张","507","","","","","","","","","","","","","","","","","","","","","","","","","","","","","","","","","","","","","","","","","",""
"722","<p style=""color:white; font-size: 35px;"">拙笨</p>","e","categorize-html","78","234663","0.0-6.0-0.0-6.0-1.9","4","3","4","3","3","3","4","4","4","3","4","4","3","4","5","5","4","4","4","5","2","1","2","2","1","2","1","2","1","1","0","1","1","0","1","0","1","1","1","1","0","0","0","1","4","1","4","2","1","2","1","4","3","2","3","735455183198490626","张","507","","","","","","","","","","","","","","","","","","","true","3","3","ability","722","negative","拙笨","","","","","","","","","","","","","","","","",""
"null","","null","html-keyboard-response","79","234914","0.0-6.0-0.0-6.0-0.10","4","3","4","3","3","3","4","4","4","3","4","4","3","4","5","5","4","4","4","5","2","1","2","2","1","2","1","2","1","1","0","1","1","0","1","0","1","1","1","1","0","0","0","1","4","1","4","2","1","2","1","4","3","2","3","735455183198490626","张","507","","","","","","","","","","","","","","","","","","","","","","","","","","","","","","","","","","","","","","","","","",""
"1028","<p style=""color:rgb(150, 250, 100); font-size: 35px;"">我的</p>","e","categorize-html","80","235944","0.0-6.0-0.0-6.0-1.10","4","3","4","3","3","3","4","4","4","3","4","4","3","4","5","5","4","4","4","5","2","1","2","2","1","2","1","2","1","1","0","1","1","0","1","0","1","1","1","1","0","0","0","1","4","1","4","2","1","2","1","4","3","2","3","735455183198490626","张","507","","","","","","","","","","","","","","","","","","","true","3","3","ability","1028","self","我的","","","","","","","","","","","","","","","","",""
"null","","null","html-keyboard-response","81","236196","0.0-6.0-0.0-6.0-0.11","4","3","4","3","3","3","4","4","4","3","4","4","3","4","5","5","4","4","4","5","2","1","2","2","1","2","1","2","1","1","0","1","1","0","1","0","1","1","1","1","0","0","0","1","4","1","4","2","1","2","1","4","3","2","3","735455183198490626","张","507","","","","","","","","","","","","","","","","","","","","","","","","","","","","","","","","","","","","","","","","","",""
"727","<p style=""color:white; font-size: 35px;"">全能</p>","i","categorize-html","82","236925","0.0-6.0-0.0-6.0-1.11","4","3","4","3","3","3","4","4","4","3","4","4","3","4","5","5","4","4","4","5","2","1","2","2","1","2","1","2","1","1","0","1","1","0","1","0","1","1","1","1","0","0","0","1","4","1","4","2","1","2","1","4","3","2","3","735455183198490626","张","507","","","","","","","","","","","","","","","","","","","true","3","3","ability","727","positive","全能","","","","","","","","","","","","","","","","",""
"null","","null","html-keyboard-response","83","237176","0.0-6.0-0.0-6.0-0.12","4","3","4","3","3","3","4","4","4","3","4","4","3","4","5","5","4","4","4","5","2","1","2","2","1","2","1","2","1","1","0","1","1","0","1","0","1","1","1","1","0","0","0","1","4","1","4","2","1","2","1","4","3","2","3","735455183198490626","张","507","","","","","","","","","","","","","","","","","","","","","","","","","","","","","","","","","","","","","","","","","",""
"931","<p style=""color:rgb(150, 250, 100); font-size: 35px;"">本人</p>","e","categorize-html","84","238107","0.0-6.0-0.0-6.0-1.12","4","3","4","3","3","3","4","4","4","3","4","4","3","4","5","5","4","4","4","5","2","1","2","2","1","2","1","2","1","1","0","1","1","0","1","0","1","1","1","1","0","0","0","1","4","1","4","2","1","2","1","4","3","2","3","735455183198490626","张","507","","","","","","","","","","","","","","","","","","","true","3","3","ability","931","self","本人","","","","","","","","","","","","","","","","",""
"null","","null","html-keyboard-response","85","238358","0.0-6.0-0.0-6.0-0.13","4","3","4","3","3","3","4","4","4","3","4","4","3","4","5","5","4","4","4","5","2","1","2","2","1","2","1","2","1","1","0","1","1","0","1","0","1","1","1","1","0","0","0","1","4","1","4","2","1","2","1","4","3","2","3","735455183198490626","张","507","","","","","","","","","","","","","","","","","","","","","","","","","","","","","","","","","","","","","","","","","",""
"644","<p style=""color:white; font-size: 35px;"">蠢笨</p>","e","categorize-html","86","239002","0.0-6.0-0.0-6.0-1.13","4","3","4","3","3","3","4","4","4","3","4","4","3","4","5","5","4","4","4","5","2","1","2","2","1","2","1","2","1","1","0","1","1","0","1","0","1","1","1","1","0","0","0","1","4","1","4","2","1","2","1","4","3","2","3","735455183198490626","张","507","","","","","","","","","","","","","","","","","","","true","3","3","ability","644","negative","蠢笨","","","","","","","","","","","","","","","","",""
"null","","null","html-keyboard-response","87","239253","0.0-6.0-0.0-6.0-0.14","4","3","4","3","3","3","4","4","4","3","4","4","3","4","5","5","4","4","4","5","2","1","2","2","1","2","1","2","1","1","0","1","1","0","1","0","1","1","1","1","0","0","0","1","4","1","4","2","1","2","1","4","3","2","3","735455183198490626","张","507","","","","","","","","","","","","","","","","","","","","","","","","","","","","","","","","","","","","","","","","","",""
"643","<p style=""color:rgb(150, 250, 100); font-size: 35px;"">他人</p>","i","categorize-html","88","239897","0.0-6.0-0.0-6.0-1.14","4","3","4","3","3","3","4","4","4","3","4","4","3","4","5","5","4","4","4","5","2","1","2","2","1","2","1","2","1","1","0","1","1","0","1","0","1","1","1","1","0","0","0","1","4","1","4","2","1","2","1","4","3","2","3","735455183198490626","张","507","","","","","","","","","","","","","","","","","","","true","3","3","ability","643","other","他人","","","","","","","","","","","","","","","","",""
"null","","null","html-keyboard-response","89","240149","0.0-6.0-0.0-6.0-0.15","4","3","4","3","3","3","4","4","4","3","4","4","3","4","5","5","4","4","4","5","2","1","2","2","1","2","1","2","1","1","0","1","1","0","1","0","1","1","1","1","0","0","0","1","4","1","4","2","1","2","1","4","3","2","3","735455183198490626","张","507","","","","","","","","","","","","","","","","","","","","","","","","","","","","","","","","","","","","","","","","","",""
"630","<p style=""color:white; font-size: 35px;"">能干</p>","e","categorize-html","90","241342","0.0-6.0-0.0-6.0-1.15","4","3","4","3","3","3","4","4","4","3","4","4","3","4","5","5","4","4","4","5","2","1","2","2","1","2","1","2","1","1","0","1","1","0","1","0","1","1","1","1","0","0","0","1","4","1","4","2","1","2","1","4","3","2","3","735455183198490626","张","507","","","","","","","","","","","","","","","","","","","false","3","3","ability","1401","positive","能干","","","","","","","","","","","","","","","","",""
"null","","null","html-keyboard-response","91","241594","0.0-6.0-0.0-6.0-0.16","4","3","4","3","3","3","4","4","4","3","4","4","3","4","5","5","4","4","4","5","2","1","2","2","1","2","1","2","1","1","0","1","1","0","1","0","1","1","1","1","0","0","0","1","4","1","4","2","1","2","1","4","3","2","3","735455183198490626","张","507","","","","","","","","","","","","","","","","","","","","","","","","","","","","","","","","","","","","","","","","","",""
"886","<p style=""color:rgb(150, 250, 100); font-size: 35px;"">本人的</p>","e","categorize-html","92","242480","0.0-6.0-0.0-6.0-1.16","4","3","4","3","3","3","4","4","4","3","4","4","3","4","5","5","4","4","4","5","2","1","2","2","1","2","1","2","1","1","0","1","1","0","1","0","1","1","1","1","0","0","0","1","4","1","4","2","1","2","1","4","3","2","3","735455183198490626","张","507","","","","","","","","","","","","","","","","","","","true","3","3","ability","886","self","本人的","","","","","","","","","","","","","","","","",""
"null","","null","html-keyboard-response","93","242731","0.0-6.0-0.0-6.0-0.17","4","3","4","3","3","3","4","4","4","3","4","4","3","4","5","5","4","4","4","5","2","1","2","2","1","2","1","2","1","1","0","1","1","0","1","0","1","1","1","1","0","0","0","1","4","1","4","2","1","2","1","4","3","2","3","735455183198490626","张","507","","","","","","","","","","","","","","","","","","","","","","","","","","","","","","","","","","","","","","","","","",""
"523","<p style=""color:white; font-size: 35px;"">天才</p>","i","categorize-html","94","243255","0.0-6.0-0.0-6.0-1.17","4","3","4","3","3","3","4","4","4","3","4","4","3","4","5","5","4","4","4","5","2","1","2","2","1","2","1","2","1","1","0","1","1","0","1","0","1","1","1","1","0","0","0","1","4","1","4","2","1","2","1","4","3","2","3","735455183198490626","张","507","","","","","","","","","","","","","","","","","","","true","3","3","ability","523","positive","天才","","","","","","","","","","","","","","","","",""
"null","","null","html-keyboard-response","95","243506","0.0-6.0-0.0-6.0-0.18","4","3","4","3","3","3","4","4","4","3","4","4","3","4","5","5","4","4","4","5","2","1","2","2","1","2","1","2","1","1","0","1","1","0","1","0","1","1","1","1","0","0","0","1","4","1","4","2","1","2","1","4","3","2","3","735455183198490626","张","507","","","","","","","","","","","","","","","","","","","","","","","","","","","","","","","","","","","","","","","","","",""
"621","<p style=""color:rgb(150, 250, 100); font-size: 35px;"">别人的</p>","i","categorize-html","96","244128","0.0-6.0-0.0-6.0-1.18","4","3","4","3","3","3","4","4","4","3","4","4","3","4","5","5","4","4","4","5","2","1","2","2","1","2","1","2","1","1","0","1","1","0","1","0","1","1","1","1","0","0","0","1","4","1","4","2","1","2","1","4","3","2","3","735455183198490626","张","507","","","","","","","","","","","","","","","","","","","true","3","3","ability","621","other","别人的","","","","","","","","","","","","","","","","",""
"null","","null","html-keyboard-response","97","244380","0.0-6.0-0.0-6.0-0.19","4","3","4","3","3","3","4","4","4","3","4","4","3","4","5","5","4","4","4","5","2","1","2","2","1","2","1","2","1","1","0","1","1","0","1","0","1","1","1","1","0","0","0","1","4","1","4","2","1","2","1","4","3","2","3","735455183198490626","张","507","","","","","","","","","","","","","","","","","","","","","","","","","","","","","","","","","","","","","","","","","",""
"553","<p style=""color:white; font-size: 35px;"">无能</p>","e","categorize-html","98","244934","0.0-6.0-0.0-6.0-1.19","4","3","4","3","3","3","4","4","4","3","4","4","3","4","5","5","4","4","4","5","2","1","2","2","1","2","1","2","1","1","0","1","1","0","1","0","1","1","1","1","0","0","0","1","4","1","4","2","1","2","1","4","3","2","3","735455183198490626","张","507","","","","","","","","","","","","","","","","","","","true","3","3","ability","553","negative","无能","","","","","","","","","","","","","","","","",""
"null","","null","html-keyboard-response","99","245185","0.0-6.0-0.0-6.0-0.20","4","3","4","3","3","3","4","4","4","3","4","4","3","4","5","5","4","4","4","5","2","1","2","2","1","2","1","2","1","1","0","1","1","0","1","0","1","1","1","1","0","0","0","1","4","1","4","2","1","2","1","4","3","2","3","735455183198490626","张","507","","","","","","","","","","","","","","","","","","","","","","","","","","","","","","","","","","","","","","","","","",""
"431","<p style=""color:rgb(150, 250, 100); font-size: 35px;"">他的</p>","i","categorize-html","100","245617","0.0-6.0-0.0-6.0-1.20","4","3","4","3","3","3","4","4","4","3","4","4","3","4","5","5","4","4","4","5","2","1","2","2","1","2","1","2","1","1","0","1","1","0","1","0","1","1","1","1","0","0","0","1","4","1","4","2","1","2","1","4","3","2","3","735455183198490626","张","507","","","","","","","","","","","","","","","","","","","true","3","3","ability","431","other","他的","","","","","","","","","","","","","","","","",""
"null","","null","html-keyboard-response","101","245870","0.0-6.0-0.0-6.0-0.21","4","3","4","3","3","3","4","4","4","3","4","4","3","4","5","5","4","4","4","5","2","1","2","2","1","2","1","2","1","1","0","1","1","0","1","0","1","1","1","1","0","0","0","1","4","1","4","2","1","2","1","4","3","2","3","735455183198490626","张","507","","","","","","","","","","","","","","","","","","","","","","","","","","","","","","","","","","","","","","","","","",""
"432","<p style=""color:white; font-size: 35px;"">全才</p>","i","categorize-html","102","246304","0.0-6.0-0.0-6.0-1.21","4","3","4","3","3","3","4","4","4","3","4","4","3","4","5","5","4","4","4","5","2","1","2","2","1","2","1","2","1","1","0","1","1","0","1","0","1","1","1","1","0","0","0","1","4","1","4","2","1","2","1","4","3","2","3","735455183198490626","张","507","","","","","","","","","","","","","","","","","","","true","3","3","ability","432","positive","全才","","","","","","","","","","","","","","","","",""
"null","","null","html-keyboard-response","103","246556","0.0-6.0-0.0-6.0-0.22","4","3","4","3","3","3","4","4","4","3","4","4","3","4","5","5","4","4","4","5","2","1","2","2","1","2","1","2","1","1","0","1","1","0","1","0","1","1","1","1","0","0","0","1","4","1","4","2","1","2","1","4","3","2","3","735455183198490626","张","507","","","","","","","","","","","","","","","","","","","","","","","","","","","","","","","","","","","","","","","","","",""
"464","<p style=""color:rgb(150, 250, 100); font-size: 35px;"">自己的</p>","i","categorize-html","104","247398","0.0-6.0-0.0-6.0-1.22","4","3","4","3","3","3","4","4","4","3","4","4","3","4","5","5","4","4","4","5","2","1","2","2","1","2","1","2","1","1","0","1","1","0","1","0","1","1","1","1","0","0","0","1","4","1","4","2","1","2","1","4","3","2","3","735455183198490626","张","507","","","","","","","","","","","","","","","","","","","false","3","3","ability","1401","self","自己的","","","","","","","","","","","","","","","","",""
"null","","null","html-keyboard-response","105","247650","0.0-6.0-0.0-6.0-0.23","4","3","4","3","3","3","4","4","4","3","4","4","3","4","5","5","4","4","4","5","2","1","2","2","1","2","1","2","1","1","0","1","1","0","1","0","1","1","1","1","0","0","0","1","4","1","4","2","1","2","1","4","3","2","3","735455183198490626","张","507","","","","","","","","","","","","","","","","","","","","","","","","","","","","","","","","","","","","","","","","","",""
"1933","<p style=""color:white; font-size: 35px;"">低能</p>","e","categorize-html","106","249584","0.0-6.0-0.0-6.0-1.23","4","3","4","3","3","3","4","4","4","3","4","4","3","4","5","5","4","4","4","5","2","1","2","2","1","2","1","2","1","1","0","1","1","0","1","0","1","1","1","1","0","0","0","1","4","1","4","2","1","2","1","4","3","2","3","735455183198490626","张","507","","","","","","","","","","","","","","","","","","","true","3","3","ability","1933","negative","低能","","","","","","","","","","","","","","","","",""
"5169","
    <div class=""tag-bottom""><p>
    —— 任务4：对“自我/消极”词和“他人/积极”词分类 ——<p/>
    <span style=""color:#78DCE8""><b>与刚才的任务完全相同，请再次对这四类词语分类</b></span><p/>
    <span style=""color:#FFD866""><b>请根据上方标签的提示，尽可能正确并且快速地做出按键反应</b></span><p/>
    当按键错误时屏幕中会出现<span style=""color:red""> X </span>，需要按另一个键纠正才能继续<br/><p/>
    请把双手食指分别放在键盘的“E”键和“I”键上<p/>
    按<空格键>开始
    </p></div>"," ","html-keyboard-response","107","254753","0.0-6.0-0.0-7.0","4","3","4","3","3","3","4","4","4","3","4","4","3","4","5","5","4","4","4","5","2","1","2","2","1","2","1","2","1","1","0","1","1","0","1","0","1","1","1","1","0","0","0","1","4","1","4","2","1","2","1","4","3","2","3","735455183198490626","张","507","","","","","","","","","","","","","","","","","","","","","","","","","","","","","","","","","","","","","","","","","",""
"null","","null","html-keyboard-response","108","255005","0.0-6.0-0.0-8.0-0.0","4","3","4","3","3","3","4","4","4","3","4","4","3","4","5","5","4","4","4","5","2","1","2","2","1","2","1","2","1","1","0","1","1","0","1","0","1","1","1","1","0","0","0","1","4","1","4","2","1","2","1","4","3","2","3","735455183198490626","张","507","","","","","","","","","","","","","","","","","","","","","","","","","","","","","","","","","","","","","","","","","",""
"798","<p style=""color:rgb(150, 250, 100); font-size: 35px;"">本人</p>","e","categorize-html","109","255804","0.0-6.0-0.0-8.0-1.0","4","3","4","3","3","3","4","4","4","3","4","4","3","4","5","5","4","4","4","5","2","1","2","2","1","2","1","2","1","1","0","1","1","0","1","0","1","1","1","1","0","0","0","1","4","1","4","2","1","2","1","4","3","2","3","735455183198490626","张","507","","","","","","","","","","","","","","","","","","","true","4","4","ability","798","self","本人","","","","","","","","","","","","","","","","",""
"null","","null","html-keyboard-response","110","256056","0.0-6.0-0.0-8.0-0.1","4","3","4","3","3","3","4","4","4","3","4","4","3","4","5","5","4","4","4","5","2","1","2","2","1","2","1","2","1","1","0","1","1","0","1","0","1","1","1","1","0","0","0","1","4","1","4","2","1","2","1","4","3","2","3","735455183198490626","张","507","","","","","","","","","","","","","","","","","","","","","","","","","","","","","","","","","","","","","","","","","",""
"531","<p style=""color:white; font-size: 35px;"">拙笨</p>","e","categorize-html","111","256588","0.0-6.0-0.0-8.0-1.1","4","3","4","3","3","3","4","4","4","3","4","4","3","4","5","5","4","4","4","5","2","1","2","2","1","2","1","2","1","1","0","1","1","0","1","0","1","1","1","1","0","0","0","1","4","1","4","2","1","2","1","4","3","2","3","735455183198490626","张","507","","","","","","","","","","","","","","","","","","","true","4","4","ability","531","negative","拙笨","","","","","","","","","","","","","","","","",""
"null","","null","html-keyboard-response","112","256841","0.0-6.0-0.0-8.0-0.2","4","3","4","3","3","3","4","4","4","3","4","4","3","4","5","5","4","4","4","5","2","1","2","2","1","2","1","2","1","1","0","1","1","0","1","0","1","1","1","1","0","0","0","1","4","1","4","2","1","2","1","4","3","2","3","735455183198490626","张","507","","","","","","","","","","","","","","","","","","","","","","","","","","","","","","","","","","","","","","","","","",""
"673","<p style=""color:rgb(150, 250, 100); font-size: 35px;"">他</p>","i","categorize-html","113","257515","0.0-6.0-0.0-8.0-1.2","4","3","4","3","3","3","4","4","4","3","4","4","3","4","5","5","4","4","4","5","2","1","2","2","1","2","1","2","1","1","0","1","1","0","1","0","1","1","1","1","0","0","0","1","4","1","4","2","1","2","1","4","3","2","3","735455183198490626","张","507","","","","","","","","","","","","","","","","","","","true","4","4","ability","673","other","他","","","","","","","","","","","","","","","","",""
"null","","null","html-keyboard-response","114","257768","0.0-6.0-0.0-8.0-0.3","4","3","4","3","3","3","4","4","4","3","4","4","3","4","5","5","4","4","4","5","2","1","2","2","1","2","1","2","1","1","0","1","1","0","1","0","1","1","1","1","0","0","0","1","4","1","4","2","1","2","1","4","3","2","3","735455183198490626","张","507","","","","","","","","","","","","","","","","","","","","","","","","","","","","","","","","","","","","","","","","","",""
"531","<p style=""color:white; font-size: 35px;"">天才</p>","i","categorize-html","115","258300","0.0-6.0-0.0-8.0-1.3","4","3","4","3","3","3","4","4","4","3","4","4","3","4","5","5","4","4","4","5","2","1","2","2","1","2","1","2","1","1","0","1","1","0","1","0","1","1","1","1","0","0","0","1","4","1","4","2","1","2","1","4","3","2","3","735455183198490626","张","507","","","","","","","","","","","","","","","","","","","true","4","4","ability","531","positive","天才","","","","","","","","","","","","","","","","",""
"null","","null","html-keyboard-response","116","258551","0.0-6.0-0.0-8.0-0.4","4","3","4","3","3","3","4","4","4","3","4","4","3","4","5","5","4","4","4","5","2","1","2","2","1","2","1","2","1","1","0","1","1","0","1","0","1","1","1","1","0","0","0","1","4","1","4","2","1","2","1","4","3","2","3","735455183198490626","张","507","","","","","","","","","","","","","","","","","","","","","","","","","","","","","","","","","","","","","","","","","",""
"918","<p style=""color:rgb(150, 250, 100); font-size: 35px;"">他的</p>","i","categorize-html","117","259471","0.0-6.0-0.0-8.0-1.4","4","3","4","3","3","3","4","4","4","3","4","4","3","4","5","5","4","4","4","5","2","1","2","2","1","2","1","2","1","1","0","1","1","0","1","0","1","1","1","1","0","0","0","1","4","1","4","2","1","2","1","4","3","2","3","735455183198490626","张","507","","","","","","","","","","","","","","","","","","","true","4","4","ability","918","other","他的","","","","","","","","","","","","","","","","",""
"null","","null","html-keyboard-response","118","259722","0.0-6.0-0.0-8.0-0.5","4","3","4","3","3","3","4","4","4","3","4","4","3","4","5","5","4","4","4","5","2","1","2","2","1","2","1","2","1","1","0","1","1","0","1","0","1","1","1","1","0","0","0","1","4","1","4","2","1","2","1","4","3","2","3","735455183198490626","张","507","","","","","","","","","","","","","","","","","","","","","","","","","","","","","","","","","","","","","","","","","",""
"677","<p style=""color:white; font-size: 35px;"">无能</p>","e","categorize-html","119","260401","0.0-6.0-0.0-8.0-1.5","4","3","4","3","3","3","4","4","4","3","4","4","3","4","5","5","4","4","4","5","2","1","2","2","1","2","1","2","1","1","0","1","1","0","1","0","1","1","1","1","0","0","0","1","4","1","4","2","1","2","1","4","3","2","3","735455183198490626","张","507","","","","","","","","","","","","","","","","","","","true","4","4","ability","677","negative","无能","","","","","","","","","","","","","","","","",""
"null","","null","html-keyboard-response","120","260652","0.0-6.0-0.0-8.0-0.6","4","3","4","3","3","3","4","4","4","3","4","4","3","4","5","5","4","4","4","5","2","1","2","2","1","2","1","2","1","1","0","1","1","0","1","0","1","1","1","1","0","0","0","1","4","1","4","2","1","2","1","4","3","2","3","735455183198490626","张","507","","","","","","","","","","","","","","","","","","","","","","","","","","","","","","","","","","","","","","","","","",""
"442","<p style=""color:rgb(150, 250, 100); font-size: 35px;"">自己的</p>","i","categorize-html","121","261491","0.0-6.0-0.0-8.0-1.6","4","3","4","3","3","3","4","4","4","3","4","4","3","4","5","5","4","4","4","5","2","1","2","2","1","2","1","2","1","1","0","1","1","0","1","0","1","1","1","1","0","0","0","1","4","1","4","2","1","2","1","4","3","2","3","735455183198490626","张","507","","","","","","","","","","","","","","","","","","","false","4","4","ability","1410.7045454545455","self","自己的","","","","","","","","","","","","","","","","",""
"null","","null","html-keyboard-response","122","261743","0.0-6.0-0.0-8.0-0.7","4","3","4","3","3","3","4","4","4","3","4","4","3","4","5","5","4","4","4","5","2","1","2","2","1","2","1","2","1","1","0","1","1","0","1","0","1","1","1","1","0","0","0","1","4","1","4","2","1","2","1","4","3","2","3","735455183198490626","张","507","","","","","","","","","","","","","","","","","","","","","","","","","","","","","","","","","","","","","","","","","",""
"820","<p style=""color:white; font-size: 35px;"">高效</p>","i","categorize-html","123","262564","0.0-6.0-0.0-8.0-1.7","4","3","4","3","3","3","4","4","4","3","4","4","3","4","5","5","4","4","4","5","2","1","2","2","1","2","1","2","1","1","0","1","1","0","1","0","1","1","1","1","0","0","0","1","4","1","4","2","1","2","1","4","3","2","3","735455183198490626","张","507","","","","","","","","","","","","","","","","","","","true","4","4","ability","820","positive","高效","","","","","","","","","","","","","","","","",""
"null","","null","html-keyboard-response","124","262818","0.0-6.0-0.0-8.0-0.8","4","3","4","3","3","3","4","4","4","3","4","4","3","4","5","5","4","4","4","5","2","1","2","2","1","2","1","2","1","1","0","1","1","0","1","0","1","1","1","1","0","0","0","1","4","1","4","2","1","2","1","4","3","2","3","735455183198490626","张","507","","","","","","","","","","","","","","","","","","","","","","","","","","","","","","","","","","","","","","","","","",""
"616","<p style=""color:rgb(150, 250, 100); font-size: 35px;"">他人</p>","i","categorize-html","125","263434","0.0-6.0-0.0-8.0-1.8","4","3","4","3","3","3","4","4","4","3","4","4","3","4","5","5","4","4","4","5","2","1","2","2","1","2","1","2","1","1","0","1","1","0","1","0","1","1","1","1","0","0","0","1","4","1","4","2","1","2","1","4","3","2","3","735455183198490626","张","507","","","","","","","","","","","","","","","","","","","true","4","4","ability","616","other","他人","","","","","","","","","","","","","","","","",""
"null","","null","html-keyboard-response","126","263686","0.0-6.0-0.0-8.0-0.9","4","3","4","3","3","3","4","4","4","3","4","4","3","4","5","5","4","4","4","5","2","1","2","2","1","2","1","2","1","1","0","1","1","0","1","0","1","1","1","1","0","0","0","1","4","1","4","2","1","2","1","4","3","2","3","735455183198490626","张","507","","","","","","","","","","","","","","","","","","","","","","","","","","","","","","","","","","","","","","","","","",""
"556","<p style=""color:white; font-size: 35px;"">精干</p>","i","categorize-html","127","264243","0.0-6.0-0.0-8.0-1.9","4","3","4","3","3","3","4","4","4","3","4","4","3","4","5","5","4","4","4","5","2","1","2","2","1","2","1","2","1","1","0","1","1","0","1","0","1","1","1","1","0","0","0","1","4","1","4","2","1","2","1","4","3","2","3","735455183198490626","张","507","","","","","","","","","","","","","","","","","","","true","4","4","ability","556","positive","精干","","","","","","","","","","","","","","","","",""
"null","","null","html-keyboard-response","128","264494","0.0-6.0-0.0-8.0-0.10","4","3","4","3","3","3","4","4","4","3","4","4","3","4","5","5","4","4","4","5","2","1","2","2","1","2","1","2","1","1","0","1","1","0","1","0","1","1","1","1","0","0","0","1","4","1","4","2","1","2","1","4","3","2","3","735455183198490626","张","507","","","","","","","","","","","","","","","","","","","","","","","","","","","","","","","","","","","","","","","","","",""
"489","<p style=""color:rgb(150, 250, 100); font-size: 35px;"">本人的</p>","i","categorize-html","129","265324","0.0-6.0-0.0-8.0-1.10","4","3","4","3","3","3","4","4","4","3","4","4","3","4","5","5","4","4","4","5","2","1","2","2","1","2","1","2","1","1","0","1","1","0","1","0","1","1","1","1","0","0","0","1","4","1","4","2","1","2","1","4","3","2","3","735455183198490626","张","507","","","","","","","","","","","","","","","","","","","false","4","4","ability","1410.7045454545455","self","本人的","","","","","","","","","","","","","","","","",""
"null","","null","html-keyboard-response","130","265575","0.0-6.0-0.0-8.0-0.11","4","3","4","3","3","3","4","4","4","3","4","4","3","4","5","5","4","4","4","5","2","1","2","2","1","2","1","2","1","1","0","1","1","0","1","0","1","1","1","1","0","0","0","1","4","1","4","2","1","2","1","4","3","2","3","735455183198490626","张","507","","","","","","","","","","","","","","","","","","","","","","","","","","","","","","","","","","","","","","","","","",""
"876","<p style=""color:white; font-size: 35px;"">蠢笨</p>","e","categorize-html","131","266452","0.0-6.0-0.0-8.0-1.11","4","3","4","3","3","3","4","4","4","3","4","4","3","4","5","5","4","4","4","5","2","1","2","2","1","2","1","2","1","1","0","1","1","0","1","0","1","1","1","1","0","0","0","1","4","1","4","2","1","2","1","4","3","2","3","735455183198490626","张","507","","","","","","","","","","","","","","","","","","","true","4","4","ability","876","negative","蠢笨","","","","","","","","","","","","","","","","",""
"null","","null","html-keyboard-response","132","266704","0.0-6.0-0.0-8.0-0.12","4","3","4","3","3","3","4","4","4","3","4","4","3","4","5","5","4","4","4","5","2","1","2","2","1","2","1","2","1","1","0","1","1","0","1","0","1","1","1","1","0","0","0","1","4","1","4","2","1","2","1","4","3","2","3","735455183198490626","张","507","","","","","","","","","","","","","","","","","","","","","","","","","","","","","","","","","","","","","","","","","",""
"697","<p style=""color:rgb(150, 250, 100); font-size: 35px;"">本人的</p>","e","categorize-html","133","267402","0.0-6.0-0.0-8.0-1.12","4","3","4","3","3","3","4","4","4","3","4","4","3","4","5","5","4","4","4","5","2","1","2","2","1","2","1","2","1","1","0","1","1","0","1","0","1","1","1","1","0","0","0","1","4","1","4","2","1","2","1","4","3","2","3","735455183198490626","张","507","","","","","","","","","","","","","","","","","","","true","4","4","ability","697","self","本人的","","","","","","","","","","","","","","","","",""
"null","","null","html-keyboard-response","134","267653","0.0-6.0-0.0-8.0-0.13","4","3","4","3","3","3","4","4","4","3","4","4","3","4","5","5","4","4","4","5","2","1","2","2","1","2","1","2","1","1","0","1","1","0","1","0","1","1","1","1","0","0","0","1","4","1","4","2","1","2","1","4","3","2","3","735455183198490626","张","507","","","","","","","","","","","","","","","","","","","","","","","","","","","","","","","","","","","","","","","","","",""
"664","<p style=""color:white; font-size: 35px;"">能干</p>","i","categorize-html","135","268318","0.0-6.0-0.0-8.0-1.13","4","3","4","3","3","3","4","4","4","3","4","4","3","4","5","5","4","4","4","5","2","1","2","2","1","2","1","2","1","1","0","1","1","0","1","0","1","1","1","1","0","0","0","1","4","1","4","2","1","2","1","4","3","2","3","735455183198490626","张","507","","","","","","","","","","","","","","","","","","","true","4","4","ability","664","positive","能干","","","","","","","","","","","","","","","","",""
"null","","null","html-keyboard-response","136","268571","0.0-6.0-0.0-8.0-0.14","4","3","4","3","3","3","4","4","4","3","4","4","3","4","5","5","4","4","4","5","2","1","2","2","1","2","1","2","1","1","0","1","1","0","1","0","1","1","1","1","0","0","0","1","4","1","4","2","1","2","1","4","3","2","3","735455183198490626","张","507","","","","","","","","","","","","","","","","","","","","","","","","","","","","","","","","","","","","","","","","","",""
"641","<p style=""color:rgb(150, 250, 100); font-size: 35px;"">他人</p>","i","categorize-html","137","269213","0.0-6.0-0.0-8.0-1.14","4","3","4","3","3","3","4","4","4","3","4","4","3","4","5","5","4","4","4","5","2","1","2","2","1","2","1","2","1","1","0","1","1","0","1","0","1","1","1","1","0","0","0","1","4","1","4","2","1","2","1","4","3","2","3","735455183198490626","张","507","","","","","","","","","","","","","","","","","","","true","4","4","ability","641","other","他人","","","","","","","","","","","","","","","","",""
"null","","null","html-keyboard-response","138","269464","0.0-6.0-0.0-8.0-0.15","4","3","4","3","3","3","4","4","4","3","4","4","3","4","5","5","4","4","4","5","2","1","2","2","1","2","1","2","1","1","0","1","1","0","1","0","1","1","1","1","0","0","0","1","4","1","4","2","1","2","1","4","3","2","3","735455183198490626","张","507","","","","","","","","","","","","","","","","","","","","","","","","","","","","","","","","","","","","","","","","","",""
"577","<p style=""color:white; font-size: 35px;"">拙笨</p>","e","categorize-html","139","270042","0.0-6.0-0.0-8.0-1.15","4","3","4","3","3","3","4","4","4","3","4","4","3","4","5","5","4","4","4","5","2","1","2","2","1","2","1","2","1","1","0","1","1","0","1","0","1","1","1","1","0","0","0","1","4","1","4","2","1","2","1","4","3","2","3","735455183198490626","张","507","","","","","","","","","","","","","","","","","","","true","4","4","ability","577","negative","拙笨","","","","","","","","","","","","","","","","",""
"null","","null","html-keyboard-response","140","270292","0.0-6.0-0.0-8.0-0.16","4","3","4","3","3","3","4","4","4","3","4","4","3","4","5","5","4","4","4","5","2","1","2","2","1","2","1","2","1","1","0","1","1","0","1","0","1","1","1","1","0","0","0","1","4","1","4","2","1","2","1","4","3","2","3","735455183198490626","张","507","","","","","","","","","","","","","","","","","","","","","","","","","","","","","","","","","","","","","","","","","",""
"687","<p style=""color:rgb(150, 250, 100); font-size: 35px;"">他的</p>","i","categorize-html","141","270981","0.0-6.0-0.0-8.0-1.16","4","3","4","3","3","3","4","4","4","3","4","4","3","4","5","5","4","4","4","5","2","1","2","2","1","2","1","2","1","1","0","1","1","0","1","0","1","1","1","1","0","0","0","1","4","1","4","2","1","2","1","4","3","2","3","735455183198490626","张","507","","","","","","","","","","","","","","","","","","","true","4","4","ability","687","other","他的","","","","","","","","","","","","","","","","",""
"null","","null","html-keyboard-response","142","271232","0.0-6.0-0.0-8.0-0.17","4","3","4","3","3","3","4","4","4","3","4","4","3","4","5","5","4","4","4","5","2","1","2","2","1","2","1","2","1","1","0","1","1","0","1","0","1","1","1","1","0","0","0","1","4","1","4","2","1","2","1","4","3","2","3","735455183198490626","张","507","","","","","","","","","","","","","","","","","","","","","","","","","","","","","","","","","","","","","","","","","",""
"654","<p style=""color:white; font-size: 35px;"">高效</p>","i","categorize-html","143","271887","0.0-6.0-0.0-8.0-1.17","4","3","4","3","3","3","4","4","4","3","4","4","3","4","5","5","4","4","4","5","2","1","2","2","1","2","1","2","1","1","0","1","1","0","1","0","1","1","1","1","0","0","0","1","4","1","4","2","1","2","1","4","3","2","3","735455183198490626","张","507","","","","","","","","","","","","","","","","","","","true","4","4","ability","654","positive","高效","","","","","","","","","","","","","","","","",""
"null","","null","html-keyboard-response","144","272138","0.0-6.0-0.0-8.0-0.18","4","3","4","3","3","3","4","4","4","3","4","4","3","4","5","5","4","4","4","5","2","1","2","2","1","2","1","2","1","1","0","1","1","0","1","0","1","1","1","1","0","0","0","1","4","1","4","2","1","2","1","4","3","2","3","735455183198490626","张","507","","","","","","","","","","","","","","","","","","","","","","","","","","","","","","","","","","","","","","","","","",""
"687","<p style=""color:rgb(150, 250, 100); font-size: 35px;"">本人</p>","e","categorize-html","145","272826","0.0-6.0-0.0-8.0-1.18","4","3","4","3","3","3","4","4","4","3","4","4","3","4","5","5","4","4","4","5","2","1","2","2","1","2","1","2","1","1","0","1","1","0","1","0","1","1","1","1","0","0","0","1","4","1","4","2","1","2","1","4","3","2","3","735455183198490626","张","507","","","","","","","","","","","","","","","","","","","true","4","4","ability","687","self","本人","","","","","","","","","","","","","","","","",""
"null","","null","html-keyboard-response","146","273079","0.0-6.0-0.0-8.0-0.19","4","3","4","3","3","3","4","4","4","3","4","4","3","4","5","5","4","4","4","5","2","1","2","2","1","2","1","2","1","1","0","1","1","0","1","0","1","1","1","1","0","0","0","1","4","1","4","2","1","2","1","4","3","2","3","735455183198490626","张","507","","","","","","","","","","","","","","","","","","","","","","","","","","","","","","","","","","","","","","","","","",""
"473","<p style=""color:white; font-size: 35px;"">无能</p>","e","categorize-html","147","273553","0.0-6.0-0.0-8.0-1.19","4","3","4","3","3","3","4","4","4","3","4","4","3","4","5","5","4","4","4","5","2","1","2","2","1","2","1","2","1","1","0","1","1","0","1","0","1","1","1","1","0","0","0","1","4","1","4","2","1","2","1","4","3","2","3","735455183198490626","张","507","","","","","","","","","","","","","","","","","","","true","4","4","ability","473","negative","无能","","","","","","","","","","","","","","","","",""
"null","","null","html-keyboard-response","148","273806","0.0-6.0-0.0-8.0-0.20","4","3","4","3","3","3","4","4","4","3","4","4","3","4","5","5","4","4","4","5","2","1","2","2","1","2","1","2","1","1","0","1","1","0","1","0","1","1","1","1","0","0","0","1","4","1","4","2","1","2","1","4","3","2","3","735455183198490626","张","507","","","","","","","","","","","","","","","","","","","","","","","","","","","","","","","","","","","","","","","","","",""
"630","<p style=""color:rgb(150, 250, 100); font-size: 35px;"">别人的</p>","i","categorize-html","149","274437","0.0-6.0-0.0-8.0-1.20","4","3","4","3","3","3","4","4","4","3","4","4","3","4","5","5","4","4","4","5","2","1","2","2","1","2","1","2","1","1","0","1","1","0","1","0","1","1","1","1","0","0","0","1","4","1","4","2","1","2","1","4","3","2","3","735455183198490626","张","507","","","","","","","","","","","","","","","","","","","true","4","4","ability","630","other","别人的","","","","","","","","","","","","","","","","",""
"null","","null","html-keyboard-response","150","274688","0.0-6.0-0.0-8.0-0.21","4","3","4","3","3","3","4","4","4","3","4","4","3","4","5","5","4","4","4","5","2","1","2","2","1","2","1","2","1","1","0","1","1","0","1","0","1","1","1","1","0","0","0","1","4","1","4","2","1","2","1","4","3","2","3","735455183198490626","张","507","","","","","","","","","","","","","","","","","","","","","","","","","","","","","","","","","","","","","","","","","",""
"841","<p style=""color:white; font-size: 35px;"">能干</p>","e","categorize-html","151","275906","0.0-6.0-0.0-8.0-1.21","4","3","4","3","3","3","4","4","4","3","4","4","3","4","5","5","4","4","4","5","2","1","2","2","1","2","1","2","1","1","0","1","1","0","1","0","1","1","1","1","0","0","0","1","4","1","4","2","1","2","1","4","3","2","3","735455183198490626","张","507","","","","","","","","","","","","","","","","","","","false","4","4","ability","1410.7045454545455","positive","能干","","","","","","","","","","","","","","","","",""
"null","","null","html-keyboard-response","152","276159","0.0-6.0-0.0-8.0-0.22","4","3","4","3","3","3","4","4","4","3","4","4","3","4","5","5","4","4","4","5","2","1","2","2","1","2","1","2","1","1","0","1","1","0","1","0","1","1","1","1","0","0","0","1","4","1","4","2","1","2","1","4","3","2","3","735455183198490626","张","507","","","","","","","","","","","","","","","","","","","","","","","","","","","","","","","","","","","","","","","","","",""
"1062","<p style=""color:rgb(150, 250, 100); font-size: 35px;"">我的</p>","e","categorize-html","153","277221","0.0-6.0-0.0-8.0-1.22","4","3","4","3","3","3","4","4","4","3","4","4","3","4","5","5","4","4","4","5","2","1","2","2","1","2","1","2","1","1","0","1","1","0","1","0","1","1","1","1","0","0","0","1","4","1","4","2","1","2","1","4","3","2","3","735455183198490626","张","507","","","","","","","","","","","","","","","","","","","true","4","4","ability","1062","self","我的","","","","","","","","","","","","","","","","",""
"null","","null","html-keyboard-response","154","277473","0.0-6.0-0.0-8.0-0.23","4","3","4","3","3","3","4","4","4","3","4","4","3","4","5","5","4","4","4","5","2","1","2","2","1","2","1","2","1","1","0","1","1","0","1","0","1","1","1","1","0","0","0","1","4","1","4","2","1","2","1","4","3","2","3","735455183198490626","张","507","","","","","","","","","","","","","","","","","","","","","","","","","","","","","","","","","","","","","","","","","",""
"1715","<p style=""color:white; font-size: 35px;"">低能</p>","e","categorize-html","155","279188","0.0-6.0-0.0-8.0-1.23","4","3","4","3","3","3","4","4","4","3","4","4","3","4","5","5","4","4","4","5","2","1","2","2","1","2","1","2","1","1","0","1","1","0","1","0","1","1","1","1","0","0","0","1","4","1","4","2","1","2","1","4","3","2","3","735455183198490626","张","507","","","","","","","","","","","","","","","","","","","true","4","4","ability","1715","negative","低能","","","","","","","","","","","","","","","","",""
"null","","null","html-keyboard-response","156","279439","0.0-6.0-0.0-8.0-0.24","4","3","4","3","3","3","4","4","4","3","4","4","3","4","5","5","4","4","4","5","2","1","2","2","1","2","1","2","1","1","0","1","1","0","1","0","1","1","1","1","0","0","0","1","4","1","4","2","1","2","1","4","3","2","3","735455183198490626","张","507","","","","","","","","","","","","","","","","","","","","","","","","","","","","","","","","","","","","","","","","","",""
"698","<p style=""color:rgb(150, 250, 100); font-size: 35px;"">他人的</p>","i","categorize-html","157","280137","0.0-6.0-0.0-8.0-1.24","4","3","4","3","3","3","4","4","4","3","4","4","3","4","5","5","4","4","4","5","2","1","2","2","1","2","1","2","1","1","0","1","1","0","1","0","1","1","1","1","0","0","0","1","4","1","4","2","1","2","1","4","3","2","3","735455183198490626","张","507","","","","","","","","","","","","","","","","","","","true","4","4","ability","698","other","他人的","","","","","","","","","","","","","","","","",""
"null","","null","html-keyboard-response","158","280390","0.0-6.0-0.0-8.0-0.25","4","3","4","3","3","3","4","4","4","3","4","4","3","4","5","5","4","4","4","5","2","1","2","2","1","2","1","2","1","1","0","1","1","0","1","0","1","1","1","1","0","0","0","1","4","1","4","2","1","2","1","4","3","2","3","735455183198490626","张","507","","","","","","","","","","","","","","","","","","","","","","","","","","","","","","","","","","","","","","","","","",""
"642","<p style=""color:white; font-size: 35px;"">全才</p>","i","categorize-html","159","281034","0.0-6.0-0.0-8.0-1.25","4","3","4","3","3","3","4","4","4","3","4","4","3","4","5","5","4","4","4","5","2","1","2","2","1","2","1","2","1","1","0","1","1","0","1","0","1","1","1","1","0","0","0","1","4","1","4","2","1","2","1","4","3","2","3","735455183198490626","张","507","","","","","","","","","","","","","","","","","","","true","4","4","ability","642","positive","全才","","","","","","","","","","","","","","","","",""
"null","","null","html-keyboard-response","160","281284","0.0-6.0-0.0-8.0-0.26","4","3","4","3","3","3","4","4","4","3","4","4","3","4","5","5","4","4","4","5","2","1","2","2","1","2","1","2","1","1","0","1","1","0","1","0","1","1","1","1","0","0","0","1","4","1","4","2","1","2","1","4","3","2","3","735455183198490626","张","507","","","","","","","","","","","","","","","","","","","","","","","","","","","","","","","","","","","","","","","","","",""
"763","<p style=""color:rgb(150, 250, 100); font-size: 35px;"">自己的</p>","e","categorize-html","161","282049","0.0-6.0-0.0-8.0-1.26","4","3","4","3","3","3","4","4","4","3","4","4","3","4","5","5","4","4","4","5","2","1","2","2","1","2","1","2","1","1","0","1","1","0","1","0","1","1","1","1","0","0","0","1","4","1","4","2","1","2","1","4","3","2","3","735455183198490626","张","507","","","","","","","","","","","","","","","","","","","true","4","4","ability","763","self","自己的","","","","","","","","","","","","","","","","",""
"null","","null","html-keyboard-response","162","282301","0.0-6.0-0.0-8.0-0.27","4","3","4","3","3","3","4","4","4","3","4","4","3","4","5","5","4","4","4","5","2","1","2","2","1","2","1","2","1","1","0","1","1","0","1","0","1","1","1","1","0","0","0","1","4","1","4","2","1","2","1","4","3","2","3","735455183198490626","张","507","","","","","","","","","","","","","","","","","","","","","","","","","","","","","","","","","","","","","","","","","",""
"663","<p style=""color:white; font-size: 35px;"">愚钝</p>","e","categorize-html","163","282965","0.0-6.0-0.0-8.0-1.27","4","3","4","3","3","3","4","4","4","3","4","4","3","4","5","5","4","4","4","5","2","1","2","2","1","2","1","2","1","1","0","1","1","0","1","0","1","1","1","1","0","0","0","1","4","1","4","2","1","2","1","4","3","2","3","735455183198490626","张","507","","","","","","","","","","","","","","","","","","","true","4","4","ability","663","negative","愚钝","","","","","","","","","","","","","","","","",""
"null","","null","html-keyboard-response","164","283216","0.0-6.0-0.0-8.0-0.28","4","3","4","3","3","3","4","4","4","3","4","4","3","4","5","5","4","4","4","5","2","1","2","2","1","2","1","2","1","1","0","1","1","0","1","0","1","1","1","1","0","0","0","1","4","1","4","2","1","2","1","4","3","2","3","735455183198490626","张","507","","","","","","","","","","","","","","","","","","","","","","","","","","","","","","","","","","","","","","","","","",""
"674","<p style=""color:rgb(150, 250, 100); font-size: 35px;"">他</p>","i","categorize-html","165","283891","0.0-6.0-0.0-8.0-1.28","4","3","4","3","3","3","4","4","4","3","4","4","3","4","5","5","4","4","4","5","2","1","2","2","1","2","1","2","1","1","0","1","1","0","1","0","1","1","1","1","0","0","0","1","4","1","4","2","1","2","1","4","3","2","3","735455183198490626","张","507","","","","","","","","","","","","","","","","","","","true","4","4","ability","674","other","他","","","","","","","","","","","","","","","","",""
"null","","null","html-keyboard-response","166","284144","0.0-6.0-0.0-8.0-0.29","4","3","4","3","3","3","4","4","4","3","4","4","3","4","5","5","4","4","4","5","2","1","2","2","1","2","1","2","1","1","0","1","1","0","1","0","1","1","1","1","0","0","0","1","4","1","4","2","1","2","1","4","3","2","3","735455183198490626","张","507","","","","","","","","","","","","","","","","","","","","","","","","","","","","","","","","","","","","","","","","","",""
"532","<p style=""color:white; font-size: 35px;"">蠢笨</p>","e","categorize-html","167","284678","0.0-6.0-0.0-8.0-1.29","4","3","4","3","3","3","4","4","4","3","4","4","3","4","5","5","4","4","4","5","2","1","2","2","1","2","1","2","1","1","0","1","1","0","1","0","1","1","1","1","0","0","0","1","4","1","4","2","1","2","1","4","3","2","3","735455183198490626","张","507","","","","","","","","","","","","","","","","","","","true","4","4","ability","532","negative","蠢笨","","","","","","","","","","","","","","","","",""
"null","","null","html-keyboard-response","168","284929","0.0-6.0-0.0-8.0-0.30","4","3","4","3","3","3","4","4","4","3","4","4","3","4","5","5","4","4","4","5","2","1","2","2","1","2","1","2","1","1","0","1","1","0","1","0","1","1","1","1","0","0","0","1","4","1","4","2","1","2","1","4","3","2","3","735455183198490626","张","507","","","","","","","","","","","","","","","","","","","","","","","","","","","","","","","","","","","","","","","","","",""
"985","<p style=""color:rgb(150, 250, 100); font-size: 35px;"">我的</p>","e","categorize-html","169","285915","0.0-6.0-0.0-8.0-1.30","4","3","4","3","3","3","4","4","4","3","4","4","3","4","5","5","4","4","4","5","2","1","2","2","1","2","1","2","1","1","0","1","1","0","1","0","1","1","1","1","0","0","0","1","4","1","4","2","1","2","1","4","3","2","3","735455183198490626","张","507","","","","","","","","","","","","","","","","","","","true","4","4","ability","985","self","我的","","","","","","","","","","","","","","","","",""
"null","","null","html-keyboard-response","170","286166","0.0-6.0-0.0-8.0-0.31","4","3","4","3","3","3","4","4","4","3","4","4","3","4","5","5","4","4","4","5","2","1","2","2","1","2","1","2","1","1","0","1","1","0","1","0","1","1","1","1","0","0","0","1","4","1","4","2","1","2","1","4","3","2","3","735455183198490626","张","507","","","","","","","","","","","","","","","","","","","","","","","","","","","","","","","","","","","","","","","","","",""
"829","<p style=""color:white; font-size: 35px;"">精干</p>","i","categorize-html","171","286997","0.0-6.0-0.0-8.0-1.31","4","3","4","3","3","3","4","4","4","3","4","4","3","4","5","5","4","4","4","5","2","1","2","2","1","2","1","2","1","1","0","1","1","0","1","0","1","1","1","1","0","0","0","1","4","1","4","2","1","2","1","4","3","2","3","735455183198490626","张","507","","","","","","","","","","","","","","","","","","","true","4","4","ability","829","positive","精干","","","","","","","","","","","","","","","","",""
"null","","null","html-keyboard-response","172","287248","0.0-6.0-0.0-8.0-0.32","4","3","4","3","3","3","4","4","4","3","4","4","3","4","5","5","4","4","4","5","2","1","2","2","1","2","1","2","1","1","0","1","1","0","1","0","1","1","1","1","0","0","0","1","4","1","4","2","1","2","1","4","3","2","3","735455183198490626","张","507","","","","","","","","","","","","","","","","","","","","","","","","","","","","","","","","","","","","","","","","","",""
"489","<p style=""color:rgb(150, 250, 100); font-size: 35px;"">我</p>","i","categorize-html","173","288080","0.0-6.0-0.0-8.0-1.32","4","3","4","3","3","3","4","4","4","3","4","4","3","4","5","5","4","4","4","5","2","1","2","2","1","2","1","2","1","1","0","1","1","0","1","0","1","1","1","1","0","0","0","1","4","1","4","2","1","2","1","4","3","2","3","735455183198490626","张","507","","","","","","","","","","","","","","","","","","","false","4","4","ability","1410.7045454545455","self","我","","","","","","","","","","","","","","","","",""
"null","","null","html-keyboard-response","174","288337","0.0-6.0-0.0-8.0-0.33","4","3","4","3","3","3","4","4","4","3","4","4","3","4","5","5","4","4","4","5","2","1","2","2","1","2","1","2","1","1","0","1","1","0","1","0","1","1","1","1","0","0","0","1","4","1","4","2","1","2","1","4","3","2","3","735455183198490626","张","507","","","","","","","","","","","","","","","","","","","","","","","","","","","","","","","","","","","","","","","","","",""
"979","<p style=""color:white; font-size: 35px;"">愚钝</p>","e","categorize-html","175","289318","0.0-6.0-0.0-8.0-1.33","4","3","4","3","3","3","4","4","4","3","4","4","3","4","5","5","4","4","4","5","2","1","2","2","1","2","1","2","1","1","0","1","1","0","1","0","1","1","1","1","0","0","0","1","4","1","4","2","1","2","1","4","3","2","3","735455183198490626","张","507","","","","","","","","","","","","","","","","","","","true","4","4","ability","979","negative","愚钝","","","","","","","","","","","","","","","","",""
"null","","null","html-keyboard-response","176","289571","0.0-6.0-0.0-8.0-0.34","4","3","4","3","3","3","4","4","4","3","4","4","3","4","5","5","4","4","4","5","2","1","2","2","1","2","1","2","1","1","0","1","1","0","1","0","1","1","1","1","0","0","0","1","4","1","4","2","1","2","1","4","3","2","3","735455183198490626","张","507","","","","","","","","","","","","","","","","","","","","","","","","","","","","","","","","","","","","","","","","","",""
"793","<p style=""color:rgb(150, 250, 100); font-size: 35px;"">别人</p>","i","categorize-html","177","290365","0.0-6.0-0.0-8.0-1.34","4","3","4","3","3","3","4","4","4","3","4","4","3","4","5","5","4","4","4","5","2","1","2","2","1","2","1","2","1","1","0","1","1","0","1","0","1","1","1","1","0","0","0","1","4","1","4","2","1","2","1","4","3","2","3","735455183198490626","张","507","","","","","","","","","","","","","","","","","","","true","4","4","ability","793","other","别人","","","","","","","","","","","","","","","","",""
"null","","null","html-keyboard-response","178","290616","0.0-6.0-0.0-8.0-0.35","4","3","4","3","3","3","4","4","4","3","4","4","3","4","5","5","4","4","4","5","2","1","2","2","1","2","1","2","1","1","0","1","1","0","1","0","1","1","1","1","0","0","0","1","4","1","4","2","1","2","1","4","3","2","3","735455183198490626","张","507","","","","","","","","","","","","","","","","","","","","","","","","","","","","","","","","","","","","","","","","","",""
"975","<p style=""color:white; font-size: 35px;"">全能</p>","i","categorize-html","179","291593","0.0-6.0-0.0-8.0-1.35","4","3","4","3","3","3","4","4","4","3","4","4","3","4","5","5","4","4","4","5","2","1","2","2","1","2","1","2","1","1","0","1","1","0","1","0","1","1","1","1","0","0","0","1","4","1","4","2","1","2","1","4","3","2","3","735455183198490626","张","507","","","","","","","","","","","","","","","","","","","true","4","4","ability","975","positive","全能","","","","","","","","","","","","","","","","",""
"null","","null","html-keyboard-response","180","291844","0.0-6.0-0.0-8.0-0.36","4","3","4","3","3","3","4","4","4","3","4","4","3","4","5","5","4","4","4","5","2","1","2","2","1","2","1","2","1","1","0","1","1","0","1","0","1","1","1","1","0","0","0","1","4","1","4","2","1","2","1","4","3","2","3","735455183198490626","张","507","","","","","","","","","","","","","","","","","","","","","","","","","","","","","","","","","","","","","","","","","",""
"796","<p style=""color:rgb(150, 250, 100); font-size: 35px;"">我</p>","e","categorize-html","181","292641","0.0-6.0-0.0-8.0-1.36","4","3","4","3","3","3","4","4","4","3","4","4","3","4","5","5","4","4","4","5","2","1","2","2","1","2","1","2","1","1","0","1","1","0","1","0","1","1","1","1","0","0","0","1","4","1","4","2","1","2","1","4","3","2","3","735455183198490626","张","507","","","","","","","","","","","","","","","","","","","true","4","4","ability","796","self","我","","","","","","","","","","","","","","","","",""
"null","","null","html-keyboard-response","182","292893","0.0-6.0-0.0-8.0-0.37","4","3","4","3","3","3","4","4","4","3","4","4","3","4","5","5","4","4","4","5","2","1","2","2","1","2","1","2","1","1","0","1","1","0","1","0","1","1","1","1","0","0","0","1","4","1","4","2","1","2","1","4","3","2","3","735455183198490626","张","507","","","","","","","","","","","","","","","","","","","","","","","","","","","","","","","","","","","","","","","","","",""
"687","<p style=""color:white; font-size: 35px;"">全能</p>","i","categorize-html","183","293581","0.0-6.0-0.0-8.0-1.37","4","3","4","3","3","3","4","4","4","3","4","4","3","4","5","5","4","4","4","5","2","1","2","2","1","2","1","2","1","1","0","1","1","0","1","0","1","1","1","1","0","0","0","1","4","1","4","2","1","2","1","4","3","2","3","735455183198490626","张","507","","","","","","","","","","","","","","","","","","","true","4","4","ability","687","positive","全能","","","","","","","","","","","","","","","","",""
"null","","null","html-keyboard-response","184","293833","0.0-6.0-0.0-8.0-0.38","4","3","4","3","3","3","4","4","4","3","4","4","3","4","5","5","4","4","4","5","2","1","2","2","1","2","1","2","1","1","0","1","1","0","1","0","1","1","1","1","0","0","0","1","4","1","4","2","1","2","1","4","3","2","3","735455183198490626","张","507","","","","","","","","","","","","","","","","","","","","","","","","","","","","","","","","","","","","","","","","","",""
"1313","<p style=""color:rgb(150, 250, 100); font-size: 35px;"">别人的</p>","i","categorize-html","185","295147","0.0-6.0-0.0-8.0-1.38","4","3","4","3","3","3","4","4","4","3","4","4","3","4","5","5","4","4","4","5","2","1","2","2","1","2","1","2","1","1","0","1","1","0","1","0","1","1","1","1","0","0","0","1","4","1","4","2","1","2","1","4","3","2","3","735455183198490626","张","507","","","","","","","","","","","","","","","","","","","true","4","4","ability","1313","other","别人的","","","","","","","","","","","","","","","","",""
"null","","null","html-keyboard-response","186","295400","0.0-6.0-0.0-8.0-0.39","4","3","4","3","3","3","4","4","4","3","4","4","3","4","5","5","4","4","4","5","2","1","2","2","1","2","1","2","1","1","0","1","1","0","1","0","1","1","1","1","0","0","0","1","4","1","4","2","1","2","1","4","3","2","3","735455183198490626","张","507","","","","","","","","","","","","","","","","","","","","","","","","","","","","","","","","","","","","","","","","","",""
"996","<p style=""color:white; font-size: 35px;"">低能</p>","e","categorize-html","187","296397","0.0-6.0-0.0-8.0-1.39","4","3","4","3","3","3","4","4","4","3","4","4","3","4","5","5","4","4","4","5","2","1","2","2","1","2","1","2","1","1","0","1","1","0","1","0","1","1","1","1","0","0","0","1","4","1","4","2","1","2","1","4","3","2","3","735455183198490626","张","507","","","","","","","","","","","","","","","","","","","true","4","4","ability","996","negative","低能","","","","","","","","","","","","","","","","",""
"null","","null","html-keyboard-response","188","296649","0.0-6.0-0.0-8.0-0.40","4","3","4","3","3","3","4","4","4","3","4","4","3","4","5","5","4","4","4","5","2","1","2","2","1","2","1","2","1","1","0","1","1","0","1","0","1","1","1","1","0","0","0","1","4","1","4","2","1","2","1","4","3","2","3","735455183198490626","张","507","","","","","","","","","","","","","","","","","","","","","","","","","","","","","","","","","","","","","","","","","",""
"675","<p style=""color:rgb(150, 250, 100); font-size: 35px;"">自己</p>","e","categorize-html","189","297325","0.0-6.0-0.0-8.0-1.40","4","3","4","3","3","3","4","4","4","3","4","4","3","4","5","5","4","4","4","5","2","1","2","2","1","2","1","2","1","1","0","1","1","0","1","0","1","1","1","1","0","0","0","1","4","1","4","2","1","2","1","4","3","2","3","735455183198490626","张","507","","","","","","","","","","","","","","","","","","","true","4","4","ability","675","self","自己","","","","","","","","","","","","","","","","",""
"null","","null","html-keyboard-response","190","297575","0.0-6.0-0.0-8.0-0.41","4","3","4","3","3","3","4","4","4","3","4","4","3","4","5","5","4","4","4","5","2","1","2","2","1","2","1","2","1","1","0","1","1","0","1","0","1","1","1","1","0","0","0","1","4","1","4","2","1","2","1","4","3","2","3","735455183198490626","张","507","","","","","","","","","","","","","","","","","","","","","","","","","","","","","","","","","","","","","","","","","",""
"854","<p style=""color:white; font-size: 35px;"">全才</p>","i","categorize-html","191","298432","0.0-6.0-0.0-8.0-1.41","4","3","4","3","3","3","4","4","4","3","4","4","3","4","5","5","4","4","4","5","2","1","2","2","1","2","1","2","1","1","0","1","1","0","1","0","1","1","1","1","0","0","0","1","4","1","4","2","1","2","1","4","3","2","3","735455183198490626","张","507","","","","","","","","","","","","","","","","","","","true","4","4","ability","854","positive","全才","","","","","","","","","","","","","","","","",""
"null","","null","html-keyboard-response","192","298683","0.0-6.0-0.0-8.0-0.42","4","3","4","3","3","3","4","4","4","3","4","4","3","4","5","5","4","4","4","5","2","1","2","2","1","2","1","2","1","1","0","1","1","0","1","0","1","1","1","1","0","0","0","1","4","1","4","2","1","2","1","4","3","2","3","735455183198490626","张","507","","","","","","","","","","","","","","","","","","","","","","","","","","","","","","","","","","","","","","","","","",""
