"rt","stimulus","response","trial_type","trial_index","time_elapsed","internal_node_id","ses_1","ses_2","ses_3","ses_4","ses_5","ses_6","ses_7","ses_8","ses_9","ses_10","coreself_1","coreself_2","coreself_3","coreself_4","coreself_5","coreself_6","coreself_7","coreself_8","coreself_9","coreself_10","SGPS_1","SGPS_2","SGPS_3","SGPS_4","SGPS_5","SGPS_6","SGPS_7","SGPS_8","SGPS_9","NPI1","NPI2","NPI3","NPI4","NPI5","NPI6","NPI7","NPI8","NPI9","NPI10","NPI11","NPI12","NPI13","NPI14","NPI15","hsns_1","hsns_2","hsns_3","hsns_4","hsns_5","trap1","hsns_6","hsns_7","hsns_8","hsns_9","hsns_10","subj_idx","friend_name","ParticipantID","value","success","user_agent","responses","item_order","radio_event_ids","radio_event_times","key_event_times","mouse_event_times","straightlining","zigzagging","honeypot","timeout","failed_images","failed_audio","failed_video","view_history","response_type","key_press","avg_frame_time","center_x","center_y","correct_response","correct","identity","Image","word","condition","task_id","screen_id","time_stamp","version_attrib2","version_target2","IAT","RT","varname","summary","version_attrib","version_target","question_order","correct_answer","trap1_item"
"1906","
   <p><div style = ""color: white;font-size:25px;"">您好，欢迎参加本次实验。</div> </p>
   <p><div style = ""color: white;font-size:25px;"">为充分保障您的权利，请确保您已经知晓并同意《参与实验同意书》以及《数据公开知情同意书》。</div></p>
   <p><div style = ""color: white;font-size:25px;"">如果您未见过上述内容，请咨询实验员。</div></p>
   <p><div style = ""color: white;font-size:25px;"">如果您选择继续实验，则表示您已经清楚两份知情同意书的内容并同意。</div></p>
   <p><div style = ""color: pink;font-size:30px;"">请确保您记得day0的实验编号，您将在本次实验输入该编号，若您忘记，请咨询实验员后作答。</div></p>
   <p><div style = ""color: lightblue;font-size:25px;"">请您尽可能认真地作答，我们将依据您在各问卷和按键任务中的作答质量发放报酬。</div></p>
   <p> <div style = ""color: green;font-size:25px;""><按空格键至下页></div> </p>
   "," ","html-keyboard-response","0","1912","0.0-0.0","3","4","4","3","3","3","3","3","4","4","4","4","3","4","4","4","4","4","4","5","2","1","2","2","2","2","2","2","1","1","0","1","1","0","0","0","1","0","1","1","0","1","0","1","4","2","2","3","2","4","3","4","2","3","1","792736654921179138","肖","76","","","","","","","","","","","","","","","","","","","","","","","","","","","","","","","","","","","","","","","","","",""
"","","","call-function","1","1914","0.0-1.0-0.0","3","4","4","3","3","3","3","3","4","4","4","4","3","4","4","4","4","4","4","5","2","1","2","2","2","2","2","2","1","1","0","1","1","0","0","0","1","0","1","1","0","1","0","1","4","2","2","3","2","4","3","4","2","3","1","792736654921179138","肖","76","","","","","","","","","","","","","","","","","","","","","","","","","","","","","","","","","","","","","","","","","",""
"19540","","{""friend_name"":""肖"",""ParticipantID"":""76""}","survey-html-form","2","21459","0.0-1.0-1.0","3","4","4","3","3","3","3","3","4","4","4","4","3","4","4","4","4","4","4","5","2","1","2","2","2","2","2","2","1","1","0","1","1","0","0","0","1","0","1","1","0","1","0","1","4","2","2","3","2","4","3","4","2","3","1","792736654921179138","肖","76","","","","","","","","","","","","","","","","","","","","","","","","","","","","","","","","","","","","","","","","","",""
"","","","fullscreen","3","23015","0.0-2.0","3","4","4","3","3","3","3","3","4","4","4","4","3","4","4","4","4","4","4","5","2","1","2","2","2","2","2","2","1","1","0","1","1","0","0","0","1","0","1","1","0","1","0","1","4","2","2","3","2","4","3","4","2","3","1","792736654921179138","肖","76","","true","","","","","","","","","","","","","","","","","","","","","","","","","","","","","","","","","","","","","","","",""
"16739.19000000001","","{""Q01"":""3"",""Q02"":""4"",""Q03"":""4"",""Q04"":""3"",""Q05"":""3"",""Q06"":""3"",""Q07"":""3"",""Q08"":""3"",""Q09"":""4"",""Q10"":""4""}","survey-template","4","39765","0.0-3.0","3","4","4","3","3","3","3","3","4","4","4","4","3","4","4","4","4","4","4","5","2","1","2","2","2","2","2","2","1","1","0","1","1","0","0","0","1","0","1","1","0","1","0","1","4","2","2","3","2","4","3","4","2","3","1","792736654921179138","肖","76","","","","{""Q01"":""3"",""Q02"":""4"",""Q03"":""4"",""Q04"":""3"",""Q05"":""3"",""Q06"":""3"",""Q07"":""3"",""Q08"":""3"",""Q09"":""4"",""Q10"":""4""}","[0,1,2,3,4,5,6,7,8,9]","[""Q01"",""Q02"",""Q04"",""Q03"",""Q05"",""Q06"",""Q07"",""Q08"",""Q09"",""Q10""]","[2361.7800000000097,3369.529999999995,5450.105000000007,6376.604999999981,7640.255000000023,8760.260000000017,11819.090000000018,13376.050000000017,14472.140000000021,15400.48999999999]","[]","[2361.7800000000097,3369.529999999995,4602.224999999973,5450.105000000007,6376.604999999981,7640.255000000023,8760.260000000017,11819.090000000018,13376.050000000017,14472.140000000021,15400.48999999999,16730.050000000003]","0.4","0.6666666666666666","0","","","","","","","","","","","","","","","","","","","","","","","","","","","","","",""
"17291.154999999948","","{""Q01"":""4"",""Q02"":""4"",""Q03"":""3"",""Q04"":""4"",""Q05"":""4"",""Q06"":""4"",""Q07"":""4"",""Q08"":""4"",""Q09"":""4"",""Q10"":""5""}","survey-template","5","56668","0.0-4.0","3","4","4","3","3","3","3","3","4","4","4","4","3","4","4","4","4","4","4","5","2","1","2","2","2","2","2","2","1","1","0","1","1","0","0","0","1","0","1","1","0","1","0","1","4","2","2","3","2","4","3","4","2","3","1","792736654921179138","肖","76","","","","{""Q01"":""4"",""Q02"":""4"",""Q03"":""3"",""Q04"":""4"",""Q05"":""4"",""Q06"":""4"",""Q07"":""4"",""Q08"":""4"",""Q09"":""4"",""Q10"":""5""}","[0,1,2,3,4,5,6,7,8,9]","[""Q01"",""Q02"",""Q03"",""Q04"",""Q06"",""Q05"",""Q07"",""Q08"",""Q09"",""Q10""]","[2223.6949999999706,3399.270000000004,4631.264999999985,5751.229999999967,8182.959999999985,9103.01999999996,10206.769999999953,11511.410000000018,13153.644999999931,14823.055000000015]","[]","[2223.6949999999706,3399.270000000004,4631.264999999985,5751.229999999967,7174.789999999979,8182.959999999985,9103.01999999996,10206.769999999953,11511.410000000018,13153.644999999931,14823.055000000015,17288.03999999997]","0.4","0.2222222222222222","0","","","","","","","","","","","","","","","","","","","","","","","","","","","","","",""
"","","","preload","6","56882","0.0-5.0","3","4","4","3","3","3","3","3","4","4","4","4","3","4","4","4","4","4","4","5","2","1","2","2","2","2","2","2","1","1","0","1","1","0","0","0","1","0","1","1","0","1","0","1","4","2","2","3","2","4","3","4","2","3","1","792736654921179138","肖","76","","true","","","","","","","","","","","false","[]","[]","[]","","","","","","","","","","","","","","","","","","","","","","","","","",""
"15443","","","instructions","7","72327","0.0-6.0","3","4","4","3","3","3","3","3","4","4","4","4","3","4","4","4","4","4","4","5","2","1","2","2","2","2","2","2","1","1","0","1","1","0","0","0","1","0","1","1","0","1","0","1","4","2","2","3","2","4","3","4","2","3","1","792736654921179138","肖","76","","","","","","","","","","","","","","","","","[{""page_index"":0,""viewing_time"":15442}]","","","","","","","","","","","","","","","","","","","","","","","","",""
"45106","","","instructions","8","116913","0.0-7.0-0.0-0.0","3","4","4","3","3","3","3","3","4","4","4","4","3","4","4","4","4","4","4","5","2","1","2","2","2","2","2","2","1","1","0","1","1","0","0","0","1","0","1","1","0","1","0","1","4","2","2","3","2","4","3","4","2","3","1","792736654921179138","肖","76","","","","","","","","","","","","","","","","","[{""page_index"":0,""viewing_time"":37516},{""page_index"":1,""viewing_time"":6031},{""page_index"":2,""viewing_time"":1559}]","","","","","","","","","","","","","","","","","","","","","","","","",""
"1184","","f","psychophysics","9","119131","0.0-7.0-0.0-1.0-0.0-0.0","3","4","4","3","3","3","3","3","4","4","4","4","3","4","4","4","4","4","4","5","2","1","2","2","2","2","2","2","1","1","0","1","1","0","0","0","1","0","1","1","0","1","0","1","4","2","2","3","2","4","3","4","2","3","1","792736654921179138","肖","76","","","","match","","","","","","","","","","","","","","key","f","35.76271186440678","960","536","j","false","nonmatch","img/trapezoid.png","圆形","梯形","ALT1_1","prac_ALT1_1","","","","","","","","","","","",""
"null","<span style='color:red; font-size: 70px;'>错误! </span>","null","html-keyboard-response","10","119648","0.0-7.0-0.0-1.0-0.0-1.0","3","4","4","3","3","3","3","3","4","4","4","4","3","4","4","4","4","4","4","5","2","1","2","2","2","2","2","2","1","1","0","1","1","0","0","0","1","0","1","1","0","1","0","1","4","2","2","3","2","4","3","4","2","3","1","792736654921179138","肖","76","","","","","","","","","","","","","","","","","","","","","","","","","","","","","","feedback_test","","","","","","","","","","","",""
"1089","","j","psychophysics","11","121751","0.0-7.0-0.0-1.0-0.0-0.1","3","4","4","3","3","3","3","3","4","4","4","4","3","4","4","4","4","4","4","5","2","1","2","2","2","2","2","2","1","1","0","1","1","0","0","0","1","0","1","1","0","1","0","1","4","2","2","3","2","4","3","4","2","3","1","792736654921179138","肖","76","","","","nonmatch","","","","","","","","","","","","","","key","j","40","960","536","j","true","nonmatch","img/hexagon.png","圆形","六边","ALT1_1","prac_ALT1_1","","","","","","","","","","","",""
"null","<span style='color:GreenYellow; font-size: 70px;'>正确! </span>","null","html-keyboard-response","12","122260","0.0-7.0-0.0-1.0-0.0-1.1","3","4","4","3","3","3","3","3","4","4","4","4","3","4","4","4","4","4","4","5","2","1","2","2","2","2","2","2","1","1","0","1","1","0","0","0","1","0","1","1","0","1","0","1","4","2","2","3","2","4","3","4","2","3","1","792736654921179138","肖","76","","","","","","","","","","","","","","","","","","","","","","","","","","","","","","feedback_test","","","","","","","","","","","",""
"992","","j","psychophysics","13","124308","0.0-7.0-0.0-1.0-0.0-0.2","3","4","4","3","3","3","3","3","4","4","4","4","3","4","4","4","4","4","4","5","2","1","2","2","2","2","2","2","1","1","0","1","1","0","0","0","1","0","1","1","0","1","0","1","4","2","2","3","2","4","3","4","2","3","1","792736654921179138","肖","76","","","","nonmatch","","","","","","","","","","","","","","key","j","39.795918367346935","960","536","j","true","nonmatch","img/trapezoid.png","方形","梯形","ALT1_1","prac_ALT1_1","","","","","","","","","","","",""
"null","<span style='color:GreenYellow; font-size: 70px;'>正确! </span>","null","html-keyboard-response","14","124814","0.0-7.0-0.0-1.0-0.0-1.2","3","4","4","3","3","3","3","3","4","4","4","4","3","4","4","4","4","4","4","5","2","1","2","2","2","2","2","2","1","1","0","1","1","0","0","0","1","0","1","1","0","1","0","1","4","2","2","3","2","4","3","4","2","3","1","792736654921179138","肖","76","","","","","","","","","","","","","","","","","","","","","","","","","","","","","","feedback_test","","","","","","","","","","","",""
"925","","f","psychophysics","15","126769","0.0-7.0-0.0-1.0-0.0-0.3","3","4","4","3","3","3","3","3","4","4","4","4","3","4","4","4","4","4","4","5","2","1","2","2","2","2","2","2","1","1","0","1","1","0","0","0","1","0","1","1","0","1","0","1","4","2","2","3","2","4","3","4","2","3","1","792736654921179138","肖","76","","","","match","","","","","","","","","","","","","","key","f","43.95348837209303","960","536","j","false","nonmatch","img/circle.png","六边","圆形","ALT1_1","prac_ALT1_1","","","","","","","","","","","",""
"null","<span style='color:red; font-size: 70px;'>错误! </span>","null","html-keyboard-response","16","127274","0.0-7.0-0.0-1.0-0.0-1.3","3","4","4","3","3","3","3","3","4","4","4","4","3","4","4","4","4","4","4","5","2","1","2","2","2","2","2","2","1","1","0","1","1","0","0","0","1","0","1","1","0","1","0","1","4","2","2","3","2","4","3","4","2","3","1","792736654921179138","肖","76","","","","","","","","","","","","","","","","","","","","","","","","","","","","","","feedback_test","","","","","","","","","","","",""
"1122","","f","psychophysics","17","129400","0.0-7.0-0.0-1.0-0.0-0.4","3","4","4","3","3","3","3","3","4","4","4","4","3","4","4","4","4","4","4","5","2","1","2","2","2","2","2","2","1","1","0","1","1","0","0","0","1","0","1","1","0","1","0","1","4","2","2","3","2","4","3","4","2","3","1","792736654921179138","肖","76","","","","match","","","","","","","","","","","","","","key","f","35.3448275862069","960","536","f","true","match","img/trapezoid.png","梯形","梯形","ALT1_1","prac_ALT1_1","","","","","","","","","","","",""
"null","<span style='color:GreenYellow; font-size: 70px;'>正确! </span>","null","html-keyboard-response","18","129906","0.0-7.0-0.0-1.0-0.0-1.4","3","4","4","3","3","3","3","3","4","4","4","4","3","4","4","4","4","4","4","5","2","1","2","2","2","2","2","2","1","1","0","1","1","0","0","0","1","0","1","1","0","1","0","1","4","2","2","3","2","4","3","4","2","3","1","792736654921179138","肖","76","","","","","","","","","","","","","","","","","","","","","","","","","","","","","","feedback_test","","","","","","","","","","","",""
"934","","f","psychophysics","19","131860","0.0-7.0-0.0-1.0-0.0-0.5","3","4","4","3","3","3","3","3","4","4","4","4","3","4","4","4","4","4","4","5","2","1","2","2","2","2","2","2","1","1","0","1","1","0","0","0","1","0","1","1","0","1","0","1","4","2","2","3","2","4","3","4","2","3","1","792736654921179138","肖","76","","","","match","","","","","","","","","","","","","","key","f","35.471698113207545","960","536","f","true","match","img/hexagon.png","六边","六边","ALT1_1","prac_ALT1_1","","","","","","","","","","","",""
"null","<span style='color:GreenYellow; font-size: 70px;'>正确! </span>","null","html-keyboard-response","20","132366","0.0-7.0-0.0-1.0-0.0-1.5","3","4","4","3","3","3","3","3","4","4","4","4","3","4","4","4","4","4","4","5","2","1","2","2","2","2","2","2","1","1","0","1","1","0","0","0","1","0","1","1","0","1","0","1","4","2","2","3","2","4","3","4","2","3","1","792736654921179138","肖","76","","","","","","","","","","","","","","","","","","","","","","","","","","","","","","feedback_test","","","","","","","","","","","",""
"null","","null","psychophysics","21","134589","0.0-7.0-0.0-1.0-0.0-0.6","3","4","4","3","3","3","3","3","4","4","4","4","3","4","4","4","4","4","4","5","2","1","2","2","2","2","2","2","1","1","0","1","1","0","0","0","1","0","1","1","0","1","0","1","4","2","2","3","2","4","3","4","2","3","1","792736654921179138","肖","76","","","","null","","","","","","","","","","","","","","key","null","37.41379310344828","960","536","f","false","match","img/trapezoid.png","梯形","梯形","ALT1_1","prac_ALT1_1","","","","","","","","","","","",""
"null","<span class='add_' style='color:yellow; font-size: 70px;'> 太慢! </span>","null","html-keyboard-response","22","135110","0.0-7.0-0.0-1.0-0.0-1.6","3","4","4","3","3","3","3","3","4","4","4","4","3","4","4","4","4","4","4","5","2","1","2","2","2","2","2","2","1","1","0","1","1","0","0","0","1","0","1","1","0","1","0","1","4","2","2","3","2","4","3","4","2","3","1","792736654921179138","肖","76","","","","","","","","","","","","","","","","","","","","","","","","","","","","","","feedback_test","","","","","","","","","","","",""
"908","","f","psychophysics","23","137116","0.0-7.0-0.0-1.0-0.0-0.7","3","4","4","3","3","3","3","3","4","4","4","4","3","4","4","4","4","4","4","5","2","1","2","2","2","2","2","2","1","1","0","1","1","0","0","0","1","0","1","1","0","1","0","1","4","2","2","3","2","4","3","4","2","3","1","792736654921179138","肖","76","","","","match","","","","","","","","","","","","","","key","f","46.58536585365854","960","536","j","false","nonmatch","img/circle.png","梯形","圆形","ALT1_1","prac_ALT1_1","","","","","","","","","","","",""
"null","<span style='color:red; font-size: 70px;'>错误! </span>","null","html-keyboard-response","24","137630","0.0-7.0-0.0-1.0-0.0-1.7","3","4","4","3","3","3","3","3","4","4","4","4","3","4","4","4","4","4","4","5","2","1","2","2","2","2","2","2","1","1","0","1","1","0","0","0","1","0","1","1","0","1","0","1","4","2","2","3","2","4","3","4","2","3","1","792736654921179138","肖","76","","","","","","","","","","","","","","","","","","","","","","","","","","","","","","feedback_test","","","","","","","","","","","",""
"902","","f","psychophysics","25","139589","0.0-7.0-0.0-1.0-0.0-0.8","3","4","4","3","3","3","3","3","4","4","4","4","3","4","4","4","4","4","4","5","2","1","2","2","2","2","2","2","1","1","0","1","1","0","0","0","1","0","1","1","0","1","0","1","4","2","2","3","2","4","3","4","2","3","1","792736654921179138","肖","76","","","","match","","","","","","","","","","","","","","key","f","51.08108108108108","960","536","j","false","nonmatch","img/circle.png","方形","圆形","ALT1_1","prac_ALT1_1","","","","","","","","","","","",""
"null","<span style='color:red; font-size: 70px;'>错误! </span>","null","html-keyboard-response","26","140102","0.0-7.0-0.0-1.0-0.0-1.8","3","4","4","3","3","3","3","3","4","4","4","4","3","4","4","4","4","4","4","5","2","1","2","2","2","2","2","2","1","1","0","1","1","0","0","0","1","0","1","1","0","1","0","1","4","2","2","3","2","4","3","4","2","3","1","792736654921179138","肖","76","","","","","","","","","","","","","","","","","","","","","","","","","","","","","","feedback_test","","","","","","","","","","","",""
"null","","null","psychophysics","27","142418","0.0-7.0-0.0-1.0-0.0-0.9","3","4","4","3","3","3","3","3","4","4","4","4","3","4","4","4","4","4","4","5","2","1","2","2","2","2","2","2","1","1","0","1","1","0","0","0","1","0","1","1","0","1","0","1","4","2","2","3","2","4","3","4","2","3","1","792736654921179138","肖","76","","","","null","","","","","","","","","","","","","","key","null","40.55555555555556","960","536","f","false","match","img/square.png","方形","方形","ALT1_1","prac_ALT1_1","","","","","","","","","","","",""
"null","<span class='add_' style='color:yellow; font-size: 70px;'> 太慢! </span>","null","html-keyboard-response","28","142924","0.0-7.0-0.0-1.0-0.0-1.9","3","4","4","3","3","3","3","3","4","4","4","4","3","4","4","4","4","4","4","5","2","1","2","2","2","2","2","2","1","1","0","1","1","0","0","0","1","0","1","1","0","1","0","1","4","2","2","3","2","4","3","4","2","3","1","792736654921179138","肖","76","","","","","","","","","","","","","","","","","","","","","","","","","","","","","","feedback_test","","","","","","","","","","","",""
"1221","","f","psychophysics","29","145150","0.0-7.0-0.0-1.0-0.0-0.10","3","4","4","3","3","3","3","3","4","4","4","4","3","4","4","4","4","4","4","5","2","1","2","2","2","2","2","2","1","1","0","1","1","0","0","0","1","0","1","1","0","1","0","1","4","2","2","3","2","4","3","4","2","3","1","792736654921179138","肖","76","","","","match","","","","","","","","","","","","","","key","f","35","960","536","j","false","nonmatch","img/square.png","圆形","方形","ALT1_1","prac_ALT1_1","","","","","","","","","","","",""
"null","<span class='add_' style='color:yellow; font-size: 70px;'> 太慢! </span>","null","html-keyboard-response","30","145654","0.0-7.0-0.0-1.0-0.0-1.10","3","4","4","3","3","3","3","3","4","4","4","4","3","4","4","4","4","4","4","5","2","1","2","2","2","2","2","2","1","1","0","1","1","0","0","0","1","0","1","1","0","1","0","1","4","2","2","3","2","4","3","4","2","3","1","792736654921179138","肖","76","","","","","","","","","","","","","","","","","","","","","","","","","","","","","","feedback_test","","","","","","","","","","","",""
"null","","null","psychophysics","31","147885","0.0-7.0-0.0-1.0-0.0-0.11","3","4","4","3","3","3","3","3","4","4","4","4","3","4","4","4","4","4","4","5","2","1","2","2","2","2","2","2","1","1","0","1","1","0","0","0","1","0","1","1","0","1","0","1","4","2","2","3","2","4","3","4","2","3","1","792736654921179138","肖","76","","","","null","","","","","","","","","","","","","","key","null","32.23880597014925","960","536","j","false","nonmatch","img/trapezoid.png","六边","梯形","ALT1_1","prac_ALT1_1","","","","","","","","","","","",""
"null","<span class='add_' style='color:yellow; font-size: 70px;'> 太慢! </span>","null","html-keyboard-response","32","148406","0.0-7.0-0.0-1.0-0.0-1.11","3","4","4","3","3","3","3","3","4","4","4","4","3","4","4","4","4","4","4","5","2","1","2","2","2","2","2","2","1","1","0","1","1","0","0","0","1","0","1","1","0","1","0","1","4","2","2","3","2","4","3","4","2","3","1","792736654921179138","肖","76","","","","","","","","","","","","","","","","","","","","","","","","","","","","","","feedback_test","","","","","","","","","","","",""
"1140","","f","psychophysics","33","150565","0.0-7.0-0.0-1.0-0.0-0.12","3","4","4","3","3","3","3","3","4","4","4","4","3","4","4","4","4","4","4","5","2","1","2","2","2","2","2","2","1","1","0","1","1","0","0","0","1","0","1","1","0","1","0","1","4","2","2","3","2","4","3","4","2","3","1","792736654921179138","肖","76","","","","match","","","","","","","","","","","","","","key","f","30.28985507246377","960","536","f","true","match","img/circle.png","圆形","圆形","ALT1_1","prac_ALT1_1","","","","","","","","","","","",""
"null","<span style='color:GreenYellow; font-size: 70px;'>正确! </span>","null","html-keyboard-response","34","151074","0.0-7.0-0.0-1.0-0.0-1.12","3","4","4","3","3","3","3","3","4","4","4","4","3","4","4","4","4","4","4","5","2","1","2","2","2","2","2","2","1","1","0","1","1","0","0","0","1","0","1","1","0","1","0","1","4","2","2","3","2","4","3","4","2","3","1","792736654921179138","肖","76","","","","","","","","","","","","","","","","","","","","","","","","","","","","","","feedback_test","","","","","","","","","","","",""
"null","","null","psychophysics","35","153307","0.0-7.0-0.0-1.0-0.0-0.13","3","4","4","3","3","3","3","3","4","4","4","4","3","4","4","4","4","4","4","5","2","1","2","2","2","2","2","2","1","1","0","1","1","0","0","0","1","0","1","1","0","1","0","1","4","2","2","3","2","4","3","4","2","3","1","792736654921179138","肖","76","","","","null","","","","","","","","","","","","","","key","null","30.714285714285715","960","536","f","false","match","img/square.png","方形","方形","ALT1_1","prac_ALT1_1","","","","","","","","","","","",""
"null","<span class='add_' style='color:yellow; font-size: 70px;'> 太慢! </span>","null","html-keyboard-response","36","153817","0.0-7.0-0.0-1.0-0.0-1.13","3","4","4","3","3","3","3","3","4","4","4","4","3","4","4","4","4","4","4","5","2","1","2","2","2","2","2","2","1","1","0","1","1","0","0","0","1","0","1","1","0","1","0","1","4","2","2","3","2","4","3","4","2","3","1","792736654921179138","肖","76","","","","","","","","","","","","","","","","","","","","","","","","","","","","","","feedback_test","","","","","","","","","","","",""
"1092","","f","psychophysics","37","155919","0.0-7.0-0.0-1.0-0.0-0.14","3","4","4","3","3","3","3","3","4","4","4","4","3","4","4","4","4","4","4","5","2","1","2","2","2","2","2","2","1","1","0","1","1","0","0","0","1","0","1","1","0","1","0","1","4","2","2","3","2","4","3","4","2","3","1","792736654921179138","肖","76","","","","match","","","","","","","","","","","","","","key","f","38.490566037735846","960","536","j","false","nonmatch","img/hexagon.png","梯形","六边","ALT1_1","prac_ALT1_1","","","","","","","","","","","",""
"null","<span style='color:red; font-size: 70px;'>错误! </span>","null","html-keyboard-response","38","156427","0.0-7.0-0.0-1.0-0.0-1.14","3","4","4","3","3","3","3","3","4","4","4","4","3","4","4","4","4","4","4","5","2","1","2","2","2","2","2","2","1","1","0","1","1","0","0","0","1","0","1","1","0","1","0","1","4","2","2","3","2","4","3","4","2","3","1","792736654921179138","肖","76","","","","","","","","","","","","","","","","","","","","","","","","","","","","","","feedback_test","","","","","","","","","","","",""
"891","","f","psychophysics","39","158324","0.0-7.0-0.0-1.0-0.0-0.15","3","4","4","3","3","3","3","3","4","4","4","4","3","4","4","4","4","4","4","5","2","1","2","2","2","2","2","2","1","1","0","1","1","0","0","0","1","0","1","1","0","1","0","1","4","2","2","3","2","4","3","4","2","3","1","792736654921179138","肖","76","","","","match","","","","","","","","","","","","","","key","f","30.5","960","536","f","true","match","img/circle.png","圆形","圆形","ALT1_1","prac_ALT1_1","","","","","","","","","","","",""
"null","<span style='color:GreenYellow; font-size: 70px;'>正确! </span>","null","html-keyboard-response","40","158838","0.0-7.0-0.0-1.0-0.0-1.15","3","4","4","3","3","3","3","3","4","4","4","4","3","4","4","4","4","4","4","5","2","1","2","2","2","2","2","2","1","1","0","1","1","0","0","0","1","0","1","1","0","1","0","1","4","2","2","3","2","4","3","4","2","3","1","792736654921179138","肖","76","","","","","","","","","","","","","","","","","","","","","","","","","","","","","","feedback_test","","","","","","","","","","","",""
"814","","f","psychophysics","41","160669","0.0-7.0-0.0-1.0-0.0-0.16","3","4","4","3","3","3","3","3","4","4","4","4","3","4","4","4","4","4","4","5","2","1","2","2","2","2","2","2","1","1","0","1","1","0","0","0","1","0","1","1","0","1","0","1","4","2","2","3","2","4","3","4","2","3","1","792736654921179138","肖","76","","","","match","","","","","","","","","","","","","","key","f","27.936507936507937","960","536","f","true","match","img/circle.png","圆形","圆形","ALT1_1","prac_ALT1_1","","","","","","","","","","","",""
"null","<span style='color:GreenYellow; font-size: 70px;'>正确! </span>","null","html-keyboard-response","42","161171","0.0-7.0-0.0-1.0-0.0-1.16","3","4","4","3","3","3","3","3","4","4","4","4","3","4","4","4","4","4","4","5","2","1","2","2","2","2","2","2","1","1","0","1","1","0","0","0","1","0","1","1","0","1","0","1","4","2","2","3","2","4","3","4","2","3","1","792736654921179138","肖","76","","","","","","","","","","","","","","","","","","","","","","","","","","","","","","feedback_test","","","","","","","","","","","",""
"898","","f","psychophysics","43","163073","0.0-7.0-0.0-1.0-0.0-0.17","3","4","4","3","3","3","3","3","4","4","4","4","3","4","4","4","4","4","4","5","2","1","2","2","2","2","2","2","1","1","0","1","1","0","0","0","1","0","1","1","0","1","0","1","4","2","2","3","2","4","3","4","2","3","1","792736654921179138","肖","76","","","","match","","","","","","","","","","","","","","key","f","28.90625","960","536","f","true","match","img/hexagon.png","六边","六边","ALT1_1","prac_ALT1_1","","","","","","","","","","","",""
"null","<span style='color:GreenYellow; font-size: 70px;'>正确! </span>","null","html-keyboard-response","44","163582","0.0-7.0-0.0-1.0-0.0-1.17","3","4","4","3","3","3","3","3","4","4","4","4","3","4","4","4","4","4","4","5","2","1","2","2","2","2","2","2","1","1","0","1","1","0","0","0","1","0","1","1","0","1","0","1","4","2","2","3","2","4","3","4","2","3","1","792736654921179138","肖","76","","","","","","","","","","","","","","","","","","","","","","","","","","","","","","feedback_test","","","","","","","","","","","",""
"838","","f","psychophysics","45","164040","0.0-7.0-0.0-1.0-0.0-0.18","3","4","4","3","3","3","3","3","4","4","4","4","3","4","4","4","4","4","4","5","2","1","2","2","2","2","2","2","1","1","0","1","1","0","0","0","1","0","1","1","0","1","0","1","4","2","2","3","2","4","3","4","2","3","1","792736654921179138","肖","76","","","","match","","","","","","","","","","","","","","key","f","27.936507936507937","960","536","f","true","match","img/trapezoid.png","梯形","梯形","ALT1_1","prac_ALT1_1","","","","","","","","","","","",""
"null","<span style='color:GreenYellow; font-size: 70px;'>正确! </span>","null","html-keyboard-response","46","164545","0.0-7.0-0.0-1.0-0.0-1.18","3","4","4","3","3","3","3","3","4","4","4","4","3","4","4","4","4","4","4","5","2","1","2","2","2","2","2","2","1","1","0","1","1","0","0","0","1","0","1","1","0","1","0","1","4","2","2","3","2","4","3","4","2","3","1","792736654921179138","肖","76","","","","","","","","","","","","","","","","","","","","","","","","","","","","","","feedback_test","","","","","","","","","","","",""
"1027","","j","psychophysics","47","166578","0.0-7.0-0.0-1.0-0.0-0.19","3","4","4","3","3","3","3","3","4","4","4","4","3","4","4","4","4","4","4","5","2","1","2","2","2","2","2","2","1","1","0","1","1","0","0","0","1","0","1","1","0","1","0","1","4","2","2","3","2","4","3","4","2","3","1","792736654921179138","肖","76","","","","nonmatch","","","","","","","","","","","","","","key","j","28.970588235294116","960","536","j","true","nonmatch","img/hexagon.png","方形","六边","ALT1_1","prac_ALT1_1","","","","","","","","","","","",""
"null","<span style='color:GreenYellow; font-size: 70px;'>正确! </span>","null","html-keyboard-response","48","167090","0.0-7.0-0.0-1.0-0.0-1.19","3","4","4","3","3","3","3","3","4","4","4","4","3","4","4","4","4","4","4","5","2","1","2","2","2","2","2","2","1","1","0","1","1","0","0","0","1","0","1","1","0","1","0","1","4","2","2","3","2","4","3","4","2","3","1","792736654921179138","肖","76","","","","","","","","","","","","","","","","","","","","","","","","","","","","","","feedback_test","","","","","","","","","","","",""
"841","","f","psychophysics","49","168936","0.0-7.0-0.0-1.0-0.0-0.20","3","4","4","3","3","3","3","3","4","4","4","4","3","4","4","4","4","4","4","5","2","1","2","2","2","2","2","2","1","1","0","1","1","0","0","0","1","0","1","1","0","1","0","1","4","2","2","3","2","4","3","4","2","3","1","792736654921179138","肖","76","","","","match","","","","","","","","","","","","","","key","f","29.666666666666668","960","536","f","true","match","img/hexagon.png","六边","六边","ALT1_1","prac_ALT1_1","","","","","","","","","","","",""
"null","<span style='color:GreenYellow; font-size: 70px;'>正确! </span>","null","html-keyboard-response","50","169439","0.0-7.0-0.0-1.0-0.0-1.20","3","4","4","3","3","3","3","3","4","4","4","4","3","4","4","4","4","4","4","5","2","1","2","2","2","2","2","2","1","1","0","1","1","0","0","0","1","0","1","1","0","1","0","1","4","2","2","3","2","4","3","4","2","3","1","792736654921179138","肖","76","","","","","","","","","","","","","","","","","","","","","","","","","","","","","","feedback_test","","","","","","","","","","","",""
"1125","","f","psychophysics","51","171567","0.0-7.0-0.0-1.0-0.0-0.21","3","4","4","3","3","3","3","3","4","4","4","4","3","4","4","4","4","4","4","5","2","1","2","2","2","2","2","2","1","1","0","1","1","0","0","0","1","0","1","1","0","1","0","1","4","2","2","3","2","4","3","4","2","3","1","792736654921179138","肖","76","","","","match","","","","","","","","","","","","","","key","f","28.356164383561644","960","536","j","false","nonmatch","img/square.png","六边","方形","ALT1_1","prac_ALT1_1","","","","","","","","","","","",""
"null","<span style='color:red; font-size: 70px;'>错误! </span>","null","html-keyboard-response","52","172072","0.0-7.0-0.0-1.0-0.0-1.21","3","4","4","3","3","3","3","3","4","4","4","4","3","4","4","4","4","4","4","5","2","1","2","2","2","2","2","2","1","1","0","1","1","0","0","0","1","0","1","1","0","1","0","1","4","2","2","3","2","4","3","4","2","3","1","792736654921179138","肖","76","","","","","","","","","","","","","","","","","","","","","","","","","","","","","","feedback_test","","","","","","","","","","","",""
"998","","f","psychophysics","53","174076","0.0-7.0-0.0-1.0-0.0-0.22","3","4","4","3","3","3","3","3","4","4","4","4","3","4","4","4","4","4","4","5","2","1","2","2","2","2","2","2","1","1","0","1","1","0","0","0","1","0","1","1","0","1","0","1","4","2","2","3","2","4","3","4","2","3","1","792736654921179138","肖","76","","","","match","","","","","","","","","","","","","","key","f","29.545454545454547","960","536","f","true","match","img/square.png","方形","方形","ALT1_1","prac_ALT1_1","","","","","","","","","","","",""
"null","<span style='color:GreenYellow; font-size: 70px;'>正确! </span>","null","html-keyboard-response","54","174579","0.0-7.0-0.0-1.0-0.0-1.22","3","4","4","3","3","3","3","3","4","4","4","4","3","4","4","4","4","4","4","5","2","1","2","2","2","2","2","2","1","1","0","1","1","0","0","0","1","0","1","1","0","1","0","1","4","2","2","3","2","4","3","4","2","3","1","792736654921179138","肖","76","","","","","","","","","","","","","","","","","","","","","","","","","","","","","","feedback_test","","","","","","","","","","","",""
"962","","f","psychophysics","55","176552","0.0-7.0-0.0-1.0-0.0-0.23","3","4","4","3","3","3","3","3","4","4","4","4","3","4","4","4","4","4","4","5","2","1","2","2","2","2","2","2","1","1","0","1","1","0","0","0","1","0","1","1","0","1","0","1","4","2","2","3","2","4","3","4","2","3","1","792736654921179138","肖","76","","","","match","","","","","","","","","","","","","","key","f","32.80701754385965","960","536","j","false","nonmatch","img/square.png","梯形","方形","ALT1_1","prac_ALT1_1","","","","","","","","","","","",""
"null","<span style='color:red; font-size: 70px;'>错误! </span>","null","html-keyboard-response","56","177067","0.0-7.0-0.0-1.0-0.0-1.23","3","4","4","3","3","3","3","3","4","4","4","4","3","4","4","4","4","4","4","5","2","1","2","2","2","2","2","2","1","1","0","1","1","0","0","0","1","0","1","1","0","1","0","1","4","2","2","3","2","4","3","4","2","3","1","792736654921179138","肖","76","","","","","","","","","","","","","","","","","","","","","","","","","","","","","","feedback_test","","","","","","","","","","","",""
"null","","null","psychophysics","57","179292","0.0-7.0-0.0-1.0-0.0-0.24","3","4","4","3","3","3","3","3","4","4","4","4","3","4","4","4","4","4","4","5","2","1","2","2","2","2","2","2","1","1","0","1","1","0","0","0","1","0","1","1","0","1","0","1","4","2","2","3","2","4","3","4","2","3","1","792736654921179138","肖","76","","","","null","","","","","","","","","","","","","","key","null","27.692307692307693","960","536","j","false","nonmatch","img/trapezoid.png","圆形","梯形","ALT1_1","prac_ALT1_1","","","","","","","","","","","",""
"null","<span class='add_' style='color:yellow; font-size: 70px;'> 太慢! </span>","null","html-keyboard-response","58","179799","0.0-7.0-0.0-1.0-0.0-1.24","3","4","4","3","3","3","3","3","4","4","4","4","3","4","4","4","4","4","4","5","2","1","2","2","2","2","2","2","1","1","0","1","1","0","0","0","1","0","1","1","0","1","0","1","4","2","2","3","2","4","3","4","2","3","1","792736654921179138","肖","76","","","","","","","","","","","","","","","","","","","","","","","","","","","","","","feedback_test","","","","","","","","","","","",""
"1173","","f","psychophysics","59","181987","0.0-7.0-0.0-1.0-0.0-0.25","3","4","4","3","3","3","3","3","4","4","4","4","3","4","4","4","4","4","4","5","2","1","2","2","2","2","2","2","1","1","0","1","1","0","0","0","1","0","1","1","0","1","0","1","4","2","2","3","2","4","3","4","2","3","1","792736654921179138","肖","76","","","","match","","","","","","","","","","","","","","key","f","26.419753086419753","960","536","f","true","match","img/square.png","方形","方形","ALT1_1","prac_ALT1_1","","","","","","","","","","","",""
"null","<span style='color:GreenYellow; font-size: 70px;'>正确! </span>","null","html-keyboard-response","60","182492","0.0-7.0-0.0-1.0-0.0-1.25","3","4","4","3","3","3","3","3","4","4","4","4","3","4","4","4","4","4","4","5","2","1","2","2","2","2","2","2","1","1","0","1","1","0","0","0","1","0","1","1","0","1","0","1","4","2","2","3","2","4","3","4","2","3","1","792736654921179138","肖","76","","","","","","","","","","","","","","","","","","","","","","","","","","","","","","feedback_test","","","","","","","","","","","",""
"1058","","f","psychophysics","61","184554","0.0-7.0-0.0-1.0-0.0-0.26","3","4","4","3","3","3","3","3","4","4","4","4","3","4","4","4","4","4","4","5","2","1","2","2","2","2","2","2","1","1","0","1","1","0","0","0","1","0","1","1","0","1","0","1","4","2","2","3","2","4","3","4","2","3","1","792736654921179138","肖","76","","","","match","","","","","","","","","","","","","","key","f","29.41176470588235","960","536","f","true","match","img/trapezoid.png","梯形","梯形","ALT1_1","prac_ALT1_1","","","","","","","","","","","",""
"null","<span style='color:GreenYellow; font-size: 70px;'>正确! </span>","null","html-keyboard-response","62","185060","0.0-7.0-0.0-1.0-0.0-1.26","3","4","4","3","3","3","3","3","4","4","4","4","3","4","4","4","4","4","4","5","2","1","2","2","2","2","2","2","1","1","0","1","1","0","0","0","1","0","1","1","0","1","0","1","4","2","2","3","2","4","3","4","2","3","1","792736654921179138","肖","76","","","","","","","","","","","","","","","","","","","","","","","","","","","","","","feedback_test","","","","","","","","","","","",""
"1045","","f","psychophysics","63","187114","0.0-7.0-0.0-1.0-0.0-0.27","3","4","4","3","3","3","3","3","4","4","4","4","3","4","4","4","4","4","4","5","2","1","2","2","2","2","2","2","1","1","0","1","1","0","0","0","1","0","1","1","0","1","0","1","4","2","2","3","2","4","3","4","2","3","1","792736654921179138","肖","76","","","","match","","","","","","","","","","","","","","key","f","28.428571428571427","960","536","f","true","match","img/square.png","方形","方形","ALT1_1","prac_ALT1_1","","","","","","","","","","","",""
"null","<span style='color:GreenYellow; font-size: 70px;'>正确! </span>","null","html-keyboard-response","64","187617","0.0-7.0-0.0-1.0-0.0-1.27","3","4","4","3","3","3","3","3","4","4","4","4","3","4","4","4","4","4","4","5","2","1","2","2","2","2","2","2","1","1","0","1","1","0","0","0","1","0","1","1","0","1","0","1","4","2","2","3","2","4","3","4","2","3","1","792736654921179138","肖","76","","","","","","","","","","","","","","","","","","","","","","","","","","","","","","feedback_test","","","","","","","","","","","",""
"822","","f","psychophysics","65","189444","0.0-7.0-0.0-1.0-0.0-0.28","3","4","4","3","3","3","3","3","4","4","4","4","3","4","4","4","4","4","4","5","2","1","2","2","2","2","2","2","1","1","0","1","1","0","0","0","1","0","1","1","0","1","0","1","4","2","2","3","2","4","3","4","2","3","1","792736654921179138","肖","76","","","","match","","","","","","","","","","","","","","key","f","27.076923076923077","960","536","f","true","match","img/hexagon.png","六边","六边","ALT1_1","prac_ALT1_1","","","","","","","","","","","",""
"null","<span style='color:GreenYellow; font-size: 70px;'>正确! </span>","null","html-keyboard-response","66","189948","0.0-7.0-0.0-1.0-0.0-1.28","3","4","4","3","3","3","3","3","4","4","4","4","3","4","4","4","4","4","4","5","2","1","2","2","2","2","2","2","1","1","0","1","1","0","0","0","1","0","1","1","0","1","0","1","4","2","2","3","2","4","3","4","2","3","1","792736654921179138","肖","76","","","","","","","","","","","","","","","","","","","","","","","","","","","","","","feedback_test","","","","","","","","","","","",""
"809","","f","psychophysics","67","191772","0.0-7.0-0.0-1.0-0.0-0.29","3","4","4","3","3","3","3","3","4","4","4","4","3","4","4","4","4","4","4","5","2","1","2","2","2","2","2","2","1","1","0","1","1","0","0","0","1","0","1","1","0","1","0","1","4","2","2","3","2","4","3","4","2","3","1","792736654921179138","肖","76","","","","match","","","","","","","","","","","","","","key","f","26.567164179104477","960","536","j","false","nonmatch","img/circle.png","六边","圆形","ALT1_1","prac_ALT1_1","","","","","","","","","","","",""
"null","<span style='color:red; font-size: 70px;'>错误! </span>","null","html-keyboard-response","68","192317","0.0-7.0-0.0-1.0-0.0-1.29","3","4","4","3","3","3","3","3","4","4","4","4","3","4","4","4","4","4","4","5","2","1","2","2","2","2","2","2","1","1","0","1","1","0","0","0","1","0","1","1","0","1","0","1","4","2","2","3","2","4","3","4","2","3","1","792736654921179138","肖","76","","","","","","","","","","","","","","","","","","","","","","","","","","","","","","feedback_test","","","","","","","","","","","",""
"1159","","j","psychophysics","69","194480","0.0-7.0-0.0-1.0-0.0-0.30","3","4","4","3","3","3","3","3","4","4","4","4","3","4","4","4","4","4","4","5","2","1","2","2","2","2","2","2","1","1","0","1","1","0","0","0","1","0","1","1","0","1","0","1","4","2","2","3","2","4","3","4","2","3","1","792736654921179138","肖","76","","","","nonmatch","","","","","","","","","","","","","","key","j","29.577464788732396","960","536","j","true","nonmatch","img/hexagon.png","梯形","六边","ALT1_1","prac_ALT1_1","","","","","","","","","","","",""
"null","<span style='color:GreenYellow; font-size: 70px;'>正确! </span>","null","html-keyboard-response","70","194989","0.0-7.0-0.0-1.0-0.0-1.30","3","4","4","3","3","3","3","3","4","4","4","4","3","4","4","4","4","4","4","5","2","1","2","2","2","2","2","2","1","1","0","1","1","0","0","0","1","0","1","1","0","1","0","1","4","2","2","3","2","4","3","4","2","3","1","792736654921179138","肖","76","","","","","","","","","","","","","","","","","","","","","","","","","","","","","","feedback_test","","","","","","","","","","","",""
"1053","","j","psychophysics","71","197058","0.0-7.0-0.0-1.0-0.0-0.31","3","4","4","3","3","3","3","3","4","4","4","4","3","4","4","4","4","4","4","5","2","1","2","2","2","2","2","2","1","1","0","1","1","0","0","0","1","0","1","1","0","1","0","1","4","2","2","3","2","4","3","4","2","3","1","792736654921179138","肖","76","","","","nonmatch","","","","","","","","","","","","","","key","j","27.027027027027028","960","536","j","true","nonmatch","img/trapezoid.png","方形","梯形","ALT1_1","prac_ALT1_1","","","","","","","","","","","",""
"null","<span style='color:GreenYellow; font-size: 70px;'>正确! </span>","null","html-keyboard-response","72","197563","0.0-7.0-0.0-1.0-0.0-1.31","3","4","4","3","3","3","3","3","4","4","4","4","3","4","4","4","4","4","4","5","2","1","2","2","2","2","2","2","1","1","0","1","1","0","0","0","1","0","1","1","0","1","0","1","4","2","2","3","2","4","3","4","2","3","1","792736654921179138","肖","76","","","","","","","","","","","","","","","","","","","","","","","","","","","","","","feedback_test","","","","","","","","","","","",""
"1039","","j","psychophysics","73","199614","0.0-7.0-0.0-1.0-0.0-0.32","3","4","4","3","3","3","3","3","4","4","4","4","3","4","4","4","4","4","4","5","2","1","2","2","2","2","2","2","1","1","0","1","1","0","0","0","1","0","1","1","0","1","0","1","4","2","2","3","2","4","3","4","2","3","1","792736654921179138","肖","76","","","","nonmatch","","","","","","","","","","","","","","key","j","27.027027027027028","960","536","j","true","nonmatch","img/square.png","六边","方形","ALT1_1","prac_ALT1_1","","","","","","","","","","","",""
"null","<span style='color:GreenYellow; font-size: 70px;'>正确! </span>","null","html-keyboard-response","74","200123","0.0-7.0-0.0-1.0-0.0-1.32","3","4","4","3","3","3","3","3","4","4","4","4","3","4","4","4","4","4","4","5","2","1","2","2","2","2","2","2","1","1","0","1","1","0","0","0","1","0","1","1","0","1","0","1","4","2","2","3","2","4","3","4","2","3","1","792736654921179138","肖","76","","","","","","","","","","","","","","","","","","","","","","","","","","","","","","feedback_test","","","","","","","","","","","",""
"889","","j","psychophysics","75","202029","0.0-7.0-0.0-1.0-0.0-0.33","3","4","4","3","3","3","3","3","4","4","4","4","3","4","4","4","4","4","4","5","2","1","2","2","2","2","2","2","1","1","0","1","1","0","0","0","1","0","1","1","0","1","0","1","4","2","2","3","2","4","3","4","2","3","1","792736654921179138","肖","76","","","","nonmatch","","","","","","","","","","","","","","key","j","27.058823529411764","960","536","j","true","nonmatch","img/square.png","圆形","方形","ALT1_1","prac_ALT1_1","","","","","","","","","","","",""
"null","<span style='color:GreenYellow; font-size: 70px;'>正确! </span>","null","html-keyboard-response","76","202533","0.0-7.0-0.0-1.0-0.0-1.33","3","4","4","3","3","3","3","3","4","4","4","4","3","4","4","4","4","4","4","5","2","1","2","2","2","2","2","2","1","1","0","1","1","0","0","0","1","0","1","1","0","1","0","1","4","2","2","3","2","4","3","4","2","3","1","792736654921179138","肖","76","","","","","","","","","","","","","","","","","","","","","","","","","","","","","","feedback_test","","","","","","","","","","","",""
"954","","f","psychophysics","77","204501","0.0-7.0-0.0-1.0-0.0-0.34","3","4","4","3","3","3","3","3","4","4","4","4","3","4","4","4","4","4","4","5","2","1","2","2","2","2","2","2","1","1","0","1","1","0","0","0","1","0","1","1","0","1","0","1","4","2","2","3","2","4","3","4","2","3","1","792736654921179138","肖","76","","","","match","","","","","","","","","","","","","","key","f","26.164383561643834","960","536","j","false","nonmatch","img/trapezoid.png","六边","梯形","ALT1_1","prac_ALT1_1","","","","","","","","","","","",""
"null","<span style='color:red; font-size: 70px;'>错误! </span>","null","html-keyboard-response","78","205009","0.0-7.0-0.0-1.0-0.0-1.34","3","4","4","3","3","3","3","3","4","4","4","4","3","4","4","4","4","4","4","5","2","1","2","2","2","2","2","2","1","1","0","1","1","0","0","0","1","0","1","1","0","1","0","1","4","2","2","3","2","4","3","4","2","3","1","792736654921179138","肖","76","","","","","","","","","","","","","","","","","","","","","","","","","","","","","","feedback_test","","","","","","","","","","","",""
"1154","","f","psychophysics","79","207188","0.0-7.0-0.0-1.0-0.0-0.35","3","4","4","3","3","3","3","3","4","4","4","4","3","4","4","4","4","4","4","5","2","1","2","2","2","2","2","2","1","1","0","1","1","0","0","0","1","0","1","1","0","1","0","1","4","2","2","3","2","4","3","4","2","3","1","792736654921179138","肖","76","","","","match","","","","","","","","","","","","","","key","f","27.894736842105264","960","536","f","true","match","img/square.png","方形","方形","ALT1_1","prac_ALT1_1","","","","","","","","","","","",""
"null","<span style='color:GreenYellow; font-size: 70px;'>正确! </span>","null","html-keyboard-response","80","207691","0.0-7.0-0.0-1.0-0.0-1.35","3","4","4","3","3","3","3","3","4","4","4","4","3","4","4","4","4","4","4","5","2","1","2","2","2","2","2","2","1","1","0","1","1","0","0","0","1","0","1","1","0","1","0","1","4","2","2","3","2","4","3","4","2","3","1","792736654921179138","肖","76","","","","","","","","","","","","","","","","","","","","","","","","","","","","","","feedback_test","","","","","","","","","","","",""
"1109","","f","psychophysics","81","209805","0.0-7.0-0.0-1.0-0.0-0.36","3","4","4","3","3","3","3","3","4","4","4","4","3","4","4","4","4","4","4","5","2","1","2","2","2","2","2","2","1","1","0","1","1","0","0","0","1","0","1","1","0","1","0","1","4","2","2","3","2","4","3","4","2","3","1","792736654921179138","肖","76","","","","match","","","","","","","","","","","","","","key","f","27.56756756756757","960","536","f","true","match","img/trapezoid.png","梯形","梯形","ALT1_1","prac_ALT1_1","","","","","","","","","","","",""
"null","<span style='color:GreenYellow; font-size: 70px;'>正确! </span>","null","html-keyboard-response","82","210330","0.0-7.0-0.0-1.0-0.0-1.36","3","4","4","3","3","3","3","3","4","4","4","4","3","4","4","4","4","4","4","5","2","1","2","2","2","2","2","2","1","1","0","1","1","0","0","0","1","0","1","1","0","1","0","1","4","2","2","3","2","4","3","4","2","3","1","792736654921179138","肖","76","","","","","","","","","","","","","","","","","","","","","","","","","","","","","","feedback_test","","","","","","","","","","","",""
"877","","f","psychophysics","83","212226","0.0-7.0-0.0-1.0-0.0-0.37","3","4","4","3","3","3","3","3","4","4","4","4","3","4","4","4","4","4","4","5","2","1","2","2","2","2","2","2","1","1","0","1","1","0","0","0","1","0","1","1","0","1","0","1","4","2","2","3","2","4","3","4","2","3","1","792736654921179138","肖","76","","","","match","","","","","","","","","","","","","","key","f","26.666666666666668","960","536","f","true","match","img/hexagon.png","六边","六边","ALT1_1","prac_ALT1_1","","","","","","","","","","","",""
"null","<span style='color:GreenYellow; font-size: 70px;'>正确! </span>","null","html-keyboard-response","84","212734","0.0-7.0-0.0-1.0-0.0-1.37","3","4","4","3","3","3","3","3","4","4","4","4","3","4","4","4","4","4","4","5","2","1","2","2","2","2","2","2","1","1","0","1","1","0","0","0","1","0","1","1","0","1","0","1","4","2","2","3","2","4","3","4","2","3","1","792736654921179138","肖","76","","","","","","","","","","","","","","","","","","","","","","","","","","","","","","feedback_test","","","","","","","","","","","",""
"1045","","j","psychophysics","85","214784","0.0-7.0-0.0-1.0-0.0-0.38","3","4","4","3","3","3","3","3","4","4","4","4","3","4","4","4","4","4","4","5","2","1","2","2","2","2","2","2","1","1","0","1","1","0","0","0","1","0","1","1","0","1","0","1","4","2","2","3","2","4","3","4","2","3","1","792736654921179138","肖","76","","","","nonmatch","","","","","","","","","","","","","","key","j","28.285714285714285","960","536","j","true","nonmatch","img/circle.png","方形","圆形","ALT1_1","prac_ALT1_1","","","","","","","","","","","",""
"null","<span style='color:GreenYellow; font-size: 70px;'>正确! </span>","null","html-keyboard-response","86","215288","0.0-7.0-0.0-1.0-0.0-1.38","3","4","4","3","3","3","3","3","4","4","4","4","3","4","4","4","4","4","4","5","2","1","2","2","2","2","2","2","1","1","0","1","1","0","0","0","1","0","1","1","0","1","0","1","4","2","2","3","2","4","3","4","2","3","1","792736654921179138","肖","76","","","","","","","","","","","","","","","","","","","","","","","","","","","","","","feedback_test","","","","","","","","","","","",""
"921","","f","psychophysics","87","217220","0.0-7.0-0.0-1.0-0.0-0.39","3","4","4","3","3","3","3","3","4","4","4","4","3","4","4","4","4","4","4","5","2","1","2","2","2","2","2","2","1","1","0","1","1","0","0","0","1","0","1","1","0","1","0","1","4","2","2","3","2","4","3","4","2","3","1","792736654921179138","肖","76","","","","match","","","","","","","","","","","","","","key","f","28.059701492537314","960","536","f","true","match","img/trapezoid.png","梯形","梯形","ALT1_1","prac_ALT1_1","","","","","","","","","","","",""
"null","<span style='color:GreenYellow; font-size: 70px;'>正确! </span>","null","html-keyboard-response","88","217727","0.0-7.0-0.0-1.0-0.0-1.39","3","4","4","3","3","3","3","3","4","4","4","4","3","4","4","4","4","4","4","5","2","1","2","2","2","2","2","2","1","1","0","1","1","0","0","0","1","0","1","1","0","1","0","1","4","2","2","3","2","4","3","4","2","3","1","792736654921179138","肖","76","","","","","","","","","","","","","","","","","","","","","","","","","","","","","","feedback_test","","","","","","","","","","","",""
"974","","f","psychophysics","89","219714","0.0-7.0-0.0-1.0-0.0-0.40","3","4","4","3","3","3","3","3","4","4","4","4","3","4","4","4","4","4","4","5","2","1","2","2","2","2","2","2","1","1","0","1","1","0","0","0","1","0","1","1","0","1","0","1","4","2","2","3","2","4","3","4","2","3","1","792736654921179138","肖","76","","","","match","","","","","","","","","","","","","","key","f","28.484848484848484","960","536","f","true","match","img/hexagon.png","六边","六边","ALT1_1","prac_ALT1_1","","","","","","","","","","","",""
"null","<span style='color:GreenYellow; font-size: 70px;'>正确! </span>","null","html-keyboard-response","90","220243","0.0-7.0-0.0-1.0-0.0-1.40","3","4","4","3","3","3","3","3","4","4","4","4","3","4","4","4","4","4","4","5","2","1","2","2","2","2","2","2","1","1","0","1","1","0","0","0","1","0","1","1","0","1","0","1","4","2","2","3","2","4","3","4","2","3","1","792736654921179138","肖","76","","","","","","","","","","","","","","","","","","","","","","","","","","","","","","feedback_test","","","","","","","","","","","",""
"983","","f","psychophysics","91","222238","0.0-7.0-0.0-1.0-0.0-0.41","3","4","4","3","3","3","3","3","4","4","4","4","3","4","4","4","4","4","4","5","2","1","2","2","2","2","2","2","1","1","0","1","1","0","0","0","1","0","1","1","0","1","0","1","4","2","2","3","2","4","3","4","2","3","1","792736654921179138","肖","76","","","","match","","","","","","","","","","","","","","key","f","30.967741935483872","960","536","f","true","match","img/circle.png","圆形","圆形","ALT1_1","prac_ALT1_1","","","","","","","","","","","",""
"null","<span style='color:GreenYellow; font-size: 70px;'>正确! </span>","null","html-keyboard-response","92","222744","0.0-7.0-0.0-1.0-0.0-1.41","3","4","4","3","3","3","3","3","4","4","4","4","3","4","4","4","4","4","4","5","2","1","2","2","2","2","2","2","1","1","0","1","1","0","0","0","1","0","1","1","0","1","0","1","4","2","2","3","2","4","3","4","2","3","1","792736654921179138","肖","76","","","","","","","","","","","","","","","","","","","","","","","","","","","","","","feedback_test","","","","","","","","","","","",""
"954","","f","psychophysics","93","223517","0.0-7.0-0.0-1.0-0.0-0.42","3","4","4","3","3","3","3","3","4","4","4","4","3","4","4","4","4","4","4","5","2","1","2","2","2","2","2","2","1","1","0","1","1","0","0","0","1","0","1","1","0","1","0","1","4","2","2","3","2","4","3","4","2","3","1","792736654921179138","肖","76","","","","match","","","","","","","","","","","","","","key","f","28.08823529411765","960","536","j","false","nonmatch","img/hexagon.png","方形","六边","ALT1_1","prac_ALT1_1","","","","","","","","","","","",""
"null","<span style='color:red; font-size: 70px;'>错误! </span>","null","html-keyboard-response","94","224021","0.0-7.0-0.0-1.0-0.0-1.42","3","4","4","3","3","3","3","3","4","4","4","4","3","4","4","4","4","4","4","5","2","1","2","2","2","2","2","2","1","1","0","1","1","0","0","0","1","0","1","1","0","1","0","1","4","2","2","3","2","4","3","4","2","3","1","792736654921179138","肖","76","","","","","","","","","","","","","","","","","","","","","","","","","","","","","","feedback_test","","","","","","","","","","","",""
"1039","","j","psychophysics","95","226066","0.0-7.0-0.0-1.0-0.0-0.43","3","4","4","3","3","3","3","3","4","4","4","4","3","4","4","4","4","4","4","5","2","1","2","2","2","2","2","2","1","1","0","1","1","0","0","0","1","0","1","1","0","1","0","1","4","2","2","3","2","4","3","4","2","3","1","792736654921179138","肖","76","","","","nonmatch","","","","","","","","","","","","","","key","j","30.151515151515152","960","536","j","true","nonmatch","img/square.png","梯形","方形","ALT1_1","prac_ALT1_1","","","","","","","","","","","",""
"null","<span style='color:GreenYellow; font-size: 70px;'>正确! </span>","null","html-keyboard-response","96","226570","0.0-7.0-0.0-1.0-0.0-1.43","3","4","4","3","3","3","3","3","4","4","4","4","3","4","4","4","4","4","4","5","2","1","2","2","2","2","2","2","1","1","0","1","1","0","0","0","1","0","1","1","0","1","0","1","4","2","2","3","2","4","3","4","2","3","1","792736654921179138","肖","76","","","","","","","","","","","","","","","","","","","","","","","","","","","","","","feedback_test","","","","","","","","","","","",""
"962","","f","psychophysics","97","228536","0.0-7.0-0.0-1.0-0.0-0.44","3","4","4","3","3","3","3","3","4","4","4","4","3","4","4","4","4","4","4","5","2","1","2","2","2","2","2","2","1","1","0","1","1","0","0","0","1","0","1","1","0","1","0","1","4","2","2","3","2","4","3","4","2","3","1","792736654921179138","肖","76","","","","match","","","","","","","","","","","","","","key","f","34.18181818181818","960","536","f","true","match","img/circle.png","圆形","圆形","ALT1_1","prac_ALT1_1","","","","","","","","","","","",""
"null","<span style='color:GreenYellow; font-size: 70px;'>正确! </span>","null","html-keyboard-response","98","229043","0.0-7.0-0.0-1.0-0.0-1.44","3","4","4","3","3","3","3","3","4","4","4","4","3","4","4","4","4","4","4","5","2","1","2","2","2","2","2","2","1","1","0","1","1","0","0","0","1","0","1","1","0","1","0","1","4","2","2","3","2","4","3","4","2","3","1","792736654921179138","肖","76","","","","","","","","","","","","","","","","","","","","","","","","","","","","","","feedback_test","","","","","","","","","","","",""
"1016","","j","psychophysics","99","231085","0.0-7.0-0.0-1.0-0.0-0.45","3","4","4","3","3","3","3","3","4","4","4","4","3","4","4","4","4","4","4","5","2","1","2","2","2","2","2","2","1","1","0","1","1","0","0","0","1","0","1","1","0","1","0","1","4","2","2","3","2","4","3","4","2","3","1","792736654921179138","肖","76","","","","nonmatch","","","","","","","","","","","","","","key","j","26.05263157894737","960","536","j","true","nonmatch","img/circle.png","梯形","圆形","ALT1_1","prac_ALT1_1","","","","","","","","","","","",""
"null","<span style='color:GreenYellow; font-size: 70px;'>正确! </span>","null","html-keyboard-response","100","231589","0.0-7.0-0.0-1.0-0.0-1.45","3","4","4","3","3","3","3","3","4","4","4","4","3","4","4","4","4","4","4","5","2","1","2","2","2","2","2","2","1","1","0","1","1","0","0","0","1","0","1","1","0","1","0","1","4","2","2","3","2","4","3","4","2","3","1","792736654921179138","肖","76","","","","","","","","","","","","","","","","","","","","","","","","","","","","","","feedback_test","","","","","","","","","","","",""
"1116","","j","psychophysics","101","233712","0.0-7.0-0.0-1.0-0.0-0.46","3","4","4","3","3","3","3","3","4","4","4","4","3","4","4","4","4","4","4","5","2","1","2","2","2","2","2","2","1","1","0","1","1","0","0","0","1","0","1","1","0","1","0","1","4","2","2","3","2","4","3","4","2","3","1","792736654921179138","肖","76","","","","nonmatch","","","","","","","","","","","","","","key","j","30.147058823529413","960","536","j","true","nonmatch","img/hexagon.png","圆形","六边","ALT1_1","prac_ALT1_1","","","","","","","","","","","",""
"null","<span style='color:GreenYellow; font-size: 70px;'>正确! </span>","null","html-keyboard-response","102","234224","0.0-7.0-0.0-1.0-0.0-1.46","3","4","4","3","3","3","3","3","4","4","4","4","3","4","4","4","4","4","4","5","2","1","2","2","2","2","2","2","1","1","0","1","1","0","0","0","1","0","1","1","0","1","0","1","4","2","2","3","2","4","3","4","2","3","1","792736654921179138","肖","76","","","","","","","","","","","","","","","","","","","","","","","","","","","","","","feedback_test","","","","","","","","","","","",""
"1046","","f","psychophysics","103","236275","0.0-7.0-0.0-1.0-0.0-0.47","3","4","4","3","3","3","3","3","4","4","4","4","3","4","4","4","4","4","4","5","2","1","2","2","2","2","2","2","1","1","0","1","1","0","0","0","1","0","1","1","0","1","0","1","4","2","2","3","2","4","3","4","2","3","1","792736654921179138","肖","76","","","","match","","","","","","","","","","","","","","key","f","29.264705882352942","960","536","f","true","match","img/circle.png","圆形","圆形","ALT1_1","prac_ALT1_1","","","","","","","","","","","",""
"null","<span style='color:GreenYellow; font-size: 70px;'>正确! </span>","null","html-keyboard-response","104","236787","0.0-7.0-0.0-1.0-0.0-1.47","3","4","4","3","3","3","3","3","4","4","4","4","3","4","4","4","4","4","4","5","2","1","2","2","2","2","2","2","1","1","0","1","1","0","0","0","1","0","1","1","0","1","0","1","4","2","2","3","2","4","3","4","2","3","1","792736654921179138","肖","76","","","","","","","","","","","","","","","","","","","","","","","","","","","","","","feedback_test","","","","","","","","","","","",""
"7336","<style>.context{color:white; font-size: 35px; line-height:40px}</style>                            <div><p class='context'>您正确回答了67% 的试次。</p><p class='context'>您的平均反应时为1002毫秒。</p><p class='context'>恭喜您完成练习。按空格键进入正式实验。</p><p class='footer' style='font-size: 35px; line-height:40px;'>请在进入正式实验之前将您的<span style='color: lightgreen;'>食指</span>放在电脑键盘的相应键位上进行按键。</p>"," ","html-keyboard-response","105","244200","0.0-7.0-0.0-2.0","3","4","4","3","3","3","3","3","4","4","4","4","3","4","4","4","4","4","4","5","2","1","2","2","2","2","2","2","1","1","0","1","1","0","0","0","1","0","1","1","0","1","0","1","4","2","2","3","2","4","3","4","2","3","1","792736654921179138","肖","76","","","","","","","","","","","","","","","","","","","","","","","","","","","","","","","","","","","","","","","","","",""
"2113","
    <p style='color: white; font-size: 22px'>请您将手指放在按键上，准备进入正式的匹配任务。</p>
    <p> <div style = ""color: green""><按空格键进入下一阶段的匹配任务></div></p>
    "," ","html-keyboard-response","106","246325","0.0-7.0-0.0-3.0","3","4","4","3","3","3","3","3","4","4","4","4","3","4","4","4","4","4","4","5","2","1","2","2","2","2","2","2","1","1","0","1","1","0","0","0","1","0","1","1","0","1","0","1","4","2","2","3","2","4","3","4","2","3","1","792736654921179138","肖","76","","","","","","","","","","","","","","","","","","","","","","","","","","","","","","","","","","","","","","","","","",""
"920","","f","psychophysics","107","248251","0.0-7.0-0.0-4.0-0.0-0.0","3","4","4","3","3","3","3","3","4","4","4","4","3","4","4","4","4","4","4","5","2","1","2","2","2","2","2","2","1","1","0","1","1","0","0","0","1","0","1","1","0","1","0","1","4","2","2","3","2","4","3","4","2","3","1","792736654921179138","肖","76","","","","match","","","","","","","","","","","","","","key","f","27.87878787878788","960","536","j","false","nonmatch","img/circle.png","六边","圆形","ALT1","formal_ALT1_1","","","","","","","","","","","",""
"null","<span style='color:red; font-size: 70px;'>错误! </span>","null","html-keyboard-response","108","248757","0.0-7.0-0.0-4.0-0.0-1.0","3","4","4","3","3","3","3","3","4","4","4","4","3","4","4","4","4","4","4","5","2","1","2","2","2","2","2","2","1","1","0","1","1","0","0","0","1","0","1","1","0","1","0","1","4","2","2","3","2","4","3","4","2","3","1","792736654921179138","肖","76","","","","","","","","","","","","","","","","","","","","","","","","","","","","","","feedback_test","","","","","","","","","","","",""
"1035","","j","psychophysics","109","250815","0.0-7.0-0.0-4.0-0.0-0.1","3","4","4","3","3","3","3","3","4","4","4","4","3","4","4","4","4","4","4","5","2","1","2","2","2","2","2","2","1","1","0","1","1","0","0","0","1","0","1","1","0","1","0","1","4","2","2","3","2","4","3","4","2","3","1","792736654921179138","肖","76","","","","nonmatch","","","","","","","","","","","","","","key","j","30.46153846153846","960","536","j","true","nonmatch","img/trapezoid.png","方形","梯形","ALT1","formal_ALT1_1","","","","","","","","","","","",""
"null","<span style='color:GreenYellow; font-size: 70px;'>正确! </span>","null","html-keyboard-response","110","251321","0.0-7.0-0.0-4.0-0.0-1.1","3","4","4","3","3","3","3","3","4","4","4","4","3","4","4","4","4","4","4","5","2","1","2","2","2","2","2","2","1","1","0","1","1","0","0","0","1","0","1","1","0","1","0","1","4","2","2","3","2","4","3","4","2","3","1","792736654921179138","肖","76","","","","","","","","","","","","","","","","","","","","","","","","","","","","","","feedback_test","","","","","","","","","","","",""
"986","","f","psychophysics","111","253313","0.0-7.0-0.0-4.0-0.0-0.2","3","4","4","3","3","3","3","3","4","4","4","4","3","4","4","4","4","4","4","5","2","1","2","2","2","2","2","2","1","1","0","1","1","0","0","0","1","0","1","1","0","1","0","1","4","2","2","3","2","4","3","4","2","3","1","792736654921179138","肖","76","","","","match","","","","","","","","","","","","","","key","f","28.529411764705884","960","536","f","true","match","img/trapezoid.png","梯形","梯形","ALT1","formal_ALT1_1","","","","","","","","","","","",""
"null","<span style='color:GreenYellow; font-size: 70px;'>正确! </span>","null","html-keyboard-response","112","253816","0.0-7.0-0.0-4.0-0.0-1.2","3","4","4","3","3","3","3","3","4","4","4","4","3","4","4","4","4","4","4","5","2","1","2","2","2","2","2","2","1","1","0","1","1","0","0","0","1","0","1","1","0","1","0","1","4","2","2","3","2","4","3","4","2","3","1","792736654921179138","肖","76","","","","","","","","","","","","","","","","","","","","","","","","","","","","","","feedback_test","","","","","","","","","","","",""
"null","","null","psychophysics","113","256041","0.0-7.0-0.0-4.0-0.0-0.3","3","4","4","3","3","3","3","3","4","4","4","4","3","4","4","4","4","4","4","5","2","1","2","2","2","2","2","2","1","1","0","1","1","0","0","0","1","0","1","1","0","1","0","1","4","2","2","3","2","4","3","4","2","3","1","792736654921179138","肖","76","","","","null","","","","","","","","","","","","","","key","null","29.324324324324323","960","536","j","false","nonmatch","img/hexagon.png","梯形","六边","ALT1","formal_ALT1_1","","","","","","","","","","","",""
"null","<span class='add_' style='color:yellow; font-size: 70px;'> 太慢! </span>","null","html-keyboard-response","114","256558","0.0-7.0-0.0-4.0-0.0-1.3","3","4","4","3","3","3","3","3","4","4","4","4","3","4","4","4","4","4","4","5","2","1","2","2","2","2","2","2","1","1","0","1","1","0","0","0","1","0","1","1","0","1","0","1","4","2","2","3","2","4","3","4","2","3","1","792736654921179138","肖","76","","","","","","","","","","","","","","","","","","","","","","","","","","","","","","feedback_test","","","","","","","","","","","",""
"829","","f","psychophysics","115","258399","0.0-7.0-0.0-4.0-0.0-0.4","3","4","4","3","3","3","3","3","4","4","4","4","3","4","4","4","4","4","4","5","2","1","2","2","2","2","2","2","1","1","0","1","1","0","0","0","1","0","1","1","0","1","0","1","4","2","2","3","2","4","3","4","2","3","1","792736654921179138","肖","76","","","","match","","","","","","","","","","","","","","key","f","26.176470588235723","960","536","f","true","match","img/circle.png","圆形","圆形","ALT1","formal_ALT1_1","","","","","","","","","","","",""
"null","<span style='color:GreenYellow; font-size: 70px;'>正确! </span>","null","html-keyboard-response","116","258904","0.0-7.0-0.0-4.0-0.0-1.4","3","4","4","3","3","3","3","3","4","4","4","4","3","4","4","4","4","4","4","5","2","1","2","2","2","2","2","2","1","1","0","1","1","0","0","0","1","0","1","1","0","1","0","1","4","2","2","3","2","4","3","4","2","3","1","792736654921179138","肖","76","","","","","","","","","","","","","","","","","","","","","","","","","","","","","","feedback_test","","","","","","","","","","","",""
"918","","f","psychophysics","117","260828","0.0-7.0-0.0-4.0-0.0-0.5","3","4","4","3","3","3","3","3","4","4","4","4","3","4","4","4","4","4","4","5","2","1","2","2","2","2","2","2","1","1","0","1","1","0","0","0","1","0","1","1","0","1","0","1","4","2","2","3","2","4","3","4","2","3","1","792736654921179138","肖","76","","","","match","","","","","","","","","","","","","","key","f","27.10144927536232","960","536","f","true","match","img/hexagon.png","六边","六边","ALT1","formal_ALT1_1","","","","","","","","","","","",""
"null","<span style='color:GreenYellow; font-size: 70px;'>正确! </span>","null","html-keyboard-response","118","261331","0.0-7.0-0.0-4.0-0.0-1.5","3","4","4","3","3","3","3","3","4","4","4","4","3","4","4","4","4","4","4","5","2","1","2","2","2","2","2","2","1","1","0","1","1","0","0","0","1","0","1","1","0","1","0","1","4","2","2","3","2","4","3","4","2","3","1","792736654921179138","肖","76","","","","","","","","","","","","","","","","","","","","","","","","","","","","","","feedback_test","","","","","","","","","","","",""
"1071","","j","psychophysics","119","263410","0.0-7.0-0.0-4.0-0.0-0.6","3","4","4","3","3","3","3","3","4","4","4","4","3","4","4","4","4","4","4","5","2","1","2","2","2","2","2","2","1","1","0","1","1","0","0","0","1","0","1","1","0","1","0","1","4","2","2","3","2","4","3","4","2","3","1","792736654921179138","肖","76","","","","nonmatch","","","","","","","","","","","","","","key","j","28.169014084507044","960","536","j","true","nonmatch","img/trapezoid.png","圆形","梯形","ALT1","formal_ALT1_1","","","","","","","","","","","",""
"null","<span style='color:GreenYellow; font-size: 70px;'>正确! </span>","null","html-keyboard-response","120","263921","0.0-7.0-0.0-4.0-0.0-1.6","3","4","4","3","3","3","3","3","4","4","4","4","3","4","4","4","4","4","4","5","2","1","2","2","2","2","2","2","1","1","0","1","1","0","0","0","1","0","1","1","0","1","0","1","4","2","2","3","2","4","3","4","2","3","1","792736654921179138","肖","76","","","","","","","","","","","","","","","","","","","","","","","","","","","","","","feedback_test","","","","","","","","","","","",""
"991","","f","psychophysics","121","265917","0.0-7.0-0.0-4.0-0.0-0.7","3","4","4","3","3","3","3","3","4","4","4","4","3","4","4","4","4","4","4","5","2","1","2","2","2","2","2","2","1","1","0","1","1","0","0","0","1","0","1","1","0","1","0","1","4","2","2","3","2","4","3","4","2","3","1","792736654921179138","肖","76","","","","match","","","","","","","","","","","","","","key","f","25.394736842105264","960","536","f","true","match","img/trapezoid.png","梯形","梯形","ALT1","formal_ALT1_1","","","","","","","","","","","",""
"null","<span style='color:GreenYellow; font-size: 70px;'>正确! </span>","null","html-keyboard-response","122","266421","0.0-7.0-0.0-4.0-0.0-1.7","3","4","4","3","3","3","3","3","4","4","4","4","3","4","4","4","4","4","4","5","2","1","2","2","2","2","2","2","1","1","0","1","1","0","0","0","1","0","1","1","0","1","0","1","4","2","2","3","2","4","3","4","2","3","1","792736654921179138","肖","76","","","","","","","","","","","","","","","","","","","","","","","","","","","","","","feedback_test","","","","","","","","","","","",""
"891","","f","psychophysics","123","268317","0.0-7.0-0.0-4.0-0.0-0.8","3","4","4","3","3","3","3","3","4","4","4","4","3","4","4","4","4","4","4","5","2","1","2","2","2","2","2","2","1","1","0","1","1","0","0","0","1","0","1","1","0","1","0","1","4","2","2","3","2","4","3","4","2","3","1","792736654921179138","肖","76","","","","match","","","","","","","","","","","","","","key","f","26.285714285714285","960","536","j","false","nonmatch","img/circle.png","方形","圆形","ALT1","formal_ALT1_1","","","","","","","","","","","",""
"null","<span style='color:red; font-size: 70px;'>错误! </span>","null","html-keyboard-response","124","268823","0.0-7.0-0.0-4.0-0.0-1.8","3","4","4","3","3","3","3","3","4","4","4","4","3","4","4","4","4","4","4","5","2","1","2","2","2","2","2","2","1","1","0","1","1","0","0","0","1","0","1","1","0","1","0","1","4","2","2","3","2","4","3","4","2","3","1","792736654921179138","肖","76","","","","","","","","","","","","","","","","","","","","","","","","","","","","","","feedback_test","","","","","","","","","","","",""
"1214","","j","psychophysics","125","271042","0.0-7.0-0.0-4.0-0.0-0.9","3","4","4","3","3","3","3","3","4","4","4","4","3","4","4","4","4","4","4","5","2","1","2","2","2","2","2","2","1","1","0","1","1","0","0","0","1","0","1","1","0","1","0","1","4","2","2","3","2","4","3","4","2","3","1","792736654921179138","肖","76","","","","nonmatch","","","","","","","","","","","","","","key","j","26.666666666666668","960","536","j","true","nonmatch","img/circle.png","梯形","圆形","ALT1","formal_ALT1_1","","","","","","","","","","","",""
"null","<span class='add_' style='color:yellow; font-size: 70px;'> 太慢! </span>","null","html-keyboard-response","126","271560","0.0-7.0-0.0-4.0-0.0-1.9","3","4","4","3","3","3","3","3","4","4","4","4","3","4","4","4","4","4","4","5","2","1","2","2","2","2","2","2","1","1","0","1","1","0","0","0","1","0","1","1","0","1","0","1","4","2","2","3","2","4","3","4","2","3","1","792736654921179138","肖","76","","","","","","","","","","","","","","","","","","","","","","","","","","","","","","feedback_test","","","","","","","","","","","",""
"1108","","j","psychophysics","127","273677","0.0-7.0-0.0-4.0-0.0-0.10","3","4","4","3","3","3","3","3","4","4","4","4","3","4","4","4","4","4","4","5","2","1","2","2","2","2","2","2","1","1","0","1","1","0","0","0","1","0","1","1","0","1","0","1","4","2","2","3","2","4","3","4","2","3","1","792736654921179138","肖","76","","","","nonmatch","","","","","","","","","","","","","","key","j","29.014084507042252","960","536","j","true","nonmatch","img/hexagon.png","圆形","六边","ALT1","formal_ALT1_1","","","","","","","","","","","",""
"null","<span style='color:GreenYellow; font-size: 70px;'>正确! </span>","null","html-keyboard-response","128","274183","0.0-7.0-0.0-4.0-0.0-1.10","3","4","4","3","3","3","3","3","4","4","4","4","3","4","4","4","4","4","4","5","2","1","2","2","2","2","2","2","1","1","0","1","1","0","0","0","1","0","1","1","0","1","0","1","4","2","2","3","2","4","3","4","2","3","1","792736654921179138","肖","76","","","","","","","","","","","","","","","","","","","","","","","","","","","","","","feedback_test","","","","","","","","","","","",""
"914","","f","psychophysics","129","276102","0.0-7.0-0.0-4.0-0.0-0.11","3","4","4","3","3","3","3","3","4","4","4","4","3","4","4","4","4","4","4","5","2","1","2","2","2","2","2","2","1","1","0","1","1","0","0","0","1","0","1","1","0","1","0","1","4","2","2","3","2","4","3","4","2","3","1","792736654921179138","肖","76","","","","match","","","","","","","","","","","","","","key","f","27.761194029850746","960","536","f","true","match","img/circle.png","圆形","圆形","ALT1","formal_ALT1_1","","","","","","","","","","","",""
"null","<span style='color:GreenYellow; font-size: 70px;'>正确! </span>","null","html-keyboard-response","130","276606","0.0-7.0-0.0-4.0-0.0-1.11","3","4","4","3","3","3","3","3","4","4","4","4","3","4","4","4","4","4","4","5","2","1","2","2","2","2","2","2","1","1","0","1","1","0","0","0","1","0","1","1","0","1","0","1","4","2","2","3","2","4","3","4","2","3","1","792736654921179138","肖","76","","","","","","","","","","","","","","","","","","","","","","","","","","","","","","feedback_test","","","","","","","","","","","",""
"929","","f","psychophysics","131","278549","0.0-7.0-0.0-4.0-0.0-0.12","3","4","4","3","3","3","3","3","4","4","4","4","3","4","4","4","4","4","4","5","2","1","2","2","2","2","2","2","1","1","0","1","1","0","0","0","1","0","1","1","0","1","0","1","4","2","2","3","2","4","3","4","2","3","1","792736654921179138","肖","76","","","","match","","","","","","","","","","","","","","key","f","26.25","960","536","f","true","match","img/trapezoid.png","梯形","梯形","ALT1","formal_ALT1_1","","","","","","","","","","","",""
"null","<span style='color:GreenYellow; font-size: 70px;'>正确! </span>","null","html-keyboard-response","132","279052","0.0-7.0-0.0-4.0-0.0-1.12","3","4","4","3","3","3","3","3","4","4","4","4","3","4","4","4","4","4","4","5","2","1","2","2","2","2","2","2","1","1","0","1","1","0","0","0","1","0","1","1","0","1","0","1","4","2","2","3","2","4","3","4","2","3","1","792736654921179138","肖","76","","","","","","","","","","","","","","","","","","","","","","","","","","","","","","feedback_test","","","","","","","","","","","",""
"931","","f","psychophysics","133","280991","0.0-7.0-0.0-4.0-0.0-0.13","3","4","4","3","3","3","3","3","4","4","4","4","3","4","4","4","4","4","4","5","2","1","2","2","2","2","2","2","1","1","0","1","1","0","0","0","1","0","1","1","0","1","0","1","4","2","2","3","2","4","3","4","2","3","1","792736654921179138","肖","76","","","","match","","","","","","","","","","","","","","key","f","26.027397260273972","960","536","f","true","match","img/hexagon.png","六边","六边","ALT1","formal_ALT1_1","","","","","","","","","","","",""
"null","<span style='color:GreenYellow; font-size: 70px;'>正确! </span>","null","html-keyboard-response","134","281495","0.0-7.0-0.0-4.0-0.0-1.13","3","4","4","3","3","3","3","3","4","4","4","4","3","4","4","4","4","4","4","5","2","1","2","2","2","2","2","2","1","1","0","1","1","0","0","0","1","0","1","1","0","1","0","1","4","2","2","3","2","4","3","4","2","3","1","792736654921179138","肖","76","","","","","","","","","","","","","","","","","","","","","","","","","","","","","","feedback_test","","","","","","","","","","","",""
"1052","","j","psychophysics","135","282497","0.0-7.0-0.0-4.0-0.0-0.14","3","4","4","3","3","3","3","3","4","4","4","4","3","4","4","4","4","4","4","5","2","1","2","2","2","2","2","2","1","1","0","1","1","0","0","0","1","0","1","1","0","1","0","1","4","2","2","3","2","4","3","4","2","3","1","792736654921179138","肖","76","","","","nonmatch","","","","","","","","","","","","","","key","j","24.444444444444443","960","536","j","true","nonmatch","img/trapezoid.png","六边","梯形","ALT1","formal_ALT1_1","","","","","","","","","","","",""
"null","<span style='color:GreenYellow; font-size: 70px;'>正确! </span>","null","html-keyboard-response","136","283004","0.0-7.0-0.0-4.0-0.0-1.14","3","4","4","3","3","3","3","3","4","4","4","4","3","4","4","4","4","4","4","5","2","1","2","2","2","2","2","2","1","1","0","1","1","0","0","0","1","0","1","1","0","1","0","1","4","2","2","3","2","4","3","4","2","3","1","792736654921179138","肖","76","","","","","","","","","","","","","","","","","","","","","","","","","","","","","","feedback_test","","","","","","","","","","","",""
"1121","","f","psychophysics","137","285146","0.0-7.0-0.0-4.0-0.0-0.15","3","4","4","3","3","3","3","3","4","4","4","4","3","4","4","4","4","4","4","5","2","1","2","2","2","2","2","2","1","1","0","1","1","0","0","0","1","0","1","1","0","1","0","1","4","2","2","3","2","4","3","4","2","3","1","792736654921179138","肖","76","","","","match","","","","","","","","","","","","","","key","f","26","960","536","f","true","match","img/square.png","方形","方形","ALT1","formal_ALT1_1","","","","","","","","","","","",""
"null","<span style='color:GreenYellow; font-size: 70px;'>正确! </span>","null","html-keyboard-response","138","285650","0.0-7.0-0.0-4.0-0.0-1.15","3","4","4","3","3","3","3","3","4","4","4","4","3","4","4","4","4","4","4","5","2","1","2","2","2","2","2","2","1","1","0","1","1","0","0","0","1","0","1","1","0","1","0","1","4","2","2","3","2","4","3","4","2","3","1","792736654921179138","肖","76","","","","","","","","","","","","","","","","","","","","","","","","","","","","","","feedback_test","","","","","","","","","","","",""
"908","","j","psychophysics","139","287566","0.0-7.0-0.0-4.0-0.0-0.16","3","4","4","3","3","3","3","3","4","4","4","4","3","4","4","4","4","4","4","5","2","1","2","2","2","2","2","2","1","1","0","1","1","0","0","0","1","0","1","1","0","1","0","1","4","2","2","3","2","4","3","4","2","3","1","792736654921179138","肖","76","","","","nonmatch","","","","","","","","","","","","","","key","j","23.417721518987342","960","536","j","true","nonmatch","img/square.png","六边","方形","ALT1","formal_ALT1_1","","","","","","","","","","","",""
"null","<span style='color:GreenYellow; font-size: 70px;'>正确! </span>","null","html-keyboard-response","140","288071","0.0-7.0-0.0-4.0-0.0-1.16","3","4","4","3","3","3","3","3","4","4","4","4","3","4","4","4","4","4","4","5","2","1","2","2","2","2","2","2","1","1","0","1","1","0","0","0","1","0","1","1","0","1","0","1","4","2","2","3","2","4","3","4","2","3","1","792736654921179138","肖","76","","","","","","","","","","","","","","","","","","","","","","","","","","","","","","feedback_test","","","","","","","","","","","",""
"988","","j","psychophysics","141","290064","0.0-7.0-0.0-4.0-0.0-0.17","3","4","4","3","3","3","3","3","4","4","4","4","3","4","4","4","4","4","4","5","2","1","2","2","2","2","2","2","1","1","0","1","1","0","0","0","1","0","1","1","0","1","0","1","4","2","2","3","2","4","3","4","2","3","1","792736654921179138","肖","76","","","","nonmatch","","","","","","","","","","","","","","key","j","25.324675324675326","960","536","j","true","nonmatch","img/hexagon.png","方形","六边","ALT1","formal_ALT1_1","","","","","","","","","","","",""
"null","<span style='color:GreenYellow; font-size: 70px;'>正确! </span>","null","html-keyboard-response","142","290573","0.0-7.0-0.0-4.0-0.0-1.17","3","4","4","3","3","3","3","3","4","4","4","4","3","4","4","4","4","4","4","5","2","1","2","2","2","2","2","2","1","1","0","1","1","0","0","0","1","0","1","1","0","1","0","1","4","2","2","3","2","4","3","4","2","3","1","792736654921179138","肖","76","","","","","","","","","","","","","","","","","","","","","","","","","","","","","","feedback_test","","","","","","","","","","","",""
"808","","f","psychophysics","143","292384","0.0-7.0-0.0-4.0-0.0-0.18","3","4","4","3","3","3","3","3","4","4","4","4","3","4","4","4","4","4","4","5","2","1","2","2","2","2","2","2","1","1","0","1","1","0","0","0","1","0","1","1","0","1","0","1","4","2","2","3","2","4","3","4","2","3","1","792736654921179138","肖","76","","","","match","","","","","","","","","","","","","","key","f","25.142857142857142","960","536","f","true","match","img/circle.png","圆形","圆形","ALT1","formal_ALT1_1","","","","","","","","","","","",""
"null","<span style='color:GreenYellow; font-size: 70px;'>正确! </span>","null","html-keyboard-response","144","292888","0.0-7.0-0.0-4.0-0.0-1.18","3","4","4","3","3","3","3","3","4","4","4","4","3","4","4","4","4","4","4","5","2","1","2","2","2","2","2","2","1","1","0","1","1","0","0","0","1","0","1","1","0","1","0","1","4","2","2","3","2","4","3","4","2","3","1","792736654921179138","肖","76","","","","","","","","","","","","","","","","","","","","","","","","","","","","","","feedback_test","","","","","","","","","","","",""
"1138","","j","psychophysics","145","295032","0.0-7.0-0.0-4.0-0.0-0.19","3","4","4","3","3","3","3","3","4","4","4","4","3","4","4","4","4","4","4","5","2","1","2","2","2","2","2","2","1","1","0","1","1","0","0","0","1","0","1","1","0","1","0","1","4","2","2","3","2","4","3","4","2","3","1","792736654921179138","肖","76","","","","nonmatch","","","","","","","","","","","","","","key","j","26.455696202531644","960","536","f","false","match","img/square.png","方形","方形","ALT1","formal_ALT1_1","","","","","","","","","","","",""
"null","<span style='color:red; font-size: 70px;'>错误! </span>","null","html-keyboard-response","146","295539","0.0-7.0-0.0-4.0-0.0-1.19","3","4","4","3","3","3","3","3","4","4","4","4","3","4","4","4","4","4","4","5","2","1","2","2","2","2","2","2","1","1","0","1","1","0","0","0","1","0","1","1","0","1","0","1","4","2","2","3","2","4","3","4","2","3","1","792736654921179138","肖","76","","","","","","","","","","","","","","","","","","","","","","","","","","","","","","feedback_test","","","","","","","","","","","",""
"1029","","j","psychophysics","147","297583","0.0-7.0-0.0-4.0-0.0-0.20","3","4","4","3","3","3","3","3","4","4","4","4","3","4","4","4","4","4","4","5","2","1","2","2","2","2","2","2","1","1","0","1","1","0","0","0","1","0","1","1","0","1","0","1","4","2","2","3","2","4","3","4","2","3","1","792736654921179138","肖","76","","","","nonmatch","","","","","","","","","","","","","","key","j","24.567901234567902","960","536","j","true","nonmatch","img/square.png","梯形","方形","ALT1","formal_ALT1_1","","","","","","","","","","","",""
"null","<span style='color:GreenYellow; font-size: 70px;'>正确! </span>","null","html-keyboard-response","148","298088","0.0-7.0-0.0-4.0-0.0-1.20","3","4","4","3","3","3","3","3","4","4","4","4","3","4","4","4","4","4","4","5","2","1","2","2","2","2","2","2","1","1","0","1","1","0","0","0","1","0","1","1","0","1","0","1","4","2","2","3","2","4","3","4","2","3","1","792736654921179138","肖","76","","","","","","","","","","","","","","","","","","","","","","","","","","","","","","feedback_test","","","","","","","","","","","",""
"916","","f","psychophysics","149","300009","0.0-7.0-0.0-4.0-0.0-0.21","3","4","4","3","3","3","3","3","4","4","4","4","3","4","4","4","4","4","4","5","2","1","2","2","2","2","2","2","1","1","0","1","1","0","0","0","1","0","1","1","0","1","0","1","4","2","2","3","2","4","3","4","2","3","1","792736654921179138","肖","76","","","","match","","","","","","","","","","","","","","key","f","25","960","536","f","true","match","img/hexagon.png","六边","六边","ALT1","formal_ALT1_1","","","","","","","","","","","",""
"null","<span style='color:GreenYellow; font-size: 70px;'>正确! </span>","null","html-keyboard-response","150","300512","0.0-7.0-0.0-4.0-0.0-1.21","3","4","4","3","3","3","3","3","4","4","4","4","3","4","4","4","4","4","4","5","2","1","2","2","2","2","2","2","1","1","0","1","1","0","0","0","1","0","1","1","0","1","0","1","4","2","2","3","2","4","3","4","2","3","1","792736654921179138","肖","76","","","","","","","","","","","","","","","","","","","","","","","","","","","","","","feedback_test","","","","","","","","","","","",""
"923","","j","psychophysics","151","302450","0.0-7.0-0.0-4.0-0.0-0.22","3","4","4","3","3","3","3","3","4","4","4","4","3","4","4","4","4","4","4","5","2","1","2","2","2","2","2","2","1","1","0","1","1","0","0","0","1","0","1","1","0","1","0","1","4","2","2","3","2","4","3","4","2","3","1","792736654921179138","肖","76","","","","nonmatch","","","","","","","","","","","","","","key","j","26.47887323943662","960","536","f","false","match","img/square.png","方形","方形","ALT1","formal_ALT1_1","","","","","","","","","","","",""
"null","<span style='color:red; font-size: 70px;'>错误! </span>","null","html-keyboard-response","152","302953","0.0-7.0-0.0-4.0-0.0-1.22","3","4","4","3","3","3","3","3","4","4","4","4","3","4","4","4","4","4","4","5","2","1","2","2","2","2","2","2","1","1","0","1","1","0","0","0","1","0","1","1","0","1","0","1","4","2","2","3","2","4","3","4","2","3","1","792736654921179138","肖","76","","","","","","","","","","","","","","","","","","","","","","","","","","","","","","feedback_test","","","","","","","","","","","",""
"1093","","j","psychophysics","153","305051","0.0-7.0-0.0-4.0-0.0-0.23","3","4","4","3","3","3","3","3","4","4","4","4","3","4","4","4","4","4","4","5","2","1","2","2","2","2","2","2","1","1","0","1","1","0","0","0","1","0","1","1","0","1","0","1","4","2","2","3","2","4","3","4","2","3","1","792736654921179138","肖","76","","","","nonmatch","","","","","","","","","","","","","","key","j","24.878048780487806","960","536","j","true","nonmatch","img/square.png","圆形","方形","ALT1","formal_ALT1_1","","","","","","","","","","","",""
"null","<span style='color:GreenYellow; font-size: 70px;'>正确! </span>","null","html-keyboard-response","154","305559","0.0-7.0-0.0-4.0-0.0-1.23","3","4","4","3","3","3","3","3","4","4","4","4","3","4","4","4","4","4","4","5","2","1","2","2","2","2","2","2","1","1","0","1","1","0","0","0","1","0","1","1","0","1","0","1","4","2","2","3","2","4","3","4","2","3","1","792736654921179138","肖","76","","","","","","","","","","","","","","","","","","","","","","","","","","","","","","feedback_test","","","","","","","","","","","",""
"1028","","j","psychophysics","155","307601","0.0-7.0-0.0-4.0-0.0-0.24","3","4","4","3","3","3","3","3","4","4","4","4","3","4","4","4","4","4","4","5","2","1","2","2","2","2","2","2","1","1","0","1","1","0","0","0","1","0","1","1","0","1","0","1","4","2","2","3","2","4","3","4","2","3","1","792736654921179138","肖","76","","","","nonmatch","","","","","","","","","","","","","","key","j","26.05263157894737","960","536","f","false","match","img/trapezoid.png","梯形","梯形","ALT1","formal_ALT1_1","","","","","","","","","","","",""
"null","<span style='color:red; font-size: 70px;'>错误! </span>","null","html-keyboard-response","156","308105","0.0-7.0-0.0-4.0-0.0-1.24","3","4","4","3","3","3","3","3","4","4","4","4","3","4","4","4","4","4","4","5","2","1","2","2","2","2","2","2","1","1","0","1","1","0","0","0","1","0","1","1","0","1","0","1","4","2","2","3","2","4","3","4","2","3","1","792736654921179138","肖","76","","","","","","","","","","","","","","","","","","","","","","","","","","","","","","feedback_test","","","","","","","","","","","",""
"1266","","j","psychophysics","157","310376","0.0-7.0-0.0-4.0-0.0-0.25","3","4","4","3","3","3","3","3","4","4","4","4","3","4","4","4","4","4","4","5","2","1","2","2","2","2","2","2","1","1","0","1","1","0","0","0","1","0","1","1","0","1","0","1","4","2","2","3","2","4","3","4","2","3","1","792736654921179138","肖","76","","","","nonmatch","","","","","","","","","","","","","","key","j","29.45945945945946","960","536","j","true","nonmatch","img/trapezoid.png","方形","梯形","ALT1","formal_ALT1_1","","","","","","","","","","","",""
"null","<span class='add_' style='color:yellow; font-size: 70px;'> 太慢! </span>","null","html-keyboard-response","158","310885","0.0-7.0-0.0-4.0-0.0-1.25","3","4","4","3","3","3","3","3","4","4","4","4","3","4","4","4","4","4","4","5","2","1","2","2","2","2","2","2","1","1","0","1","1","0","0","0","1","0","1","1","0","1","0","1","4","2","2","3","2","4","3","4","2","3","1","792736654921179138","肖","76","","","","","","","","","","","","","","","","","","","","","","","","","","","","","","feedback_test","","","","","","","","","","","",""
"892","","f","psychophysics","159","312797","0.0-7.0-0.0-4.0-0.0-0.26","3","4","4","3","3","3","3","3","4","4","4","4","3","4","4","4","4","4","4","5","2","1","2","2","2","2","2","2","1","1","0","1","1","0","0","0","1","0","1","1","0","1","0","1","4","2","2","3","2","4","3","4","2","3","1","792736654921179138","肖","76","","","","match","","","","","","","","","","","","","","key","f","29.838709677419356","960","536","f","true","match","img/hexagon.png","六边","六边","ALT1","formal_ALT1_1","","","","","","","","","","","",""
"null","<span style='color:GreenYellow; font-size: 70px;'>正确! </span>","null","html-keyboard-response","160","313312","0.0-7.0-0.0-4.0-0.0-1.26","3","4","4","3","3","3","3","3","4","4","4","4","3","4","4","4","4","4","4","5","2","1","2","2","2","2","2","2","1","1","0","1","1","0","0","0","1","0","1","1","0","1","0","1","4","2","2","3","2","4","3","4","2","3","1","792736654921179138","肖","76","","","","","","","","","","","","","","","","","","","","","","","","","","","","","","feedback_test","","","","","","","","","","","",""
"863","","f","psychophysics","161","315189","0.0-7.0-0.0-4.0-0.0-0.27","3","4","4","3","3","3","3","3","4","4","4","4","3","4","4","4","4","4","4","5","2","1","2","2","2","2","2","2","1","1","0","1","1","0","0","0","1","0","1","1","0","1","0","1","4","2","2","3","2","4","3","4","2","3","1","792736654921179138","肖","76","","","","match","","","","","","","","","","","","","","key","f","33.09090909090909","960","536","f","true","match","img/circle.png","圆形","圆形","ALT1","formal_ALT1_1","","","","","","","","","","","",""
"null","<span style='color:GreenYellow; font-size: 70px;'>正确! </span>","null","html-keyboard-response","162","315691","0.0-7.0-0.0-4.0-0.0-1.27","3","4","4","3","3","3","3","3","4","4","4","4","3","4","4","4","4","4","4","5","2","1","2","2","2","2","2","2","1","1","0","1","1","0","0","0","1","0","1","1","0","1","0","1","4","2","2","3","2","4","3","4","2","3","1","792736654921179138","肖","76","","","","","","","","","","","","","","","","","","","","","","","","","","","","","","feedback_test","","","","","","","","","","","",""
"782","","f","psychophysics","163","317536","0.0-7.0-0.0-4.0-0.0-0.28","3","4","4","3","3","3","3","3","4","4","4","4","3","4","4","4","4","4","4","5","2","1","2","2","2","2","2","2","1","1","0","1","1","0","0","0","1","0","1","1","0","1","0","1","4","2","2","3","2","4","3","4","2","3","1","792736654921179138","肖","76","","","","match","","","","","","","","","","","","","","key","f","29.032258064516128","960","536","f","true","match","img/circle.png","圆形","圆形","ALT1","formal_ALT1_1","","","","","","","","","","","",""
"null","<span style='color:GreenYellow; font-size: 70px;'>正确! </span>","null","html-keyboard-response","164","318039","0.0-7.0-0.0-4.0-0.0-1.28","3","4","4","3","3","3","3","3","4","4","4","4","3","4","4","4","4","4","4","5","2","1","2","2","2","2","2","2","1","1","0","1","1","0","0","0","1","0","1","1","0","1","0","1","4","2","2","3","2","4","3","4","2","3","1","792736654921179138","肖","76","","","","","","","","","","","","","","","","","","","","","","","","","","","","","","feedback_test","","","","","","","","","","","",""
"781","","f","psychophysics","165","319830","0.0-7.0-0.0-4.0-0.0-0.29","3","4","4","3","3","3","3","3","4","4","4","4","3","4","4","4","4","4","4","5","2","1","2","2","2","2","2","2","1","1","0","1","1","0","0","0","1","0","1","1","0","1","0","1","4","2","2","3","2","4","3","4","2","3","1","792736654921179138","肖","76","","","","match","","","","","","","","","","","","","","key","f","24.305555555555557","960","536","f","true","match","img/circle.png","圆形","圆形","ALT1","formal_ALT1_1","","","","","","","","","","","",""
"null","<span style='color:GreenYellow; font-size: 70px;'>正确! </span>","null","html-keyboard-response","166","320336","0.0-7.0-0.0-4.0-0.0-1.29","3","4","4","3","3","3","3","3","4","4","4","4","3","4","4","4","4","4","4","5","2","1","2","2","2","2","2","2","1","1","0","1","1","0","0","0","1","0","1","1","0","1","0","1","4","2","2","3","2","4","3","4","2","3","1","792736654921179138","肖","76","","","","","","","","","","","","","","","","","","","","","","","","","","","","","","feedback_test","","","","","","","","","","","",""
"839","","j","psychophysics","167","322180","0.0-7.0-0.0-4.0-0.0-0.30","3","4","4","3","3","3","3","3","4","4","4","4","3","4","4","4","4","4","4","5","2","1","2","2","2","2","2","2","1","1","0","1","1","0","0","0","1","0","1","1","0","1","0","1","4","2","2","3","2","4","3","4","2","3","1","792736654921179138","肖","76","","","","nonmatch","","","","","","","","","","","","","","key","j","22.727272727272727","960","536","j","true","nonmatch","img/hexagon.png","方形","六边","ALT1","formal_ALT1_1","","","","","","","","","","","",""
"null","<span style='color:GreenYellow; font-size: 70px;'>正确! </span>","null","html-keyboard-response","168","322684","0.0-7.0-0.0-4.0-0.0-1.30","3","4","4","3","3","3","3","3","4","4","4","4","3","4","4","4","4","4","4","5","2","1","2","2","2","2","2","2","1","1","0","1","1","0","0","0","1","0","1","1","0","1","0","1","4","2","2","3","2","4","3","4","2","3","1","792736654921179138","肖","76","","","","","","","","","","","","","","","","","","","","","","","","","","","","","","feedback_test","","","","","","","","","","","",""
"937","","f","psychophysics","169","324643","0.0-7.0-0.0-4.0-0.0-0.31","3","4","4","3","3","3","3","3","4","4","4","4","3","4","4","4","4","4","4","5","2","1","2","2","2","2","2","2","1","1","0","1","1","0","0","0","1","0","1","1","0","1","0","1","4","2","2","3","2","4","3","4","2","3","1","792736654921179138","肖","76","","","","match","","","","","","","","","","","","","","key","f","25.333333333333332","960","536","f","true","match","img/hexagon.png","六边","六边","ALT1","formal_ALT1_1","","","","","","","","","","","",""
"null","<span style='color:GreenYellow; font-size: 70px;'>正确! </span>","null","html-keyboard-response","170","325144","0.0-7.0-0.0-4.0-0.0-1.31","3","4","4","3","3","3","3","3","4","4","4","4","3","4","4","4","4","4","4","5","2","1","2","2","2","2","2","2","1","1","0","1","1","0","0","0","1","0","1","1","0","1","0","1","4","2","2","3","2","4","3","4","2","3","1","792736654921179138","肖","76","","","","","","","","","","","","","","","","","","","","","","","","","","","","","","feedback_test","","","","","","","","","","","",""
"941","","j","psychophysics","171","327098","0.0-7.0-0.0-4.0-0.0-0.32","3","4","4","3","3","3","3","3","4","4","4","4","3","4","4","4","4","4","4","5","2","1","2","2","2","2","2","2","1","1","0","1","1","0","0","0","1","0","1","1","0","1","0","1","4","2","2","3","2","4","3","4","2","3","1","792736654921179138","肖","76","","","","nonmatch","","","","","","","","","","","","","","key","j","26.81159420289855","960","536","j","true","nonmatch","img/square.png","梯形","方形","ALT1","formal_ALT1_1","","","","","","","","","","","",""
"null","<span style='color:GreenYellow; font-size: 70px;'>正确! </span>","null","html-keyboard-response","172","327601","0.0-7.0-0.0-4.0-0.0-1.32","3","4","4","3","3","3","3","3","4","4","4","4","3","4","4","4","4","4","4","5","2","1","2","2","2","2","2","2","1","1","0","1","1","0","0","0","1","0","1","1","0","1","0","1","4","2","2","3","2","4","3","4","2","3","1","792736654921179138","肖","76","","","","","","","","","","","","","","","","","","","","","","","","","","","","","","feedback_test","","","","","","","","","","","",""
"944","","j","psychophysics","173","329560","0.0-7.0-0.0-4.0-0.0-0.33","3","4","4","3","3","3","3","3","4","4","4","4","3","4","4","4","4","4","4","5","2","1","2","2","2","2","2","2","1","1","0","1","1","0","0","0","1","0","1","1","0","1","0","1","4","2","2","3","2","4","3","4","2","3","1","792736654921179138","肖","76","","","","nonmatch","","","","","","","","","","","","","","key","j","27.794117647058822","960","536","j","true","nonmatch","img/circle.png","六边","圆形","ALT1","formal_ALT1_1","","","","","","","","","","","",""
"null","<span style='color:GreenYellow; font-size: 70px;'>正确! </span>","null","html-keyboard-response","174","330065","0.0-7.0-0.0-4.0-0.0-1.33","3","4","4","3","3","3","3","3","4","4","4","4","3","4","4","4","4","4","4","5","2","1","2","2","2","2","2","2","1","1","0","1","1","0","0","0","1","0","1","1","0","1","0","1","4","2","2","3","2","4","3","4","2","3","1","792736654921179138","肖","76","","","","","","","","","","","","","","","","","","","","","","","","","","","","","","feedback_test","","","","","","","","","","","",""
"925","","j","psychophysics","175","331994","0.0-7.0-0.0-4.0-0.0-0.34","3","4","4","3","3","3","3","3","4","4","4","4","3","4","4","4","4","4","4","5","2","1","2","2","2","2","2","2","1","1","0","1","1","0","0","0","1","0","1","1","0","1","0","1","4","2","2","3","2","4","3","4","2","3","1","792736654921179138","肖","76","","","","nonmatch","","","","","","","","","","","","","","key","j","28.333333333333332","960","536","f","false","match","img/square.png","方形","方形","ALT1","formal_ALT1_1","","","","","","","","","","","",""
"null","<span style='color:red; font-size: 70px;'>错误! </span>","null","html-keyboard-response","176","332497","0.0-7.0-0.0-4.0-0.0-1.34","3","4","4","3","3","3","3","3","4","4","4","4","3","4","4","4","4","4","4","5","2","1","2","2","2","2","2","2","1","1","0","1","1","0","0","0","1","0","1","1","0","1","0","1","4","2","2","3","2","4","3","4","2","3","1","792736654921179138","肖","76","","","","","","","","","","","","","","","","","","","","","","","","","","","","","","feedback_test","","","","","","","","","","","",""
"null","","null","psychophysics","177","334721","0.0-7.0-0.0-4.0-0.0-0.35","3","4","4","3","3","3","3","3","4","4","4","4","3","4","4","4","4","4","4","5","2","1","2","2","2","2","2","2","1","1","0","1","1","0","0","0","1","0","1","1","0","1","0","1","4","2","2","3","2","4","3","4","2","3","1","792736654921179138","肖","76","","","","null","","","","","","","","","","","","","","key","null","26.75","960","536","j","false","nonmatch","img/trapezoid.png","六边","梯形","ALT1","formal_ALT1_1","","","","","","","","","","","",""
"null","<span class='add_' style='color:yellow; font-size: 70px;'> 太慢! </span>","null","html-keyboard-response","178","335227","0.0-7.0-0.0-4.0-0.0-1.35","3","4","4","3","3","3","3","3","4","4","4","4","3","4","4","4","4","4","4","5","2","1","2","2","2","2","2","2","1","1","0","1","1","0","0","0","1","0","1","1","0","1","0","1","4","2","2","3","2","4","3","4","2","3","1","792736654921179138","肖","76","","","","","","","","","","","","","","","","","","","","","","","","","","","","","","feedback_test","","","","","","","","","","","",""
"941","","j","psychophysics","179","337172","0.0-7.0-0.0-4.0-0.0-0.36","3","4","4","3","3","3","3","3","4","4","4","4","3","4","4","4","4","4","4","5","2","1","2","2","2","2","2","2","1","1","0","1","1","0","0","0","1","0","1","1","0","1","0","1","4","2","2","3","2","4","3","4","2","3","1","792736654921179138","肖","76","","","","nonmatch","","","","","","","","","","","","","","key","j","25.54054054054054","960","536","j","true","nonmatch","img/hexagon.png","圆形","六边","ALT1","formal_ALT1_1","","","","","","","","","","","",""
"null","<span style='color:GreenYellow; font-size: 70px;'>正确! </span>","null","html-keyboard-response","180","337675","0.0-7.0-0.0-4.0-0.0-1.36","3","4","4","3","3","3","3","3","4","4","4","4","3","4","4","4","4","4","4","5","2","1","2","2","2","2","2","2","1","1","0","1","1","0","0","0","1","0","1","1","0","1","0","1","4","2","2","3","2","4","3","4","2","3","1","792736654921179138","肖","76","","","","","","","","","","","","","","","","","","","","","","","","","","","","","","feedback_test","","","","","","","","","","","",""
"1008","","j","psychophysics","181","339689","0.0-7.0-0.0-4.0-0.0-0.37","3","4","4","3","3","3","3","3","4","4","4","4","3","4","4","4","4","4","4","5","2","1","2","2","2","2","2","2","1","1","0","1","1","0","0","0","1","0","1","1","0","1","0","1","4","2","2","3","2","4","3","4","2","3","1","792736654921179138","肖","76","","","","nonmatch","","","","","","","","","","","","","","key","j","27.083333333333332","960","536","j","true","nonmatch","img/trapezoid.png","圆形","梯形","ALT1","formal_ALT1_1","","","","","","","","","","","",""
