"rt","stimulus","response","trial_type","trial_index","time_elapsed","internal_node_id","ses_1","ses_2","ses_3","ses_4","ses_5","ses_6","ses_7","ses_8","ses_9","ses_10","coreself_1","coreself_2","coreself_3","coreself_4","coreself_5","coreself_6","coreself_7","coreself_8","coreself_9","coreself_10","SGPS_1","SGPS_2","SGPS_3","SGPS_4","SGPS_5","SGPS_6","SGPS_7","SGPS_8","SGPS_9","NPI1","NPI2","NPI3","NPI4","NPI5","NPI6","NPI7","NPI8","NPI9","NPI10","NPI11","NPI12","NPI13","NPI14","NPI15","hsns_1","hsns_2","hsns_3","hsns_4","hsns_5","trap1","hsns_6","hsns_7","hsns_8","hsns_9","hsns_10","subj_idx","friend_name","ParticipantID","value","success","user_agent","responses","item_order","radio_event_ids","radio_event_times","key_event_times","mouse_event_times","straightlining","zigzagging","honeypot","timeout","failed_images","failed_audio","failed_video","version_attrib2","version_target2","correct","IAT","screen_id","task_id","RT","condition","word","varname","summary","version_attrib","version_target","time_stamp","view_history","response_type","key_press","avg_frame_time","center_x","center_y","correct_response","identity","Image","question_order","correct_answer","trap1_item"
"10370","
   <p><div style = ""color: white;font-size:25px;"">您好，欢迎参加本次实验。</div> </p>
   <p><div style = ""color: white;font-size:25px;"">为充分保障您的权利，请确保您已经知晓并同意《参与实验同意书》以及《数据公开知情同意书》。</div></p>
   <p><div style = ""color: white;font-size:25px;"">如果您未见过上述内容，请咨询实验员。</div></p>
   <p><div style = ""color: white;font-size:25px;"">如果您选择继续实验，则表示您已经清楚两份知情同意书的内容并同意。</div></p>
   <p><div style = ""color: pink;font-size:30px;"">请确保您记得day0的实验编号，您将在本次实验输入该编号，若您忘记，请咨询实验员后作答。</div></p>
   <p><div style = ""color: lightblue;font-size:25px;"">请您尽可能认真地作答，我们将依据您在各问卷和按键任务中的作答质量发放报酬。</div></p>
   <p> <div style = ""color: green;font-size:25px;""><按空格键至下页></div> </p>
   "," ","html-keyboard-response","0","10373","0.0-0.0","4","4","3","3","3","3","4","4","3","3","5","2","2","4","2","4","2","2","5","2","2","4","2","2","2","2","2","2","4","1","0","1","0","1","0","0","1","0","1","0","0","1","0","1","5","2","2","2","2","","2","4","4","4","4","789952361161433089","罗","448","","","","","","","","","","","","","","","","","","","","","","","","","","","","","","","","","","","","","","","","","",""
"","","","call-function","1","10378","0.0-1.0-0.0","4","4","3","3","3","3","4","4","3","3","5","2","2","4","2","4","2","2","5","2","2","4","2","2","2","2","2","2","4","1","0","1","0","1","0","0","1","0","1","0","0","1","0","1","5","2","2","2","2","","2","4","4","4","4","789952361161433089","罗","448","","","","","","","","","","","","","","","","","","","","","","","","","","","","","","","","","","","","","","","","","",""
"18842","","{""friend_name"":""罗"",""ParticipantID"":""448""}","survey-html-form","2","29223","0.0-1.0-1.0","4","4","3","3","3","3","4","4","3","3","5","2","2","4","2","4","2","2","5","2","2","4","2","2","2","2","2","2","4","1","0","1","0","1","0","0","1","0","1","0","0","1","0","1","5","2","2","2","2","","2","4","4","4","4","789952361161433089","罗","448","","","","","","","","","","","","","","","","","","","","","","","","","","","","","","","","","","","","","","","","","",""
"","","","fullscreen","3","56693","0.0-2.0","4","4","3","3","3","3","4","4","3","3","5","2","2","4","2","4","2","2","5","2","2","4","2","2","2","2","2","2","4","1","0","1","0","1","0","0","1","0","1","0","0","1","0","1","5","2","2","2","2","","2","4","4","4","4","789952361161433089","罗","448","","true","{}","","","","","","","","","","","","","","","","","","","","","","","","","","","","","","","","","","","","","","",""
"56722.30000000005","","{""Q01"":""4"",""Q02"":""4"",""Q03"":""3"",""Q04"":""3"",""Q05"":""3"",""Q06"":""3"",""Q07"":""4"",""Q08"":""4"",""Q09"":""3"",""Q10"":""3""}","survey-template","4","113321","0.0-3.0","4","4","3","3","3","3","4","4","3","3","5","2","2","4","2","4","2","2","5","2","2","4","2","2","2","2","2","2","4","1","0","1","0","1","0","0","1","0","1","0","0","1","0","1","5","2","2","2","2","","2","4","4","4","4","789952361161433089","罗","448","","","","{""Q01"":""4"",""Q02"":""4"",""Q03"":""3"",""Q04"":""3"",""Q05"":""3"",""Q06"":""3"",""Q07"":""4"",""Q08"":""4"",""Q09"":""3"",""Q10"":""3""}","[0,1,2,3,4,5,6,7,8,9]","[""Q01"",""Q02"",""Q03"",""Q03"",""Q04"",""Q05"",""Q06"",""Q07"",""Q08"",""Q08"",""Q09"",""Q10""]","[8820.699999999953,11123.699999999953,14867.40000000014,18739.100000000093,23562.90000000014,29298.5,31618.300000000047,38594,43161.60000000009,46729.60000000009,50345,53641]","[]","[8820.699999999953,11123.699999999953,14867.40000000014,18739.100000000093,23562.90000000014,29298.5,31618.300000000047,38594,43161.60000000009,46729.60000000009,50345,53641,56720.30000000005]","0.4","0.6666666666666666","0","","","","","","","","","","","","","","","","","","","","","","","","","","","","","",""
"46820.299999999814","","{""Q01"":""5"",""Q02"":""2"",""Q03"":""2"",""Q04"":""4"",""Q05"":""2"",""Q06"":""4"",""Q07"":""2"",""Q08"":""2"",""Q09"":""5"",""Q10"":""2""}","survey-template","5","160103","0.0-4.0","4","4","3","3","3","3","4","4","3","3","5","2","2","4","2","4","2","2","5","2","2","4","2","2","2","2","2","2","4","1","0","1","0","1","0","0","1","0","1","0","0","1","0","1","5","2","2","2","2","","2","4","4","4","4","789952361161433089","罗","448","","","","{""Q01"":""5"",""Q02"":""2"",""Q03"":""2"",""Q04"":""4"",""Q05"":""2"",""Q06"":""4"",""Q07"":""2"",""Q08"":""2"",""Q09"":""5"",""Q10"":""2""}","[0,1,2,3,4,5,6,7,8,9]","[""Q01"",""Q02"",""Q02"",""Q03"",""Q04"",""Q05"",""Q06"",""Q07"",""Q08"",""Q09"",""Q09"",""Q10""]","[3897.600000000093,12897.799999999814,16921.5,19977.100000000093,22985,25816.299999999814,28888.5,31688.299999999814,35255.89999999991,39488,41351.60000000009,45958.799999999814]","[]","[3897.600000000093,12897.799999999814,16921.5,19977.100000000093,22985,25816.299999999814,28888.5,31688.299999999814,35255.89999999991,39488,41351.60000000009,45958.799999999814,46816.89999999991]","0.8","0.3333333333333333","0","","","","","","","","","","","","","","","","","","","","","","","","","","","","","",""
"","","","preload","6","162497","0.0-5.0","4","4","3","3","3","3","4","4","3","3","5","2","2","4","2","4","2","2","5","2","2","4","2","2","2","2","2","2","4","1","0","1","0","1","0","0","1","0","1","0","0","1","0","1","5","2","2","2","2","","2","4","4","4","4","789952361161433089","罗","448","","true","","","","","","","","","","","false","[]","[]","[]","","","","","","","","","","","","","","","","","","","","","","","","","",""
"12234","
    <h3>词语分类任务</h3>
    <p>在接下来的任务中，你需要对一系列词语进行分类。<p/>
    请先熟悉这些词语，这有利于你完成接下来的任务。</p>
    <table align=""center"" border=1 cellpadding=3 cellspacing=0>
    <tr> <th>类别</th> <th>词语</th> </tr>
    <tr> <td>&emsp;积极&emsp;</td> <td>&emsp;高尚、诚信、善良、君子、廉正、正直&emsp;</td> </tr>
    <tr> <td>&emsp;消极&emsp;</td> <td>&emsp;缺德、卑鄙、不孝、不仁、小人、黑心&emsp;</td> </tr>
    <tr> <td>&emsp;自我&emsp;</td> <td>&emsp;我、我的、自己、自己的、本人、本人的&emsp;</td> </tr>
    <tr> <td>&emsp;他人&emsp;</td> <td>&emsp;他、他的、别人、别人的、他人、他人的&emsp;</td> </tr>
    </table><br/>","0","html-button-response","7","174735","0.0-6.0-1.0-0.0","4","4","3","3","3","3","4","4","3","3","5","2","2","4","2","4","2","2","5","2","2","4","2","2","2","2","2","2","4","1","0","1","0","1","0","0","1","0","1","0","0","1","0","1","5","2","2","2","2","","2","4","4","4","4","789952361161433089","罗","448","","","","","","","","","","","","","","","","","1","2","","","","","","","","","","","","","","","","","","","","","","","",""
"10893","
    <div class=""tag-bottom""><p>
    —— 任务1：对“他人”词和“自我”词分类 ——<p/>
    不同词语会出现在屏幕中央，类别标签将始终显示在屏幕上方<p/>   
    <span style=""color:#FFD866""><b>请根据上方标签的提示，尽可能正确并且快速地做出按键反应</b></span><p/>
    当按键错误时屏幕中会出现<span style=""color:red""> X </span>，需要按另一个键纠正才能继续<br/><p/>
    请把双手食指分别放在键盘的“E”键和“I”键上<p/>
    按<空格键>开始
    </p></div>"," ","html-keyboard-response","8","185740","0.0-6.0-1.0-1.0","4","4","3","3","3","3","4","4","3","3","5","2","2","4","2","4","2","2","5","2","2","4","2","2","2","2","2","2","4","1","0","1","0","1","0","0","1","0","1","0","0","1","0","1","5","2","2","2","2","","2","4","4","4","4","789952361161433089","罗","448","","","","","","","","","","","","","","","","","","","","","","","","","","","","","","","","","","","","","","","","","",""
"null","","null","html-keyboard-response","9","185992","0.0-6.0-1.0-2.0-0.0","4","4","3","3","3","3","4","4","3","3","5","2","2","4","2","4","2","2","5","2","2","4","2","2","2","2","2","2","4","1","0","1","0","1","0","0","1","0","1","0","0","1","0","1","5","2","2","2","2","","2","4","4","4","4","789952361161433089","罗","448","","","","","","","","","","","","","","","","","","","","","","","","","","","","","","","","","","","","","","","","","",""
"1177","<p style=""color:rgb(150, 250, 100); font-size: 35px;"">本人的</p>","i","categorize-html","10","187173","0.0-6.0-1.0-2.0-1.0","4","4","3","3","3","3","4","4","3","3","5","2","2","4","2","4","2","2","5","2","2","4","2","2","2","2","2","2","4","1","0","1","0","1","0","0","1","0","1","0","0","1","0","1","5","2","2","2","2","","2","4","4","4","4","789952361161433089","罗","448","","","","","","","","","","","","","","","","","","","true","11","1","moral","1177","self","本人的","","","","","","","","","","","","","","","","",""
"null","","null","html-keyboard-response","11","187424","0.0-6.0-1.0-2.0-0.1","4","4","3","3","3","3","4","4","3","3","5","2","2","4","2","4","2","2","5","2","2","4","2","2","2","2","2","2","4","1","0","1","0","1","0","0","1","0","1","0","0","1","0","1","5","2","2","2","2","","2","4","4","4","4","789952361161433089","罗","448","","","","","","","","","","","","","","","","","","","","","","","","","","","","","","","","","","","","","","","","","",""
"811","<p style=""color:rgb(150, 250, 100); font-size: 35px;"">我的</p>","i","categorize-html","12","188238","0.0-6.0-1.0-2.0-1.1","4","4","3","3","3","3","4","4","3","3","5","2","2","4","2","4","2","2","5","2","2","4","2","2","2","2","2","2","4","1","0","1","0","1","0","0","1","0","1","0","0","1","0","1","5","2","2","2","2","","2","4","4","4","4","789952361161433089","罗","448","","","","","","","","","","","","","","","","","","","true","11","1","moral","811","self","我的","","","","","","","","","","","","","","","","",""
"null","","null","html-keyboard-response","13","188490","0.0-6.0-1.0-2.0-0.2","4","4","3","3","3","3","4","4","3","3","5","2","2","4","2","4","2","2","5","2","2","4","2","2","2","2","2","2","4","1","0","1","0","1","0","0","1","0","1","0","0","1","0","1","5","2","2","2","2","","2","4","4","4","4","789952361161433089","罗","448","","","","","","","","","","","","","","","","","","","","","","","","","","","","","","","","","","","","","","","","","",""
"680","<p style=""color:rgb(150, 250, 100); font-size: 35px;"">别人的</p>","e","categorize-html","14","189174","0.0-6.0-1.0-2.0-1.2","4","4","3","3","3","3","4","4","3","3","5","2","2","4","2","4","2","2","5","2","2","4","2","2","2","2","2","2","4","1","0","1","0","1","0","0","1","0","1","0","0","1","0","1","5","2","2","2","2","","2","4","4","4","4","789952361161433089","罗","448","","","","","","","","","","","","","","","","","","","true","11","1","moral","680","other","别人的","","","","","","","","","","","","","","","","",""
"null","","null","html-keyboard-response","15","189426","0.0-6.0-1.0-2.0-0.3","4","4","3","3","3","3","4","4","3","3","5","2","2","4","2","4","2","2","5","2","2","4","2","2","2","2","2","2","4","1","0","1","0","1","0","0","1","0","1","0","0","1","0","1","5","2","2","2","2","","2","4","4","4","4","789952361161433089","罗","448","","","","","","","","","","","","","","","","","","","","","","","","","","","","","","","","","","","","","","","","","",""
"824","<p style=""color:rgb(150, 250, 100); font-size: 35px;"">他的</p>","e","categorize-html","16","190255","0.0-6.0-1.0-2.0-1.3","4","4","3","3","3","3","4","4","3","3","5","2","2","4","2","4","2","2","5","2","2","4","2","2","2","2","2","2","4","1","0","1","0","1","0","0","1","0","1","0","0","1","0","1","5","2","2","2","2","","2","4","4","4","4","789952361161433089","罗","448","","","","","","","","","","","","","","","","","","","true","11","1","moral","824","other","他的","","","","","","","","","","","","","","","","",""
"null","","null","html-keyboard-response","17","190506","0.0-6.0-1.0-2.0-0.4","4","4","3","3","3","3","4","4","3","3","5","2","2","4","2","4","2","2","5","2","2","4","2","2","2","2","2","2","4","1","0","1","0","1","0","0","1","0","1","0","0","1","0","1","5","2","2","2","2","","2","4","4","4","4","789952361161433089","罗","448","","","","","","","","","","","","","","","","","","","","","","","","","","","","","","","","","","","","","","","","","",""
"864","<p style=""color:rgb(150, 250, 100); font-size: 35px;"">自己的</p>","i","categorize-html","18","191374","0.0-6.0-1.0-2.0-1.4","4","4","3","3","3","3","4","4","3","3","5","2","2","4","2","4","2","2","5","2","2","4","2","2","2","2","2","2","4","1","0","1","0","1","0","0","1","0","1","0","0","1","0","1","5","2","2","2","2","","2","4","4","4","4","789952361161433089","罗","448","","","","","","","","","","","","","","","","","","","true","11","1","moral","864","self","自己的","","","","","","","","","","","","","","","","",""
"null","","null","html-keyboard-response","19","191628","0.0-6.0-1.0-2.0-0.5","4","4","3","3","3","3","4","4","3","3","5","2","2","4","2","4","2","2","5","2","2","4","2","2","2","2","2","2","4","1","0","1","0","1","0","0","1","0","1","0","0","1","0","1","5","2","2","2","2","","2","4","4","4","4","789952361161433089","罗","448","","","","","","","","","","","","","","","","","","","","","","","","","","","","","","","","","","","","","","","","","",""
"710","<p style=""color:rgb(150, 250, 100); font-size: 35px;"">他人的</p>","e","categorize-html","20","192342","0.0-6.0-1.0-2.0-1.5","4","4","3","3","3","3","4","4","3","3","5","2","2","4","2","4","2","2","5","2","2","4","2","2","2","2","2","2","4","1","0","1","0","1","0","0","1","0","1","0","0","1","0","1","5","2","2","2","2","","2","4","4","4","4","789952361161433089","罗","448","","","","","","","","","","","","","","","","","","","true","11","1","moral","710","other","他人的","","","","","","","","","","","","","","","","",""
"null","","null","html-keyboard-response","21","192594","0.0-6.0-1.0-2.0-0.6","4","4","3","3","3","3","4","4","3","3","5","2","2","4","2","4","2","2","5","2","2","4","2","2","2","2","2","2","4","1","0","1","0","1","0","0","1","0","1","0","0","1","0","1","5","2","2","2","2","","2","4","4","4","4","789952361161433089","罗","448","","","","","","","","","","","","","","","","","","","","","","","","","","","","","","","","","","","","","","","","","",""
"1112","<p style=""color:rgb(150, 250, 100); font-size: 35px;"">我</p>","i","categorize-html","22","193711","0.0-6.0-1.0-2.0-1.6","4","4","3","3","3","3","4","4","3","3","5","2","2","4","2","4","2","2","5","2","2","4","2","2","2","2","2","2","4","1","0","1","0","1","0","0","1","0","1","0","0","1","0","1","5","2","2","2","2","","2","4","4","4","4","789952361161433089","罗","448","","","","","","","","","","","","","","","","","","","true","11","1","moral","1112","self","我","","","","","","","","","","","","","","","","",""
"null","","null","html-keyboard-response","23","193963","0.0-6.0-1.0-2.0-0.7","4","4","3","3","3","3","4","4","3","3","5","2","2","4","2","4","2","2","5","2","2","4","2","2","2","2","2","2","4","1","0","1","0","1","0","0","1","0","1","0","0","1","0","1","5","2","2","2","2","","2","4","4","4","4","789952361161433089","罗","448","","","","","","","","","","","","","","","","","","","","","","","","","","","","","","","","","","","","","","","","","",""
"951","<p style=""color:rgb(150, 250, 100); font-size: 35px;"">别人</p>","e","categorize-html","24","194917","0.0-6.0-1.0-2.0-1.7","4","4","3","3","3","3","4","4","3","3","5","2","2","4","2","4","2","2","5","2","2","4","2","2","2","2","2","2","4","1","0","1","0","1","0","0","1","0","1","0","0","1","0","1","5","2","2","2","2","","2","4","4","4","4","789952361161433089","罗","448","","","","","","","","","","","","","","","","","","","true","11","1","moral","951","other","别人","","","","","","","","","","","","","","","","",""
"null","","null","html-keyboard-response","25","195169","0.0-6.0-1.0-2.0-0.8","4","4","3","3","3","3","4","4","3","3","5","2","2","4","2","4","2","2","5","2","2","4","2","2","2","2","2","2","4","1","0","1","0","1","0","0","1","0","1","0","0","1","0","1","5","2","2","2","2","","2","4","4","4","4","789952361161433089","罗","448","","","","","","","","","","","","","","","","","","","","","","","","","","","","","","","","","","","","","","","","","",""
"857","<p style=""color:rgb(150, 250, 100); font-size: 35px;"">他</p>","e","categorize-html","26","196030","0.0-6.0-1.0-2.0-1.8","4","4","3","3","3","3","4","4","3","3","5","2","2","4","2","4","2","2","5","2","2","4","2","2","2","2","2","2","4","1","0","1","0","1","0","0","1","0","1","0","0","1","0","1","5","2","2","2","2","","2","4","4","4","4","789952361161433089","罗","448","","","","","","","","","","","","","","","","","","","true","11","1","moral","857","other","他","","","","","","","","","","","","","","","","",""
"null","","null","html-keyboard-response","27","196282","0.0-6.0-1.0-2.0-0.9","4","4","3","3","3","3","4","4","3","3","5","2","2","4","2","4","2","2","5","2","2","4","2","2","2","2","2","2","4","1","0","1","0","1","0","0","1","0","1","0","0","1","0","1","5","2","2","2","2","","2","4","4","4","4","789952361161433089","罗","448","","","","","","","","","","","","","","","","","","","","","","","","","","","","","","","","","","","","","","","","","",""
"904","<p style=""color:rgb(150, 250, 100); font-size: 35px;"">本人</p>","i","categorize-html","28","197189","0.0-6.0-1.0-2.0-1.9","4","4","3","3","3","3","4","4","3","3","5","2","2","4","2","4","2","2","5","2","2","4","2","2","2","2","2","2","4","1","0","1","0","1","0","0","1","0","1","0","0","1","0","1","5","2","2","2","2","","2","4","4","4","4","789952361161433089","罗","448","","","","","","","","","","","","","","","","","","","true","11","1","moral","904","self","本人","","","","","","","","","","","","","","","","",""
"null","","null","html-keyboard-response","29","197441","0.0-6.0-1.0-2.0-0.10","4","4","3","3","3","3","4","4","3","3","5","2","2","4","2","4","2","2","5","2","2","4","2","2","2","2","2","2","4","1","0","1","0","1","0","0","1","0","1","0","0","1","0","1","5","2","2","2","2","","2","4","4","4","4","789952361161433089","罗","448","","","","","","","","","","","","","","","","","","","","","","","","","","","","","","","","","","","","","","","","","",""
"793","<p style=""color:rgb(150, 250, 100); font-size: 35px;"">自己</p>","i","categorize-html","30","198236","0.0-6.0-1.0-2.0-1.10","4","4","3","3","3","3","4","4","3","3","5","2","2","4","2","4","2","2","5","2","2","4","2","2","2","2","2","2","4","1","0","1","0","1","0","0","1","0","1","0","0","1","0","1","5","2","2","2","2","","2","4","4","4","4","789952361161433089","罗","448","","","","","","","","","","","","","","","","","","","true","11","1","moral","793","self","自己","","","","","","","","","","","","","","","","",""
"null","","null","html-keyboard-response","31","198486","0.0-6.0-1.0-2.0-0.11","4","4","3","3","3","3","4","4","3","3","5","2","2","4","2","4","2","2","5","2","2","4","2","2","2","2","2","2","4","1","0","1","0","1","0","0","1","0","1","0","0","1","0","1","5","2","2","2","2","","2","4","4","4","4","789952361161433089","罗","448","","","","","","","","","","","","","","","","","","","","","","","","","","","","","","","","","","","","","","","","","",""
"988","<p style=""color:rgb(150, 250, 100); font-size: 35px;"">他人</p>","e","categorize-html","32","199477","0.0-6.0-1.0-2.0-1.11","4","4","3","3","3","3","4","4","3","3","5","2","2","4","2","4","2","2","5","2","2","4","2","2","2","2","2","2","4","1","0","1","0","1","0","0","1","0","1","0","0","1","0","1","5","2","2","2","2","","2","4","4","4","4","789952361161433089","罗","448","","","","","","","","","","","","","","","","","","","true","11","1","moral","988","other","他人","","","","","","","","","","","","","","","","",""
"4732","
    <div class=""tag-bottom""><p>
    —— 任务2：对“积极”词和“消极”词分类 ——<p/>   
    <span style=""color:#78DCE8""><b>注意上方，类别标签和需要分类的词语都已经改变</b></span><p/>
    <span style=""color:#FFD866""><b>请根据上方标签的提示，尽可能正确并且快速地做出按键反应</b></span><p/>
    当按键错误时屏幕中会出现<span style=""color:red""> X </span>，需要按另一个键纠正才能继续<br/><p/>
    请把双手食指分别放在键盘的“E”键和“I”键上<p/>
    按<空格键>开始
    </p></div>"," ","html-keyboard-response","33","204210","0.0-6.0-1.0-3.0","4","4","3","3","3","3","4","4","3","3","5","2","2","4","2","4","2","2","5","2","2","4","2","2","2","2","2","2","4","1","0","1","0","1","0","0","1","0","1","0","0","1","0","1","5","2","2","2","2","","2","4","4","4","4","789952361161433089","罗","448","","","","","","","","","","","","","","","","","","","","","","","","","","","","","","","","","","","","","","","","","",""
"null","","null","html-keyboard-response","34","204462","0.0-6.0-1.0-4.0-0.0","4","4","3","3","3","3","4","4","3","3","5","2","2","4","2","4","2","2","5","2","2","4","2","2","2","2","2","2","4","1","0","1","0","1","0","0","1","0","1","0","0","1","0","1","5","2","2","2","2","","2","4","4","4","4","789952361161433089","罗","448","","","","","","","","","","","","","","","","","","","","","","","","","","","","","","","","","","","","","","","","","",""
"1098","<p style=""color:white; font-size: 35px;"">廉正</p>","e","categorize-html","35","205563","0.0-6.0-1.0-4.0-1.0","4","4","3","3","3","3","4","4","3","3","5","2","2","4","2","4","2","2","5","2","2","4","2","2","2","2","2","2","4","1","0","1","0","1","0","0","1","0","1","0","0","1","0","1","5","2","2","2","2","","2","4","4","4","4","789952361161433089","罗","448","","","","","","","","","","","","","","","","","","","true","12","2","moral","1098","positive","廉正","","","","","","","","","","","","","","","","",""
"null","","null","html-keyboard-response","36","205814","0.0-6.0-1.0-4.0-0.1","4","4","3","3","3","3","4","4","3","3","5","2","2","4","2","4","2","2","5","2","2","4","2","2","2","2","2","2","4","1","0","1","0","1","0","0","1","0","1","0","0","1","0","1","5","2","2","2","2","","2","4","4","4","4","789952361161433089","罗","448","","","","","","","","","","","","","","","","","","","","","","","","","","","","","","","","","","","","","","","","","",""
"708","<p style=""color:white; font-size: 35px;"">正直</p>","e","categorize-html","37","206526","0.0-6.0-1.0-4.0-1.1","4","4","3","3","3","3","4","4","3","3","5","2","2","4","2","4","2","2","5","2","2","4","2","2","2","2","2","2","4","1","0","1","0","1","0","0","1","0","1","0","0","1","0","1","5","2","2","2","2","","2","4","4","4","4","789952361161433089","罗","448","","","","","","","","","","","","","","","","","","","true","12","2","moral","708","positive","正直","","","","","","","","","","","","","","","","",""
"null","","null","html-keyboard-response","38","206777","0.0-6.0-1.0-4.0-0.2","4","4","3","3","3","3","4","4","3","3","5","2","2","4","2","4","2","2","5","2","2","4","2","2","2","2","2","2","4","1","0","1","0","1","0","0","1","0","1","0","0","1","0","1","5","2","2","2","2","","2","4","4","4","4","789952361161433089","罗","448","","","","","","","","","","","","","","","","","","","","","","","","","","","","","","","","","","","","","","","","","",""
"914","<p style=""color:white; font-size: 35px;"">缺德</p>","i","categorize-html","39","207694","0.0-6.0-1.0-4.0-1.2","4","4","3","3","3","3","4","4","3","3","5","2","2","4","2","4","2","2","5","2","2","4","2","2","2","2","2","2","4","1","0","1","0","1","0","0","1","0","1","0","0","1","0","1","5","2","2","2","2","","2","4","4","4","4","789952361161433089","罗","448","","","","","","","","","","","","","","","","","","","true","12","2","moral","914","negative","缺德","","","","","","","","","","","","","","","","",""
"null","","null","html-keyboard-response","40","207946","0.0-6.0-1.0-4.0-0.3","4","4","3","3","3","3","4","4","3","3","5","2","2","4","2","4","2","2","5","2","2","4","2","2","2","2","2","2","4","1","0","1","0","1","0","0","1","0","1","0","0","1","0","1","5","2","2","2","2","","2","4","4","4","4","789952361161433089","罗","448","","","","","","","","","","","","","","","","","","","","","","","","","","","","","","","","","","","","","","","","","",""
"833","<p style=""color:white; font-size: 35px;"">君子</p>","e","categorize-html","41","208781","0.0-6.0-1.0-4.0-1.3","4","4","3","3","3","3","4","4","3","3","5","2","2","4","2","4","2","2","5","2","2","4","2","2","2","2","2","2","4","1","0","1","0","1","0","0","1","0","1","0","0","1","0","1","5","2","2","2","2","","2","4","4","4","4","789952361161433089","罗","448","","","","","","","","","","","","","","","","","","","true","12","2","moral","833","positive","君子","","","","","","","","","","","","","","","","",""
"null","","null","html-keyboard-response","42","209032","0.0-6.0-1.0-4.0-0.4","4","4","3","3","3","3","4","4","3","3","5","2","2","4","2","4","2","2","5","2","2","4","2","2","2","2","2","2","4","1","0","1","0","1","0","0","1","0","1","0","0","1","0","1","5","2","2","2","2","","2","4","4","4","4","789952361161433089","罗","448","","","","","","","","","","","","","","","","","","","","","","","","","","","","","","","","","","","","","","","","","",""
"801","<p style=""color:white; font-size: 35px;"">善良</p>","e","categorize-html","43","209837","0.0-6.0-1.0-4.0-1.4","4","4","3","3","3","3","4","4","3","3","5","2","2","4","2","4","2","2","5","2","2","4","2","2","2","2","2","2","4","1","0","1","0","1","0","0","1","0","1","0","0","1","0","1","5","2","2","2","2","","2","4","4","4","4","789952361161433089","罗","448","","","","","","","","","","","","","","","","","","","true","12","2","moral","801","positive","善良","","","","","","","","","","","","","","","","",""
"null","","null","html-keyboard-response","44","210090","0.0-6.0-1.0-4.0-0.5","4","4","3","3","3","3","4","4","3","3","5","2","2","4","2","4","2","2","5","2","2","4","2","2","2","2","2","2","4","1","0","1","0","1","0","0","1","0","1","0","0","1","0","1","5","2","2","2","2","","2","4","4","4","4","789952361161433089","罗","448","","","","","","","","","","","","","","","","","","","","","","","","","","","","","","","","","","","","","","","","","",""
"823","<p style=""color:white; font-size: 35px;"">卑鄙</p>","i","categorize-html","45","210916","0.0-6.0-1.0-4.0-1.5","4","4","3","3","3","3","4","4","3","3","5","2","2","4","2","4","2","2","5","2","2","4","2","2","2","2","2","2","4","1","0","1","0","1","0","0","1","0","1","0","0","1","0","1","5","2","2","2","2","","2","4","4","4","4","789952361161433089","罗","448","","","","","","","","","","","","","","","","","","","true","12","2","moral","823","negative","卑鄙","","","","","","","","","","","","","","","","",""
"null","","null","html-keyboard-response","46","211168","0.0-6.0-1.0-4.0-0.6","4","4","3","3","3","3","4","4","3","3","5","2","2","4","2","4","2","2","5","2","2","4","2","2","2","2","2","2","4","1","0","1","0","1","0","0","1","0","1","0","0","1","0","1","5","2","2","2","2","","2","4","4","4","4","789952361161433089","罗","448","","","","","","","","","","","","","","","","","","","","","","","","","","","","","","","","","","","","","","","","","",""
"1209","<p style=""color:white; font-size: 35px;"">诚信</p>","e","categorize-html","47","212380","0.0-6.0-1.0-4.0-1.6","4","4","3","3","3","3","4","4","3","3","5","2","2","4","2","4","2","2","5","2","2","4","2","2","2","2","2","2","4","1","0","1","0","1","0","0","1","0","1","0","0","1","0","1","5","2","2","2","2","","2","4","4","4","4","789952361161433089","罗","448","","","","","","","","","","","","","","","","","","","true","12","2","moral","1209","positive","诚信","","","","","","","","","","","","","","","","",""
"null","","null","html-keyboard-response","48","212632","0.0-6.0-1.0-4.0-0.7","4","4","3","3","3","3","4","4","3","3","5","2","2","4","2","4","2","2","5","2","2","4","2","2","2","2","2","2","4","1","0","1","0","1","0","0","1","0","1","0","0","1","0","1","5","2","2","2","2","","2","4","4","4","4","789952361161433089","罗","448","","","","","","","","","","","","","","","","","","","","","","","","","","","","","","","","","","","","","","","","","",""
"1505","<p style=""color:white; font-size: 35px;"">不孝</p>","i","categorize-html","49","214139","0.0-6.0-1.0-4.0-1.7","4","4","3","3","3","3","4","4","3","3","5","2","2","4","2","4","2","2","5","2","2","4","2","2","2","2","2","2","4","1","0","1","0","1","0","0","1","0","1","0","0","1","0","1","5","2","2","2","2","","2","4","4","4","4","789952361161433089","罗","448","","","","","","","","","","","","","","","","","","","true","12","2","moral","1505","negative","不孝","","","","","","","","","","","","","","","","",""
"null","","null","html-keyboard-response","50","214389","0.0-6.0-1.0-4.0-0.8","4","4","3","3","3","3","4","4","3","3","5","2","2","4","2","4","2","2","5","2","2","4","2","2","2","2","2","2","4","1","0","1","0","1","0","0","1","0","1","0","0","1","0","1","5","2","2","2","2","","2","4","4","4","4","789952361161433089","罗","448","","","","","","","","","","","","","","","","","","","","","","","","","","","","","","","","","","","","","","","","","",""
"931","<p style=""color:white; font-size: 35px;"">小人</p>","i","categorize-html","51","215323","0.0-6.0-1.0-4.0-1.8","4","4","3","3","3","3","4","4","3","3","5","2","2","4","2","4","2","2","5","2","2","4","2","2","2","2","2","2","4","1","0","1","0","1","0","0","1","0","1","0","0","1","0","1","5","2","2","2","2","","2","4","4","4","4","789952361161433089","罗","448","","","","","","","","","","","","","","","","","","","true","12","2","moral","931","negative","小人","","","","","","","","","","","","","","","","",""
"null","","null","html-keyboard-response","52","215574","0.0-6.0-1.0-4.0-0.9","4","4","3","3","3","3","4","4","3","3","5","2","2","4","2","4","2","2","5","2","2","4","2","2","2","2","2","2","4","1","0","1","0","1","0","0","1","0","1","0","0","1","0","1","5","2","2","2","2","","2","4","4","4","4","789952361161433089","罗","448","","","","","","","","","","","","","","","","","","","","","","","","","","","","","","","","","","","","","","","","","",""
"843","<p style=""color:white; font-size: 35px;"">高尚</p>","e","categorize-html","53","216421","0.0-6.0-1.0-4.0-1.9","4","4","3","3","3","3","4","4","3","3","5","2","2","4","2","4","2","2","5","2","2","4","2","2","2","2","2","2","4","1","0","1","0","1","0","0","1","0","1","0","0","1","0","1","5","2","2","2","2","","2","4","4","4","4","789952361161433089","罗","448","","","","","","","","","","","","","","","","","","","true","12","2","moral","843","positive","高尚","","","","","","","","","","","","","","","","",""
"null","","null","html-keyboard-response","54","216672","0.0-6.0-1.0-4.0-0.10","4","4","3","3","3","3","4","4","3","3","5","2","2","4","2","4","2","2","5","2","2","4","2","2","2","2","2","2","4","1","0","1","0","1","0","0","1","0","1","0","0","1","0","1","5","2","2","2","2","","2","4","4","4","4","789952361161433089","罗","448","","","","","","","","","","","","","","","","","","","","","","","","","","","","","","","","","","","","","","","","","",""
"945","<p style=""color:white; font-size: 35px;"">黑心</p>","i","categorize-html","55","217620","0.0-6.0-1.0-4.0-1.10","4","4","3","3","3","3","4","4","3","3","5","2","2","4","2","4","2","2","5","2","2","4","2","2","2","2","2","2","4","1","0","1","0","1","0","0","1","0","1","0","0","1","0","1","5","2","2","2","2","","2","4","4","4","4","789952361161433089","罗","448","","","","","","","","","","","","","","","","","","","true","12","2","moral","945","negative","黑心","","","","","","","","","","","","","","","","",""
"null","","null","html-keyboard-response","56","217871","0.0-6.0-1.0-4.0-0.11","4","4","3","3","3","3","4","4","3","3","5","2","2","4","2","4","2","2","5","2","2","4","2","2","2","2","2","2","4","1","0","1","0","1","0","0","1","0","1","0","0","1","0","1","5","2","2","2","2","","2","4","4","4","4","789952361161433089","罗","448","","","","","","","","","","","","","","","","","","","","","","","","","","","","","","","","","","","","","","","","","",""
"1130","<p style=""color:white; font-size: 35px;"">不仁</p>","i","categorize-html","57","219004","0.0-6.0-1.0-4.0-1.11","4","4","3","3","3","3","4","4","3","3","5","2","2","4","2","4","2","2","5","2","2","4","2","2","2","2","2","2","4","1","0","1","0","1","0","0","1","0","1","0","0","1","0","1","5","2","2","2","2","","2","4","4","4","4","789952361161433089","罗","448","","","","","","","","","","","","","","","","","","","true","12","2","moral","1130","negative","不仁","","","","","","","","","","","","","","","","",""
"7932","
    <div class=""tag-bottom""><p>
    —— 任务3：对“他人/积极”词和“自我/消极”词分类 ——<p/>
    <span style=""color:#78DCE8""><b>注意上方，之前的四类词语将混合在一起交替呈现</b></span><p/>
    <span style=""color:#FFD866""><b>请根据上方标签的提示，尽可能正确并且快速地做出按键反应</b></span><p/>
    当按键错误时屏幕中会出现<span style=""color:red""> X </span>，需要按另一个键纠正才能继续<br/><p/>
    请把双手食指分别放在键盘的“E”键和“I”键上<p/>
    按<空格键>开始
    </p></div>"," ","html-keyboard-response","58","226937","0.0-6.0-1.0-5.0","4","4","3","3","3","3","4","4","3","3","5","2","2","4","2","4","2","2","5","2","2","4","2","2","2","2","2","2","4","1","0","1","0","1","0","0","1","0","1","0","0","1","0","1","5","2","2","2","2","","2","4","4","4","4","789952361161433089","罗","448","","","","","","","","","","","","","","","","","","","","","","","","","","","","","","","","","","","","","","","","","",""
"null","","null","html-keyboard-response","59","227188","0.0-6.0-1.0-6.0-0.0","4","4","3","3","3","3","4","4","3","3","5","2","2","4","2","4","2","2","5","2","2","4","2","2","2","2","2","2","4","1","0","1","0","1","0","0","1","0","1","0","0","1","0","1","5","2","2","2","2","","2","4","4","4","4","789952361161433089","罗","448","","","","","","","","","","","","","","","","","","","","","","","","","","","","","","","","","","","","","","","","","",""
"2275","<p style=""color:rgb(150, 250, 100); font-size: 35px;"">自己的</p>","i","categorize-html","60","229468","0.0-6.0-1.0-6.0-1.0","4","4","3","3","3","3","4","4","3","3","5","2","2","4","2","4","2","2","5","2","2","4","2","2","2","2","2","2","4","1","0","1","0","1","0","0","1","0","1","0","0","1","0","1","5","2","2","2","2","","2","4","4","4","4","789952361161433089","罗","448","","","","","","","","","","","","","","","","","","","true","13","3","moral","2275","self","自己的","","","","","","","","","","","","","","","","",""
"null","","null","html-keyboard-response","61","229719","0.0-6.0-1.0-6.0-0.1","4","4","3","3","3","3","4","4","3","3","5","2","2","4","2","4","2","2","5","2","2","4","2","2","2","2","2","2","4","1","0","1","0","1","0","0","1","0","1","0","0","1","0","1","5","2","2","2","2","","2","4","4","4","4","789952361161433089","罗","448","","","","","","","","","","","","","","","","","","","","","","","","","","","","","","","","","","","","","","","","","",""
"2129","<p style=""color:white; font-size: 35px;"">不孝</p>","i","categorize-html","62","231853","0.0-6.0-1.0-6.0-1.1","4","4","3","3","3","3","4","4","3","3","5","2","2","4","2","4","2","2","5","2","2","4","2","2","2","2","2","2","4","1","0","1","0","1","0","0","1","0","1","0","0","1","0","1","5","2","2","2","2","","2","4","4","4","4","789952361161433089","罗","448","","","","","","","","","","","","","","","","","","","true","13","3","moral","2129","negative","不孝","","","","","","","","","","","","","","","","",""
"null","","null","html-keyboard-response","63","232104","0.0-6.0-1.0-6.0-0.2","4","4","3","3","3","3","4","4","3","3","5","2","2","4","2","4","2","2","5","2","2","4","2","2","2","2","2","2","4","1","0","1","0","1","0","0","1","0","1","0","0","1","0","1","5","2","2","2","2","","2","4","4","4","4","789952361161433089","罗","448","","","","","","","","","","","","","","","","","","","","","","","","","","","","","","","","","","","","","","","","","",""
"1759","<p style=""color:rgb(150, 250, 100); font-size: 35px;"">他人</p>","e","categorize-html","64","233866","0.0-6.0-1.0-6.0-1.2","4","4","3","3","3","3","4","4","3","3","5","2","2","4","2","4","2","2","5","2","2","4","2","2","2","2","2","2","4","1","0","1","0","1","0","0","1","0","1","0","0","1","0","1","5","2","2","2","2","","2","4","4","4","4","789952361161433089","罗","448","","","","","","","","","","","","","","","","","","","true","13","3","moral","1759","other","他人","","","","","","","","","","","","","","","","",""
"null","","null","html-keyboard-response","65","234117","0.0-6.0-1.0-6.0-0.3","4","4","3","3","3","3","4","4","3","3","5","2","2","4","2","4","2","2","5","2","2","4","2","2","2","2","2","2","4","1","0","1","0","1","0","0","1","0","1","0","0","1","0","1","5","2","2","2","2","","2","4","4","4","4","789952361161433089","罗","448","","","","","","","","","","","","","","","","","","","","","","","","","","","","","","","","","","","","","","","","","",""
"1162","<p style=""color:white; font-size: 35px;"">正直</p>","e","categorize-html","66","235282","0.0-6.0-1.0-6.0-1.3","4","4","3","3","3","3","4","4","3","3","5","2","2","4","2","4","2","2","5","2","2","4","2","2","2","2","2","2","4","1","0","1","0","1","0","0","1","0","1","0","0","1","0","1","5","2","2","2","2","","2","4","4","4","4","789952361161433089","罗","448","","","","","","","","","","","","","","","","","","","true","13","3","moral","1162","positive","正直","","","","","","","","","","","","","","","","",""
"null","","null","html-keyboard-response","67","235532","0.0-6.0-1.0-6.0-0.4","4","4","3","3","3","3","4","4","3","3","5","2","2","4","2","4","2","2","5","2","2","4","2","2","2","2","2","2","4","1","0","1","0","1","0","0","1","0","1","0","0","1","0","1","5","2","2","2","2","","2","4","4","4","4","789952361161433089","罗","448","","","","","","","","","","","","","","","","","","","","","","","","","","","","","","","","","","","","","","","","","",""
"786","<p style=""color:rgb(150, 250, 100); font-size: 35px;"">他</p>","e","categorize-html","68","236321","0.0-6.0-1.0-6.0-1.4","4","4","3","3","3","3","4","4","3","3","5","2","2","4","2","4","2","2","5","2","2","4","2","2","2","2","2","2","4","1","0","1","0","1","0","0","1","0","1","0","0","1","0","1","5","2","2","2","2","","2","4","4","4","4","789952361161433089","罗","448","","","","","","","","","","","","","","","","","","","true","13","3","moral","786","other","他","","","","","","","","","","","","","","","","",""
"null","","null","html-keyboard-response","69","236572","0.0-6.0-1.0-6.0-0.5","4","4","3","3","3","3","4","4","3","3","5","2","2","4","2","4","2","2","5","2","2","4","2","2","2","2","2","2","4","1","0","1","0","1","0","0","1","0","1","0","0","1","0","1","5","2","2","2","2","","2","4","4","4","4","789952361161433089","罗","448","","","","","","","","","","","","","","","","","","","","","","","","","","","","","","","","","","","","","","","","","",""
"1275","<p style=""color:white; font-size: 35px;"">黑心</p>","i","categorize-html","70","237850","0.0-6.0-1.0-6.0-1.5","4","4","3","3","3","3","4","4","3","3","5","2","2","4","2","4","2","2","5","2","2","4","2","2","2","2","2","2","4","1","0","1","0","1","0","0","1","0","1","0","0","1","0","1","5","2","2","2","2","","2","4","4","4","4","789952361161433089","罗","448","","","","","","","","","","","","","","","","","","","true","13","3","moral","1275","negative","黑心","","","","","","","","","","","","","","","","",""
"null","","null","html-keyboard-response","71","238101","0.0-6.0-1.0-6.0-0.6","4","4","3","3","3","3","4","4","3","3","5","2","2","4","2","4","2","2","5","2","2","4","2","2","2","2","2","2","4","1","0","1","0","1","0","0","1","0","1","0","0","1","0","1","5","2","2","2","2","","2","4","4","4","4","789952361161433089","罗","448","","","","","","","","","","","","","","","","","","","","","","","","","","","","","","","","","","","","","","","","","",""
"674","<p style=""color:rgb(150, 250, 100); font-size: 35px;"">我的</p>","i","categorize-html","72","238780","0.0-6.0-1.0-6.0-1.6","4","4","3","3","3","3","4","4","3","3","5","2","2","4","2","4","2","2","5","2","2","4","2","2","2","2","2","2","4","1","0","1","0","1","0","0","1","0","1","0","0","1","0","1","5","2","2","2","2","","2","4","4","4","4","789952361161433089","罗","448","","","","","","","","","","","","","","","","","","","true","13","3","moral","674","self","我的","","","","","","","","","","","","","","","","",""
"null","","null","html-keyboard-response","73","239031","0.0-6.0-1.0-6.0-0.7","4","4","3","3","3","3","4","4","3","3","5","2","2","4","2","4","2","2","5","2","2","4","2","2","2","2","2","2","4","1","0","1","0","1","0","0","1","0","1","0","0","1","0","1","5","2","2","2","2","","2","4","4","4","4","789952361161433089","罗","448","","","","","","","","","","","","","","","","","","","","","","","","","","","","","","","","","","","","","","","","","",""
"1600","<p style=""color:white; font-size: 35px;"">善良</p>","e","categorize-html","74","240636","0.0-6.0-1.0-6.0-1.7","4","4","3","3","3","3","4","4","3","3","5","2","2","4","2","4","2","2","5","2","2","4","2","2","2","2","2","2","4","1","0","1","0","1","0","0","1","0","1","0","0","1","0","1","5","2","2","2","2","","2","4","4","4","4","789952361161433089","罗","448","","","","","","","","","","","","","","","","","","","true","13","3","moral","1600","positive","善良","","","","","","","","","","","","","","","","",""
"null","","null","html-keyboard-response","75","240888","0.0-6.0-1.0-6.0-0.8","4","4","3","3","3","3","4","4","3","3","5","2","2","4","2","4","2","2","5","2","2","4","2","2","2","2","2","2","4","1","0","1","0","1","0","0","1","0","1","0","0","1","0","1","5","2","2","2","2","","2","4","4","4","4","789952361161433089","罗","448","","","","","","","","","","","","","","","","","","","","","","","","","","","","","","","","","","","","","","","","","",""
"1040","<p style=""color:rgb(150, 250, 100); font-size: 35px;"">别人的</p>","e","categorize-html","76","241932","0.0-6.0-1.0-6.0-1.8","4","4","3","3","3","3","4","4","3","3","5","2","2","4","2","4","2","2","5","2","2","4","2","2","2","2","2","2","4","1","0","1","0","1","0","0","1","0","1","0","0","1","0","1","5","2","2","2","2","","2","4","4","4","4","789952361161433089","罗","448","","","","","","","","","","","","","","","","","","","true","13","3","moral","1040","other","别人的","","","","","","","","","","","","","","","","",""
"null","","null","html-keyboard-response","77","242184","0.0-6.0-1.0-6.0-0.9","4","4","3","3","3","3","4","4","3","3","5","2","2","4","2","4","2","2","5","2","2","4","2","2","2","2","2","2","4","1","0","1","0","1","0","0","1","0","1","0","0","1","0","1","5","2","2","2","2","","2","4","4","4","4","789952361161433089","罗","448","","","","","","","","","","","","","","","","","","","","","","","","","","","","","","","","","","","","","","","","","",""
"1936","<p style=""color:white; font-size: 35px;"">缺德</p>","i","categorize-html","78","244123","0.0-6.0-1.0-6.0-1.9","4","4","3","3","3","3","4","4","3","3","5","2","2","4","2","4","2","2","5","2","2","4","2","2","2","2","2","2","4","1","0","1","0","1","0","0","1","0","1","0","0","1","0","1","5","2","2","2","2","","2","4","4","4","4","789952361161433089","罗","448","","","","","","","","","","","","","","","","","","","true","13","3","moral","1936","negative","缺德","","","","","","","","","","","","","","","","",""
"null","","null","html-keyboard-response","79","244375","0.0-6.0-1.0-6.0-0.10","4","4","3","3","3","3","4","4","3","3","5","2","2","4","2","4","2","2","5","2","2","4","2","2","2","2","2","2","4","1","0","1","0","1","0","0","1","0","1","0","0","1","0","1","5","2","2","2","2","","2","4","4","4","4","789952361161433089","罗","448","","","","","","","","","","","","","","","","","","","","","","","","","","","","","","","","","","","","","","","","","",""
"776","<p style=""color:rgb(150, 250, 100); font-size: 35px;"">本人的</p>","i","categorize-html","80","245155","0.0-6.0-1.0-6.0-1.10","4","4","3","3","3","3","4","4","3","3","5","2","2","4","2","4","2","2","5","2","2","4","2","2","2","2","2","2","4","1","0","1","0","1","0","0","1","0","1","0","0","1","0","1","5","2","2","2","2","","2","4","4","4","4","789952361161433089","罗","448","","","","","","","","","","","","","","","","","","","true","13","3","moral","776","self","本人的","","","","","","","","","","","","","","","","",""
"null","","null","html-keyboard-response","81","245406","0.0-6.0-1.0-6.0-0.11","4","4","3","3","3","3","4","4","3","3","5","2","2","4","2","4","2","2","5","2","2","4","2","2","2","2","2","2","4","1","0","1","0","1","0","0","1","0","1","0","0","1","0","1","5","2","2","2","2","","2","4","4","4","4","789952361161433089","罗","448","","","","","","","","","","","","","","","","","","","","","","","","","","","","","","","","","","","","","","","","","",""
"1920","<p style=""color:white; font-size: 35px;"">君子</p>","e","categorize-html","82","247432","0.0-6.0-1.0-6.0-1.11","4","4","3","3","3","3","4","4","3","3","5","2","2","4","2","4","2","2","5","2","2","4","2","2","2","2","2","2","4","1","0","1","0","1","0","0","1","0","1","0","0","1","0","1","5","2","2","2","2","","2","4","4","4","4","789952361161433089","罗","448","","","","","","","","","","","","","","","","","","","true","13","3","moral","1920","positive","君子","","","","","","","","","","","","","","","","",""
"null","","null","html-keyboard-response","83","247683","0.0-6.0-1.0-6.0-0.12","4","4","3","3","3","3","4","4","3","3","5","2","2","4","2","4","2","2","5","2","2","4","2","2","2","2","2","2","4","1","0","1","0","1","0","0","1","0","1","0","0","1","0","1","5","2","2","2","2","","2","4","4","4","4","789952361161433089","罗","448","","","","","","","","","","","","","","","","","","","","","","","","","","","","","","","","","","","","","","","","","",""
"761","<p style=""color:rgb(150, 250, 100); font-size: 35px;"">他的</p>","e","categorize-html","84","248449","0.0-6.0-1.0-6.0-1.12","4","4","3","3","3","3","4","4","3","3","5","2","2","4","2","4","2","2","5","2","2","4","2","2","2","2","2","2","4","1","0","1","0","1","0","0","1","0","1","0","0","1","0","1","5","2","2","2","2","","2","4","4","4","4","789952361161433089","罗","448","","","","","","","","","","","","","","","","","","","true","13","3","moral","761","other","他的","","","","","","","","","","","","","","","","",""
"null","","null","html-keyboard-response","85","248700","0.0-6.0-1.0-6.0-0.13","4","4","3","3","3","3","4","4","3","3","5","2","2","4","2","4","2","2","5","2","2","4","2","2","2","2","2","2","4","1","0","1","0","1","0","0","1","0","1","0","0","1","0","1","5","2","2","2","2","","2","4","4","4","4","789952361161433089","罗","448","","","","","","","","","","","","","","","","","","","","","","","","","","","","","","","","","","","","","","","","","",""
"728","<p style=""color:white; font-size: 35px;"">诚信</p>","e","categorize-html","86","249432","0.0-6.0-1.0-6.0-1.13","4","4","3","3","3","3","4","4","3","3","5","2","2","4","2","4","2","2","5","2","2","4","2","2","2","2","2","2","4","1","0","1","0","1","0","0","1","0","1","0","0","1","0","1","5","2","2","2","2","","2","4","4","4","4","789952361161433089","罗","448","","","","","","","","","","","","","","","","","","","true","13","3","moral","728","positive","诚信","","","","","","","","","","","","","","","","",""
"null","","null","html-keyboard-response","87","249684","0.0-6.0-1.0-6.0-0.14","4","4","3","3","3","3","4","4","3","3","5","2","2","4","2","4","2","2","5","2","2","4","2","2","2","2","2","2","4","1","0","1","0","1","0","0","1","0","1","0","0","1","0","1","5","2","2","2","2","","2","4","4","4","4","789952361161433089","罗","448","","","","","","","","","","","","","","","","","","","","","","","","","","","","","","","","","","","","","","","","","",""
"1395","<p style=""color:rgb(150, 250, 100); font-size: 35px;"">本人</p>","i","categorize-html","88","251082","0.0-6.0-1.0-6.0-1.14","4","4","3","3","3","3","4","4","3","3","5","2","2","4","2","4","2","2","5","2","2","4","2","2","2","2","2","2","4","1","0","1","0","1","0","0","1","0","1","0","0","1","0","1","5","2","2","2","2","","2","4","4","4","4","789952361161433089","罗","448","","","","","","","","","","","","","","","","","","","true","13","3","moral","1395","self","本人","","","","","","","","","","","","","","","","",""
"null","","null","html-keyboard-response","89","251334","0.0-6.0-1.0-6.0-0.15","4","4","3","3","3","3","4","4","3","3","5","2","2","4","2","4","2","2","5","2","2","4","2","2","2","2","2","2","4","1","0","1","0","1","0","0","1","0","1","0","0","1","0","1","5","2","2","2","2","","2","4","4","4","4","789952361161433089","罗","448","","","","","","","","","","","","","","","","","","","","","","","","","","","","","","","","","","","","","","","","","",""
"999","<p style=""color:white; font-size: 35px;"">不仁</p>","i","categorize-html","90","252336","0.0-6.0-1.0-6.0-1.15","4","4","3","3","3","3","4","4","3","3","5","2","2","4","2","4","2","2","5","2","2","4","2","2","2","2","2","2","4","1","0","1","0","1","0","0","1","0","1","0","0","1","0","1","5","2","2","2","2","","2","4","4","4","4","789952361161433089","罗","448","","","","","","","","","","","","","","","","","","","true","13","3","moral","999","negative","不仁","","","","","","","","","","","","","","","","",""
"null","","null","html-keyboard-response","91","252588","0.0-6.0-1.0-6.0-0.16","4","4","3","3","3","3","4","4","3","3","5","2","2","4","2","4","2","2","5","2","2","4","2","2","2","2","2","2","4","1","0","1","0","1","0","0","1","0","1","0","0","1","0","1","5","2","2","2","2","","2","4","4","4","4","789952361161433089","罗","448","","","","","","","","","","","","","","","","","","","","","","","","","","","","","","","","","","","","","","","","","",""
"2193","<p style=""color:rgb(150, 250, 100); font-size: 35px;"">别人</p>","e","categorize-html","92","254784","0.0-6.0-1.0-6.0-1.16","4","4","3","3","3","3","4","4","3","3","5","2","2","4","2","4","2","2","5","2","2","4","2","2","2","2","2","2","4","1","0","1","0","1","0","0","1","0","1","0","0","1","0","1","5","2","2","2","2","","2","4","4","4","4","789952361161433089","罗","448","","","","","","","","","","","","","","","","","","","true","13","3","moral","2193","other","别人","","","","","","","","","","","","","","","","",""
"null","","null","html-keyboard-response","93","255036","0.0-6.0-1.0-6.0-0.17","4","4","3","3","3","3","4","4","3","3","5","2","2","4","2","4","2","2","5","2","2","4","2","2","2","2","2","2","4","1","0","1","0","1","0","0","1","0","1","0","0","1","0","1","5","2","2","2","2","","2","4","4","4","4","789952361161433089","罗","448","","","","","","","","","","","","","","","","","","","","","","","","","","","","","","","","","","","","","","","","","",""
"1352","<p style=""color:white; font-size: 35px;"">小人</p>","i","categorize-html","94","256390","0.0-6.0-1.0-6.0-1.17","4","4","3","3","3","3","4","4","3","3","5","2","2","4","2","4","2","2","5","2","2","4","2","2","2","2","2","2","4","1","0","1","0","1","0","0","1","0","1","0","0","1","0","1","5","2","2","2","2","","2","4","4","4","4","789952361161433089","罗","448","","","","","","","","","","","","","","","","","","","true","13","3","moral","1352","negative","小人","","","","","","","","","","","","","","","","",""
"null","","null","html-keyboard-response","95","256642","0.0-6.0-1.0-6.0-0.18","4","4","3","3","3","3","4","4","3","3","5","2","2","4","2","4","2","2","5","2","2","4","2","2","2","2","2","2","4","1","0","1","0","1","0","0","1","0","1","0","0","1","0","1","5","2","2","2","2","","2","4","4","4","4","789952361161433089","罗","448","","","","","","","","","","","","","","","","","","","","","","","","","","","","","","","","","","","","","","","","","",""
"1554","<p style=""color:rgb(150, 250, 100); font-size: 35px;"">自己</p>","i","categorize-html","96","258200","0.0-6.0-1.0-6.0-1.18","4","4","3","3","3","3","4","4","3","3","5","2","2","4","2","4","2","2","5","2","2","4","2","2","2","2","2","2","4","1","0","1","0","1","0","0","1","0","1","0","0","1","0","1","5","2","2","2","2","","2","4","4","4","4","789952361161433089","罗","448","","","","","","","","","","","","","","","","","","","true","13","3","moral","1554","self","自己","","","","","","","","","","","","","","","","",""
"null","","null","html-keyboard-response","97","258451","0.0-6.0-1.0-6.0-0.19","4","4","3","3","3","3","4","4","3","3","5","2","2","4","2","4","2","2","5","2","2","4","2","2","2","2","2","2","4","1","0","1","0","1","0","0","1","0","1","0","0","1","0","1","5","2","2","2","2","","2","4","4","4","4","789952361161433089","罗","448","","","","","","","","","","","","","","","","","","","","","","","","","","","","","","","","","","","","","","","","","",""
"1186","<p style=""color:white; font-size: 35px;"">高尚</p>","e","categorize-html","98","259639","0.0-6.0-1.0-6.0-1.19","4","4","3","3","3","3","4","4","3","3","5","2","2","4","2","4","2","2","5","2","2","4","2","2","2","2","2","2","4","1","0","1","0","1","0","0","1","0","1","0","0","1","0","1","5","2","2","2","2","","2","4","4","4","4","789952361161433089","罗","448","","","","","","","","","","","","","","","","","","","true","13","3","moral","1186","positive","高尚","","","","","","","","","","","","","","","","",""
"null","","null","html-keyboard-response","99","259892","0.0-6.0-1.0-6.0-0.20","4","4","3","3","3","3","4","4","3","3","5","2","2","4","2","4","2","2","5","2","2","4","2","2","2","2","2","2","4","1","0","1","0","1","0","0","1","0","1","0","0","1","0","1","5","2","2","2","2","","2","4","4","4","4","789952361161433089","罗","448","","","","","","","","","","","","","","","","","","","","","","","","","","","","","","","","","","","","","","","","","",""
"784","<p style=""color:rgb(150, 250, 100); font-size: 35px;"">他人的</p>","e","categorize-html","100","260680","0.0-6.0-1.0-6.0-1.20","4","4","3","3","3","3","4","4","3","3","5","2","2","4","2","4","2","2","5","2","2","4","2","2","2","2","2","2","4","1","0","1","0","1","0","0","1","0","1","0","0","1","0","1","5","2","2","2","2","","2","4","4","4","4","789952361161433089","罗","448","","","","","","","","","","","","","","","","","","","true","13","3","moral","784","other","他人的","","","","","","","","","","","","","","","","",""
"null","","null","html-keyboard-response","101","260932","0.0-6.0-1.0-6.0-0.21","4","4","3","3","3","3","4","4","3","3","5","2","2","4","2","4","2","2","5","2","2","4","2","2","2","2","2","2","4","1","0","1","0","1","0","0","1","0","1","0","0","1","0","1","5","2","2","2","2","","2","4","4","4","4","789952361161433089","罗","448","","","","","","","","","","","","","","","","","","","","","","","","","","","","","","","","","","","","","","","","","",""
"1169","<p style=""color:white; font-size: 35px;"">卑鄙</p>","i","categorize-html","102","262104","0.0-6.0-1.0-6.0-1.21","4","4","3","3","3","3","4","4","3","3","5","2","2","4","2","4","2","2","5","2","2","4","2","2","2","2","2","2","4","1","0","1","0","1","0","0","1","0","1","0","0","1","0","1","5","2","2","2","2","","2","4","4","4","4","789952361161433089","罗","448","","","","","","","","","","","","","","","","","","","true","13","3","moral","1169","negative","卑鄙","","","","","","","","","","","","","","","","",""
"null","","null","html-keyboard-response","103","262355","0.0-6.0-1.0-6.0-0.22","4","4","3","3","3","3","4","4","3","3","5","2","2","4","2","4","2","2","5","2","2","4","2","2","2","2","2","2","4","1","0","1","0","1","0","0","1","0","1","0","0","1","0","1","5","2","2","2","2","","2","4","4","4","4","789952361161433089","罗","448","","","","","","","","","","","","","","","","","","","","","","","","","","","","","","","","","","","","","","","","","",""
"1328","<p style=""color:rgb(150, 250, 100); font-size: 35px;"">我</p>","i","categorize-html","104","263688","0.0-6.0-1.0-6.0-1.22","4","4","3","3","3","3","4","4","3","3","5","2","2","4","2","4","2","2","5","2","2","4","2","2","2","2","2","2","4","1","0","1","0","1","0","0","1","0","1","0","0","1","0","1","5","2","2","2","2","","2","4","4","4","4","789952361161433089","罗","448","","","","","","","","","","","","","","","","","","","true","13","3","moral","1328","self","我","","","","","","","","","","","","","","","","",""
"null","","null","html-keyboard-response","105","263940","0.0-6.0-1.0-6.0-0.23","4","4","3","3","3","3","4","4","3","3","5","2","2","4","2","4","2","2","5","2","2","4","2","2","2","2","2","2","4","1","0","1","0","1","0","0","1","0","1","0","0","1","0","1","5","2","2","2","2","","2","4","4","4","4","789952361161433089","罗","448","","","","","","","","","","","","","","","","","","","","","","","","","","","","","","","","","","","","","","","","","",""
"1200","<p style=""color:white; font-size: 35px;"">廉正</p>","e","categorize-html","106","265142","0.0-6.0-1.0-6.0-1.23","4","4","3","3","3","3","4","4","3","3","5","2","2","4","2","4","2","2","5","2","2","4","2","2","2","2","2","2","4","1","0","1","0","1","0","0","1","0","1","0","0","1","0","1","5","2","2","2","2","","2","4","4","4","4","789952361161433089","罗","448","","","","","","","","","","","","","","","","","","","true","13","3","moral","1200","positive","廉正","","","","","","","","","","","","","","","","",""
"10110","
    <div class=""tag-bottom""><p>
    —— 任务4：对“他人/积极”词和“自我/消极”词分类 ——<p/>
    <span style=""color:#78DCE8""><b>与刚才的任务完全相同，请再次对这四类词语分类</b></span><p/>
    <span style=""color:#FFD866""><b>请根据上方标签的提示，尽可能正确并且快速地做出按键反应</b></span><p/>
    当按键错误时屏幕中会出现<span style=""color:red""> X </span>，需要按另一个键纠正才能继续<br/><p/>
    请把双手食指分别放在键盘的“E”键和“I”键上<p/>
    按<空格键>开始
    </p></div>"," ","html-keyboard-response","107","275253","0.0-6.0-1.0-7.0","4","4","3","3","3","3","4","4","3","3","5","2","2","4","2","4","2","2","5","2","2","4","2","2","2","2","2","2","4","1","0","1","0","1","0","0","1","0","1","0","0","1","0","1","5","2","2","2","2","","2","4","4","4","4","789952361161433089","罗","448","","","","","","","","","","","","","","","","","","","","","","","","","","","","","","","","","","","","","","","","","",""
"null","","null","html-keyboard-response","108","275505","0.0-6.0-1.0-8.0-0.0","4","4","3","3","3","3","4","4","3","3","5","2","2","4","2","4","2","2","5","2","2","4","2","2","2","2","2","2","4","1","0","1","0","1","0","0","1","0","1","0","0","1","0","1","5","2","2","2","2","","2","4","4","4","4","789952361161433089","罗","448","","","","","","","","","","","","","","","","","","","","","","","","","","","","","","","","","","","","","","","","","",""
"1289","<p style=""color:rgb(150, 250, 100); font-size: 35px;"">我的</p>","i","categorize-html","109","276798","0.0-6.0-1.0-8.0-1.0","4","4","3","3","3","3","4","4","3","3","5","2","2","4","2","4","2","2","5","2","2","4","2","2","2","2","2","2","4","1","0","1","0","1","0","0","1","0","1","0","0","1","0","1","5","2","2","2","2","","2","4","4","4","4","789952361161433089","罗","448","","","","","","","","","","","","","","","","","","","true","14","4","moral","1289","self","我的","","","","","","","","","","","","","","","","",""
"null","","null","html-keyboard-response","110","277049","0.0-6.0-1.0-8.0-0.1","4","4","3","3","3","3","4","4","3","3","5","2","2","4","2","4","2","2","5","2","2","4","2","2","2","2","2","2","4","1","0","1","0","1","0","0","1","0","1","0","0","1","0","1","5","2","2","2","2","","2","4","4","4","4","789952361161433089","罗","448","","","","","","","","","","","","","","","","","","","","","","","","","","","","","","","","","","","","","","","","","",""
"745","<p style=""color:white; font-size: 35px;"">不孝</p>","i","categorize-html","111","277797","0.0-6.0-1.0-8.0-1.1","4","4","3","3","3","3","4","4","3","3","5","2","2","4","2","4","2","2","5","2","2","4","2","2","2","2","2","2","4","1","0","1","0","1","0","0","1","0","1","0","0","1","0","1","5","2","2","2","2","","2","4","4","4","4","789952361161433089","罗","448","","","","","","","","","","","","","","","","","","","true","14","4","moral","745","negative","不孝","","","","","","","","","","","","","","","","",""
"null","","null","html-keyboard-response","112","278049","0.0-6.0-1.0-8.0-0.2","4","4","3","3","3","3","4","4","3","3","5","2","2","4","2","4","2","2","5","2","2","4","2","2","2","2","2","2","4","1","0","1","0","1","0","0","1","0","1","0","0","1","0","1","5","2","2","2","2","","2","4","4","4","4","789952361161433089","罗","448","","","","","","","","","","","","","","","","","","","","","","","","","","","","","","","","","","","","","","","","","",""
"1122","<p style=""color:rgb(150, 250, 100); font-size: 35px;"">别人的</p>","e","categorize-html","113","279175","0.0-6.0-1.0-8.0-1.2","4","4","3","3","3","3","4","4","3","3","5","2","2","4","2","4","2","2","5","2","2","4","2","2","2","2","2","2","4","1","0","1","0","1","0","0","1","0","1","0","0","1","0","1","5","2","2","2","2","","2","4","4","4","4","789952361161433089","罗","448","","","","","","","","","","","","","","","","","","","true","14","4","moral","1122","other","别人的","","","","","","","","","","","","","","","","",""
"null","","null","html-keyboard-response","114","279429","0.0-6.0-1.0-8.0-0.3","4","4","3","3","3","3","4","4","3","3","5","2","2","4","2","4","2","2","5","2","2","4","2","2","2","2","2","2","4","1","0","1","0","1","0","0","1","0","1","0","0","1","0","1","5","2","2","2","2","","2","4","4","4","4","789952361161433089","罗","448","","","","","","","","","","","","","","","","","","","","","","","","","","","","","","","","","","","","","","","","","",""
"711","<p style=""color:white; font-size: 35px;"">诚信</p>","e","categorize-html","115","280144","0.0-6.0-1.0-8.0-1.3","4","4","3","3","3","3","4","4","3","3","5","2","2","4","2","4","2","2","5","2","2","4","2","2","2","2","2","2","4","1","0","1","0","1","0","0","1","0","1","0","0","1","0","1","5","2","2","2","2","","2","4","4","4","4","789952361161433089","罗","448","","","","","","","","","","","","","","","","","","","true","14","4","moral","711","positive","诚信","","","","","","","","","","","","","","","","",""
"null","","null","html-keyboard-response","116","280395","0.0-6.0-1.0-8.0-0.4","4","4","3","3","3","3","4","4","3","3","5","2","2","4","2","4","2","2","5","2","2","4","2","2","2","2","2","2","4","1","0","1","0","1","0","0","1","0","1","0","0","1","0","1","5","2","2","2","2","","2","4","4","4","4","789952361161433089","罗","448","","","","","","","","","","","","","","","","","","","","","","","","","","","","","","","","","","","","","","","","","",""
"704","<p style=""color:rgb(150, 250, 100); font-size: 35px;"">他</p>","e","categorize-html","117","281103","0.0-6.0-1.0-8.0-1.4","4","4","3","3","3","3","4","4","3","3","5","2","2","4","2","4","2","2","5","2","2","4","2","2","2","2","2","2","4","1","0","1","0","1","0","0","1","0","1","0","0","1","0","1","5","2","2","2","2","","2","4","4","4","4","789952361161433089","罗","448","","","","","","","","","","","","","","","","","","","true","14","4","moral","704","other","他","","","","","","","","","","","","","","","","",""
"null","","null","html-keyboard-response","118","281355","0.0-6.0-1.0-8.0-0.5","4","4","3","3","3","3","4","4","3","3","5","2","2","4","2","4","2","2","5","2","2","4","2","2","2","2","2","2","4","1","0","1","0","1","0","0","1","0","1","0","0","1","0","1","5","2","2","2","2","","2","4","4","4","4","789952361161433089","罗","448","","","","","","","","","","","","","","","","","","","","","","","","","","","","","","","","","","","","","","","","","",""
"695","<p style=""color:white; font-size: 35px;"">君子</p>","e","categorize-html","119","282055","0.0-6.0-1.0-8.0-1.5","4","4","3","3","3","3","4","4","3","3","5","2","2","4","2","4","2","2","5","2","2","4","2","2","2","2","2","2","4","1","0","1","0","1","0","0","1","0","1","0","0","1","0","1","5","2","2","2","2","","2","4","4","4","4","789952361161433089","罗","448","","","","","","","","","","","","","","","","","","","true","14","4","moral","695","positive","君子","","","","","","","","","","","","","","","","",""
"null","","null","html-keyboard-response","120","282306","0.0-6.0-1.0-8.0-0.6","4","4","3","3","3","3","4","4","3","3","5","2","2","4","2","4","2","2","5","2","2","4","2","2","2","2","2","2","4","1","0","1","0","1","0","0","1","0","1","0","0","1","0","1","5","2","2","2","2","","2","4","4","4","4","789952361161433089","罗","448","","","","","","","","","","","","","","","","","","","","","","","","","","","","","","","","","","","","","","","","","",""
"977","<p style=""color:rgb(150, 250, 100); font-size: 35px;"">本人</p>","i","categorize-html","121","283287","0.0-6.0-1.0-8.0-1.6","4","4","3","3","3","3","4","4","3","3","5","2","2","4","2","4","2","2","5","2","2","4","2","2","2","2","2","2","4","1","0","1","0","1","0","0","1","0","1","0","0","1","0","1","5","2","2","2","2","","2","4","4","4","4","789952361161433089","罗","448","","","","","","","","","","","","","","","","","","","true","14","4","moral","977","self","本人","","","","","","","","","","","","","","","","",""
"null","","null","html-keyboard-response","122","283538","0.0-6.0-1.0-8.0-0.7","4","4","3","3","3","3","4","4","3","3","5","2","2","4","2","4","2","2","5","2","2","4","2","2","2","2","2","2","4","1","0","1","0","1","0","0","1","0","1","0","0","1","0","1","5","2","2","2","2","","2","4","4","4","4","789952361161433089","罗","448","","","","","","","","","","","","","","","","","","","","","","","","","","","","","","","","","","","","","","","","","",""
"633","<p style=""color:white; font-size: 35px;"">黑心</p>","i","categorize-html","123","284174","0.0-6.0-1.0-8.0-1.7","4","4","3","3","3","3","4","4","3","3","5","2","2","4","2","4","2","2","5","2","2","4","2","2","2","2","2","2","4","1","0","1","0","1","0","0","1","0","1","0","0","1","0","1","5","2","2","2","2","","2","4","4","4","4","789952361161433089","罗","448","","","","","","","","","","","","","","","","","","","true","14","4","moral","633","negative","黑心","","","","","","","","","","","","","","","","",""
"null","","null","html-keyboard-response","124","284425","0.0-6.0-1.0-8.0-0.8","4","4","3","3","3","3","4","4","3","3","5","2","2","4","2","4","2","2","5","2","2","4","2","2","2","2","2","2","4","1","0","1","0","1","0","0","1","0","1","0","0","1","0","1","5","2","2","2","2","","2","4","4","4","4","789952361161433089","罗","448","","","","","","","","","","","","","","","","","","","","","","","","","","","","","","","","","","","","","","","","","",""
"816","<p style=""color:rgb(150, 250, 100); font-size: 35px;"">本人的</p>","i","categorize-html","125","285246","0.0-6.0-1.0-8.0-1.8","4","4","3","3","3","3","4","4","3","3","5","2","2","4","2","4","2","2","5","2","2","4","2","2","2","2","2","2","4","1","0","1","0","1","0","0","1","0","1","0","0","1","0","1","5","2","2","2","2","","2","4","4","4","4","789952361161433089","罗","448","","","","","","","","","","","","","","","","","","","true","14","4","moral","816","self","本人的","","","","","","","","","","","","","","","","",""
"null","","null","html-keyboard-response","126","285498","0.0-6.0-1.0-8.0-0.9","4","4","3","3","3","3","4","4","3","3","5","2","2","4","2","4","2","2","5","2","2","4","2","2","2","2","2","2","4","1","0","1","0","1","0","0","1","0","1","0","0","1","0","1","5","2","2","2","2","","2","4","4","4","4","789952361161433089","罗","448","","","","","","","","","","","","","","","","","","","","","","","","","","","","","","","","","","","","","","","","","",""
"920","<p style=""color:white; font-size: 35px;"">缺德</p>","i","categorize-html","127","286423","0.0-6.0-1.0-8.0-1.9","4","4","3","3","3","3","4","4","3","3","5","2","2","4","2","4","2","2","5","2","2","4","2","2","2","2","2","2","4","1","0","1","0","1","0","0","1","0","1","0","0","1","0","1","5","2","2","2","2","","2","4","4","4","4","789952361161433089","罗","448","","","","","","","","","","","","","","","","","","","true","14","4","moral","920","negative","缺德","","","","","","","","","","","","","","","","",""
"null","","null","html-keyboard-response","128","286675","0.0-6.0-1.0-8.0-0.10","4","4","3","3","3","3","4","4","3","3","5","2","2","4","2","4","2","2","5","2","2","4","2","2","2","2","2","2","4","1","0","1","0","1","0","0","1","0","1","0","0","1","0","1","5","2","2","2","2","","2","4","4","4","4","789952361161433089","罗","448","","","","","","","","","","","","","","","","","","","","","","","","","","","","","","","","","","","","","","","","","",""
"856","<p style=""color:rgb(150, 250, 100); font-size: 35px;"">他人</p>","e","categorize-html","129","287534","0.0-6.0-1.0-8.0-1.10","4","4","3","3","3","3","4","4","3","3","5","2","2","4","2","4","2","2","5","2","2","4","2","2","2","2","2","2","4","1","0","1","0","1","0","0","1","0","1","0","0","1","0","1","5","2","2","2","2","","2","4","4","4","4","789952361161433089","罗","448","","","","","","","","","","","","","","","","","","","true","14","4","moral","856","other","他人","","","","","","","","","","","","","","","","",""
"null","","null","html-keyboard-response","130","287786","0.0-6.0-1.0-8.0-0.11","4","4","3","3","3","3","4","4","3","3","5","2","2","4","2","4","2","2","5","2","2","4","2","2","2","2","2","2","4","1","0","1","0","1","0","0","1","0","1","0","0","1","0","1","5","2","2","2","2","","2","4","4","4","4","789952361161433089","罗","448","","","","","","","","","","","","","","","","","","","","","","","","","","","","","","","","","","","","","","","","","",""
"720","<p style=""color:white; font-size: 35px;"">高尚</p>","e","categorize-html","131","288510","0.0-6.0-1.0-8.0-1.11","4","4","3","3","3","3","4","4","3","3","5","2","2","4","2","4","2","2","5","2","2","4","2","2","2","2","2","2","4","1","0","1","0","1","0","0","1","0","1","0","0","1","0","1","5","2","2","2","2","","2","4","4","4","4","789952361161433089","罗","448","","","","","","","","","","","","","","","","","","","true","14","4","moral","720","positive","高尚","","","","","","","","","","","","","","","","",""
"null","","null","html-keyboard-response","132","288762","0.0-6.0-1.0-8.0-0.12","4","4","3","3","3","3","4","4","3","3","5","2","2","4","2","4","2","2","5","2","2","4","2","2","2","2","2","2","4","1","0","1","0","1","0","0","1","0","1","0","0","1","0","1","5","2","2","2","2","","2","4","4","4","4","789952361161433089","罗","448","","","","","","","","","","","","","","","","","","","","","","","","","","","","","","","","","","","","","","","","","",""
"1239","<p style=""color:rgb(150, 250, 100); font-size: 35px;"">自己</p>","i","categorize-html","133","290006","0.0-6.0-1.0-8.0-1.12","4","4","3","3","3","3","4","4","3","3","5","2","2","4","2","4","2","2","5","2","2","4","2","2","2","2","2","2","4","1","0","1","0","1","0","0","1","0","1","0","0","1","0","1","5","2","2","2","2","","2","4","4","4","4","789952361161433089","罗","448","","","","","","","","","","","","","","","","","","","true","14","4","moral","1239","self","自己","","","","","","","","","","","","","","","","",""
"null","","null","html-keyboard-response","134","290258","0.0-6.0-1.0-8.0-0.13","4","4","3","3","3","3","4","4","3","3","5","2","2","4","2","4","2","2","5","2","2","4","2","2","2","2","2","2","4","1","0","1","0","1","0","0","1","0","1","0","0","1","0","1","5","2","2","2","2","","2","4","4","4","4","789952361161433089","罗","448","","","","","","","","","","","","","","","","","","","","","","","","","","","","","","","","","","","","","","","","","",""
"759","<p style=""color:white; font-size: 35px;"">小人</p>","i","categorize-html","135","291020","0.0-6.0-1.0-8.0-1.13","4","4","3","3","3","3","4","4","3","3","5","2","2","4","2","4","2","2","5","2","2","4","2","2","2","2","2","2","4","1","0","1","0","1","0","0","1","0","1","0","0","1","0","1","5","2","2","2","2","","2","4","4","4","4","789952361161433089","罗","448","","","","","","","","","","","","","","","","","","","true","14","4","moral","759","negative","小人","","","","","","","","","","","","","","","","",""
"null","","null","html-keyboard-response","136","291272","0.0-6.0-1.0-8.0-0.14","4","4","3","3","3","3","4","4","3","3","5","2","2","4","2","4","2","2","5","2","2","4","2","2","2","2","2","2","4","1","0","1","0","1","0","0","1","0","1","0","0","1","0","1","5","2","2","2","2","","2","4","4","4","4","789952361161433089","罗","448","","","","","","","","","","","","","","","","","","","","","","","","","","","","","","","","","","","","","","","","","",""
"810","<p style=""color:rgb(150, 250, 100); font-size: 35px;"">他</p>","e","categorize-html","137","292086","0.0-6.0-1.0-8.0-1.14","4","4","3","3","3","3","4","4","3","3","5","2","2","4","2","4","2","2","5","2","2","4","2","2","2","2","2","2","4","1","0","1","0","1","0","0","1","0","1","0","0","1","0","1","5","2","2","2","2","","2","4","4","4","4","789952361161433089","罗","448","","","","","","","","","","","","","","","","","","","true","14","4","moral","810","other","他","","","","","","","","","","","","","","","","",""
"null","","null","html-keyboard-response","138","292339","0.0-6.0-1.0-8.0-0.15","4","4","3","3","3","3","4","4","3","3","5","2","2","4","2","4","2","2","5","2","2","4","2","2","2","2","2","2","4","1","0","1","0","1","0","0","1","0","1","0","0","1","0","1","5","2","2","2","2","","2","4","4","4","4","789952361161433089","罗","448","","","","","","","","","","","","","","","","","","","","","","","","","","","","","","","","","","","","","","","","","",""
"671","<p style=""color:white; font-size: 35px;"">廉正</p>","e","categorize-html","139","293013","0.0-6.0-1.0-8.0-1.15","4","4","3","3","3","3","4","4","3","3","5","2","2","4","2","4","2","2","5","2","2","4","2","2","2","2","2","2","4","1","0","1","0","1","0","0","1","0","1","0","0","1","0","1","5","2","2","2","2","","2","4","4","4","4","789952361161433089","罗","448","","","","","","","","","","","","","","","","","","","true","14","4","moral","671","positive","廉正","","","","","","","","","","","","","","","","",""
"null","","null","html-keyboard-response","140","293265","0.0-6.0-1.0-8.0-0.16","4","4","3","3","3","3","4","4","3","3","5","2","2","4","2","4","2","2","5","2","2","4","2","2","2","2","2","2","4","1","0","1","0","1","0","0","1","0","1","0","0","1","0","1","5","2","2","2","2","","2","4","4","4","4","789952361161433089","罗","448","","","","","","","","","","","","","","","","","","","","","","","","","","","","","","","","","","","","","","","","","",""
"705","<p style=""color:rgb(150, 250, 100); font-size: 35px;"">他的</p>","e","categorize-html","141","293974","0.0-6.0-1.0-8.0-1.16","4","4","3","3","3","3","4","4","3","3","5","2","2","4","2","4","2","2","5","2","2","4","2","2","2","2","2","2","4","1","0","1","0","1","0","0","1","0","1","0","0","1","0","1","5","2","2","2","2","","2","4","4","4","4","789952361161433089","罗","448","","","","","","","","","","","","","","","","","","","true","14","4","moral","705","other","他的","","","","","","","","","","","","","","","","",""
"null","","null","html-keyboard-response","142","294226","0.0-6.0-1.0-8.0-0.17","4","4","3","3","3","3","4","4","3","3","5","2","2","4","2","4","2","2","5","2","2","4","2","2","2","2","2","2","4","1","0","1","0","1","0","0","1","0","1","0","0","1","0","1","5","2","2","2","2","","2","4","4","4","4","789952361161433089","罗","448","","","","","","","","","","","","","","","","","","","","","","","","","","","","","","","","","","","","","","","","","",""
"783","<p style=""color:white; font-size: 35px;"">不仁</p>","i","categorize-html","143","295012","0.0-6.0-1.0-8.0-1.17","4","4","3","3","3","3","4","4","3","3","5","2","2","4","2","4","2","2","5","2","2","4","2","2","2","2","2","2","4","1","0","1","0","1","0","0","1","0","1","0","0","1","0","1","5","2","2","2","2","","2","4","4","4","4","789952361161433089","罗","448","","","","","","","","","","","","","","","","","","","true","14","4","moral","783","negative","不仁","","","","","","","","","","","","","","","","",""
"null","","null","html-keyboard-response","144","295263","0.0-6.0-1.0-8.0-0.18","4","4","3","3","3","3","4","4","3","3","5","2","2","4","2","4","2","2","5","2","2","4","2","2","2","2","2","2","4","1","0","1","0","1","0","0","1","0","1","0","0","1","0","1","5","2","2","2","2","","2","4","4","4","4","789952361161433089","罗","448","","","","","","","","","","","","","","","","","","","","","","","","","","","","","","","","","","","","","","","","","",""
"922","<p style=""color:rgb(150, 250, 100); font-size: 35px;"">本人的</p>","i","categorize-html","145","296187","0.0-6.0-1.0-8.0-1.18","4","4","3","3","3","3","4","4","3","3","5","2","2","4","2","4","2","2","5","2","2","4","2","2","2","2","2","2","4","1","0","1","0","1","0","0","1","0","1","0","0","1","0","1","5","2","2","2","2","","2","4","4","4","4","789952361161433089","罗","448","","","","","","","","","","","","","","","","","","","true","14","4","moral","922","self","本人的","","","","","","","","","","","","","","","","",""
"null","","null","html-keyboard-response","146","296439","0.0-6.0-1.0-8.0-0.19","4","4","3","3","3","3","4","4","3","3","5","2","2","4","2","4","2","2","5","2","2","4","2","2","2","2","2","2","4","1","0","1","0","1","0","0","1","0","1","0","0","1","0","1","5","2","2","2","2","","2","4","4","4","4","789952361161433089","罗","448","","","","","","","","","","","","","","","","","","","","","","","","","","","","","","","","","","","","","","","","","",""
"2067","<p style=""color:white; font-size: 35px;"">善良</p>","e","categorize-html","147","298511","0.0-6.0-1.0-8.0-1.19","4","4","3","3","3","3","4","4","3","3","5","2","2","4","2","4","2","2","5","2","2","4","2","2","2","2","2","2","4","1","0","1","0","1","0","0","1","0","1","0","0","1","0","1","5","2","2","2","2","","2","4","4","4","4","789952361161433089","罗","448","","","","","","","","","","","","","","","","","","","true","14","4","moral","2067","positive","善良","","","","","","","","","","","","","","","","",""
"null","","null","html-keyboard-response","148","298762","0.0-6.0-1.0-8.0-0.20","4","4","3","3","3","3","4","4","3","3","5","2","2","4","2","4","2","2","5","2","2","4","2","2","2","2","2","2","4","1","0","1","0","1","0","0","1","0","1","0","0","1","0","1","5","2","2","2","2","","2","4","4","4","4","789952361161433089","罗","448","","","","","","","","","","","","","","","","","","","","","","","","","","","","","","","","","","","","","","","","","",""
"1271","<p style=""color:rgb(150, 250, 100); font-size: 35px;"">我</p>","i","categorize-html","149","300036","0.0-6.0-1.0-8.0-1.20","4","4","3","3","3","3","4","4","3","3","5","2","2","4","2","4","2","2","5","2","2","4","2","2","2","2","2","2","4","1","0","1","0","1","0","0","1","0","1","0","0","1","0","1","5","2","2","2","2","","2","4","4","4","4","789952361161433089","罗","448","","","","","","","","","","","","","","","","","","","true","14","4","moral","1271","self","我","","","","","","","","","","","","","","","","",""
"null","","null","html-keyboard-response","150","300286","0.0-6.0-1.0-8.0-0.21","4","4","3","3","3","3","4","4","3","3","5","2","2","4","2","4","2","2","5","2","2","4","2","2","2","2","2","2","4","1","0","1","0","1","0","0","1","0","1","0","0","1","0","1","5","2","2","2","2","","2","4","4","4","4","789952361161433089","罗","448","","","","","","","","","","","","","","","","","","","","","","","","","","","","","","","","","","","","","","","","","",""
"1579","<p style=""color:white; font-size: 35px;"">缺德</p>","i","categorize-html","151","301868","0.0-6.0-1.0-8.0-1.21","4","4","3","3","3","3","4","4","3","3","5","2","2","4","2","4","2","2","5","2","2","4","2","2","2","2","2","2","4","1","0","1","0","1","0","0","1","0","1","0","0","1","0","1","5","2","2","2","2","","2","4","4","4","4","789952361161433089","罗","448","","","","","","","","","","","","","","","","","","","true","14","4","moral","1579","negative","缺德","","","","","","","","","","","","","","","","",""
"null","","null","html-keyboard-response","152","302119","0.0-6.0-1.0-8.0-0.22","4","4","3","3","3","3","4","4","3","3","5","2","2","4","2","4","2","2","5","2","2","4","2","2","2","2","2","2","4","1","0","1","0","1","0","0","1","0","1","0","0","1","0","1","5","2","2","2","2","","2","4","4","4","4","789952361161433089","罗","448","","","","","","","","","","","","","","","","","","","","","","","","","","","","","","","","","","","","","","","","","",""
"1122","<p style=""color:rgb(150, 250, 100); font-size: 35px;"">别人</p>","e","categorize-html","153","303246","0.0-6.0-1.0-8.0-1.22","4","4","3","3","3","3","4","4","3","3","5","2","2","4","2","4","2","2","5","2","2","4","2","2","2","2","2","2","4","1","0","1","0","1","0","0","1","0","1","0","0","1","0","1","5","2","2","2","2","","2","4","4","4","4","789952361161433089","罗","448","","","","","","","","","","","","","","","","","","","true","14","4","moral","1122","other","别人","","","","","","","","","","","","","","","","",""
"null","","null","html-keyboard-response","154","303497","0.0-6.0-1.0-8.0-0.23","4","4","3","3","3","3","4","4","3","3","5","2","2","4","2","4","2","2","5","2","2","4","2","2","2","2","2","2","4","1","0","1","0","1","0","0","1","0","1","0","0","1","0","1","5","2","2","2","2","","2","4","4","4","4","789952361161433089","罗","448","","","","","","","","","","","","","","","","","","","","","","","","","","","","","","","","","","","","","","","","","",""
"968","<p style=""color:white; font-size: 35px;"">正直</p>","e","categorize-html","155","304469","0.0-6.0-1.0-8.0-1.23","4","4","3","3","3","3","4","4","3","3","5","2","2","4","2","4","2","2","5","2","2","4","2","2","2","2","2","2","4","1","0","1","0","1","0","0","1","0","1","0","0","1","0","1","5","2","2","2","2","","2","4","4","4","4","789952361161433089","罗","448","","","","","","","","","","","","","","","","","","","true","14","4","moral","968","positive","正直","","","","","","","","","","","","","","","","",""
"null","","null","html-keyboard-response","156","304721","0.0-6.0-1.0-8.0-0.24","4","4","3","3","3","3","4","4","3","3","5","2","2","4","2","4","2","2","5","2","2","4","2","2","2","2","2","2","4","1","0","1","0","1","0","0","1","0","1","0","0","1","0","1","5","2","2","2","2","","2","4","4","4","4","789952361161433089","罗","448","","","","","","","","","","","","","","","","","","","","","","","","","","","","","","","","","","","","","","","","","",""
"808","<p style=""color:rgb(150, 250, 100); font-size: 35px;"">自己</p>","i","categorize-html","157","305533","0.0-6.0-1.0-8.0-1.24","4","4","3","3","3","3","4","4","3","3","5","2","2","4","2","4","2","2","5","2","2","4","2","2","2","2","2","2","4","1","0","1","0","1","0","0","1","0","1","0","0","1","0","1","5","2","2","2","2","","2","4","4","4","4","789952361161433089","罗","448","","","","","","","","","","","","","","","","","","","true","14","4","moral","808","self","自己","","","","","","","","","","","","","","","","",""
"null","","null","html-keyboard-response","158","305786","0.0-6.0-1.0-8.0-0.25","4","4","3","3","3","3","4","4","3","3","5","2","2","4","2","4","2","2","5","2","2","4","2","2","2","2","2","2","4","1","0","1","0","1","0","0","1","0","1","0","0","1","0","1","5","2","2","2","2","","2","4","4","4","4","789952361161433089","罗","448","","","","","","","","","","","","","","","","","","","","","","","","","","","","","","","","","","","","","","","","","",""
"1031","<p style=""color:white; font-size: 35px;"">正直</p>","e","categorize-html","159","306821","0.0-6.0-1.0-8.0-1.25","4","4","3","3","3","3","4","4","3","3","5","2","2","4","2","4","2","2","5","2","2","4","2","2","2","2","2","2","4","1","0","1","0","1","0","0","1","0","1","0","0","1","0","1","5","2","2","2","2","","2","4","4","4","4","789952361161433089","罗","448","","","","","","","","","","","","","","","","","","","true","14","4","moral","1031","positive","正直","","","","","","","","","","","","","","","","",""
"null","","null","html-keyboard-response","160","307073","0.0-6.0-1.0-8.0-0.26","4","4","3","3","3","3","4","4","3","3","5","2","2","4","2","4","2","2","5","2","2","4","2","2","2","2","2","2","4","1","0","1","0","1","0","0","1","0","1","0","0","1","0","1","5","2","2","2","2","","2","4","4","4","4","789952361161433089","罗","448","","","","","","","","","","","","","","","","","","","","","","","","","","","","","","","","","","","","","","","","","",""
"1315","<p style=""color:rgb(150, 250, 100); font-size: 35px;"">别人的</p>","e","categorize-html","161","308494","0.0-6.0-1.0-8.0-1.26","4","4","3","3","3","3","4","4","3","3","5","2","2","4","2","4","2","2","5","2","2","4","2","2","2","2","2","2","4","1","0","1","0","1","0","0","1","0","1","0","0","1","0","1","5","2","2","2","2","","2","4","4","4","4","789952361161433089","罗","448","","","","","","","","","","","","","","","","","","","true","14","4","moral","1315","other","别人的","","","","","","","","","","","","","","","","",""
"null","","null","html-keyboard-response","162","308746","0.0-6.0-1.0-8.0-0.27","4","4","3","3","3","3","4","4","3","3","5","2","2","4","2","4","2","2","5","2","2","4","2","2","2","2","2","2","4","1","0","1","0","1","0","0","1","0","1","0","0","1","0","1","5","2","2","2","2","","2","4","4","4","4","789952361161433089","罗","448","","","","","","","","","","","","","","","","","","","","","","","","","","","","","","","","","","","","","","","","","",""
"1017","<p style=""color:white; font-size: 35px;"">不仁</p>","i","categorize-html","163","309767","0.0-6.0-1.0-8.0-1.27","4","4","3","3","3","3","4","4","3","3","5","2","2","4","2","4","2","2","5","2","2","4","2","2","2","2","2","2","4","1","0","1","0","1","0","0","1","0","1","0","0","1","0","1","5","2","2","2","2","","2","4","4","4","4","789952361161433089","罗","448","","","","","","","","","","","","","","","","","","","true","14","4","moral","1017","negative","不仁","","","","","","","","","","","","","","","","",""
"null","","null","html-keyboard-response","164","310019","0.0-6.0-1.0-8.0-0.28","4","4","3","3","3","3","4","4","3","3","5","2","2","4","2","4","2","2","5","2","2","4","2","2","2","2","2","2","4","1","0","1","0","1","0","0","1","0","1","0","0","1","0","1","5","2","2","2","2","","2","4","4","4","4","789952361161433089","罗","448","","","","","","","","","","","","","","","","","","","","","","","","","","","","","","","","","","","","","","","","","",""
"1036","<p style=""color:rgb(150, 250, 100); font-size: 35px;"">他的</p>","e","categorize-html","165","311059","0.0-6.0-1.0-8.0-1.28","4","4","3","3","3","3","4","4","3","3","5","2","2","4","2","4","2","2","5","2","2","4","2","2","2","2","2","2","4","1","0","1","0","1","0","0","1","0","1","0","0","1","0","1","5","2","2","2","2","","2","4","4","4","4","789952361161433089","罗","448","","","","","","","","","","","","","","","","","","","true","14","4","moral","1036","other","他的","","","","","","","","","","","","","","","","",""
"null","","null","html-keyboard-response","166","311311","0.0-6.0-1.0-8.0-0.29","4","4","3","3","3","3","4","4","3","3","5","2","2","4","2","4","2","2","5","2","2","4","2","2","2","2","2","2","4","1","0","1","0","1","0","0","1","0","1","0","0","1","0","1","5","2","2","2","2","","2","4","4","4","4","789952361161433089","罗","448","","","","","","","","","","","","","","","","","","","","","","","","","","","","","","","","","","","","","","","","","",""
"784","<p style=""color:white; font-size: 35px;"">君子</p>","e","categorize-html","167","312099","0.0-6.0-1.0-8.0-1.29","4","4","3","3","3","3","4","4","3","3","5","2","2","4","2","4","2","2","5","2","2","4","2","2","2","2","2","2","4","1","0","1","0","1","0","0","1","0","1","0","0","1","0","1","5","2","2","2","2","","2","4","4","4","4","789952361161433089","罗","448","","","","","","","","","","","","","","","","","","","true","14","4","moral","784","positive","君子","","","","","","","","","","","","","","","","",""
"null","","null","html-keyboard-response","168","312351","0.0-6.0-1.0-8.0-0.30","4","4","3","3","3","3","4","4","3","3","5","2","2","4","2","4","2","2","5","2","2","4","2","2","2","2","2","2","4","1","0","1","0","1","0","0","1","0","1","0","0","1","0","1","5","2","2","2","2","","2","4","4","4","4","789952361161433089","罗","448","","","","","","","","","","","","","","","","","","","","","","","","","","","","","","","","","","","","","","","","","",""
"960","<p style=""color:rgb(150, 250, 100); font-size: 35px;"">我</p>","e","categorize-html","169","313960","0.0-6.0-1.0-8.0-1.30","4","4","3","3","3","3","4","4","3","3","5","2","2","4","2","4","2","2","5","2","2","4","2","2","2","2","2","2","4","1","0","1","0","1","0","0","1","0","1","0","0","1","0","1","5","2","2","2","2","","2","4","4","4","4","789952361161433089","罗","448","","","","","","","","","","","","","","","","","","","false","14","4","moral","1644.6304347826087","self","我","","","","","","","","","","","","","","","","",""
"null","","null","html-keyboard-response","170","314211","0.0-6.0-1.0-8.0-0.31","4","4","3","3","3","3","4","4","3","3","5","2","2","4","2","4","2","2","5","2","2","4","2","2","2","2","2","2","4","1","0","1","0","1","0","0","1","0","1","0","0","1","0","1","5","2","2","2","2","","2","4","4","4","4","789952361161433089","罗","448","","","","","","","","","","","","","","","","","","","","","","","","","","","","","","","","","","","","","","","","","",""
"2434","<p style=""color:white; font-size: 35px;"">不孝</p>","i","categorize-html","171","316649","0.0-6.0-1.0-8.0-1.31","4","4","3","3","3","3","4","4","3","3","5","2","2","4","2","4","2","2","5","2","2","4","2","2","2","2","2","2","4","1","0","1","0","1","0","0","1","0","1","0","0","1","0","1","5","2","2","2","2","","2","4","4","4","4","789952361161433089","罗","448","","","","","","","","","","","","","","","","","","","true","14","4","moral","2434","negative","不孝","","","","","","","","","","","","","","","","",""
"null","","null","html-keyboard-response","172","316900","0.0-6.0-1.0-8.0-0.32","4","4","3","3","3","3","4","4","3","3","5","2","2","4","2","4","2","2","5","2","2","4","2","2","2","2","2","2","4","1","0","1","0","1","0","0","1","0","1","0","0","1","0","1","5","2","2","2","2","","2","4","4","4","4","789952361161433089","罗","448","","","","","","","","","","","","","","","","","","","","","","","","","","","","","","","","","","","","","","","","","",""
"955","<p style=""color:rgb(150, 250, 100); font-size: 35px;"">他人的</p>","e","categorize-html","173","317859","0.0-6.0-1.0-8.0-1.32","4","4","3","3","3","3","4","4","3","3","5","2","2","4","2","4","2","2","5","2","2","4","2","2","2","2","2","2","4","1","0","1","0","1","0","0","1","0","1","0","0","1","0","1","5","2","2","2","2","","2","4","4","4","4","789952361161433089","罗","448","","","","","","","","","","","","","","","","","","","true","14","4","moral","955","other","他人的","","","","","","","","","","","","","","","","",""
"null","","null","html-keyboard-response","174","318110","0.0-6.0-1.0-8.0-0.33","4","4","3","3","3","3","4","4","3","3","5","2","2","4","2","4","2","2","5","2","2","4","2","2","2","2","2","2","4","1","0","1","0","1","0","0","1","0","1","0","0","1","0","1","5","2","2","2","2","","2","4","4","4","4","789952361161433089","罗","448","","","","","","","","","","","","","","","","","","","","","","","","","","","","","","","","","","","","","","","","","",""
"1704","<p style=""color:white; font-size: 35px;"">高尚</p>","e","categorize-html","175","319818","0.0-6.0-1.0-8.0-1.33","4","4","3","3","3","3","4","4","3","3","5","2","2","4","2","4","2","2","5","2","2","4","2","2","2","2","2","2","4","1","0","1","0","1","0","0","1","0","1","0","0","1","0","1","5","2","2","2","2","","2","4","4","4","4","789952361161433089","罗","448","","","","","","","","","","","","","","","","","","","true","14","4","moral","1704","positive","高尚","","","","","","","","","","","","","","","","",""
"null","","null","html-keyboard-response","176","320069","0.0-6.0-1.0-8.0-0.34","4","4","3","3","3","3","4","4","3","3","5","2","2","4","2","4","2","2","5","2","2","4","2","2","2","2","2","2","4","1","0","1","0","1","0","0","1","0","1","0","0","1","0","1","5","2","2","2","2","","2","4","4","4","4","789952361161433089","罗","448","","","","","","","","","","","","","","","","","","","","","","","","","","","","","","","","","","","","","","","","","",""
"857","<p style=""color:rgb(150, 250, 100); font-size: 35px;"">本人</p>","i","categorize-html","177","320931","0.0-6.0-1.0-8.0-1.34","4","4","3","3","3","3","4","4","3","3","5","2","2","4","2","4","2","2","5","2","2","4","2","2","2","2","2","2","4","1","0","1","0","1","0","0","1","0","1","0","0","1","0","1","5","2","2","2","2","","2","4","4","4","4","789952361161433089","罗","448","","","","","","","","","","","","","","","","","","","true","14","4","moral","857","self","本人","","","","","","","","","","","","","","","","",""
"null","","null","html-keyboard-response","178","321182","0.0-6.0-1.0-8.0-0.35","4","4","3","3","3","3","4","4","3","3","5","2","2","4","2","4","2","2","5","2","2","4","2","2","2","2","2","2","4","1","0","1","0","1","0","0","1","0","1","0","0","1","0","1","5","2","2","2","2","","2","4","4","4","4","789952361161433089","罗","448","","","","","","","","","","","","","","","","","","","","","","","","","","","","","","","","","","","","","","","","","",""
"856","<p style=""color:white; font-size: 35px;"">卑鄙</p>","i","categorize-html","179","322041","0.0-6.0-1.0-8.0-1.35","4","4","3","3","3","3","4","4","3","3","5","2","2","4","2","4","2","2","5","2","2","4","2","2","2","2","2","2","4","1","0","1","0","1","0","0","1","0","1","0","0","1","0","1","5","2","2","2","2","","2","4","4","4","4","789952361161433089","罗","448","","","","","","","","","","","","","","","","","","","true","14","4","moral","856","negative","卑鄙","","","","","","","","","","","","","","","","",""
"null","","null","html-keyboard-response","180","322292","0.0-6.0-1.0-8.0-0.36","4","4","3","3","3","3","4","4","3","3","5","2","2","4","2","4","2","2","5","2","2","4","2","2","2","2","2","2","4","1","0","1","0","1","0","0","1","0","1","0","0","1","0","1","5","2","2","2","2","","2","4","4","4","4","789952361161433089","罗","448","","","","","","","","","","","","","","","","","","","","","","","","","","","","","","","","","","","","","","","","","",""
"698","<p style=""color:rgb(150, 250, 100); font-size: 35px;"">自己的</p>","i","categorize-html","181","322993","0.0-6.0-1.0-8.0-1.36","4","4","3","3","3","3","4","4","3","3","5","2","2","4","2","4","2","2","5","2","2","4","2","2","2","2","2","2","4","1","0","1","0","1","0","0","1","0","1","0","0","1","0","1","5","2","2","2","2","","2","4","4","4","4","789952361161433089","罗","448","","","","","","","","","","","","","","","","","","","true","14","4","moral","698","self","自己的","","","","","","","","","","","","","","","","",""
"null","","null","html-keyboard-response","182","323244","0.0-6.0-1.0-8.0-0.37","4","4","3","3","3","3","4","4","3","3","5","2","2","4","2","4","2","2","5","2","2","4","2","2","2","2","2","2","4","1","0","1","0","1","0","0","1","0","1","0","0","1","0","1","5","2","2","2","2","","2","4","4","4","4","789952361161433089","罗","448","","","","","","","","","","","","","","","","","","","","","","","","","","","","","","","","","","","","","","","","","",""
"930","<p style=""color:white; font-size: 35px;"">小人</p>","i","categorize-html","183","324179","0.0-6.0-1.0-8.0-1.37","4","4","3","3","3","3","4","4","3","3","5","2","2","4","2","4","2","2","5","2","2","4","2","2","2","2","2","2","4","1","0","1","0","1","0","0","1","0","1","0","0","1","0","1","5","2","2","2","2","","2","4","4","4","4","789952361161433089","罗","448","","","","","","","","","","","","","","","","","","","true","14","4","moral","930","negative","小人","","","","","","","","","","","","","","","","",""
"null","","null","html-keyboard-response","184","324430","0.0-6.0-1.0-8.0-0.38","4","4","3","3","3","3","4","4","3","3","5","2","2","4","2","4","2","2","5","2","2","4","2","2","2","2","2","2","4","1","0","1","0","1","0","0","1","0","1","0","0","1","0","1","5","2","2","2","2","","2","4","4","4","4","789952361161433089","罗","448","","","","","","","","","","","","","","","","","","","","","","","","","","","","","","","","","","","","","","","","","",""
"889","<p style=""color:rgb(150, 250, 100); font-size: 35px;"">别人</p>","i","categorize-html","185","325847","0.0-6.0-1.0-8.0-1.38","4","4","3","3","3","3","4","4","3","3","5","2","2","4","2","4","2","2","5","2","2","4","2","2","2","2","2","2","4","1","0","1","0","1","0","0","1","0","1","0","0","1","0","1","5","2","2","2","2","","2","4","4","4","4","789952361161433089","罗","448","","","","","","","","","","","","","","","","","","","false","14","4","moral","1644.6304347826087","other","别人","","","","","","","","","","","","","","","","",""
"null","","null","html-keyboard-response","186","326099","0.0-6.0-1.0-8.0-0.39","4","4","3","3","3","3","4","4","3","3","5","2","2","4","2","4","2","2","5","2","2","4","2","2","2","2","2","2","4","1","0","1","0","1","0","0","1","0","1","0","0","1","0","1","5","2","2","2","2","","2","4","4","4","4","789952361161433089","罗","448","","","","","","","","","","","","","","","","","","","","","","","","","","","","","","","","","","","","","","","","","",""
"1746","<p style=""color:white; font-size: 35px;"">廉正</p>","e","categorize-html","187","327848","0.0-6.0-1.0-8.0-1.39","4","4","3","3","3","3","4","4","3","3","5","2","2","4","2","4","2","2","5","2","2","4","2","2","2","2","2","2","4","1","0","1","0","1","0","0","1","0","1","0","0","1","0","1","5","2","2","2","2","","2","4","4","4","4","789952361161433089","罗","448","","","","","","","","","","","","","","","","","","","true","14","4","moral","1746","positive","廉正","","","","","","","","","","","","","","","","",""
"null","","null","html-keyboard-response","188","328099","0.0-6.0-1.0-8.0-0.40","4","4","3","3","3","3","4","4","3","3","5","2","2","4","2","4","2","2","5","2","2","4","2","2","2","2","2","2","4","1","0","1","0","1","0","0","1","0","1","0","0","1","0","1","5","2","2","2","2","","2","4","4","4","4","789952361161433089","罗","448","","","","","","","","","","","","","","","","","","","","","","","","","","","","","","","","","","","","","","","","","",""
"1002","<p style=""color:rgb(150, 250, 100); font-size: 35px;"">我的</p>","i","categorize-html","189","329105","0.0-6.0-1.0-8.0-1.40","4","4","3","3","3","3","4","4","3","3","5","2","2","4","2","4","2","2","5","2","2","4","2","2","2","2","2","2","4","1","0","1","0","1","0","0","1","0","1","0","0","1","0","1","5","2","2","2","2","","2","4","4","4","4","789952361161433089","罗","448","","","","","","","","","","","","","","","","","","","true","14","4","moral","1002","self","我的","","","","","","","","","","","","","","","","",""
"null","","null","html-keyboard-response","190","329356","0.0-6.0-1.0-8.0-0.41","4","4","3","3","3","3","4","4","3","3","5","2","2","4","2","4","2","2","5","2","2","4","2","2","2","2","2","2","4","1","0","1","0","1","0","0","1","0","1","0","0","1","0","1","5","2","2","2","2","","2","4","4","4","4","789952361161433089","罗","448","","","","","","","","","","","","","","","","","","","","","","","","","","","","","","","","","","","","","","","","","",""
"1075","<p style=""color:white; font-size: 35px;"">黑心</p>","i","categorize-html","191","330434","0.0-6.0-1.0-8.0-1.41","4","4","3","3","3","3","4","4","3","3","5","2","2","4","2","4","2","2","5","2","2","4","2","2","2","2","2","2","4","1","0","1","0","1","0","0","1","0","1","0","0","1","0","1","5","2","2","2","2","","2","4","4","4","4","789952361161433089","罗","448","","","","","","","","","","","","","","","","","","","true","14","4","moral","1075","negative","黑心","","","","","","","","","","","","","","","","",""
"null","","null","html-keyboard-response","192","330685","0.0-6.0-1.0-8.0-0.42","4","4","3","3","3","3","4","4","3","3","5","2","2","4","2","4","2","2","5","2","2","4","2","2","2","2","2","2","4","1","0","1","0","1","0","0","1","0","1","0","0","1","0","1","5","2","2","2","2","","2","4","4","4","4","789952361161433089","罗","448","","","","","","","","","","","","","","","","","","","","","","","","","","","","","","","","","","","","","","","","","",""
"928","<p style=""color:rgb(150, 250, 100); font-size: 35px;"">他人</p>","e","categorize-html","193","331618","0.0-6.0-1.0-8.0-1.42","4","4","3","3","3","3","4","4","3","3","5","2","2","4","2","4","2","2","5","2","2","4","2","2","2","2","2","2","4","1","0","1","0","1","0","0","1","0","1","0","0","1","0","1","5","2","2","2","2","","2","4","4","4","4","789952361161433089","罗","448","","","","","","","","","","","","","","","","","","","true","14","4","moral","928","other","他人","","","","","","","","","","","","","","","","",""
