"rt","stimulus","response","trial_type","trial_index","time_elapsed","internal_node_id","ses_1","ses_2","ses_3","ses_4","ses_5","ses_6","ses_7","ses_8","ses_9","ses_10","coreself_1","coreself_2","coreself_3","coreself_4","coreself_5","coreself_6","coreself_7","coreself_8","coreself_9","coreself_10","SGPS_1","SGPS_2","SGPS_3","SGPS_4","SGPS_5","SGPS_6","SGPS_7","SGPS_8","SGPS_9","NPI1","NPI2","NPI3","NPI4","NPI5","NPI6","NPI7","NPI8","NPI9","NPI10","NPI11","NPI12","NPI13","NPI14","NPI15","hsns_1","hsns_2","hsns_3","hsns_4","hsns_5","hsns_6","hsns_7","hsns_8","hsns_9","hsns_10","subj_idx","friend_name","ParticipantID","value","success","user_agent","responses","item_order","radio_event_ids","radio_event_times","key_event_times","mouse_event_times","straightlining","zigzagging","honeypot","timeout","failed_images","failed_audio","failed_video","view_history","response_type","key_press","avg_frame_time","center_x","center_y","correct_response","correct","identity","Image","word","condition","task_id","screen_id","time_stamp","version_attrib2","version_target2","IAT","RT","varname","summary","version_attrib","version_target","question_order"
"8226","
   <p><div style = ""color: white;font-size:25px;"">您好，欢迎参加本次实验。</div> </p>
   <p><div style = ""color: white;font-size:25px;"">为充分保障您的权利，请确保您已经知晓并同意《参与实验同意书》以及《数据公开知情同意书》。</div></p>
   <p><div style = ""color: white;font-size:25px;"">如果您未见过上述内容，请咨询实验员。</div></p>
   <p><div style = ""color: white;font-size:25px;"">如果您选择继续实验，则表示您已经清楚两份知情同意书的内容并同意。</div></p>
   <p><div style = ""color: red;font-size:30px;"">请确保您记得day0的实验编号，您将在本次实验输入该编号，若您忘记，请咨询实验员后作答。</div></p>
   <p> <div style = ""color: green;font-size:25px;""><按空格键至下页></div> </p>
   "," ","html-keyboard-response","0","8228","0.0-0.0","2","2","2","2","2","2","1","2","2","2","2","2","1","2","2","1","2","1","3","2","3","4","4","3","4","4","4","3","3","1","0","1","1","0","1","1","1","1","1","1","0","1","0","1","2","5","4","4","5","4","4","3","2","5","752227872634310658","刘","14","","","","","","","","","","","","","","","","","","","","","","","","","","","","","","","","","","","","","","","",""
"","","","call-function","1","8229","0.0-1.0-0.0","2","2","2","2","2","2","1","2","2","2","2","2","1","2","2","1","2","1","3","2","3","4","4","3","4","4","4","3","3","1","0","1","1","0","1","1","1","1","1","1","0","1","0","1","2","5","4","4","5","4","4","3","2","5","752227872634310658","刘","14","","","","","","","","","","","","","","","","","","","","","","","","","","","","","","","","","","","","","","","",""
"34538","","{""friend_name"":""刘"",""ParticipantID"":""14""}","survey-html-form","2","42768","0.0-1.0-1.0","2","2","2","2","2","2","1","2","2","2","2","2","1","2","2","1","2","1","3","2","3","4","4","3","4","4","4","3","3","1","0","1","1","0","1","1","1","1","1","1","0","1","0","1","2","5","4","4","5","4","4","3","2","5","752227872634310658","刘","14","","","","","","","","","","","","","","","","","","","","","","","","","","","","","","","","","","","","","","","",""
"","","","fullscreen","3","74294","0.0-2.0","2","2","2","2","2","2","1","2","2","2","2","2","1","2","2","1","2","1","3","2","3","4","4","3","4","4","4","3","3","1","0","1","1","0","1","1","1","1","1","1","0","1","0","1","2","5","4","4","5","4","4","3","2","5","752227872634310658","刘","14","","true","{}","","","","","","","","","","","","","","","","","","","","","","","","","","","","","","","","","","","","",""
"49969.90000003576","","{""Q01"":""2"",""Q02"":""2"",""Q03"":""2"",""Q04"":""2"",""Q05"":""2"",""Q06"":""2"",""Q07"":""1"",""Q08"":""2"",""Q09"":""2"",""Q10"":""2""}","survey-template","4","124267","0.0-3.0","2","2","2","2","2","2","1","2","2","2","2","2","1","2","2","1","2","1","3","2","3","4","4","3","4","4","4","3","3","1","0","1","1","0","1","1","1","1","1","1","0","1","0","1","2","5","4","4","5","4","4","3","2","5","752227872634310658","刘","14","","","","{""Q01"":""2"",""Q02"":""2"",""Q03"":""2"",""Q04"":""2"",""Q05"":""2"",""Q06"":""2"",""Q07"":""1"",""Q08"":""2"",""Q09"":""2"",""Q10"":""2""}","[0,1,2,3,4,5,6,7,8,9]","[""Q01"",""Q02"",""Q03"",""Q03"",""Q04"",""Q05"",""Q06"",""Q07"",""Q07"",""Q08"",""Q09"",""Q10""]","[3018,5285.5,9562.400000035763,10929.200000047684,13376.100000023842,16359.800000011921,18004.400000035763,19445.5,21854,22765.900000035763,24461.700000047684,26537.5]","[]","[3018,4686.100000023842,5285.5,9162.800000011921,9562.400000035763,10241.700000047684,10517.700000047684,10929.200000047684,13376.100000023842,16359.800000011921,18004.400000035763,19445.5,20889.700000047684,21273.400000035763,21854,22765.900000035763,24461.700000047684,26537.5,49968.200000047684]","0.5","0.5555555555555556","0","","","","","","","","","","","","","","","","","","","","","","","","","","","",""
"40945.69999998808","","{""Q01"":""2"",""Q02"":""2"",""Q03"":""1"",""Q04"":""2"",""Q05"":""2"",""Q06"":""1"",""Q07"":""2"",""Q08"":""1"",""Q09"":""3"",""Q10"":""2""}","survey-template","5","165221","0.0-4.0","2","2","2","2","2","2","1","2","2","2","2","2","1","2","2","1","2","1","3","2","3","4","4","3","4","4","4","3","3","1","0","1","1","0","1","1","1","1","1","1","0","1","0","1","2","5","4","4","5","4","4","3","2","5","752227872634310658","刘","14","","","","{""Q01"":""2"",""Q02"":""2"",""Q03"":""1"",""Q04"":""2"",""Q05"":""2"",""Q06"":""1"",""Q07"":""2"",""Q08"":""1"",""Q09"":""3"",""Q10"":""2""}","[0,1,2,3,4,5,6,7,8,9]","[""Q01"",""Q02"",""Q03"",""Q04"",""Q05"",""Q06"",""Q07"",""Q08"",""Q09"",""Q09"",""Q10""]","[4475.400000035763,8358.699999988079,10253.5,13172.900000035763,14852.900000035763,16729,19209.19999998808,21139.100000023842,23027.100000023842,25003.100000023842,27248.900000035763]","[]","[4475.400000035763,8358.699999988079,10253.5,12305.300000011921,12793.100000023842,13172.900000035763,14852.900000035763,16729,19209.19999998808,20463.400000035763,20923.5,21139.100000023842,23027.100000023842,24463.100000023842,24758.5,25003.100000023842,26840.80000001192,27248.900000035763,40944.80000001192]","0.4","0.3333333333333333","0","","","","","","","","","","","","","","","","","","","","","","","","","","","",""
"","","","preload","6","165666","0.0-5.0","2","2","2","2","2","2","1","2","2","2","2","2","1","2","2","1","2","1","3","2","3","4","4","3","4","4","4","3","3","1","0","1","1","0","1","1","1","1","1","1","0","1","0","1","2","5","4","4","5","4","4","3","2","5","752227872634310658","刘","14","","true","","","","","","","","","","","false","[]","[]","[]","","","","","","","","","","","","","","","","","","","","","","","",""
"18806","","","instructions","7","184473","0.0-6.0","2","2","2","2","2","2","1","2","2","2","2","2","1","2","2","1","2","1","3","2","3","4","4","3","4","4","4","3","3","1","0","1","1","0","1","1","1","1","1","1","0","1","0","1","2","5","4","4","5","4","4","3","2","5","752227872634310658","刘","14","","","","","","","","","","","","","","","","","[{""page_index"":0,""viewing_time"":18806}]","","","","","","","","","","","","","","","","","","","","","","",""
"26355","","","instructions","8","210830","0.0-7.0-1.0-0.0","2","2","2","2","2","2","1","2","2","2","2","2","1","2","2","1","2","1","3","2","3","4","4","3","4","4","4","3","3","1","0","1","1","0","1","1","1","1","1","1","0","1","0","1","2","5","4","4","5","4","4","3","2","5","752227872634310658","刘","14","","","","","","","","","","","","","","","","","[{""page_index"":0,""viewing_time"":18294},{""page_index"":1,""viewing_time"":5531},{""page_index"":2,""viewing_time"":2530}]","","","","","","","","","","","","","","","","","","","","","","",""
"null","","null","psychophysics","9","213035","0.0-7.0-1.0-1.0-0.0-0.0","2","2","2","2","2","2","1","2","2","2","2","2","1","2","2","1","2","1","3","2","3","4","4","3","4","4","4","3","3","1","0","1","1","0","1","1","1","1","1","1","0","1","0","1","2","5","4","4","5","4","4","3","2","5","752227872634310658","刘","14","","","","null","","","","","","","","","","","","","","key","null","16.66480152671761","640","356","f","false","match","img/circle.png","圆形","圆形","ALT1_2","prac_ALT1_2","","","","","","","","","",""
"null","<span class='add_' style='color:yellow; font-size: 70px;'> 太慢! </span>","null","html-keyboard-response","10","213537","0.0-7.0-1.0-1.0-0.0-1.0","2","2","2","2","2","2","1","2","2","2","2","2","1","2","2","1","2","1","3","2","3","4","4","3","4","4","4","3","3","1","0","1","1","0","1","1","1","1","1","1","0","1","0","1","2","5","4","4","5","4","4","3","2","5","752227872634310658","刘","14","","","","","","","","","","","","","","","","","","","","","","","","","","","","","","feedback_test","","","","","","","","","",""
"540","","j","psychophysics","11","215080","0.0-7.0-1.0-1.0-0.0-0.1","2","2","2","2","2","2","1","2","2","2","2","2","1","2","2","1","2","1","3","2","3","4","4","3","4","4","4","3","3","1","0","1","1","0","1","1","1","1","1","1","0","1","0","1","2","5","4","4","5","4","4","3","2","5","752227872634310658","刘","14","","","","nonmatch","","","","","","","","","","","","","","key","j","16.66450549450551","640","356","j","true","nonmatch","img/hexagon.png","三角","六边","ALT1_2","prac_ALT1_2","","","","","","","","","",""
"null","<span style='color:GreenYellow; font-size: 70px;'>正确! </span>","null","html-keyboard-response","12","215582","0.0-7.0-1.0-1.0-0.0-1.1","2","2","2","2","2","2","1","2","2","2","2","2","1","2","2","1","2","1","3","2","3","4","4","3","4","4","4","3","3","1","0","1","1","0","1","1","1","1","1","1","0","1","0","1","2","5","4","4","5","4","4","3","2","5","752227872634310658","刘","14","","","","","","","","","","","","","","","","","","","","","","","","","","","","","","feedback_test","","","","","","","","","",""
"606","","j","psychophysics","13","217190","0.0-7.0-1.0-1.0-0.0-0.2","2","2","2","2","2","2","1","2","2","2","2","2","1","2","2","1","2","1","3","2","3","4","4","3","4","4","4","3","3","1","0","1","1","0","1","1","1","1","1","1","0","1","0","1","2","5","4","4","5","4","4","3","2","5","752227872634310658","刘","14","","","","nonmatch","","","","","","","","","","","","","","key","j","16.65778947368411","640","356","f","false","match","img/hexagon.png","六边","六边","ALT1_2","prac_ALT1_2","","","","","","","","","",""
"null","<span style='color:red; font-size: 70px;'>错误! </span>","null","html-keyboard-response","14","217692","0.0-7.0-1.0-1.0-0.0-1.2","2","2","2","2","2","2","1","2","2","2","2","2","1","2","2","1","2","1","3","2","3","4","4","3","4","4","4","3","3","1","0","1","1","0","1","1","1","1","1","1","0","1","0","1","2","5","4","4","5","4","4","3","2","5","752227872634310658","刘","14","","","","","","","","","","","","","","","","","","","","","","","","","","","","","","feedback_test","","","","","","","","","",""
"300","","f","psychophysics","15","218993","0.0-7.0-1.0-1.0-0.0-0.3","2","2","2","2","2","2","1","2","2","2","2","2","1","2","2","1","2","1","3","2","3","4","4","3","4","4","4","3","3","1","0","1","1","0","1","1","1","1","1","1","0","1","0","1","2","5","4","4","5","4","4","3","2","5","752227872634310658","刘","14","","","","match","","","","","","","","","","","","","","key","f","16.6664285714286","640","356","f","true","match","img/circle.png","圆形","圆形","ALT1_2","prac_ALT1_2","","","","","","","","","",""
"null","<span style='color:GreenYellow; font-size: 70px;'>正确! </span>","null","html-keyboard-response","16","219496","0.0-7.0-1.0-1.0-0.0-1.3","2","2","2","2","2","2","1","2","2","2","2","2","1","2","2","1","2","1","3","2","3","4","4","3","4","4","4","3","3","1","0","1","1","0","1","1","1","1","1","1","0","1","0","1","2","5","4","4","5","4","4","3","2","5","752227872634310658","刘","14","","","","","","","","","","","","","","","","","","","","","","","","","","","","","","feedback_test","","","","","","","","","",""
"883","","j","psychophysics","17","221380","0.0-7.0-1.0-1.0-0.0-0.4","2","2","2","2","2","2","1","2","2","2","2","2","1","2","2","1","2","1","3","2","3","4","4","3","4","4","4","3","3","1","0","1","1","0","1","1","1","1","1","1","0","1","0","1","2","5","4","4","5","4","4","3","2","5","752227872634310658","刘","14","","","","nonmatch","","","","","","","","","","","","","","key","j","16.66514285714298","640","356","j","true","nonmatch","img/square.png","圆形","方形","ALT1_2","prac_ALT1_2","","","","","","","","","",""
"null","<span style='color:GreenYellow; font-size: 70px;'>正确! </span>","null","html-keyboard-response","18","221880","0.0-7.0-1.0-1.0-0.0-1.4","2","2","2","2","2","2","1","2","2","2","2","2","1","2","2","1","2","1","3","2","3","4","4","3","4","4","4","3","3","1","0","1","1","0","1","1","1","1","1","1","0","1","0","1","2","5","4","4","5","4","4","3","2","5","752227872634310658","刘","14","","","","","","","","","","","","","","","","","","","","","","","","","","","","","","feedback_test","","","","","","","","","",""
"838","","f","psychophysics","19","223720","0.0-7.0-1.0-1.0-0.0-0.5","2","2","2","2","2","2","1","2","2","2","2","2","1","2","2","1","2","1","3","2","3","4","4","3","4","4","4","3","3","1","0","1","1","0","1","1","1","1","1","1","0","1","0","1","2","5","4","4","5","4","4","3","2","5","752227872634310658","刘","14","","","","match","","","","","","","","","","","","","","key","f","16.664300000000036","640","356","j","false","nonmatch","img/hexagon.png","方形","六边","ALT1_2","prac_ALT1_2","","","","","","","","","",""
"null","<span style='color:red; font-size: 70px;'>错误! </span>","null","html-keyboard-response","20","224221","0.0-7.0-1.0-1.0-0.0-1.5","2","2","2","2","2","2","1","2","2","2","2","2","1","2","2","1","2","1","3","2","3","4","4","3","4","4","4","3","3","1","0","1","1","0","1","1","1","1","1","1","0","1","0","1","2","5","4","4","5","4","4","3","2","5","752227872634310658","刘","14","","","","","","","","","","","","","","","","","","","","","","","","","","","","","","feedback_test","","","","","","","","","",""
"894","","j","psychophysics","21","226119","0.0-7.0-1.0-1.0-0.0-0.6","2","2","2","2","2","2","1","2","2","2","2","2","1","2","2","1","2","1","3","2","3","4","4","3","4","4","4","3","3","1","0","1","1","0","1","1","1","1","1","1","0","1","0","1","2","5","4","4","5","4","4","3","2","5","752227872634310658","刘","14","","","","nonmatch","","","","","","","","","","","","","","key","j","16.664008849557742","640","356","f","false","match","img/triangle.png","三角","三角","ALT1_2","prac_ALT1_2","","","","","","","","","",""
"null","<span style='color:red; font-size: 70px;'>错误! </span>","null","html-keyboard-response","22","226622","0.0-7.0-1.0-1.0-0.0-1.6","2","2","2","2","2","2","1","2","2","2","2","2","1","2","2","1","2","1","3","2","3","4","4","3","4","4","4","3","3","1","0","1","1","0","1","1","1","1","1","1","0","1","0","1","2","5","4","4","5","4","4","3","2","5","752227872634310658","刘","14","","","","","","","","","","","","","","","","","","","","","","","","","","","","","","feedback_test","","","","","","","","","",""
"858","","f","psychophysics","23","228481","0.0-7.0-1.0-1.0-0.0-0.7","2","2","2","2","2","2","1","2","2","2","2","2","1","2","2","1","2","1","3","2","3","4","4","3","4","4","4","3","3","1","0","1","1","0","1","1","1","1","1","1","0","1","0","1","2","5","4","4","5","4","4","3","2","5","752227872634310658","刘","14","","","","match","","","","","","","","","","","","","","key","f","16.667209090908926","640","356","f","true","match","img/square.png","方形","方形","ALT1_2","prac_ALT1_2","","","","","","","","","",""
"null","<span style='color:GreenYellow; font-size: 70px;'>正确! </span>","null","html-keyboard-response","24","228985","0.0-7.0-1.0-1.0-0.0-1.7","2","2","2","2","2","2","1","2","2","2","2","2","1","2","2","1","2","1","3","2","3","4","4","3","4","4","4","3","3","1","0","1","1","0","1","1","1","1","1","1","0","1","0","1","2","5","4","4","5","4","4","3","2","5","752227872634310658","刘","14","","","","","","","","","","","","","","","","","","","","","","","","","","","","","","feedback_test","","","","","","","","","",""
"898","","j","psychophysics","25","230885","0.0-7.0-1.0-1.0-0.0-0.8","2","2","2","2","2","2","1","2","2","2","2","2","1","2","2","1","2","1","3","2","3","4","4","3","4","4","4","3","3","1","0","1","1","0","1","1","1","1","1","1","0","1","0","1","2","5","4","4","5","4","4","3","2","5","752227872634310658","刘","14","","","","nonmatch","","","","","","","","","","","","","","key","j","16.66496460176994","640","356","f","false","match","img/triangle.png","三角","三角","ALT1_2","prac_ALT1_2","","","","","","","","","",""
"null","<span style='color:red; font-size: 70px;'>错误! </span>","null","html-keyboard-response","26","231386","0.0-7.0-1.0-1.0-0.0-1.8","2","2","2","2","2","2","1","2","2","2","2","2","1","2","2","1","2","1","3","2","3","4","4","3","4","4","4","3","3","1","0","1","1","0","1","1","1","1","1","1","0","1","0","1","2","5","4","4","5","4","4","3","2","5","752227872634310658","刘","14","","","","","","","","","","","","","","","","","","","","","","","","","","","","","","feedback_test","","","","","","","","","",""
"1032","","f","psychophysics","27","233420","0.0-7.0-1.0-1.0-0.0-0.9","2","2","2","2","2","2","1","2","2","2","2","2","1","2","2","1","2","1","3","2","3","4","4","3","4","4","4","3","3","1","0","1","1","0","1","1","1","1","1","1","0","1","0","1","2","5","4","4","5","4","4","3","2","5","752227872634310658","刘","14","","","","match","","","","","","","","","","","","","","key","f","16.663413223140626","640","356","f","true","match","img/square.png","方形","方形","ALT1_2","prac_ALT1_2","","","","","","","","","",""
"null","<span style='color:GreenYellow; font-size: 70px;'>正确! </span>","null","html-keyboard-response","28","233920","0.0-7.0-1.0-1.0-0.0-1.9","2","2","2","2","2","2","1","2","2","2","2","2","1","2","2","1","2","1","3","2","3","4","4","3","4","4","4","3","3","1","0","1","1","0","1","1","1","1","1","1","0","1","0","1","2","5","4","4","5","4","4","3","2","5","752227872634310658","刘","14","","","","","","","","","","","","","","","","","","","","","","","","","","","","","","feedback_test","","","","","","","","","",""
"870","","f","psychophysics","29","235792","0.0-7.0-1.0-1.0-0.0-0.10","2","2","2","2","2","2","1","2","2","2","2","2","1","2","2","1","2","1","3","2","3","4","4","3","4","4","4","3","3","1","0","1","1","0","1","1","1","1","1","1","0","1","0","1","2","5","4","4","5","4","4","3","2","5","752227872634310658","刘","14","","","","match","","","","","","","","","","","","","","key","f","16.665198198198194","640","356","f","true","match","img/square.png","方形","方形","ALT1_2","prac_ALT1_2","","","","","","","","","",""
"null","<span style='color:GreenYellow; font-size: 70px;'>正确! </span>","null","html-keyboard-response","30","236294","0.0-7.0-1.0-1.0-0.0-1.10","2","2","2","2","2","2","1","2","2","2","2","2","1","2","2","1","2","1","3","2","3","4","4","3","4","4","4","3","3","1","0","1","1","0","1","1","1","1","1","1","0","1","0","1","2","5","4","4","5","4","4","3","2","5","752227872634310658","刘","14","","","","","","","","","","","","","","","","","","","","","","","","","","","","","","feedback_test","","","","","","","","","",""
"987","","j","psychophysics","31","238285","0.0-7.0-1.0-1.0-0.0-0.11","2","2","2","2","2","2","1","2","2","2","2","2","1","2","2","1","2","1","3","2","3","4","4","3","4","4","4","3","3","1","0","1","1","0","1","1","1","1","1","1","0","1","0","1","2","5","4","4","5","4","4","3","2","5","752227872634310658","刘","14","","","","nonmatch","","","","","","","","","","","","","","key","j","16.664226890756346","640","356","j","true","nonmatch","img/triangle.png","方形","三角","ALT1_2","prac_ALT1_2","","","","","","","","","",""
"null","<span style='color:GreenYellow; font-size: 70px;'>正确! </span>","null","html-keyboard-response","32","238785","0.0-7.0-1.0-1.0-0.0-1.11","2","2","2","2","2","2","1","2","2","2","2","2","1","2","2","1","2","1","3","2","3","4","4","3","4","4","4","3","3","1","0","1","1","0","1","1","1","1","1","1","0","1","0","1","2","5","4","4","5","4","4","3","2","5","752227872634310658","刘","14","","","","","","","","","","","","","","","","","","","","","","","","","","","","","","feedback_test","","","","","","","","","",""
"1140","","j","psychophysics","33","240928","0.0-7.0-1.0-1.0-0.0-0.12","2","2","2","2","2","2","1","2","2","2","2","2","1","2","2","1","2","1","3","2","3","4","4","3","4","4","4","3","3","1","0","1","1","0","1","1","1","1","1","1","0","1","0","1","2","5","4","4","5","4","4","3","2","5","752227872634310658","刘","14","","","","nonmatch","","","","","","","","","","","","","","key","j","16.66365354330697","640","356","f","false","match","img/hexagon.png","六边","六边","ALT1_2","prac_ALT1_2","","","","","","","","","",""
"null","<span style='color:red; font-size: 70px;'>错误! </span>","null","html-keyboard-response","34","241430","0.0-7.0-1.0-1.0-0.0-1.12","2","2","2","2","2","2","1","2","2","2","2","2","1","2","2","1","2","1","3","2","3","4","4","3","4","4","4","3","3","1","0","1","1","0","1","1","1","1","1","1","0","1","0","1","2","5","4","4","5","4","4","3","2","5","752227872634310658","刘","14","","","","","","","","","","","","","","","","","","","","","","","","","","","","","","feedback_test","","","","","","","","","",""
"1193","","f","psychophysics","35","243625","0.0-7.0-1.0-1.0-0.0-0.13","2","2","2","2","2","2","1","2","2","2","2","2","1","2","2","1","2","1","3","2","3","4","4","3","4","4","4","3","3","1","0","1","1","0","1","1","1","1","1","1","0","1","0","1","2","5","4","4","5","4","4","3","2","5","752227872634310658","刘","14","","","","match","","","","","","","","","","","","","","key","f","16.664692307692334","640","356","j","false","nonmatch","img/circle.png","方形","圆形","ALT1_2","prac_ALT1_2","","","","","","","","","",""
"null","<span style='color:red; font-size: 70px;'>错误! </span>","null","html-keyboard-response","36","244126","0.0-7.0-1.0-1.0-0.0-1.13","2","2","2","2","2","2","1","2","2","2","2","2","1","2","2","1","2","1","3","2","3","4","4","3","4","4","4","3","3","1","0","1","1","0","1","1","1","1","1","1","0","1","0","1","2","5","4","4","5","4","4","3","2","5","752227872634310658","刘","14","","","","","","","","","","","","","","","","","","","","","","","","","","","","","","feedback_test","","","","","","","","","",""
"952","","j","psychophysics","37","246080","0.0-7.0-1.0-1.0-0.0-0.14","2","2","2","2","2","2","1","2","2","2","2","2","1","2","2","1","2","1","3","2","3","4","4","3","4","4","4","3","3","1","0","1","1","0","1","1","1","1","1","1","0","1","0","1","2","5","4","4","5","4","4","3","2","5","752227872634310658","刘","14","","","","nonmatch","","","","","","","","","","","","","","key","j","16.664649572649783","640","356","j","true","nonmatch","img/square.png","六边","方形","ALT1_2","prac_ALT1_2","","","","","","","","","",""
"null","<span style='color:GreenYellow; font-size: 70px;'>正确! </span>","null","html-keyboard-response","38","246581","0.0-7.0-1.0-1.0-0.0-1.14","2","2","2","2","2","2","1","2","2","2","2","2","1","2","2","1","2","1","3","2","3","4","4","3","4","4","4","3","3","1","0","1","1","0","1","1","1","1","1","1","0","1","0","1","2","5","4","4","5","4","4","3","2","5","752227872634310658","刘","14","","","","","","","","","","","","","","","","","","","","","","","","","","","","","","feedback_test","","","","","","","","","",""
"null","","null","psychophysics","39","248787","0.0-7.0-1.0-1.0-0.0-0.15","2","2","2","2","2","2","1","2","2","2","2","2","1","2","2","1","2","1","3","2","3","4","4","3","4","4","4","3","3","1","0","1","1","0","1","1","1","1","1","1","0","1","0","1","2","5","4","4","5","4","4","3","2","5","752227872634310658","刘","14","","","","null","","","","","","","","","","","","","","key","null","16.66470229007634","640","356","j","false","nonmatch","img/square.png","三角","方形","ALT1_2","prac_ALT1_2","","","","","","","","","",""
"null","<span class='add_' style='color:yellow; font-size: 70px;'> 太慢! </span>","null","html-keyboard-response","40","249288","0.0-7.0-1.0-1.0-0.0-1.15","2","2","2","2","2","2","1","2","2","2","2","2","1","2","2","1","2","1","3","2","3","4","4","3","4","4","4","3","3","1","0","1","1","0","1","1","1","1","1","1","0","1","0","1","2","5","4","4","5","4","4","3","2","5","752227872634310658","刘","14","","","","","","","","","","","","","","","","","","","","","","","","","","","","","","feedback_test","","","","","","","","","",""
"1154","","f","psychophysics","41","251444","0.0-7.0-1.0-1.0-0.0-0.16","2","2","2","2","2","2","1","2","2","2","2","2","1","2","2","1","2","1","3","2","3","4","4","3","4","4","4","3","3","1","0","1","1","0","1","1","1","1","1","1","0","1","0","1","2","5","4","4","5","4","4","3","2","5","752227872634310658","刘","14","","","","match","","","","","","","","","","","","","","key","f","16.66547656250009","640","356","f","true","match","img/hexagon.png","六边","六边","ALT1_2","prac_ALT1_2","","","","","","","","","",""
"null","<span style='color:GreenYellow; font-size: 70px;'>正确! </span>","null","html-keyboard-response","42","251946","0.0-7.0-1.0-1.0-0.0-1.16","2","2","2","2","2","2","1","2","2","2","2","2","1","2","2","1","2","1","3","2","3","4","4","3","4","4","4","3","3","1","0","1","1","0","1","1","1","1","1","1","0","1","0","1","2","5","4","4","5","4","4","3","2","5","752227872634310658","刘","14","","","","","","","","","","","","","","","","","","","","","","","","","","","","","","feedback_test","","","","","","","","","",""
"996","","j","psychophysics","43","253943","0.0-7.0-1.0-1.0-0.0-0.17","2","2","2","2","2","2","1","2","2","2","2","2","1","2","2","1","2","1","3","2","3","4","4","3","4","4","4","3","3","1","0","1","1","0","1","1","1","1","1","1","0","1","0","1","2","5","4","4","5","4","4","3","2","5","752227872634310658","刘","14","","","","nonmatch","","","","","","","","","","","","","","key","j","16.663279661016887","640","356","j","true","nonmatch","img/triangle.png","六边","三角","ALT1_2","prac_ALT1_2","","","","","","","","","",""
"null","<span style='color:GreenYellow; font-size: 70px;'>正确! </span>","null","html-keyboard-response","44","254444","0.0-7.0-1.0-1.0-0.0-1.17","2","2","2","2","2","2","1","2","2","2","2","2","1","2","2","1","2","1","3","2","3","4","4","3","4","4","4","3","3","1","0","1","1","0","1","1","1","1","1","1","0","1","0","1","2","5","4","4","5","4","4","3","2","5","752227872634310658","刘","14","","","","","","","","","","","","","","","","","","","","","","","","","","","","","","feedback_test","","","","","","","","","",""
"1002","","f","psychophysics","45","256449","0.0-7.0-1.0-1.0-0.0-0.18","2","2","2","2","2","2","1","2","2","2","2","2","1","2","2","1","2","1","3","2","3","4","4","3","4","4","4","3","3","1","0","1","1","0","1","1","1","1","1","1","0","1","0","1","2","5","4","4","5","4","4","3","2","5","752227872634310658","刘","14","","","","match","","","","","","","","","","","","","","key","f","16.6642352941176","640","356","f","true","match","img/circle.png","圆形","圆形","ALT1_2","prac_ALT1_2","","","","","","","","","",""
"null","<span style='color:GreenYellow; font-size: 70px;'>正确! </span>","null","html-keyboard-response","46","256953","0.0-7.0-1.0-1.0-0.0-1.18","2","2","2","2","2","2","1","2","2","2","2","2","1","2","2","1","2","1","3","2","3","4","4","3","4","4","4","3","3","1","0","1","1","0","1","1","1","1","1","1","0","1","0","1","2","5","4","4","5","4","4","3","2","5","752227872634310658","刘","14","","","","","","","","","","","","","","","","","","","","","","","","","","","","","","feedback_test","","","","","","","","","",""
"1010","","j","psychophysics","47","258964","0.0-7.0-1.0-1.0-0.0-0.19","2","2","2","2","2","2","1","2","2","2","2","2","1","2","2","1","2","1","3","2","3","4","4","3","4","4","4","3","3","1","0","1","1","0","1","1","1","1","1","1","0","1","0","1","2","5","4","4","5","4","4","3","2","5","752227872634310658","刘","14","","","","nonmatch","","","","","","","","","","","","","","key","j","16.66414999999979","640","356","j","true","nonmatch","img/circle.png","六边","圆形","ALT1_2","prac_ALT1_2","","","","","","","","","",""
"null","<span style='color:GreenYellow; font-size: 70px;'>正确! </span>","null","html-keyboard-response","48","259466","0.0-7.0-1.0-1.0-0.0-1.19","2","2","2","2","2","2","1","2","2","2","2","2","1","2","2","1","2","1","3","2","3","4","4","3","4","4","4","3","3","1","0","1","1","0","1","1","1","1","1","1","0","1","0","1","2","5","4","4","5","4","4","3","2","5","752227872634310658","刘","14","","","","","","","","","","","","","","","","","","","","","","","","","","","","","","feedback_test","","","","","","","","","",""
"1000","","j","psychophysics","49","261468","0.0-7.0-1.0-1.0-0.0-0.20","2","2","2","2","2","2","1","2","2","2","2","2","1","2","2","1","2","1","3","2","3","4","4","3","4","4","4","3","3","1","0","1","1","0","1","1","1","1","1","1","0","1","0","1","2","5","4","4","5","4","4","3","2","5","752227872634310658","刘","14","","","","nonmatch","","","","","","","","","","","","","","key","j","16.665193277310888","640","356","j","true","nonmatch","img/triangle.png","圆形","三角","ALT1_2","prac_ALT1_2","","","","","","","","","",""
"null","<span style='color:GreenYellow; font-size: 70px;'>正确! </span>","null","html-keyboard-response","50","261970","0.0-7.0-1.0-1.0-0.0-1.20","2","2","2","2","2","2","1","2","2","2","2","2","1","2","2","1","2","1","3","2","3","4","4","3","4","4","4","3","3","1","0","1","1","0","1","1","1","1","1","1","0","1","0","1","2","5","4","4","5","4","4","3","2","5","752227872634310658","刘","14","","","","","","","","","","","","","","","","","","","","","","","","","","","","","","feedback_test","","","","","","","","","",""
"787","","f","psychophysics","51","263759","0.0-7.0-1.0-1.0-0.0-0.21","2","2","2","2","2","2","1","2","2","2","2","2","1","2","2","1","2","1","3","2","3","4","4","3","4","4","4","3","3","1","0","1","1","0","1","1","1","1","1","1","0","1","0","1","2","5","4","4","5","4","4","3","2","5","752227872634310658","刘","14","","","","match","","","","","","","","","","","","","","key","f","16.664698113207397","640","356","f","true","match","img/triangle.png","三角","三角","ALT1_2","prac_ALT1_2","","","","","","","","","",""
"null","<span style='color:GreenYellow; font-size: 70px;'>正确! </span>","null","html-keyboard-response","52","264259","0.0-7.0-1.0-1.0-0.0-1.21","2","2","2","2","2","2","1","2","2","2","2","2","1","2","2","1","2","1","3","2","3","4","4","3","4","4","4","3","3","1","0","1","1","0","1","1","1","1","1","1","0","1","0","1","2","5","4","4","5","4","4","3","2","5","752227872634310658","刘","14","","","","","","","","","","","","","","","","","","","","","","","","","","","","","","feedback_test","","","","","","","","","",""
"1000","","j","psychophysics","53","266262","0.0-7.0-1.0-1.0-0.0-0.22","2","2","2","2","2","2","1","2","2","2","2","2","1","2","2","1","2","1","3","2","3","4","4","3","4","4","4","3","3","1","0","1","1","0","1","1","1","1","1","1","0","1","0","1","2","5","4","4","5","4","4","3","2","5","752227872634310658","刘","14","","","","nonmatch","","","","","","","","","","","","","","key","j","16.663596638655406","640","356","j","true","nonmatch","img/hexagon.png","圆形","六边","ALT1_2","prac_ALT1_2","","","","","","","","","",""
"null","<span style='color:GreenYellow; font-size: 70px;'>正确! </span>","null","html-keyboard-response","54","266762","0.0-7.0-1.0-1.0-0.0-1.22","2","2","2","2","2","2","1","2","2","2","2","2","1","2","2","1","2","1","3","2","3","4","4","3","4","4","4","3","3","1","0","1","1","0","1","1","1","1","1","1","0","1","0","1","2","5","4","4","5","4","4","3","2","5","752227872634310658","刘","14","","","","","","","","","","","","","","","","","","","","","","","","","","","","","","feedback_test","","","","","","","","","",""
"854","","j","psychophysics","55","268618","0.0-7.0-1.0-1.0-0.0-0.23","2","2","2","2","2","2","1","2","2","2","2","2","1","2","2","1","2","1","3","2","3","4","4","3","4","4","4","3","3","1","0","1","1","0","1","1","1","1","1","1","0","1","0","1","2","5","4","4","5","4","4","3","2","5","752227872634310658","刘","14","","","","nonmatch","","","","","","","","","","","","","","key","j","16.665481818181632","640","356","j","true","nonmatch","img/circle.png","三角","圆形","ALT1_2","prac_ALT1_2","","","","","","","","","",""
"null","<span style='color:GreenYellow; font-size: 70px;'>正确! </span>","null","html-keyboard-response","56","269119","0.0-7.0-1.0-1.0-0.0-1.23","2","2","2","2","2","2","1","2","2","2","2","2","1","2","2","1","2","1","3","2","3","4","4","3","4","4","4","3","3","1","0","1","1","0","1","1","1","1","1","1","0","1","0","1","2","5","4","4","5","4","4","3","2","5","752227872634310658","刘","14","","","","","","","","","","","","","","","","","","","","","","","","","","","","","","feedback_test","","","","","","","","","",""
"885","","f","psychophysics","57","271006","0.0-7.0-1.0-1.0-0.0-0.24","2","2","2","2","2","2","1","2","2","2","2","2","1","2","2","1","2","1","3","2","3","4","4","3","4","4","4","3","3","1","0","1","1","0","1","1","1","1","1","1","0","1","0","1","2","5","4","4","5","4","4","3","2","5","752227872634310658","刘","14","","","","match","","","","","","","","","","","","","","key","f","16.665062500000204","640","356","f","true","match","img/triangle.png","三角","三角","ALT1_2","prac_ALT1_2","","","","","","","","","",""
"null","<span style='color:GreenYellow; font-size: 70px;'>正确! </span>","null","html-keyboard-response","58","271507","0.0-7.0-1.0-1.0-0.0-1.24","2","2","2","2","2","2","1","2","2","2","2","2","1","2","2","1","2","1","3","2","3","4","4","3","4","4","4","3","3","1","0","1","1","0","1","1","1","1","1","1","0","1","0","1","2","5","4","4","5","4","4","3","2","5","752227872634310658","刘","14","","","","","","","","","","","","","","","","","","","","","","","","","","","","","","feedback_test","","","","","","","","","",""
"788","","f","psychophysics","59","273297","0.0-7.0-1.0-1.0-0.0-0.25","2","2","2","2","2","2","1","2","2","2","2","2","1","2","2","1","2","1","3","2","3","4","4","3","4","4","4","3","3","1","0","1","1","0","1","1","1","1","1","1","0","1","0","1","2","5","4","4","5","4","4","3","2","5","752227872634310658","刘","14","","","","match","","","","","","","","","","","","","","key","f","16.665757009345565","640","356","f","true","match","img/circle.png","圆形","圆形","ALT1_2","prac_ALT1_2","","","","","","","","","",""
"null","<span style='color:GreenYellow; font-size: 70px;'>正确! </span>","null","html-keyboard-response","60","273798","0.0-7.0-1.0-1.0-0.0-1.25","2","2","2","2","2","2","1","2","2","2","2","2","1","2","2","1","2","1","3","2","3","4","4","3","4","4","4","3","3","1","0","1","1","0","1","1","1","1","1","1","0","1","0","1","2","5","4","4","5","4","4","3","2","5","752227872634310658","刘","14","","","","","","","","","","","","","","","","","","","","","","","","","","","","","","feedback_test","","","","","","","","","",""
"888","","f","psychophysics","61","275687","0.0-7.0-1.0-1.0-0.0-0.26","2","2","2","2","2","2","1","2","2","2","2","2","1","2","2","1","2","1","3","2","3","4","4","3","4","4","4","3","3","1","0","1","1","0","1","1","1","1","1","1","0","1","0","1","2","5","4","4","5","4","4","3","2","5","752227872634310658","刘","14","","","","match","","","","","","","","","","","","","","key","f","16.664535714285844","640","356","f","true","match","img/triangle.png","三角","三角","ALT1_2","prac_ALT1_2","","","","","","","","","",""
"null","<span style='color:GreenYellow; font-size: 70px;'>正确! </span>","null","html-keyboard-response","62","276188","0.0-7.0-1.0-1.0-0.0-1.26","2","2","2","2","2","2","1","2","2","2","2","2","1","2","2","1","2","1","3","2","3","4","4","3","4","4","4","3","3","1","0","1","1","0","1","1","1","1","1","1","0","1","0","1","2","5","4","4","5","4","4","3","2","5","752227872634310658","刘","14","","","","","","","","","","","","","","","","","","","","","","","","","","","","","","feedback_test","","","","","","","","","",""
"809","","j","psychophysics","63","277999","0.0-7.0-1.0-1.0-0.0-0.27","2","2","2","2","2","2","1","2","2","2","2","2","1","2","2","1","2","1","3","2","3","4","4","3","4","4","4","3","3","1","0","1","1","0","1","1","1","1","1","1","0","1","0","1","2","5","4","4","5","4","4","3","2","5","752227872634310658","刘","14","","","","nonmatch","","","","","","","","","","","","","","key","j","16.666444444444668","640","356","j","true","nonmatch","img/triangle.png","方形","三角","ALT1_2","prac_ALT1_2","","","","","","","","","",""
"null","<span style='color:GreenYellow; font-size: 70px;'>正确! </span>","null","html-keyboard-response","64","278502","0.0-7.0-1.0-1.0-0.0-1.27","2","2","2","2","2","2","1","2","2","2","2","2","1","2","2","1","2","1","3","2","3","4","4","3","4","4","4","3","3","1","0","1","1","0","1","1","1","1","1","1","0","1","0","1","2","5","4","4","5","4","4","3","2","5","752227872634310658","刘","14","","","","","","","","","","","","","","","","","","","","","","","","","","","","","","feedback_test","","","","","","","","","",""
"944","","j","psychophysics","65","280447","0.0-7.0-1.0-1.0-0.0-0.28","2","2","2","2","2","2","1","2","2","2","2","2","1","2","2","1","2","1","3","2","3","4","4","3","4","4","4","3","3","1","0","1","1","0","1","1","1","1","1","1","0","1","0","1","2","5","4","4","5","4","4","3","2","5","752227872634310658","刘","14","","","","nonmatch","","","","","","","","","","","","","","key","j","16.66474999999979","640","356","j","true","nonmatch","img/hexagon.png","三角","六边","ALT1_2","prac_ALT1_2","","","","","","","","","",""
"null","<span style='color:GreenYellow; font-size: 70px;'>正确! </span>","null","html-keyboard-response","66","280949","0.0-7.0-1.0-1.0-0.0-1.28","2","2","2","2","2","2","1","2","2","2","2","2","1","2","2","1","2","1","3","2","3","4","4","3","4","4","4","3","3","1","0","1","1","0","1","1","1","1","1","1","0","1","0","1","2","5","4","4","5","4","4","3","2","5","752227872634310658","刘","14","","","","","","","","","","","","","","","","","","","","","","","","","","","","","","feedback_test","","","","","","","","","",""
"1118","","j","psychophysics","67","283069","0.0-7.0-1.0-1.0-0.0-0.29","2","2","2","2","2","2","1","2","2","2","2","2","1","2","2","1","2","1","3","2","3","4","4","3","4","4","4","3","3","1","0","1","1","0","1","1","1","1","1","1","0","1","0","1","2","5","4","4","5","4","4","3","2","5","752227872634310658","刘","14","","","","nonmatch","","","","","","","","","","","","","","key","j","16.668499999999767","640","356","f","false","match","img/hexagon.png","六边","六边","ALT1_2","prac_ALT1_2","","","","","","","","","",""
"null","<span style='color:red; font-size: 70px;'>错误! </span>","null","html-keyboard-response","68","283571","0.0-7.0-1.0-1.0-0.0-1.29","2","2","2","2","2","2","1","2","2","2","2","2","1","2","2","1","2","1","3","2","3","4","4","3","4","4","4","3","3","1","0","1","1","0","1","1","1","1","1","1","0","1","0","1","2","5","4","4","5","4","4","3","2","5","752227872634310658","刘","14","","","","","","","","","","","","","","","","","","","","","","","","","","","","","","feedback_test","","","","","","","","","",""
"null","","null","psychophysics","69","285775","0.0-7.0-1.0-1.0-0.0-0.30","2","2","2","2","2","2","1","2","2","2","2","2","1","2","2","1","2","1","3","2","3","4","4","3","4","4","4","3","3","1","0","1","1","0","1","1","1","1","1","1","0","1","0","1","2","5","4","4","5","4","4","3","2","5","752227872634310658","刘","14","","","","null","","","","","","","","","","","","","","key","null","16.66599236641218","640","356","j","false","nonmatch","img/square.png","三角","方形","ALT1_2","prac_ALT1_2","","","","","","","","","",""
"null","<span class='add_' style='color:yellow; font-size: 70px;'> 太慢! </span>","null","html-keyboard-response","70","286276","0.0-7.0-1.0-1.0-0.0-1.30","2","2","2","2","2","2","1","2","2","2","2","2","1","2","2","1","2","1","3","2","3","4","4","3","4","4","4","3","3","1","0","1","1","0","1","1","1","1","1","1","0","1","0","1","2","5","4","4","5","4","4","3","2","5","752227872634310658","刘","14","","","","","","","","","","","","","","","","","","","","","","","","","","","","","","feedback_test","","","","","","","","","",""
"null","","null","psychophysics","71","288478","0.0-7.0-1.0-1.0-0.0-0.31","2","2","2","2","2","2","1","2","2","2","2","2","1","2","2","1","2","1","3","2","3","4","4","3","4","4","4","3","3","1","0","1","1","0","1","1","1","1","1","1","0","1","0","1","2","5","4","4","5","4","4","3","2","5","752227872634310658","刘","14","","","","null","","","","","","","","","","","","","","key","null","16.66696183206087","640","356","j","false","nonmatch","img/circle.png","方形","圆形","ALT1_2","prac_ALT1_2","","","","","","","","","",""
"null","<span class='add_' style='color:yellow; font-size: 70px;'> 太慢! </span>","null","html-keyboard-response","72","288982","0.0-7.0-1.0-1.0-0.0-1.31","2","2","2","2","2","2","1","2","2","2","2","2","1","2","2","1","2","1","3","2","3","4","4","3","4","4","4","3","3","1","0","1","1","0","1","1","1","1","1","1","0","1","0","1","2","5","4","4","5","4","4","3","2","5","752227872634310658","刘","14","","","","","","","","","","","","","","","","","","","","","","","","","","","","","","feedback_test","","","","","","","","","",""
"1129","","f","psychophysics","73","291113","0.0-7.0-1.0-1.0-0.0-0.32","2","2","2","2","2","2","1","2","2","2","2","2","1","2","2","1","2","1","3","2","3","4","4","3","4","4","4","3","3","1","0","1","1","0","1","1","1","1","1","1","0","1","0","1","2","5","4","4","5","4","4","3","2","5","752227872634310658","刘","14","","","","match","","","","","","","","","","","","","","key","f","16.665031496062785","640","356","f","true","match","img/square.png","方形","方形","ALT1_2","prac_ALT1_2","","","","","","","","","",""
"null","<span style='color:GreenYellow; font-size: 70px;'>正确! </span>","null","html-keyboard-response","74","291614","0.0-7.0-1.0-1.0-0.0-1.32","2","2","2","2","2","2","1","2","2","2","2","2","1","2","2","1","2","1","3","2","3","4","4","3","4","4","4","3","3","1","0","1","1","0","1","1","1","1","1","1","0","1","0","1","2","5","4","4","5","4","4","3","2","5","752227872634310658","刘","14","","","","","","","","","","","","","","","","","","","","","","","","","","","","","","feedback_test","","","","","","","","","",""
"1013","","j","psychophysics","75","293628","0.0-7.0-1.0-1.0-0.0-0.33","2","2","2","2","2","2","1","2","2","2","2","2","1","2","2","1","2","1","3","2","3","4","4","3","4","4","4","3","3","1","0","1","1","0","1","1","1","1","1","1","0","1","0","1","2","5","4","4","5","4","4","3","2","5","752227872634310658","刘","14","","","","nonmatch","","","","","","","","","","","","","","key","j","16.66401666666643","640","356","j","true","nonmatch","img/square.png","六边","方形","ALT1_2","prac_ALT1_2","","","","","","","","","",""
"null","<span style='color:GreenYellow; font-size: 70px;'>正确! </span>","null","html-keyboard-response","76","294130","0.0-7.0-1.0-1.0-0.0-1.33","2","2","2","2","2","2","1","2","2","2","2","2","1","2","2","1","2","1","3","2","3","4","4","3","4","4","4","3","3","1","0","1","1","0","1","1","1","1","1","1","0","1","0","1","2","5","4","4","5","4","4","3","2","5","752227872634310658","刘","14","","","","","","","","","","","","","","","","","","","","","","","","","","","","","","feedback_test","","","","","","","","","",""
"1097","","f","psychophysics","77","296229","0.0-7.0-1.0-1.0-0.0-0.34","2","2","2","2","2","2","1","2","2","2","2","2","1","2","2","1","2","1","3","2","3","4","4","3","4","4","4","3","3","1","0","1","1","0","1","1","1","1","1","1","0","1","0","1","2","5","4","4","5","4","4","3","2","5","752227872634310658","刘","14","","","","match","","","","","","","","","","","","","","key","f","16.666200000000185","640","356","f","true","match","img/hexagon.png","六边","六边","ALT1_2","prac_ALT1_2","","","","","","","","","",""
"null","<span style='color:GreenYellow; font-size: 70px;'>正确! </span>","null","html-keyboard-response","78","296733","0.0-7.0-1.0-1.0-0.0-1.34","2","2","2","2","2","2","1","2","2","2","2","2","1","2","2","1","2","1","3","2","3","4","4","3","4","4","4","3","3","1","0","1","1","0","1","1","1","1","1","1","0","1","0","1","2","5","4","4","5","4","4","3","2","5","752227872634310658","刘","14","","","","","","","","","","","","","","","","","","","","","","","","","","","","","","feedback_test","","","","","","","","","",""
"916","","j","psychophysics","79","298650","0.0-7.0-1.0-1.0-0.0-0.35","2","2","2","2","2","2","1","2","2","2","2","2","1","2","2","1","2","1","3","2","3","4","4","3","4","4","4","3","3","1","0","1","1","0","1","1","1","1","1","1","0","1","0","1","2","5","4","4","5","4","4","3","2","5","752227872634310658","刘","14","","","","nonmatch","","","","","","","","","","","","","","key","j","16.663719298245525","640","356","j","true","nonmatch","img/circle.png","三角","圆形","ALT1_2","prac_ALT1_2","","","","","","","","","",""
"null","<span style='color:GreenYellow; font-size: 70px;'>正确! </span>","null","html-keyboard-response","80","299150","0.0-7.0-1.0-1.0-0.0-1.35","2","2","2","2","2","2","1","2","2","2","2","2","1","2","2","1","2","1","3","2","3","4","4","3","4","4","4","3","3","1","0","1","1","0","1","1","1","1","1","1","0","1","0","1","2","5","4","4","5","4","4","3","2","5","752227872634310658","刘","14","","","","","","","","","","","","","","","","","","","","","","","","","","","","","","feedback_test","","","","","","","","","",""
"1030","","j","psychophysics","81","301183","0.0-7.0-1.0-1.0-0.0-0.36","2","2","2","2","2","2","1","2","2","2","2","2","1","2","2","1","2","1","3","2","3","4","4","3","4","4","4","3","3","1","0","1","1","0","1","1","1","1","1","1","0","1","0","1","2","5","4","4","5","4","4","3","2","5","752227872634310658","刘","14","","","","nonmatch","","","","","","","","","","","","","","key","j","16.666074380165057","640","356","j","true","nonmatch","img/circle.png","六边","圆形","ALT1_2","prac_ALT1_2","","","","","","","","","",""
"null","<span style='color:GreenYellow; font-size: 70px;'>正确! </span>","null","html-keyboard-response","82","301684","0.0-7.0-1.0-1.0-0.0-1.36","2","2","2","2","2","2","1","2","2","2","2","2","1","2","2","1","2","1","3","2","3","4","4","3","4","4","4","3","3","1","0","1","1","0","1","1","1","1","1","1","0","1","0","1","2","5","4","4","5","4","4","3","2","5","752227872634310658","刘","14","","","","","","","","","","","","","","","","","","","","","","","","","","","","","","feedback_test","","","","","","","","","",""
"1015","","f","psychophysics","83","303702","0.0-7.0-1.0-1.0-0.0-0.37","2","2","2","2","2","2","1","2","2","2","2","2","1","2","2","1","2","1","3","2","3","4","4","3","4","4","4","3","3","1","0","1","1","0","1","1","1","1","1","1","0","1","0","1","2","5","4","4","5","4","4","3","2","5","752227872634310658","刘","14","","","","match","","","","","","","","","","","","","","key","f","16.664616666666795","640","356","f","true","match","img/circle.png","圆形","圆形","ALT1_2","prac_ALT1_2","","","","","","","","","",""
"null","<span style='color:GreenYellow; font-size: 70px;'>正确! </span>","null","html-keyboard-response","84","304203","0.0-7.0-1.0-1.0-0.0-1.37","2","2","2","2","2","2","1","2","2","2","2","2","1","2","2","1","2","1","3","2","3","4","4","3","4","4","4","3","3","1","0","1","1","0","1","1","1","1","1","1","0","1","0","1","2","5","4","4","5","4","4","3","2","5","752227872634310658","刘","14","","","","","","","","","","","","","","","","","","","","","","","","","","","","","","feedback_test","","","","","","","","","",""
"856","","f","psychophysics","85","306062","0.0-7.0-1.0-1.0-0.0-0.38","2","2","2","2","2","2","1","2","2","2","2","2","1","2","2","1","2","1","3","2","3","4","4","3","4","4","4","3","3","1","0","1","1","0","1","1","1","1","1","1","0","1","0","1","2","5","4","4","5","4","4","3","2","5","752227872634310658","刘","14","","","","match","","","","","","","","","","","","","","key","f","16.665810810810537","640","356","f","true","match","img/square.png","方形","方形","ALT1_2","prac_ALT1_2","","","","","","","","","",""
"null","<span style='color:GreenYellow; font-size: 70px;'>正确! </span>","null","html-keyboard-response","86","306564","0.0-7.0-1.0-1.0-0.0-1.38","2","2","2","2","2","2","1","2","2","2","2","2","1","2","2","1","2","1","3","2","3","4","4","3","4","4","4","3","3","1","0","1","1","0","1","1","1","1","1","1","0","1","0","1","2","5","4","4","5","4","4","3","2","5","752227872634310658","刘","14","","","","","","","","","","","","","","","","","","","","","","","","","","","","","","feedback_test","","","","","","","","","",""
"864","","f","psychophysics","87","308431","0.0-7.0-1.0-1.0-0.0-0.39","2","2","2","2","2","2","1","2","2","2","2","2","1","2","2","1","2","1","3","2","3","4","4","3","4","4","4","3","3","1","0","1","1","0","1","1","1","1","1","1","0","1","0","1","2","5","4","4","5","4","4","3","2","5","752227872634310658","刘","14","","","","match","","","","","","","","","","","","","","key","f","16.663648648648984","640","356","f","true","match","img/triangle.png","三角","三角","ALT1_2","prac_ALT1_2","","","","","","","","","",""
"null","<span style='color:GreenYellow; font-size: 70px;'>正确! </span>","null","html-keyboard-response","88","308932","0.0-7.0-1.0-1.0-0.0-1.39","2","2","2","2","2","2","1","2","2","2","2","2","1","2","2","1","2","1","3","2","3","4","4","3","4","4","4","3","3","1","0","1","1","0","1","1","1","1","1","1","0","1","0","1","2","5","4","4","5","4","4","3","2","5","752227872634310658","刘","14","","","","","","","","","","","","","","","","","","","","","","","","","","","","","","feedback_test","","","","","","","","","",""
"757","","f","psychophysics","89","310690","0.0-7.0-1.0-1.0-0.0-0.40","2","2","2","2","2","2","1","2","2","2","2","2","1","2","2","1","2","1","3","2","3","4","4","3","4","4","4","3","3","1","0","1","1","0","1","1","1","1","1","1","0","1","0","1","2","5","4","4","5","4","4","3","2","5","752227872634310658","刘","14","","","","match","","","","","","","","","","","","","","key","f","16.66493333333305","640","356","f","true","match","img/circle.png","圆形","圆形","ALT1_2","prac_ALT1_2","","","","","","","","","",""
"null","<span style='color:GreenYellow; font-size: 70px;'>正确! </span>","null","html-keyboard-response","90","311191","0.0-7.0-1.0-1.0-0.0-1.40","2","2","2","2","2","2","1","2","2","2","2","2","1","2","2","1","2","1","3","2","3","4","4","3","4","4","4","3","3","1","0","1","1","0","1","1","1","1","1","1","0","1","0","1","2","5","4","4","5","4","4","3","2","5","752227872634310658","刘","14","","","","","","","","","","","","","","","","","","","","","","","","","","","","","","feedback_test","","","","","","","","","",""
"889","","j","psychophysics","91","313083","0.0-7.0-1.0-1.0-0.0-0.41","2","2","2","2","2","2","1","2","2","2","2","2","1","2","2","1","2","1","3","2","3","4","4","3","4","4","4","3","3","1","0","1","1","0","1","1","1","1","1","1","0","1","0","1","2","5","4","4","5","4","4","3","2","5","752227872634310658","刘","14","","","","nonmatch","","","","","","","","","","","","","","key","j","16.665696428571078","640","356","j","true","nonmatch","img/triangle.png","六边","三角","ALT1_2","prac_ALT1_2","","","","","","","","","",""
"null","<span style='color:GreenYellow; font-size: 70px;'>正确! </span>","null","html-keyboard-response","92","313586","0.0-7.0-1.0-1.0-0.0-1.41","2","2","2","2","2","2","1","2","2","2","2","2","1","2","2","1","2","1","3","2","3","4","4","3","4","4","4","3","3","1","0","1","1","0","1","1","1","1","1","1","0","1","0","1","2","5","4","4","5","4","4","3","2","5","752227872634310658","刘","14","","","","","","","","","","","","","","","","","","","","","","","","","","","","","","feedback_test","","","","","","","","","",""
"1023","","f","psychophysics","93","315613","0.0-7.0-1.0-1.0-0.0-0.42","2","2","2","2","2","2","1","2","2","2","2","2","1","2","2","1","2","1","3","2","3","4","4","3","4","4","4","3","3","1","0","1","1","0","1","1","1","1","1","1","0","1","0","1","2","5","4","4","5","4","4","3","2","5","752227872634310658","刘","14","","","","match","","","","","","","","","","","","","","key","f","16.657833333333354","640","356","j","false","nonmatch","img/triangle.png","圆形","三角","ALT1_2","prac_ALT1_2","","","","","","","","","",""
"null","<span style='color:red; font-size: 70px;'>错误! </span>","null","html-keyboard-response","94","316114","0.0-7.0-1.0-1.0-0.0-1.42","2","2","2","2","2","2","1","2","2","2","2","2","1","2","2","1","2","1","3","2","3","4","4","3","4","4","4","3","3","1","0","1","1","0","1","1","1","1","1","1","0","1","0","1","2","5","4","4","5","4","4","3","2","5","752227872634310658","刘","14","","","","","","","","","","","","","","","","","","","","","","","","","","","","","","feedback_test","","","","","","","","","",""
"826","","f","psychophysics","95","317941","0.0-7.0-1.0-1.0-0.0-0.43","2","2","2","2","2","2","1","2","2","2","2","2","1","2","2","1","2","1","3","2","3","4","4","3","4","4","4","3","3","1","0","1","1","0","1","1","1","1","1","1","0","1","0","1","2","5","4","4","5","4","4","3","2","5","752227872634310658","刘","14","","","","match","","","","","","","","","","","","","","key","f","16.66383486238539","640","356","f","true","match","img/square.png","方形","方形","ALT1_2","prac_ALT1_2","","","","","","","","","",""
"null","<span style='color:GreenYellow; font-size: 70px;'>正确! </span>","null","html-keyboard-response","96","318443","0.0-7.0-1.0-1.0-0.0-1.43","2","2","2","2","2","2","1","2","2","2","2","2","1","2","2","1","2","1","3","2","3","4","4","3","4","4","4","3","3","1","0","1","1","0","1","1","1","1","1","1","0","1","0","1","2","5","4","4","5","4","4","3","2","5","752227872634310658","刘","14","","","","","","","","","","","","","","","","","","","","","","","","","","","","","","feedback_test","","","","","","","","","",""
"997","","j","psychophysics","97","320442","0.0-7.0-1.0-1.0-0.0-0.44","2","2","2","2","2","2","1","2","2","2","2","2","1","2","2","1","2","1","3","2","3","4","4","3","4","4","4","3","3","1","0","1","1","0","1","1","1","1","1","1","0","1","0","1","2","5","4","4","5","4","4","3","2","5","752227872634310658","刘","14","","","","nonmatch","","","","","","","","","","","","","","key","j","16.664991596638824","640","356","j","true","nonmatch","img/hexagon.png","圆形","六边","ALT1_2","prac_ALT1_2","","","","","","","","","",""
"null","<span style='color:GreenYellow; font-size: 70px;'>正确! </span>","null","html-keyboard-response","98","320942","0.0-7.0-1.0-1.0-0.0-1.44","2","2","2","2","2","2","1","2","2","2","2","2","1","2","2","1","2","1","3","2","3","4","4","3","4","4","4","3","3","1","0","1","1","0","1","1","1","1","1","1","0","1","0","1","2","5","4","4","5","4","4","3","2","5","752227872634310658","刘","14","","","","","","","","","","","","","","","","","","","","","","","","","","","","","","feedback_test","","","","","","","","","",""
"1024","","j","psychophysics","99","322967","0.0-7.0-1.0-1.0-0.0-0.45","2","2","2","2","2","2","1","2","2","2","2","2","1","2","2","1","2","1","3","2","3","4","4","3","4","4","4","3","3","1","0","1","1","0","1","1","1","1","1","1","0","1","0","1","2","5","4","4","5","4","4","3","2","5","752227872634310658","刘","14","","","","nonmatch","","","","","","","","","","","","","","key","j","16.666908333333172","640","356","j","true","nonmatch","img/square.png","圆形","方形","ALT1_2","prac_ALT1_2","","","","","","","","","",""
"null","<span style='color:GreenYellow; font-size: 70px;'>正确! </span>","null","html-keyboard-response","100","323468","0.0-7.0-1.0-1.0-0.0-1.45","2","2","2","2","2","2","1","2","2","2","2","2","1","2","2","1","2","1","3","2","3","4","4","3","4","4","4","3","3","1","0","1","1","0","1","1","1","1","1","1","0","1","0","1","2","5","4","4","5","4","4","3","2","5","752227872634310658","刘","14","","","","","","","","","","","","","","","","","","","","","","","","","","","","","","feedback_test","","","","","","","","","",""
"1139","","j","psychophysics","101","325608","0.0-7.0-1.0-1.0-0.0-0.46","2","2","2","2","2","2","1","2","2","2","2","2","1","2","2","1","2","1","3","2","3","4","4","3","4","4","4","3","3","1","0","1","1","0","1","1","1","1","1","1","0","1","0","1","2","5","4","4","5","4","4","3","2","5","752227872634310658","刘","14","","","","nonmatch","","","","","","","","","","","","","","key","j","16.65694488189","640","356","j","true","nonmatch","img/hexagon.png","方形","六边","ALT1_2","prac_ALT1_2","","","","","","","","","",""
"null","<span style='color:GreenYellow; font-size: 70px;'>正确! </span>","null","html-keyboard-response","102","326109","0.0-7.0-1.0-1.0-0.0-1.46","2","2","2","2","2","2","1","2","2","2","2","2","1","2","2","1","2","1","3","2","3","4","4","3","4","4","4","3","3","1","0","1","1","0","1","1","1","1","1","1","0","1","0","1","2","5","4","4","5","4","4","3","2","5","752227872634310658","刘","14","","","","","","","","","","","","","","","","","","","","","","","","","","","","","","feedback_test","","","","","","","","","",""
"1015","","f","psychophysics","103","328125","0.0-7.0-1.0-1.0-0.0-0.47","2","2","2","2","2","2","1","2","2","2","2","2","1","2","2","1","2","1","3","2","3","4","4","3","4","4","4","3","3","1","0","1","1","0","1","1","1","1","1","1","0","1","0","1","2","5","4","4","5","4","4","3","2","5","752227872634310658","刘","14","","","","match","","","","","","","","","","","","","","key","f","16.664724999999937","640","356","f","true","match","img/hexagon.png","六边","六边","ALT1_2","prac_ALT1_2","","","","","","","","","",""
"null","<span style='color:GreenYellow; font-size: 70px;'>正确! </span>","null","html-keyboard-response","104","328626","0.0-7.0-1.0-1.0-0.0-1.47","2","2","2","2","2","2","1","2","2","2","2","2","1","2","2","1","2","1","3","2","3","4","4","3","4","4","4","3","3","1","0","1","1","0","1","1","1","1","1","1","0","1","0","1","2","5","4","4","5","4","4","3","2","5","752227872634310658","刘","14","","","","","","","","","","","","","","","","","","","","","","","","","","","","","","feedback_test","","","","","","","","","",""
"29806","<style>.context{color:white; font-size: 35px; line-height:40px}</style>                          <div><p class='context'>您正确回答了75% 的试次。</p><p class='context'>您的平均反应时为920毫秒。</p><p class='context'>恭喜您完成练习。按空格键进入正式实验。</p><p class='footer' style='font-size: 35px; line-height:40px;'>请在进入正式实验实验之前将您的<span style='color: lightgreen;'>食指</span>放在电脑键盘的相应键位上进行按键。</p>"," ","html-keyboard-response","105","358438","0.0-7.0-1.0-2.0","2","2","2","2","2","2","1","2","2","2","2","2","1","2","2","1","2","1","3","2","3","4","4","3","4","4","4","3","3","1","0","1","1","0","1","1","1","1","1","1","0","1","0","1","2","5","4","4","5","4","4","3","2","5","752227872634310658","刘","14","","","","","","","","","","","","","","","","","","","","","","","","","","","","","","","","","","","","","","","",""
"4655","
  <p style='color: white; font-size: 22px'>请您将手指放在按键上，准备进入正式的匹配任务。</p>
  <p> <div style = ""color: green""><按空格键进入下一阶段的匹配任务></div></p>
  "," ","html-keyboard-response","106","363099","0.0-7.0-1.0-3.0","2","2","2","2","2","2","1","2","2","2","2","2","1","2","2","1","2","1","3","2","3","4","4","3","4","4","4","3","3","1","0","1","1","0","1","1","1","1","1","1","0","1","0","1","2","5","4","4","5","4","4","3","2","5","752227872634310658","刘","14","","","","","","","","","","","","","","","","","","","","","","","","","","","","","","","","","","","","","","","",""
"1156","","f","psychophysics","107","365257","0.0-7.0-1.0-4.0-0.0-0.0","2","2","2","2","2","2","1","2","2","2","2","2","1","2","2","1","2","1","3","2","3","4","4","3","4","4","4","3","3","1","0","1","1","0","1","1","1","1","1","1","0","1","0","1","2","5","4","4","5","4","4","3","2","5","752227872634310658","刘","14","","","","match","","","","","","","","","","","","","","key","f","16.66470312499996","640","356","f","true","match","img/square.png","方形","方形","ALT1","formal_ALT1_2","","","","","","","","","",""
"null","<span style='color:GreenYellow; font-size: 70px;'>正确! </span>","null","html-keyboard-response","108","365758","0.0-7.0-1.0-4.0-0.0-1.0","2","2","2","2","2","2","1","2","2","2","2","2","1","2","2","1","2","1","3","2","3","4","4","3","4","4","4","3","3","1","0","1","1","0","1","1","1","1","1","1","0","1","0","1","2","5","4","4","5","4","4","3","2","5","752227872634310658","刘","14","","","","","","","","","","","","","","","","","","","","","","","","","","","","","","feedback_test","","","","","","","","","",""
"954","","f","psychophysics","109","367712","0.0-7.0-1.0-4.0-0.0-0.1","2","2","2","2","2","2","1","2","2","2","2","2","1","2","2","1","2","1","3","2","3","4","4","3","4","4","4","3","3","1","0","1","1","0","1","1","1","1","1","1","0","1","0","1","2","5","4","4","5","4","4","3","2","5","752227872634310658","刘","14","","","","match","","","","","","","","","","","","","","key","f","16.665198275862075","640","356","j","false","nonmatch","img/triangle.png","六边","三角","ALT1","formal_ALT1_2","","","","","","","","","",""
"null","<span style='color:red; font-size: 70px;'>错误! </span>","null","html-keyboard-response","110","368214","0.0-7.0-1.0-4.0-0.0-1.1","2","2","2","2","2","2","1","2","2","2","2","2","1","2","2","1","2","1","3","2","3","4","4","3","4","4","4","3","3","1","0","1","1","0","1","1","1","1","1","1","0","1","0","1","2","5","4","4","5","4","4","3","2","5","752227872634310658","刘","14","","","","","","","","","","","","","","","","","","","","","","","","","","","","","","feedback_test","","","","","","","","","",""
"805","","j","psychophysics","111","370021","0.0-7.0-1.0-4.0-0.0-0.2","2","2","2","2","2","2","1","2","2","2","2","2","1","2","2","1","2","1","3","2","3","4","4","3","4","4","4","3","3","1","0","1","1","0","1","1","1","1","1","1","0","1","0","1","2","5","4","4","5","4","4","3","2","5","752227872634310658","刘","14","","","","nonmatch","","","","","","","","","","","","","","key","j","16.664953271028256","640","356","j","true","nonmatch","img/square.png","六边","方形","ALT1","formal_ALT1_2","","","","","","","","","",""
"null","<span style='color:GreenYellow; font-size: 70px;'>正确! </span>","null","html-keyboard-response","112","370523","0.0-7.0-1.0-4.0-0.0-1.2","2","2","2","2","2","2","1","2","2","2","2","2","1","2","2","1","2","1","3","2","3","4","4","3","4","4","4","3","3","1","0","1","1","0","1","1","1","1","1","1","0","1","0","1","2","5","4","4","5","4","4","3","2","5","752227872634310658","刘","14","","","","","","","","","","","","","","","","","","","","","","","","","","","","","","feedback_test","","","","","","","","","",""
"719","","f","psychophysics","113","372244","0.0-7.0-1.0-4.0-0.0-0.3","2","2","2","2","2","2","1","2","2","2","2","2","1","2","2","1","2","1","3","2","3","4","4","3","4","4","4","3","3","1","0","1","1","0","1","1","1","1","1","1","0","1","0","1","2","5","4","4","5","4","4","3","2","5","752227872634310658","刘","14","","","","match","","","","","","","","","","","","","","key","f","16.66463725490201","640","356","f","true","match","img/triangle.png","三角","三角","ALT1","formal_ALT1_2","","","","","","","","","",""
"null","<span style='color:GreenYellow; font-size: 70px;'>正确! </span>","null","html-keyboard-response","114","372746","0.0-7.0-1.0-4.0-0.0-1.3","2","2","2","2","2","2","1","2","2","2","2","2","1","2","2","1","2","1","3","2","3","4","4","3","4","4","4","3","3","1","0","1","1","0","1","1","1","1","1","1","0","1","0","1","2","5","4","4","5","4","4","3","2","5","752227872634310658","刘","14","","","","","","","","","","","","","","","","","","","","","","","","","","","","","","feedback_test","","","","","","","","","",""
"1000","","j","psychophysics","115","374747","0.0-7.0-1.0-4.0-0.0-0.4","2","2","2","2","2","2","1","2","2","2","2","2","1","2","2","1","2","1","3","2","3","4","4","3","4","4","4","3","3","1","0","1","1","0","1","1","1","1","1","1","0","1","0","1","2","5","4","4","5","4","4","3","2","5","752227872634310658","刘","14","","","","nonmatch","","","","","","","","","","","","","","key","j","16.664554621849184","640","356","j","true","nonmatch","img/circle.png","方形","圆形","ALT1","formal_ALT1_2","","","","","","","","","",""
"null","<span style='color:GreenYellow; font-size: 70px;'>正确! </span>","null","html-keyboard-response","116","375248","0.0-7.0-1.0-4.0-0.0-1.4","2","2","2","2","2","2","1","2","2","2","2","2","1","2","2","1","2","1","3","2","3","4","4","3","4","4","4","3","3","1","0","1","1","0","1","1","1","1","1","1","0","1","0","1","2","5","4","4","5","4","4","3","2","5","752227872634310658","刘","14","","","","","","","","","","","","","","","","","","","","","","","","","","","","","","feedback_test","","","","","","","","","",""
"987","","f","psychophysics","117","377238","0.0-7.0-1.0-4.0-0.0-0.5","2","2","2","2","2","2","1","2","2","2","2","2","1","2","2","1","2","1","3","2","3","4","4","3","4","4","4","3","3","1","0","1","1","0","1","1","1","1","1","1","0","1","0","1","2","5","4","4","5","4","4","3","2","5","752227872634310658","刘","14","","","","match","","","","","","","","","","","","","","key","f","16.666177966101667","640","356","f","true","match","img/hexagon.png","六边","六边","ALT1","formal_ALT1_2","","","","","","","","","",""
"null","<span style='color:GreenYellow; font-size: 70px;'>正确! </span>","null","html-keyboard-response","118","377740","0.0-7.0-1.0-4.0-0.0-1.5","2","2","2","2","2","2","1","2","2","2","2","2","1","2","2","1","2","1","3","2","3","4","4","3","4","4","4","3","3","1","0","1","1","0","1","1","1","1","1","1","0","1","0","1","2","5","4","4","5","4","4","3","2","5","752227872634310658","刘","14","","","","","","","","","","","","","","","","","","","","","","","","","","","","","","feedback_test","","","","","","","","","",""
"756","","f","psychophysics","119","379497","0.0-7.0-1.0-4.0-0.0-0.6","2","2","2","2","2","2","1","2","2","2","2","2","1","2","2","1","2","1","3","2","3","4","4","3","4","4","4","3","3","1","0","1","1","0","1","1","1","1","1","1","0","1","0","1","2","5","4","4","5","4","4","3","2","5","752227872634310658","刘","14","","","","match","","","","","","","","","","","","","","key","f","16.664980952380713","640","356","f","true","match","img/square.png","方形","方形","ALT1","formal_ALT1_2","","","","","","","","","",""
"null","<span style='color:GreenYellow; font-size: 70px;'>正确! </span>","null","html-keyboard-response","120","379998","0.0-7.0-1.0-4.0-0.0-1.6","2","2","2","2","2","2","1","2","2","2","2","2","1","2","2","1","2","1","3","2","3","4","4","3","4","4","4","3","3","1","0","1","1","0","1","1","1","1","1","1","0","1","0","1","2","5","4","4","5","4","4","3","2","5","752227872634310658","刘","14","","","","","","","","","","","","","","","","","","","","","","","","","","","","","","feedback_test","","","","","","","","","",""
"963","","j","psychophysics","121","381963","0.0-7.0-1.0-4.0-0.0-0.7","2","2","2","2","2","2","1","2","2","2","2","2","1","2","2","1","2","1","3","2","3","4","4","3","4","4","4","3","3","1","0","1","1","0","1","1","1","1","1","1","0","1","0","1","2","5","4","4","5","4","4","3","2","5","752227872634310658","刘","14","","","","nonmatch","","","","","","","","","","","","","","key","j","16.665521367521695","640","356","j","true","nonmatch","img/hexagon.png","三角","六边","ALT1","formal_ALT1_2","","","","","","","","","",""
"null","<span style='color:GreenYellow; font-size: 70px;'>正确! </span>","null","html-keyboard-response","122","382464","0.0-7.0-1.0-4.0-0.0-1.7","2","2","2","2","2","2","1","2","2","2","2","2","1","2","2","1","2","1","3","2","3","4","4","3","4","4","4","3","3","1","0","1","1","0","1","1","1","1","1","1","0","1","0","1","2","5","4","4","5","4","4","3","2","5","752227872634310658","刘","14","","","","","","","","","","","","","","","","","","","","","","","","","","","","","","feedback_test","","","","","","","","","",""
"725","","f","psychophysics","123","384190","0.0-7.0-1.0-4.0-0.0-0.8","2","2","2","2","2","2","1","2","2","2","2","2","1","2","2","1","2","1","3","2","3","4","4","3","4","4","4","3","3","1","0","1","1","0","1","1","1","1","1","1","0","1","0","1","2","5","4","4","5","4","4","3","2","5","752227872634310658","刘","14","","","","match","","","","","","","","","","","","","","key","f","16.663549019607565","640","356","f","true","match","img/circle.png","圆形","圆形","ALT1","formal_ALT1_2","","","","","","","","","",""
"null","<span style='color:GreenYellow; font-size: 70px;'>正确! </span>","null","html-keyboard-response","124","384693","0.0-7.0-1.0-4.0-0.0-1.8","2","2","2","2","2","2","1","2","2","2","2","2","1","2","2","1","2","1","3","2","3","4","4","3","4","4","4","3","3","1","0","1","1","0","1","1","1","1","1","1","0","1","0","1","2","5","4","4","5","4","4","3","2","5","752227872634310658","刘","14","","","","","","","","","","","","","","","","","","","","","","","","","","","","","","feedback_test","","","","","","","","","",""
"754","","f","psychophysics","125","386450","0.0-7.0-1.0-4.0-0.0-0.9","2","2","2","2","2","2","1","2","2","2","2","2","1","2","2","1","2","1","3","2","3","4","4","3","4","4","4","3","3","1","0","1","1","0","1","1","1","1","1","1","0","1","0","1","2","5","4","4","5","4","4","3","2","5","752227872634310658","刘","14","","","","match","","","","","","","","","","","","","","key","f","16.66462857142878","640","356","f","true","match","img/triangle.png","三角","三角","ALT1","formal_ALT1_2","","","","","","","","","",""
"null","<span style='color:GreenYellow; font-size: 70px;'>正确! </span>","null","html-keyboard-response","126","386951","0.0-7.0-1.0-4.0-0.0-1.9","2","2","2","2","2","2","1","2","2","2","2","2","1","2","2","1","2","1","3","2","3","4","4","3","4","4","4","3","3","1","0","1","1","0","1","1","1","1","1","1","0","1","0","1","2","5","4","4","5","4","4","3","2","5","752227872634310658","刘","14","","","","","","","","","","","","","","","","","","","","","","","","","","","","","","feedback_test","","","","","","","","","",""
"981","","j","psychophysics","127","388934","0.0-7.0-1.0-4.0-0.0-0.10","2","2","2","2","2","2","1","2","2","2","2","2","1","2","2","1","2","1","3","2","3","4","4","3","4","4","4","3","3","1","0","1","1","0","1","1","1","1","1","1","0","1","0","1","2","5","4","4","5","4","4","3","2","5","752227872634310658","刘","14","","","","nonmatch","","","","","","","","","","","","","","key","j","16.664830508474676","640","356","j","true","nonmatch","img/hexagon.png","圆形","六边","ALT1","formal_ALT1_2","","","","","","","","","",""
"null","<span style='color:GreenYellow; font-size: 70px;'>正确! </span>","null","html-keyboard-response","128","389437","0.0-7.0-1.0-4.0-0.0-1.10","2","2","2","2","2","2","1","2","2","2","2","2","1","2","2","1","2","1","3","2","3","4","4","3","4","4","4","3","3","1","0","1","1","0","1","1","1","1","1","1","0","1","0","1","2","5","4","4","5","4","4","3","2","5","752227872634310658","刘","14","","","","","","","","","","","","","","","","","","","","","","","","","","","","","","feedback_test","","","","","","","","","",""
"869","","j","psychophysics","129","391307","0.0-7.0-1.0-4.0-0.0-0.11","2","2","2","2","2","2","1","2","2","2","2","2","1","2","2","1","2","1","3","2","3","4","4","3","4","4","4","3","3","1","0","1","1","0","1","1","1","1","1","1","0","1","0","1","2","5","4","4","5","4","4","3","2","5","752227872634310658","刘","14","","","","nonmatch","","","","","","","","","","","","","","key","j","16.66688288288319","640","356","j","true","nonmatch","img/circle.png","六边","圆形","ALT1","formal_ALT1_2","","","","","","","","","",""
"null","<span style='color:GreenYellow; font-size: 70px;'>正确! </span>","null","html-keyboard-response","130","391808","0.0-7.0-1.0-4.0-0.0-1.11","2","2","2","2","2","2","1","2","2","2","2","2","1","2","2","1","2","1","3","2","3","4","4","3","4","4","4","3","3","1","0","1","1","0","1","1","1","1","1","1","0","1","0","1","2","5","4","4","5","4","4","3","2","5","752227872634310658","刘","14","","","","","","","","","","","","","","","","","","","","","","","","","","","","","","feedback_test","","","","","","","","","",""
"null","","null","psychophysics","131","394011","0.0-7.0-1.0-4.0-0.0-0.12","2","2","2","2","2","2","1","2","2","2","2","2","1","2","2","1","2","1","3","2","3","4","4","3","4","4","4","3","3","1","0","1","1","0","1","1","1","1","1","1","0","1","0","1","2","5","4","4","5","4","4","3","2","5","752227872634310658","刘","14","","","","null","","","","","","","","","","","","","","key","null","16.66485384615371","640","356","f","false","match","img/hexagon.png","六边","六边","ALT1","formal_ALT1_2","","","","","","","","","",""
"null","<span class='add_' style='color:yellow; font-size: 70px;'> 太慢! </span>","null","html-keyboard-response","132","394512","0.0-7.0-1.0-4.0-0.0-1.12","2","2","2","2","2","2","1","2","2","2","2","2","1","2","2","1","2","1","3","2","3","4","4","3","4","4","4","3","3","1","0","1","1","0","1","1","1","1","1","1","0","1","0","1","2","5","4","4","5","4","4","3","2","5","752227872634310658","刘","14","","","","","","","","","","","","","","","","","","","","","","","","","","","","","","feedback_test","","","","","","","","","",""
"866","","f","psychophysics","133","396380","0.0-7.0-1.0-4.0-0.0-0.13","2","2","2","2","2","2","1","2","2","2","2","2","1","2","2","1","2","1","3","2","3","4","4","3","4","4","4","3","3","1","0","1","1","0","1","1","1","1","1","1","0","1","0","1","2","5","4","4","5","4","4","3","2","5","752227872634310658","刘","14","","","","match","","","","","","","","","","","","","","key","f","16.66381981981937","640","356","f","true","match","img/square.png","方形","方形","ALT1","formal_ALT1_2","","","","","","","","","",""
"null","<span style='color:GreenYellow; font-size: 70px;'>正确! </span>","null","html-keyboard-response","134","396883","0.0-7.0-1.0-4.0-0.0-1.13","2","2","2","2","2","2","1","2","2","2","2","2","1","2","2","1","2","1","3","2","3","4","4","3","4","4","4","3","3","1","0","1","1","0","1","1","1","1","1","1","0","1","0","1","2","5","4","4","5","4","4","3","2","5","752227872634310658","刘","14","","","","","","","","","","","","","","","","","","","","","","","","","","","","","","feedback_test","","","","","","","","","",""
"819","","j","psychophysics","135","398703","0.0-7.0-1.0-4.0-0.0-0.14","2","2","2","2","2","2","1","2","2","2","2","2","1","2","2","1","2","1","3","2","3","4","4","3","4","4","4","3","3","1","0","1","1","0","1","1","1","1","1","1","0","1","0","1","2","5","4","4","5","4","4","3","2","5","752227872634310658","刘","14","","","","nonmatch","","","","","","","","","","","","","","key","j","16.66453703703721","640","356","j","true","nonmatch","img/square.png","圆形","方形","ALT1","formal_ALT1_2","","","","","","","","","",""
"null","<span style='color:GreenYellow; font-size: 70px;'>正确! </span>","null","html-keyboard-response","136","399205","0.0-7.0-1.0-4.0-0.0-1.14","2","2","2","2","2","2","1","2","2","2","2","2","1","2","2","1","2","1","3","2","3","4","4","3","4","4","4","3","3","1","0","1","1","0","1","1","1","1","1","1","0","1","0","1","2","5","4","4","5","4","4","3","2","5","752227872634310658","刘","14","","","","","","","","","","","","","","","","","","","","","","","","","","","","","","feedback_test","","","","","","","","","",""
"692","","f","psychophysics","137","400899","0.0-7.0-1.0-4.0-0.0-0.15","2","2","2","2","2","2","1","2","2","2","2","2","1","2","2","1","2","1","3","2","3","4","4","3","4","4","4","3","3","1","0","1","1","0","1","1","1","1","1","1","0","1","0","1","2","5","4","4","5","4","4","3","2","5","752227872634310658","刘","14","","","","match","","","","","","","","","","","","","","key","f","16.66532673267302","640","356","f","true","match","img/circle.png","圆形","圆形","ALT1","formal_ALT1_2","","","","","","","","","",""
"null","<span style='color:GreenYellow; font-size: 70px;'>正确! </span>","null","html-keyboard-response","138","401401","0.0-7.0-1.0-4.0-0.0-1.15","2","2","2","2","2","2","1","2","2","2","2","2","1","2","2","1","2","1","3","2","3","4","4","3","4","4","4","3","3","1","0","1","1","0","1","1","1","1","1","1","0","1","0","1","2","5","4","4","5","4","4","3","2","5","752227872634310658","刘","14","","","","","","","","","","","","","","","","","","","","","","","","","","","","","","feedback_test","","","","","","","","","",""
"800","","j","psychophysics","139","403202","0.0-7.0-1.0-4.0-0.0-0.16","2","2","2","2","2","2","1","2","2","2","2","2","1","2","2","1","2","1","3","2","3","4","4","3","4","4","4","3","3","1","0","1","1","0","1","1","1","1","1","1","0","1","0","1","2","5","4","4","5","4","4","3","2","5","752227872634310658","刘","14","","","","nonmatch","","","","","","","","","","","","","","key","j","16.66370093457947","640","356","j","true","nonmatch","img/hexagon.png","方形","六边","ALT1","formal_ALT1_2","","","","","","","","","",""
"null","<span style='color:GreenYellow; font-size: 70px;'>正确! </span>","null","html-keyboard-response","140","403704","0.0-7.0-1.0-4.0-0.0-1.16","2","2","2","2","2","2","1","2","2","2","2","2","1","2","2","1","2","1","3","2","3","4","4","3","4","4","4","3","3","1","0","1","1","0","1","1","1","1","1","1","0","1","0","1","2","5","4","4","5","4","4","3","2","5","752227872634310658","刘","14","","","","","","","","","","","","","","","","","","","","","","","","","","","","","","feedback_test","","","","","","","","","",""
"690","","f","psychophysics","141","405396","0.0-7.0-1.0-4.0-0.0-0.17","2","2","2","2","2","2","1","2","2","2","2","2","1","2","2","1","2","1","3","2","3","4","4","3","4","4","4","3","3","1","0","1","1","0","1","1","1","1","1","1","0","1","0","1","2","5","4","4","5","4","4","3","2","5","752227872634310658","刘","14","","","","match","","","","","","","","","","","","","","key","f","16.664039603960678","640","356","f","true","match","img/circle.png","圆形","圆形","ALT1","formal_ALT1_2","","","","","","","","","",""
"null","<span style='color:GreenYellow; font-size: 70px;'>正确! </span>","null","html-keyboard-response","142","405898","0.0-7.0-1.0-4.0-0.0-1.17","2","2","2","2","2","2","1","2","2","2","2","2","1","2","2","1","2","1","3","2","3","4","4","3","4","4","4","3","3","1","0","1","1","0","1","1","1","1","1","1","0","1","0","1","2","5","4","4","5","4","4","3","2","5","752227872634310658","刘","14","","","","","","","","","","","","","","","","","","","","","","","","","","","","","","feedback_test","","","","","","","","","",""
"1101","","j","psychophysics","143","408000","0.0-7.0-1.0-4.0-0.0-0.18","2","2","2","2","2","2","1","2","2","2","2","2","1","2","2","1","2","1","3","2","3","4","4","3","4","4","4","3","3","1","0","1","1","0","1","1","1","1","1","1","0","1","0","1","2","5","4","4","5","4","4","3","2","5","752227872634310658","刘","14","","","","nonmatch","","","","","","","","","","","","","","key","j","16.664191999999808","640","356","j","true","nonmatch","img/circle.png","三角","圆形","ALT1","formal_ALT1_2","","","","","","","","","",""
"null","<span style='color:GreenYellow; font-size: 70px;'>正确! </span>","null","html-keyboard-response","144","408501","0.0-7.0-1.0-4.0-0.0-1.18","2","2","2","2","2","2","1","2","2","2","2","2","1","2","2","1","2","1","3","2","3","4","4","3","4","4","4","3","3","1","0","1","1","0","1","1","1","1","1","1","0","1","0","1","2","5","4","4","5","4","4","3","2","5","752227872634310658","刘","14","","","","","","","","","","","","","","","","","","","","","","","","","","","","","","feedback_test","","","","","","","","","",""
"905","","j","psychophysics","145","410407","0.0-7.0-1.0-4.0-0.0-0.19","2","2","2","2","2","2","1","2","2","2","2","2","1","2","2","1","2","1","3","2","3","4","4","3","4","4","4","3","3","1","0","1","1","0","1","1","1","1","1","1","0","1","0","1","2","5","4","4","5","4","4","3","2","5","752227872634310658","刘","14","","","","nonmatch","","","","","","","","","","","","","","key","j","16.66668141592939","640","356","j","true","nonmatch","img/triangle.png","方形","三角","ALT1","formal_ALT1_2","","","","","","","","","",""
"null","<span style='color:GreenYellow; font-size: 70px;'>正确! </span>","null","html-keyboard-response","146","410910","0.0-7.0-1.0-4.0-0.0-1.19","2","2","2","2","2","2","1","2","2","2","2","2","1","2","2","1","2","1","3","2","3","4","4","3","4","4","4","3","3","1","0","1","1","0","1","1","1","1","1","1","0","1","0","1","2","5","4","4","5","4","4","3","2","5","752227872634310658","刘","14","","","","","","","","","","","","","","","","","","","","","","","","","","","","","","feedback_test","","","","","","","","","",""
"796","","j","psychophysics","147","412707","0.0-7.0-1.0-4.0-0.0-0.20","2","2","2","2","2","2","1","2","2","2","2","2","1","2","2","1","2","1","3","2","3","4","4","3","4","4","4","3","3","1","0","1","1","0","1","1","1","1","1","1","0","1","0","1","2","5","4","4","5","4","4","3","2","5","752227872634310658","刘","14","","","","nonmatch","","","","","","","","","","","","","","key","j","16.664084905660207","640","356","j","true","nonmatch","img/square.png","三角","方形","ALT1","formal_ALT1_2","","","","","","","","","",""
"null","<span style='color:GreenYellow; font-size: 70px;'>正确! </span>","null","html-keyboard-response","148","413209","0.0-7.0-1.0-4.0-0.0-1.20","2","2","2","2","2","2","1","2","2","2","2","2","1","2","2","1","2","1","3","2","3","4","4","3","4","4","4","3","3","1","0","1","1","0","1","1","1","1","1","1","0","1","0","1","2","5","4","4","5","4","4","3","2","5","752227872634310658","刘","14","","","","","","","","","","","","","","","","","","","","","","","","","","","","","","feedback_test","","","","","","","","","",""
"822","","j","psychophysics","149","415031","0.0-7.0-1.0-4.0-0.0-0.21","2","2","2","2","2","2","1","2","2","2","2","2","1","2","2","1","2","1","3","2","3","4","4","3","4","4","4","3","3","1","0","1","1","0","1","1","1","1","1","1","0","1","0","1","2","5","4","4","5","4","4","3","2","5","752227872634310658","刘","14","","","","nonmatch","","","","","","","","","","","","","","key","j","16.665148148148244","640","356","j","true","nonmatch","img/triangle.png","圆形","三角","ALT1","formal_ALT1_2","","","","","","","","","",""
"null","<span style='color:GreenYellow; font-size: 70px;'>正确! </span>","null","html-keyboard-response","150","415532","0.0-7.0-1.0-4.0-0.0-1.21","2","2","2","2","2","2","1","2","2","2","2","2","1","2","2","1","2","1","3","2","3","4","4","3","4","4","4","3","3","1","0","1","1","0","1","1","1","1","1","1","0","1","0","1","2","5","4","4","5","4","4","3","2","5","752227872634310658","刘","14","","","","","","","","","","","","","","","","","","","","","","","","","","","","","","feedback_test","","","","","","","","","",""
"806","","j","psychophysics","151","417340","0.0-7.0-1.0-4.0-0.0-0.22","2","2","2","2","2","2","1","2","2","2","2","2","1","2","2","1","2","1","3","2","3","4","4","3","4","4","4","3","3","1","0","1","1","0","1","1","1","1","1","1","0","1","0","1","2","5","4","4","5","4","4","3","2","5","752227872634310658","刘","14","","","","nonmatch","","","","","","","","","","","","","","key","j","16.666906542056044","640","356","f","false","match","img/hexagon.png","六边","六边","ALT1","formal_ALT1_2","","","","","","","","","",""
"null","<span style='color:red; font-size: 70px;'>错误! </span>","null","html-keyboard-response","152","417841","0.0-7.0-1.0-4.0-0.0-1.22","2","2","2","2","2","2","1","2","2","2","2","2","1","2","2","1","2","1","3","2","3","4","4","3","4","4","4","3","3","1","0","1","1","0","1","1","1","1","1","1","0","1","0","1","2","5","4","4","5","4","4","3","2","5","752227872634310658","刘","14","","","","","","","","","","","","","","","","","","","","","","","","","","","","","","feedback_test","","","","","","","","","",""
"615","","f","psychophysics","153","419457","0.0-7.0-1.0-4.0-0.0-0.23","2","2","2","2","2","2","1","2","2","2","2","2","1","2","2","1","2","1","3","2","3","4","4","3","4","4","4","3","3","1","0","1","1","0","1","1","1","1","1","1","0","1","0","1","2","5","4","4","5","4","4","3","2","5","752227872634310658","刘","14","","","","match","","","","","","","","","","","","","","key","f","16.66615789473657","640","356","f","true","match","img/triangle.png","三角","三角","ALT1","formal_ALT1_2","","","","","","","","","",""
"null","<span style='color:GreenYellow; font-size: 70px;'>正确! </span>","null","html-keyboard-response","154","419960","0.0-7.0-1.0-4.0-0.0-1.23","2","2","2","2","2","2","1","2","2","2","2","2","1","2","2","1","2","1","3","2","3","4","4","3","4","4","4","3","3","1","0","1","1","0","1","1","1","1","1","1","0","1","0","1","2","5","4","4","5","4","4","3","2","5","752227872634310658","刘","14","","","","","","","","","","","","","","","","","","","","","","","","","","","","","","feedback_test","","","","","","","","","",""
"685","","f","psychophysics","155","421647","0.0-7.0-1.0-4.0-0.0-0.24","2","2","2","2","2","2","1","2","2","2","2","2","1","2","2","1","2","1","3","2","3","4","4","3","4","4","4","3","3","1","0","1","1","0","1","1","1","1","1","1","0","1","0","1","2","5","4","4","5","4","4","3","2","5","752227872634310658","刘","14","","","","match","","","","","","","","","","","","","","key","f","16.663800000000048","640","356","f","true","match","img/circle.png","圆形","圆形","ALT1","formal_ALT1_2","","","","","","","","","",""
"null","<span style='color:GreenYellow; font-size: 70px;'>正确! </span>","null","html-keyboard-response","156","422148","0.0-7.0-1.0-4.0-0.0-1.24","2","2","2","2","2","2","1","2","2","2","2","2","1","2","2","1","2","1","3","2","3","4","4","3","4","4","4","3","3","1","0","1","1","0","1","1","1","1","1","1","0","1","0","1","2","5","4","4","5","4","4","3","2","5","752227872634310658","刘","14","","","","","","","","","","","","","","","","","","","","","","","","","","","","","","feedback_test","","","","","","","","","",""
"880","","f","psychophysics","157","424029","0.0-7.0-1.0-4.0-0.0-0.25","2","2","2","2","2","2","1","2","2","2","2","2","1","2","2","1","2","1","3","2","3","4","4","3","4","4","4","3","3","1","0","1","1","0","1","1","1","1","1","1","0","1","0","1","2","5","4","4","5","4","4","3","2","5","752227872634310658","刘","14","","","","match","","","","","","","","","","","","","","key","f","16.6658214285713","640","356","f","true","match","img/square.png","方形","方形","ALT1","formal_ALT1_2","","","","","","","","","",""
"null","<span style='color:GreenYellow; font-size: 70px;'>正确! </span>","null","html-keyboard-response","158","424531","0.0-7.0-1.0-4.0-0.0-1.25","2","2","2","2","2","2","1","2","2","2","2","2","1","2","2","1","2","1","3","2","3","4","4","3","4","4","4","3","3","1","0","1","1","0","1","1","1","1","1","1","0","1","0","1","2","5","4","4","5","4","4","3","2","5","752227872634310658","刘","14","","","","","","","","","","","","","","","","","","","","","","","","","","","","","","feedback_test","","","","","","","","","",""
"833","","j","psychophysics","159","426366","0.0-7.0-1.0-4.0-0.0-0.26","2","2","2","2","2","2","1","2","2","2","2","2","1","2","2","1","2","1","3","2","3","4","4","3","4","4","4","3","3","1","0","1","1","0","1","1","1","1","1","1","0","1","0","1","2","5","4","4","5","4","4","3","2","5","752227872634310658","刘","14","","","","nonmatch","","","","","","","","","","","","","","key","j","16.66793577981645","640","356","j","true","nonmatch","img/hexagon.png","三角","六边","ALT1","formal_ALT1_2","","","","","","","","","",""
"null","<span style='color:GreenYellow; font-size: 70px;'>正确! </span>","null","html-keyboard-response","160","426868","0.0-7.0-1.0-4.0-0.0-1.26","2","2","2","2","2","2","1","2","2","2","2","2","1","2","2","1","2","1","3","2","3","4","4","3","4","4","4","3","3","1","0","1","1","0","1","1","1","1","1","1","0","1","0","1","2","5","4","4","5","4","4","3","2","5","752227872634310658","刘","14","","","","","","","","","","","","","","","","","","","","","","","","","","","","","","feedback_test","","","","","","","","","",""
"815","","f","psychophysics","161","428684","0.0-7.0-1.0-4.0-0.0-0.27","2","2","2","2","2","2","1","2","2","2","2","2","1","2","2","1","2","1","3","2","3","4","4","3","4","4","4","3","3","1","0","1","1","0","1","1","1","1","1","1","0","1","0","1","2","5","4","4","5","4","4","3","2","5","752227872634310658","刘","14","","","","match","","","","","","","","","","","","","","key","f","16.666592592592846","640","356","f","true","match","img/square.png","方形","方形","ALT1","formal_ALT1_2","","","","","","","","","",""
"null","<span style='color:GreenYellow; font-size: 70px;'>正确! </span>","null","html-keyboard-response","162","429187","0.0-7.0-1.0-4.0-0.0-1.27","2","2","2","2","2","2","1","2","2","2","2","2","1","2","2","1","2","1","3","2","3","4","4","3","4","4","4","3","3","1","0","1","1","0","1","1","1","1","1","1","0","1","0","1","2","5","4","4","5","4","4","3","2","5","752227872634310658","刘","14","","","","","","","","","","","","","","","","","","","","","","","","","","","","","","feedback_test","","","","","","","","","",""
"1030","","j","psychophysics","163","431220","0.0-7.0-1.0-4.0-0.0-0.28","2","2","2","2","2","2","1","2","2","2","2","2","1","2","2","1","2","1","3","2","3","4","4","3","4","4","4","3","3","1","0","1","1","0","1","1","1","1","1","1","0","1","0","1","2","5","4","4","5","4","4","3","2","5","752227872634310658","刘","14","","","","nonmatch","","","","","","","","","","","","","","key","j","16.66643801652913","640","356","j","true","nonmatch","img/hexagon.png","圆形","六边","ALT1","formal_ALT1_2","","","","","","","","","",""
"null","<span style='color:GreenYellow; font-size: 70px;'>正确! </span>","null","html-keyboard-response","164","431722","0.0-7.0-1.0-4.0-0.0-1.28","2","2","2","2","2","2","1","2","2","2","2","2","1","2","2","1","2","1","3","2","3","4","4","3","4","4","4","3","3","1","0","1","1","0","1","1","1","1","1","1","0","1","0","1","2","5","4","4","5","4","4","3","2","5","752227872634310658","刘","14","","","","","","","","","","","","","","","","","","","","","","","","","","","","","","feedback_test","","","","","","","","","",""
"931","","j","psychophysics","165","433654","0.0-7.0-1.0-4.0-0.0-0.29","2","2","2","2","2","2","1","2","2","2","2","2","1","2","2","1","2","1","3","2","3","4","4","3","4","4","4","3","3","1","0","1","1","0","1","1","1","1","1","1","0","1","0","1","2","5","4","4","5","4","4","3","2","5","752227872634310658","刘","14","","","","nonmatch","","","","","","","","","","","","","","key","j","16.664675438596372","640","356","j","true","nonmatch","img/circle.png","六边","圆形","ALT1","formal_ALT1_2","","","","","","","","","",""
"null","<span style='color:GreenYellow; font-size: 70px;'>正确! </span>","null","html-keyboard-response","166","434155","0.0-7.0-1.0-4.0-0.0-1.29","2","2","2","2","2","2","1","2","2","2","2","2","1","2","2","1","2","1","3","2","3","4","4","3","4","4","4","3","3","1","0","1","1","0","1","1","1","1","1","1","0","1","0","1","2","5","4","4","5","4","4","3","2","5","752227872634310658","刘","14","","","","","","","","","","","","","","","","","","","","","","","","","","","","","","feedback_test","","","","","","","","","",""
"809","","f","psychophysics","167","435965","0.0-7.0-1.0-4.0-0.0-0.30","2","2","2","2","2","2","1","2","2","2","2","2","1","2","2","1","2","1","3","2","3","4","4","3","4","4","4","3","3","1","0","1","1","0","1","1","1","1","1","1","0","1","0","1","2","5","4","4","5","4","4","3","2","5","752227872634310658","刘","14","","","","match","","","","","","","","","","","","","","key","f","16.66760747663559","640","356","f","true","match","img/hexagon.png","六边","六边","ALT1","formal_ALT1_2","","","","","","","","","",""
"null","<span style='color:GreenYellow; font-size: 70px;'>正确! </span>","null","html-keyboard-response","168","436468","0.0-7.0-1.0-4.0-0.0-1.30","2","2","2","2","2","2","1","2","2","2","2","2","1","2","2","1","2","1","3","2","3","4","4","3","4","4","4","3","3","1","0","1","1","0","1","1","1","1","1","1","0","1","0","1","2","5","4","4","5","4","4","3","2","5","752227872634310658","刘","14","","","","","","","","","","","","","","","","","","","","","","","","","","","","","","feedback_test","","","","","","","","","",""
"671","","f","psychophysics","169","438142","0.0-7.0-1.0-4.0-0.0-0.31","2","2","2","2","2","2","1","2","2","2","2","2","1","2","2","1","2","1","3","2","3","4","4","3","4","4","4","3","3","1","0","1","1","0","1","1","1","1","1","1","0","1","0","1","2","5","4","4","5","4","4","3","2","5","752227872634310658","刘","14","","","","match","","","","","","","","","","","","","","key","f","16.664649999999675","640","356","f","true","match","img/hexagon.png","六边","六边","ALT1","formal_ALT1_2","","","","","","","","","",""
"null","<span style='color:GreenYellow; font-size: 70px;'>正确! </span>","null","html-keyboard-response","170","438644","0.0-7.0-1.0-4.0-0.0-1.31","2","2","2","2","2","2","1","2","2","2","2","2","1","2","2","1","2","1","3","2","3","4","4","3","4","4","4","3","3","1","0","1","1","0","1","1","1","1","1","1","0","1","0","1","2","5","4","4","5","4","4","3","2","5","752227872634310658","刘","14","","","","","","","","","","","","","","","","","","","","","","","","","","","","","","feedback_test","","","","","","","","","",""
"751","","j","psychophysics","171","440398","0.0-7.0-1.0-4.0-0.0-0.32","2","2","2","2","2","2","1","2","2","2","2","2","1","2","2","1","2","1","3","2","3","4","4","3","4","4","4","3","3","1","0","1","1","0","1","1","1","1","1","1","0","1","0","1","2","5","4","4","5","4","4","3","2","5","752227872634310658","刘","14","","","","nonmatch","","","","","","","","","","","","","","key","j","16.665096153846555","640","356","j","true","nonmatch","img/circle.png","三角","圆形","ALT1","formal_ALT1_2","","","","","","","","","",""
"null","<span style='color:GreenYellow; font-size: 70px;'>正确! </span>","null","html-keyboard-response","172","440899","0.0-7.0-1.0-4.0-0.0-1.32","2","2","2","2","2","2","1","2","2","2","2","2","1","2","2","1","2","1","3","2","3","4","4","3","4","4","4","3","3","1","0","1","1","0","1","1","1","1","1","1","0","1","0","1","2","5","4","4","5","4","4","3","2","5","752227872634310658","刘","14","","","","","","","","","","","","","","","","","","","","","","","","","","","","","","feedback_test","","","","","","","","","",""
"772","","f","psychophysics","173","442673","0.0-7.0-1.0-4.0-0.0-0.33","2","2","2","2","2","2","1","2","2","2","2","2","1","2","2","1","2","1","3","2","3","4","4","3","4","4","4","3","3","1","0","1","1","0","1","1","1","1","1","1","0","1","0","1","2","5","4","4","5","4","4","3","2","5","752227872634310658","刘","14","","","","match","","","","","","","","","","","","","","key","f","16.667084905660474","640","356","f","true","match","img/triangle.png","三角","三角","ALT1","formal_ALT1_2","","","","","","","","","",""
"null","<span style='color:GreenYellow; font-size: 70px;'>正确! </span>","null","html-keyboard-response","174","443174","0.0-7.0-1.0-4.0-0.0-1.33","2","2","2","2","2","2","1","2","2","2","2","2","1","2","2","1","2","1","3","2","3","4","4","3","4","4","4","3","3","1","0","1","1","0","1","1","1","1","1","1","0","1","0","1","2","5","4","4","5","4","4","3","2","5","752227872634310658","刘","14","","","","","","","","","","","","","","","","","","","","","","","","","","","","","","feedback_test","","","","","","","","","",""
"835","","j","psychophysics","175","445013","0.0-7.0-1.0-4.0-0.0-0.34","2","2","2","2","2","2","1","2","2","2","2","2","1","2","2","1","2","1","3","2","3","4","4","3","4","4","4","3","3","1","0","1","1","0","1","1","1","1","1","1","0","1","0","1","2","5","4","4","5","4","4","3","2","5","752227872634310658","刘","14","","","","nonmatch","","","","","","","","","","","","","","key","j","16.664477064220314","640","356","j","true","nonmatch","img/square.png","圆形","方形","ALT1","formal_ALT1_2","","","","","","","","","",""
"null","<span style='color:GreenYellow; font-size: 70px;'>正确! </span>","null","html-keyboard-response","176","445513","0.0-7.0-1.0-4.0-0.0-1.34","2","2","2","2","2","2","1","2","2","2","2","2","1","2","2","1","2","1","3","2","3","4","4","3","4","4","4","3","3","1","0","1","1","0","1","1","1","1","1","1","0","1","0","1","2","5","4","4","5","4","4","3","2","5","752227872634310658","刘","14","","","","","","","","","","","","","","","","","","","","","","","","","","","","","","feedback_test","","","","","","","","","",""
"488","","f","psychophysics","177","447003","0.0-7.0-1.0-4.0-0.0-0.35","2","2","2","2","2","2","1","2","2","2","2","2","1","2","2","1","2","1","3","2","3","4","4","3","4","4","4","3","3","1","0","1","1","0","1","1","1","1","1","1","0","1","0","1","2","5","4","4","5","4","4","3","2","5","752227872634310658","刘","14","","","","match","","","","","","","","","","","","","","key","f","16.667136363636846","640","356","f","true","match","img/triangle.png","三角","三角","ALT1","formal_ALT1_2","","","","","","","","","",""
"null","<span style='color:GreenYellow; font-size: 70px;'>正确! </span>","null","html-keyboard-response","178","447505","0.0-7.0-1.0-4.0-0.0-1.35","2","2","2","2","2","2","1","2","2","2","2","2","1","2","2","1","2","1","3","2","3","4","4","3","4","4","4","3","3","1","0","1","1","0","1","1","1","1","1","1","0","1","0","1","2","5","4","4","5","4","4","3","2","5","752227872634310658","刘","14","","","","","","","","","","","","","","","","","","","","","","","","","","","","","","feedback_test","","","","","","","","","",""
"1170","","j","psychophysics","179","449677","0.0-7.0-1.0-4.0-0.0-0.36","2","2","2","2","2","2","1","2","2","2","2","2","1","2","2","1","2","1","3","2","3","4","4","3","4","4","4","3","3","1","0","1","1","0","1","1","1","1","1","1","0","1","0","1","2","5","4","4","5","4","4","3","2","5","752227872634310658","刘","14","","","","nonmatch","","","","","","","","","","","","","","key","j","16.665286821705315","640","356","j","true","nonmatch","img/triangle.png","圆形","三角","ALT1","formal_ALT1_2","","","","","","","","","",""
"null","<span style='color:GreenYellow; font-size: 70px;'>正确! </span>","null","html-keyboard-response","180","450178","0.0-7.0-1.0-4.0-0.0-1.36","2","2","2","2","2","2","1","2","2","2","2","2","1","2","2","1","2","1","3","2","3","4","4","3","4","4","4","3","3","1","0","1","1","0","1","1","1","1","1","1","0","1","0","1","2","5","4","4","5","4","4","3","2","5","752227872634310658","刘","14","","","","","","","","","","","","","","","","","","","","","","","","","","","","","","feedback_test","","","","","","","","","",""
"null","","null","psychophysics","181","452381","0.0-7.0-1.0-4.0-0.0-0.37","2","2","2","2","2","2","1","2","2","2","2","2","1","2","2","1","2","1","3","2","3","4","4","3","4","4","4","3","3","1","0","1","1","0","1","1","1","1","1","1","0","1","0","1","2","5","4","4","5","4","4","3","2","5","752227872634310658","刘","14","","","","null","","","","","","","","","","","","","","key","null","16.667328244274685","640","356","j","false","nonmatch","img/circle.png","方形","圆形","ALT1","formal_ALT1_2","","","","","","","","","",""
"null","<span class='add_' style='color:yellow; font-size: 70px;'> 太慢! </span>","null","html-keyboard-response","182","452883","0.0-7.0-1.0-4.0-0.0-1.37","2","2","2","2","2","2","1","2","2","2","2","2","1","2","2","1","2","1","3","2","3","4","4","3","4","4","4","3","3","1","0","1","1","0","1","1","1","1","1","1","0","1","0","1","2","5","4","4","5","4","4","3","2","5","752227872634310658","刘","14","","","","","","","","","","","","","","","","","","","","","","","","","","","","","","feedback_test","","","","","","","","","",""
"1154","","j","psychophysics","183","455039","0.0-7.0-1.0-4.0-0.0-0.38","2","2","2","2","2","2","1","2","2","2","2","2","1","2","2","1","2","1","3","2","3","4","4","3","4","4","4","3","3","1","0","1","1","0","1","1","1","1","1","1","0","1","0","1","2","5","4","4","5","4","4","3","2","5","752227872634310658","刘","14","","","","nonmatch","","","","","","","","","","","","","","key","j","16.663604651162647","640","356","j","true","nonmatch","img/hexagon.png","方形","六边","ALT1","formal_ALT1_2","","","","","","","","","",""
"null","<span style='color:GreenYellow; font-size: 70px;'>正确! </span>","null","html-keyboard-response","184","455540","0.0-7.0-1.0-4.0-0.0-1.38","2","2","2","2","2","2","1","2","2","2","2","2","1","2","2","1","2","1","3","2","3","4","4","3","4","4","4","3","3","1","0","1","1","0","1","1","1","1","1","1","0","1","0","1","2","5","4","4","5","4","4","3","2","5","752227872634310658","刘","14","","","","","","","","","","","","","","","","","","","","","","","","","","","","","","feedback_test","","","","","","","","","",""
