"rt","stimulus","response","trial_type","trial_index","time_elapsed","internal_node_id","ses_1","ses_2","ses_3","ses_4","ses_5","ses_6","ses_7","ses_8","ses_9","ses_10","coreself_1","coreself_2","coreself_3","coreself_4","coreself_5","coreself_6","coreself_7","coreself_8","coreself_9","coreself_10","SGPS_1","SGPS_2","SGPS_3","SGPS_4","SGPS_5","SGPS_6","SGPS_7","SGPS_8","SGPS_9","NPI1","NPI2","NPI3","NPI4","NPI5","NPI6","NPI7","NPI8","NPI9","NPI10","NPI11","NPI12","NPI13","NPI14","NPI15","hsns_1","hsns_2","hsns_3","hsns_4","hsns_5","hsns_6","hsns_7","hsns_8","hsns_9","hsns_10","subj_idx","friend_name","ParticipantID","value","success","user_agent","responses","item_order","radio_event_ids","radio_event_times","key_event_times","mouse_event_times","straightlining","zigzagging","honeypot","timeout","failed_images","failed_audio","failed_video","version_attrib2","version_target2","correct","IAT","screen_id","task_id","RT","condition","word","varname","summary","version_attrib","version_target","time_stamp","view_history","response_type","key_press","avg_frame_time","center_x","center_y","correct_response","identity","Image","question_order"
"6292","
   <p><div style = ""color: white;font-size:25px;"">您好，欢迎参加本次实验。</div> </p>
   <p><div style = ""color: white;font-size:25px;"">为充分保障您的权利，请确保您已经知晓并同意《参与实验同意书》以及《数据公开知情同意书》。</div></p>
   <p><div style = ""color: white;font-size:25px;"">如果您未见过上述内容，请咨询实验员。</div></p>
   <p><div style = ""color: white;font-size:25px;"">如果您选择继续实验，则表示您已经清楚两份知情同意书的内容并同意。</div></p>
   <p><div style = ""color: red;font-size:30px;"">请确保您记得day0的实验编号，您将在本次实验输入该编号，若您忘记，请咨询实验员后作答。</div></p>
   <p> <div style = ""color: green;font-size:25px;""><按空格键至下页></div> </p>
   "," ","html-keyboard-response","0","6294","0.0-0.0","3","3","4","3","2","3","3","3","4","4","4","2","2","3","2","4","2","3","4","4","4","4","3","2","2","2","4","3","4","1","1","1","0","1","1","1","1","0","1","1","0","1","0","1","3","4","4","2","4","4","4","4","5","4","730025585505734658","陈","349","","","","","","","","","","","","","","","","","","","","","","","","","","","","","","","","","","","","","","","",""
"","","","call-function","1","6295","0.0-1.0-0.0","3","3","4","3","2","3","3","3","4","4","4","2","2","3","2","4","2","3","4","4","4","4","3","2","2","2","4","3","4","1","1","1","0","1","1","1","1","0","1","1","0","1","0","1","3","4","4","2","4","4","4","4","5","4","730025585505734658","陈","349","","","","","","","","","","","","","","","","","","","","","","","","","","","","","","","","","","","","","","","",""
"18139","","{""friend_name"":""陈"",""ParticipantID"":""349""}","survey-html-form","2","24435","0.0-1.0-1.0","3","3","4","3","2","3","3","3","4","4","4","2","2","3","2","4","2","3","4","4","4","4","3","2","2","2","4","3","4","1","1","1","0","1","1","1","1","0","1","1","0","1","0","1","3","4","4","2","4","4","4","4","5","4","730025585505734658","陈","349","","","","","","","","","","","","","","","","","","","","","","","","","","","","","","","","","","","","","","","",""
"","","","fullscreen","3","32163","0.0-2.0","3","3","4","3","2","3","3","3","4","4","4","2","2","3","2","4","2","3","4","4","4","4","3","2","2","2","4","3","4","1","1","1","0","1","1","1","1","0","1","1","0","1","0","1","3","4","4","2","4","4","4","4","5","4","730025585505734658","陈","349","","true","{}","","","","","","","","","","","","","","","","","","","","","","","","","","","","","","","","","","","","",""
"30775.399999976158","","{""Q01"":""3"",""Q02"":""3"",""Q03"":""4"",""Q04"":""3"",""Q05"":""2"",""Q06"":""3"",""Q07"":""3"",""Q08"":""3"",""Q09"":""4"",""Q10"":""4""}","survey-template","4","62946","0.0-3.0","3","3","4","3","2","3","3","3","4","4","4","2","2","3","2","4","2","3","4","4","4","4","3","2","2","2","4","3","4","1","1","1","0","1","1","1","1","0","1","1","0","1","0","1","3","4","4","2","4","4","4","4","5","4","730025585505734658","陈","349","","","","{""Q01"":""3"",""Q02"":""3"",""Q03"":""4"",""Q04"":""3"",""Q05"":""2"",""Q06"":""3"",""Q07"":""3"",""Q08"":""3"",""Q09"":""4"",""Q10"":""4""}","[0,1,2,3,4,5,6,7,8,9]","[""Q01"",""Q02"",""Q03"",""Q04"",""Q05"",""Q06"",""Q07"",""Q08"",""Q09"",""Q10""]","[6323.5,8183.800000011921,11970.899999976158,15016.100000023842,17786.399999976158,20776.600000023842,22096.30000001192,26693.69999998808,29033.899999976158,29994.30000001192]","[]","[6323.5,8183.800000011921,11970.899999976158,15016.100000023842,17786.399999976158,20776.600000023842,21661.80000001192,22096.30000001192,26693.69999998808,29033.899999976158,29994.30000001192,30774]","0.6","0.2222222222222222","0","","","","","","","","","","","","","","","","","","","","","","","","","","","",""
"35281.10000002384","","{""Q01"":""4"",""Q02"":""2"",""Q03"":""2"",""Q04"":""3"",""Q05"":""2"",""Q06"":""4"",""Q07"":""2"",""Q08"":""3"",""Q09"":""4"",""Q10"":""4""}","survey-template","5","98234","0.0-4.0","3","3","4","3","2","3","3","3","4","4","4","2","2","3","2","4","2","3","4","4","4","4","3","2","2","2","4","3","4","1","1","1","0","1","1","1","1","0","1","1","0","1","0","1","3","4","4","2","4","4","4","4","5","4","730025585505734658","陈","349","","","","{""Q01"":""4"",""Q02"":""2"",""Q03"":""2"",""Q04"":""3"",""Q05"":""2"",""Q06"":""4"",""Q07"":""2"",""Q08"":""3"",""Q09"":""4"",""Q10"":""4""}","[0,1,2,3,4,5,6,7,8,9]","[""Q01"",""Q02"",""Q03"",""Q04"",""Q05"",""Q06"",""Q07"",""Q08"",""Q09"",""Q10""]","[7101.699999988079,10033.699999988079,11263.400000035763,12576.400000035763,15269.5,17286.900000035763,19514,25192.5,29609.600000023842,33772.30000001192]","[]","[7101.699999988079,10033.699999988079,11263.400000035763,12576.400000035763,15269.5,17286.900000035763,19514,25192.5,29609.600000023842,33772.30000001192,35279.60000002384]","0.7","0.4444444444444444","0","","","","","","","","","","","","","","","","","","","","","","","","","","","",""
"","","","preload","6","98451","0.0-5.0","3","3","4","3","2","3","3","3","4","4","4","2","2","3","2","4","2","3","4","4","4","4","3","2","2","2","4","3","4","1","1","1","0","1","1","1","1","0","1","1","0","1","0","1","3","4","4","2","4","4","4","4","5","4","730025585505734658","陈","349","","true","","","","","","","","","","","false","[]","[]","[]","","","","","","","","","","","","","","","","","","","","","","","",""
"12755","
    <h3>词语分类任务</h3>
    <p>在接下来的任务中，你需要对一系列词语进行分类。<p/>
    请先熟悉这些词语，这有利于你完成接下来的任务。</p>
    <table align=""center"" border=1 cellpadding=3 cellspacing=0>
    <tr> <th>类别</th> <th>词语</th> </tr>
    <tr> <td>&emsp;积极&emsp;</td> <td>&emsp;高尚、诚信、善良、君子、廉正、正直&emsp;</td> </tr>
    <tr> <td>&emsp;消极&emsp;</td> <td>&emsp;缺德、卑鄙、不孝、不仁、小人、黑心&emsp;</td> </tr>
    <tr> <td>&emsp;自我&emsp;</td> <td>&emsp;我、我的、自己、自己的、本人、本人的&emsp;</td> </tr>
    <tr> <td>&emsp;他人&emsp;</td> <td>&emsp;他、他的、别人、别人的、他人、他人的&emsp;</td> </tr>
    </table><br/>","0","html-button-response","7","111207","0.0-6.0-1.0-0.0","3","3","4","3","2","3","3","3","4","4","4","2","2","3","2","4","2","3","4","4","4","4","3","2","2","2","4","3","4","1","1","1","0","1","1","1","1","0","1","1","0","1","0","1","3","4","4","2","4","4","4","4","5","4","730025585505734658","陈","349","","","","","","","","","","","","","","","","","2","1","","","","","","","","","","","","","","","","","","","","","",""
"31597","
    <div class=""tag-bottom""><p>
    —— 任务1：对“自我”词和“他人”词分类 ——<p/>
    不同词语会出现在屏幕中央，类别标签将始终显示在屏幕上方<p/>   
    <span style=""color:#FFD866""><b>请根据上方标签的提示，尽可能正确并且快速地做出按键反应</b></span><p/>
    当按键错误时屏幕中会出现<span style=""color:red""> X </span>，需要按另一个键纠正才能继续<br/><p/>
    请把双手食指分别放在键盘的“E”键和“I”键上<p/>
    按<空格键>开始
    </p></div>"," ","html-keyboard-response","8","142807","0.0-6.0-1.0-1.0","3","3","4","3","2","3","3","3","4","4","4","2","2","3","2","4","2","3","4","4","4","4","3","2","2","2","4","3","4","1","1","1","0","1","1","1","1","0","1","1","0","1","0","1","3","4","4","2","4","4","4","4","5","4","730025585505734658","陈","349","","","","","","","","","","","","","","","","","","","","","","","","","","","","","","","","","","","","","","","",""
"null","","null","html-keyboard-response","9","143058","0.0-6.0-1.0-2.0-0.0","3","3","4","3","2","3","3","3","4","4","4","2","2","3","2","4","2","3","4","4","4","4","3","2","2","2","4","3","4","1","1","1","0","1","1","1","1","0","1","1","0","1","0","1","3","4","4","2","4","4","4","4","5","4","730025585505734658","陈","349","","","","","","","","","","","","","","","","","","","","","","","","","","","","","","","","","","","","","","","",""
"904","<p style=""color:rgb(150, 250, 100); font-size: 35px;"">他的</p>","i","categorize-html","10","143965","0.0-6.0-1.0-2.0-1.0","3","3","4","3","2","3","3","3","4","4","4","2","2","3","2","4","2","3","4","4","4","4","3","2","2","2","4","3","4","1","1","1","0","1","1","1","1","0","1","1","0","1","0","1","3","4","4","2","4","4","4","4","5","4","730025585505734658","陈","349","","","","","","","","","","","","","","","","","","","true","11","1","moral","904","other","他的","","","","","","","","","","","","","","",""
"null","","null","html-keyboard-response","11","144219","0.0-6.0-1.0-2.0-0.1","3","3","4","3","2","3","3","3","4","4","4","2","2","3","2","4","2","3","4","4","4","4","3","2","2","2","4","3","4","1","1","1","0","1","1","1","1","0","1","1","0","1","0","1","3","4","4","2","4","4","4","4","5","4","730025585505734658","陈","349","","","","","","","","","","","","","","","","","","","","","","","","","","","","","","","","","","","","","","","",""
"572","<p style=""color:rgb(150, 250, 100); font-size: 35px;"">别人的</p>","i","categorize-html","12","144792","0.0-6.0-1.0-2.0-1.1","3","3","4","3","2","3","3","3","4","4","4","2","2","3","2","4","2","3","4","4","4","4","3","2","2","2","4","3","4","1","1","1","0","1","1","1","1","0","1","1","0","1","0","1","3","4","4","2","4","4","4","4","5","4","730025585505734658","陈","349","","","","","","","","","","","","","","","","","","","true","11","1","moral","572","other","别人的","","","","","","","","","","","","","","",""
"null","","null","html-keyboard-response","13","145057","0.0-6.0-1.0-2.0-0.2","3","3","4","3","2","3","3","3","4","4","4","2","2","3","2","4","2","3","4","4","4","4","3","2","2","2","4","3","4","1","1","1","0","1","1","1","1","0","1","1","0","1","0","1","3","4","4","2","4","4","4","4","5","4","730025585505734658","陈","349","","","","","","","","","","","","","","","","","","","","","","","","","","","","","","","","","","","","","","","",""
"465","<p style=""color:rgb(150, 250, 100); font-size: 35px;"">自己</p>","e","categorize-html","14","145523","0.0-6.0-1.0-2.0-1.2","3","3","4","3","2","3","3","3","4","4","4","2","2","3","2","4","2","3","4","4","4","4","3","2","2","2","4","3","4","1","1","1","0","1","1","1","1","0","1","1","0","1","0","1","3","4","4","2","4","4","4","4","5","4","730025585505734658","陈","349","","","","","","","","","","","","","","","","","","","true","11","1","moral","465","self","自己","","","","","","","","","","","","","","",""
"null","","null","html-keyboard-response","15","145779","0.0-6.0-1.0-2.0-0.3","3","3","4","3","2","3","3","3","4","4","4","2","2","3","2","4","2","3","4","4","4","4","3","2","2","2","4","3","4","1","1","1","0","1","1","1","1","0","1","1","0","1","0","1","3","4","4","2","4","4","4","4","5","4","730025585505734658","陈","349","","","","","","","","","","","","","","","","","","","","","","","","","","","","","","","","","","","","","","","",""
"515","<p style=""color:rgb(150, 250, 100); font-size: 35px;"">本人的</p>","e","categorize-html","16","146295","0.0-6.0-1.0-2.0-1.3","3","3","4","3","2","3","3","3","4","4","4","2","2","3","2","4","2","3","4","4","4","4","3","2","2","2","4","3","4","1","1","1","0","1","1","1","1","0","1","1","0","1","0","1","3","4","4","2","4","4","4","4","5","4","730025585505734658","陈","349","","","","","","","","","","","","","","","","","","","true","11","1","moral","515","self","本人的","","","","","","","","","","","","","","",""
"null","","null","html-keyboard-response","17","146546","0.0-6.0-1.0-2.0-0.4","3","3","4","3","2","3","3","3","4","4","4","2","2","3","2","4","2","3","4","4","4","4","3","2","2","2","4","3","4","1","1","1","0","1","1","1","1","0","1","1","0","1","0","1","3","4","4","2","4","4","4","4","5","4","730025585505734658","陈","349","","","","","","","","","","","","","","","","","","","","","","","","","","","","","","","","","","","","","","","",""
"491","<p style=""color:rgb(150, 250, 100); font-size: 35px;"">我</p>","e","categorize-html","18","147039","0.0-6.0-1.0-2.0-1.4","3","3","4","3","2","3","3","3","4","4","4","2","2","3","2","4","2","3","4","4","4","4","3","2","2","2","4","3","4","1","1","1","0","1","1","1","1","0","1","1","0","1","0","1","3","4","4","2","4","4","4","4","5","4","730025585505734658","陈","349","","","","","","","","","","","","","","","","","","","true","11","1","moral","491","self","我","","","","","","","","","","","","","","",""
"null","","null","html-keyboard-response","19","147290","0.0-6.0-1.0-2.0-0.5","3","3","4","3","2","3","3","3","4","4","4","2","2","3","2","4","2","3","4","4","4","4","3","2","2","2","4","3","4","1","1","1","0","1","1","1","1","0","1","1","0","1","0","1","3","4","4","2","4","4","4","4","5","4","730025585505734658","陈","349","","","","","","","","","","","","","","","","","","","","","","","","","","","","","","","","","","","","","","","",""
"445","<p style=""color:rgb(150, 250, 100); font-size: 35px;"">他人</p>","i","categorize-html","20","147737","0.0-6.0-1.0-2.0-1.5","3","3","4","3","2","3","3","3","4","4","4","2","2","3","2","4","2","3","4","4","4","4","3","2","2","2","4","3","4","1","1","1","0","1","1","1","1","0","1","1","0","1","0","1","3","4","4","2","4","4","4","4","5","4","730025585505734658","陈","349","","","","","","","","","","","","","","","","","","","true","11","1","moral","445","other","他人","","","","","","","","","","","","","","",""
"null","","null","html-keyboard-response","21","147988","0.0-6.0-1.0-2.0-0.6","3","3","4","3","2","3","3","3","4","4","4","2","2","3","2","4","2","3","4","4","4","4","3","2","2","2","4","3","4","1","1","1","0","1","1","1","1","0","1","1","0","1","0","1","3","4","4","2","4","4","4","4","5","4","730025585505734658","陈","349","","","","","","","","","","","","","","","","","","","","","","","","","","","","","","","","","","","","","","","",""
"455","<p style=""color:rgb(150, 250, 100); font-size: 35px;"">别人</p>","i","categorize-html","22","148445","0.0-6.0-1.0-2.0-1.6","3","3","4","3","2","3","3","3","4","4","4","2","2","3","2","4","2","3","4","4","4","4","3","2","2","2","4","3","4","1","1","1","0","1","1","1","1","0","1","1","0","1","0","1","3","4","4","2","4","4","4","4","5","4","730025585505734658","陈","349","","","","","","","","","","","","","","","","","","","true","11","1","moral","455","other","别人","","","","","","","","","","","","","","",""
"null","","null","html-keyboard-response","23","148696","0.0-6.0-1.0-2.0-0.7","3","3","4","3","2","3","3","3","4","4","4","2","2","3","2","4","2","3","4","4","4","4","3","2","2","2","4","3","4","1","1","1","0","1","1","1","1","0","1","1","0","1","0","1","3","4","4","2","4","4","4","4","5","4","730025585505734658","陈","349","","","","","","","","","","","","","","","","","","","","","","","","","","","","","","","","","","","","","","","",""
"374","<p style=""color:rgb(150, 250, 100); font-size: 35px;"">我的</p>","e","categorize-html","24","149074","0.0-6.0-1.0-2.0-1.7","3","3","4","3","2","3","3","3","4","4","4","2","2","3","2","4","2","3","4","4","4","4","3","2","2","2","4","3","4","1","1","1","0","1","1","1","1","0","1","1","0","1","0","1","3","4","4","2","4","4","4","4","5","4","730025585505734658","陈","349","","","","","","","","","","","","","","","","","","","true","11","1","moral","374","self","我的","","","","","","","","","","","","","","",""
"null","","null","html-keyboard-response","25","149325","0.0-6.0-1.0-2.0-0.8","3","3","4","3","2","3","3","3","4","4","4","2","2","3","2","4","2","3","4","4","4","4","3","2","2","2","4","3","4","1","1","1","0","1","1","1","1","0","1","1","0","1","0","1","3","4","4","2","4","4","4","4","5","4","730025585505734658","陈","349","","","","","","","","","","","","","","","","","","","","","","","","","","","","","","","","","","","","","","","",""
"410","<p style=""color:rgb(150, 250, 100); font-size: 35px;"">他</p>","i","categorize-html","26","149736","0.0-6.0-1.0-2.0-1.8","3","3","4","3","2","3","3","3","4","4","4","2","2","3","2","4","2","3","4","4","4","4","3","2","2","2","4","3","4","1","1","1","0","1","1","1","1","0","1","1","0","1","0","1","3","4","4","2","4","4","4","4","5","4","730025585505734658","陈","349","","","","","","","","","","","","","","","","","","","true","11","1","moral","410","other","他","","","","","","","","","","","","","","",""
"null","","null","html-keyboard-response","27","149988","0.0-6.0-1.0-2.0-0.9","3","3","4","3","2","3","3","3","4","4","4","2","2","3","2","4","2","3","4","4","4","4","3","2","2","2","4","3","4","1","1","1","0","1","1","1","1","0","1","1","0","1","0","1","3","4","4","2","4","4","4","4","5","4","730025585505734658","陈","349","","","","","","","","","","","","","","","","","","","","","","","","","","","","","","","","","","","","","","","",""
"394","<p style=""color:rgb(150, 250, 100); font-size: 35px;"">自己的</p>","e","categorize-html","28","150383","0.0-6.0-1.0-2.0-1.9","3","3","4","3","2","3","3","3","4","4","4","2","2","3","2","4","2","3","4","4","4","4","3","2","2","2","4","3","4","1","1","1","0","1","1","1","1","0","1","1","0","1","0","1","3","4","4","2","4","4","4","4","5","4","730025585505734658","陈","349","","","","","","","","","","","","","","","","","","","true","11","1","moral","394","self","自己的","","","","","","","","","","","","","","",""
"null","","null","html-keyboard-response","29","150635","0.0-6.0-1.0-2.0-0.10","3","3","4","3","2","3","3","3","4","4","4","2","2","3","2","4","2","3","4","4","4","4","3","2","2","2","4","3","4","1","1","1","0","1","1","1","1","0","1","1","0","1","0","1","3","4","4","2","4","4","4","4","5","4","730025585505734658","陈","349","","","","","","","","","","","","","","","","","","","","","","","","","","","","","","","","","","","","","","","",""
"399","<p style=""color:rgb(150, 250, 100); font-size: 35px;"">他人的</p>","e","categorize-html","30","151620","0.0-6.0-1.0-2.0-1.10","3","3","4","3","2","3","3","3","4","4","4","2","2","3","2","4","2","3","4","4","4","4","3","2","2","2","4","3","4","1","1","1","0","1","1","1","1","0","1","1","0","1","0","1","3","4","4","2","4","4","4","4","5","4","730025585505734658","陈","349","","","","","","","","","","","","","","","","","","","false","11","1","moral","399","other","他人的","","","","","","","","","","","","","","",""
"null","","null","html-keyboard-response","31","151871","0.0-6.0-1.0-2.0-0.11","3","3","4","3","2","3","3","3","4","4","4","2","2","3","2","4","2","3","4","4","4","4","3","2","2","2","4","3","4","1","1","1","0","1","1","1","1","0","1","1","0","1","0","1","3","4","4","2","4","4","4","4","5","4","730025585505734658","陈","349","","","","","","","","","","","","","","","","","","","","","","","","","","","","","","","","","","","","","","","",""
"530","<p style=""color:rgb(150, 250, 100); font-size: 35px;"">本人</p>","e","categorize-html","32","152402","0.0-6.0-1.0-2.0-1.11","3","3","4","3","2","3","3","3","4","4","4","2","2","3","2","4","2","3","4","4","4","4","3","2","2","2","4","3","4","1","1","1","0","1","1","1","1","0","1","1","0","1","0","1","3","4","4","2","4","4","4","4","5","4","730025585505734658","陈","349","","","","","","","","","","","","","","","","","","","true","11","1","moral","530","self","本人","","","","","","","","","","","","","","",""
"7323","
    <div class=""tag-bottom""><p>
    —— 任务2：对“消极”词和“积极”词分类 ——<p/>   
    <span style=""color:#78DCE8""><b>注意上方，类别标签和需要分类的词语都已经改变</b></span><p/>
    <span style=""color:#FFD866""><b>请根据上方标签的提示，尽可能正确并且快速地做出按键反应</b></span><p/>
    当按键错误时屏幕中会出现<span style=""color:red""> X </span>，需要按另一个键纠正才能继续<br/><p/>
    请把双手食指分别放在键盘的“E”键和“I”键上<p/>
    按<空格键>开始
    </p></div>"," ","html-keyboard-response","33","159725","0.0-6.0-1.0-3.0","3","3","4","3","2","3","3","3","4","4","4","2","2","3","2","4","2","3","4","4","4","4","3","2","2","2","4","3","4","1","1","1","0","1","1","1","1","0","1","1","0","1","0","1","3","4","4","2","4","4","4","4","5","4","730025585505734658","陈","349","","","","","","","","","","","","","","","","","","","","","","","","","","","","","","","","","","","","","","","",""
"null","","null","html-keyboard-response","34","159977","0.0-6.0-1.0-4.0-0.0","3","3","4","3","2","3","3","3","4","4","4","2","2","3","2","4","2","3","4","4","4","4","3","2","2","2","4","3","4","1","1","1","0","1","1","1","1","0","1","1","0","1","0","1","3","4","4","2","4","4","4","4","5","4","730025585505734658","陈","349","","","","","","","","","","","","","","","","","","","","","","","","","","","","","","","","","","","","","","","",""
"737","<p style=""color:white; font-size: 35px;"">高尚</p>","i","categorize-html","35","160715","0.0-6.0-1.0-4.0-1.0","3","3","4","3","2","3","3","3","4","4","4","2","2","3","2","4","2","3","4","4","4","4","3","2","2","2","4","3","4","1","1","1","0","1","1","1","1","0","1","1","0","1","0","1","3","4","4","2","4","4","4","4","5","4","730025585505734658","陈","349","","","","","","","","","","","","","","","","","","","true","12","2","moral","737","positive","高尚","","","","","","","","","","","","","","",""
"null","","null","html-keyboard-response","36","160967","0.0-6.0-1.0-4.0-0.1","3","3","4","3","2","3","3","3","4","4","4","2","2","3","2","4","2","3","4","4","4","4","3","2","2","2","4","3","4","1","1","1","0","1","1","1","1","0","1","1","0","1","0","1","3","4","4","2","4","4","4","4","5","4","730025585505734658","陈","349","","","","","","","","","","","","","","","","","","","","","","","","","","","","","","","","","","","","","","","",""
"574","<p style=""color:white; font-size: 35px;"">缺德</p>","e","categorize-html","37","161541","0.0-6.0-1.0-4.0-1.1","3","3","4","3","2","3","3","3","4","4","4","2","2","3","2","4","2","3","4","4","4","4","3","2","2","2","4","3","4","1","1","1","0","1","1","1","1","0","1","1","0","1","0","1","3","4","4","2","4","4","4","4","5","4","730025585505734658","陈","349","","","","","","","","","","","","","","","","","","","true","12","2","moral","574","negative","缺德","","","","","","","","","","","","","","",""
"null","","null","html-keyboard-response","38","161807","0.0-6.0-1.0-4.0-0.2","3","3","4","3","2","3","3","3","4","4","4","2","2","3","2","4","2","3","4","4","4","4","3","2","2","2","4","3","4","1","1","1","0","1","1","1","1","0","1","1","0","1","0","1","3","4","4","2","4","4","4","4","5","4","730025585505734658","陈","349","","","","","","","","","","","","","","","","","","","","","","","","","","","","","","","","","","","","","","","",""
"699","<p style=""color:white; font-size: 35px;"">卑鄙</p>","e","categorize-html","39","162507","0.0-6.0-1.0-4.0-1.2","3","3","4","3","2","3","3","3","4","4","4","2","2","3","2","4","2","3","4","4","4","4","3","2","2","2","4","3","4","1","1","1","0","1","1","1","1","0","1","1","0","1","0","1","3","4","4","2","4","4","4","4","5","4","730025585505734658","陈","349","","","","","","","","","","","","","","","","","","","true","12","2","moral","699","negative","卑鄙","","","","","","","","","","","","","","",""
"null","","null","html-keyboard-response","40","162759","0.0-6.0-1.0-4.0-0.3","3","3","4","3","2","3","3","3","4","4","4","2","2","3","2","4","2","3","4","4","4","4","3","2","2","2","4","3","4","1","1","1","0","1","1","1","1","0","1","1","0","1","0","1","3","4","4","2","4","4","4","4","5","4","730025585505734658","陈","349","","","","","","","","","","","","","","","","","","","","","","","","","","","","","","","","","","","","","","","",""
"599","<p style=""color:white; font-size: 35px;"">廉正</p>","i","categorize-html","41","163359","0.0-6.0-1.0-4.0-1.3","3","3","4","3","2","3","3","3","4","4","4","2","2","3","2","4","2","3","4","4","4","4","3","2","2","2","4","3","4","1","1","1","0","1","1","1","1","0","1","1","0","1","0","1","3","4","4","2","4","4","4","4","5","4","730025585505734658","陈","349","","","","","","","","","","","","","","","","","","","true","12","2","moral","599","positive","廉正","","","","","","","","","","","","","","",""
"null","","null","html-keyboard-response","42","163611","0.0-6.0-1.0-4.0-0.4","3","3","4","3","2","3","3","3","4","4","4","2","2","3","2","4","2","3","4","4","4","4","3","2","2","2","4","3","4","1","1","1","0","1","1","1","1","0","1","1","0","1","0","1","3","4","4","2","4","4","4","4","5","4","730025585505734658","陈","349","","","","","","","","","","","","","","","","","","","","","","","","","","","","","","","","","","","","","","","",""
"630","<p style=""color:white; font-size: 35px;"">诚信</p>","i","categorize-html","43","164242","0.0-6.0-1.0-4.0-1.4","3","3","4","3","2","3","3","3","4","4","4","2","2","3","2","4","2","3","4","4","4","4","3","2","2","2","4","3","4","1","1","1","0","1","1","1","1","0","1","1","0","1","0","1","3","4","4","2","4","4","4","4","5","4","730025585505734658","陈","349","","","","","","","","","","","","","","","","","","","true","12","2","moral","630","positive","诚信","","","","","","","","","","","","","","",""
"null","","null","html-keyboard-response","44","164494","0.0-6.0-1.0-4.0-0.5","3","3","4","3","2","3","3","3","4","4","4","2","2","3","2","4","2","3","4","4","4","4","3","2","2","2","4","3","4","1","1","1","0","1","1","1","1","0","1","1","0","1","0","1","3","4","4","2","4","4","4","4","5","4","730025585505734658","陈","349","","","","","","","","","","","","","","","","","","","","","","","","","","","","","","","","","","","","","","","",""
"693","<p style=""color:white; font-size: 35px;"">不仁</p>","e","categorize-html","45","165188","0.0-6.0-1.0-4.0-1.5","3","3","4","3","2","3","3","3","4","4","4","2","2","3","2","4","2","3","4","4","4","4","3","2","2","2","4","3","4","1","1","1","0","1","1","1","1","0","1","1","0","1","0","1","3","4","4","2","4","4","4","4","5","4","730025585505734658","陈","349","","","","","","","","","","","","","","","","","","","true","12","2","moral","693","negative","不仁","","","","","","","","","","","","","","",""
"null","","null","html-keyboard-response","46","165439","0.0-6.0-1.0-4.0-0.6","3","3","4","3","2","3","3","3","4","4","4","2","2","3","2","4","2","3","4","4","4","4","3","2","2","2","4","3","4","1","1","1","0","1","1","1","1","0","1","1","0","1","0","1","3","4","4","2","4","4","4","4","5","4","730025585505734658","陈","349","","","","","","","","","","","","","","","","","","","","","","","","","","","","","","","","","","","","","","","",""
"581","<p style=""color:white; font-size: 35px;"">正直</p>","i","categorize-html","47","166021","0.0-6.0-1.0-4.0-1.6","3","3","4","3","2","3","3","3","4","4","4","2","2","3","2","4","2","3","4","4","4","4","3","2","2","2","4","3","4","1","1","1","0","1","1","1","1","0","1","1","0","1","0","1","3","4","4","2","4","4","4","4","5","4","730025585505734658","陈","349","","","","","","","","","","","","","","","","","","","true","12","2","moral","581","positive","正直","","","","","","","","","","","","","","",""
"null","","null","html-keyboard-response","48","166272","0.0-6.0-1.0-4.0-0.7","3","3","4","3","2","3","3","3","4","4","4","2","2","3","2","4","2","3","4","4","4","4","3","2","2","2","4","3","4","1","1","1","0","1","1","1","1","0","1","1","0","1","0","1","3","4","4","2","4","4","4","4","5","4","730025585505734658","陈","349","","","","","","","","","","","","","","","","","","","","","","","","","","","","","","","","","","","","","","","",""
"619","<p style=""color:white; font-size: 35px;"">黑心</p>","e","categorize-html","49","166892","0.0-6.0-1.0-4.0-1.7","3","3","4","3","2","3","3","3","4","4","4","2","2","3","2","4","2","3","4","4","4","4","3","2","2","2","4","3","4","1","1","1","0","1","1","1","1","0","1","1","0","1","0","1","3","4","4","2","4","4","4","4","5","4","730025585505734658","陈","349","","","","","","","","","","","","","","","","","","","true","12","2","moral","619","negative","黑心","","","","","","","","","","","","","","",""
"null","","null","html-keyboard-response","50","167154","0.0-6.0-1.0-4.0-0.8","3","3","4","3","2","3","3","3","4","4","4","2","2","3","2","4","2","3","4","4","4","4","3","2","2","2","4","3","4","1","1","1","0","1","1","1","1","0","1","1","0","1","0","1","3","4","4","2","4","4","4","4","5","4","730025585505734658","陈","349","","","","","","","","","","","","","","","","","","","","","","","","","","","","","","","","","","","","","","","",""
"613","<p style=""color:white; font-size: 35px;"">君子</p>","i","categorize-html","51","167768","0.0-6.0-1.0-4.0-1.8","3","3","4","3","2","3","3","3","4","4","4","2","2","3","2","4","2","3","4","4","4","4","3","2","2","2","4","3","4","1","1","1","0","1","1","1","1","0","1","1","0","1","0","1","3","4","4","2","4","4","4","4","5","4","730025585505734658","陈","349","","","","","","","","","","","","","","","","","","","true","12","2","moral","613","positive","君子","","","","","","","","","","","","","","",""
"null","","null","html-keyboard-response","52","168019","0.0-6.0-1.0-4.0-0.9","3","3","4","3","2","3","3","3","4","4","4","2","2","3","2","4","2","3","4","4","4","4","3","2","2","2","4","3","4","1","1","1","0","1","1","1","1","0","1","1","0","1","0","1","3","4","4","2","4","4","4","4","5","4","730025585505734658","陈","349","","","","","","","","","","","","","","","","","","","","","","","","","","","","","","","","","","","","","","","",""
"569","<p style=""color:white; font-size: 35px;"">善良</p>","i","categorize-html","53","168589","0.0-6.0-1.0-4.0-1.9","3","3","4","3","2","3","3","3","4","4","4","2","2","3","2","4","2","3","4","4","4","4","3","2","2","2","4","3","4","1","1","1","0","1","1","1","1","0","1","1","0","1","0","1","3","4","4","2","4","4","4","4","5","4","730025585505734658","陈","349","","","","","","","","","","","","","","","","","","","true","12","2","moral","569","positive","善良","","","","","","","","","","","","","","",""
"null","","null","html-keyboard-response","54","168840","0.0-6.0-1.0-4.0-0.10","3","3","4","3","2","3","3","3","4","4","4","2","2","3","2","4","2","3","4","4","4","4","3","2","2","2","4","3","4","1","1","1","0","1","1","1","1","0","1","1","0","1","0","1","3","4","4","2","4","4","4","4","5","4","730025585505734658","陈","349","","","","","","","","","","","","","","","","","","","","","","","","","","","","","","","","","","","","","","","",""
"609","<p style=""color:white; font-size: 35px;"">小人</p>","e","categorize-html","55","169451","0.0-6.0-1.0-4.0-1.10","3","3","4","3","2","3","3","3","4","4","4","2","2","3","2","4","2","3","4","4","4","4","3","2","2","2","4","3","4","1","1","1","0","1","1","1","1","0","1","1","0","1","0","1","3","4","4","2","4","4","4","4","5","4","730025585505734658","陈","349","","","","","","","","","","","","","","","","","","","true","12","2","moral","609","negative","小人","","","","","","","","","","","","","","",""
"null","","null","html-keyboard-response","56","169701","0.0-6.0-1.0-4.0-0.11","3","3","4","3","2","3","3","3","4","4","4","2","2","3","2","4","2","3","4","4","4","4","3","2","2","2","4","3","4","1","1","1","0","1","1","1","1","0","1","1","0","1","0","1","3","4","4","2","4","4","4","4","5","4","730025585505734658","陈","349","","","","","","","","","","","","","","","","","","","","","","","","","","","","","","","","","","","","","","","",""
"783","<p style=""color:white; font-size: 35px;"">不孝</p>","e","categorize-html","57","170485","0.0-6.0-1.0-4.0-1.11","3","3","4","3","2","3","3","3","4","4","4","2","2","3","2","4","2","3","4","4","4","4","3","2","2","2","4","3","4","1","1","1","0","1","1","1","1","0","1","1","0","1","0","1","3","4","4","2","4","4","4","4","5","4","730025585505734658","陈","349","","","","","","","","","","","","","","","","","","","true","12","2","moral","783","negative","不孝","","","","","","","","","","","","","","",""
"9909","
    <div class=""tag-bottom""><p>
    —— 任务3：对“自我/消极”词和“他人/积极”词分类 ——<p/>
    <span style=""color:#78DCE8""><b>注意上方，之前的四类词语将混合在一起交替呈现</b></span><p/>
    <span style=""color:#FFD866""><b>请根据上方标签的提示，尽可能正确并且快速地做出按键反应</b></span><p/>
    当按键错误时屏幕中会出现<span style=""color:red""> X </span>，需要按另一个键纠正才能继续<br/><p/>
    请把双手食指分别放在键盘的“E”键和“I”键上<p/>
    按<空格键>开始
    </p></div>"," ","html-keyboard-response","58","180395","0.0-6.0-1.0-5.0","3","3","4","3","2","3","3","3","4","4","4","2","2","3","2","4","2","3","4","4","4","4","3","2","2","2","4","3","4","1","1","1","0","1","1","1","1","0","1","1","0","1","0","1","3","4","4","2","4","4","4","4","5","4","730025585505734658","陈","349","","","","","","","","","","","","","","","","","","","","","","","","","","","","","","","","","","","","","","","",""
"null","","null","html-keyboard-response","59","180646","0.0-6.0-1.0-6.0-0.0","3","3","4","3","2","3","3","3","4","4","4","2","2","3","2","4","2","3","4","4","4","4","3","2","2","2","4","3","4","1","1","1","0","1","1","1","1","0","1","1","0","1","0","1","3","4","4","2","4","4","4","4","5","4","730025585505734658","陈","349","","","","","","","","","","","","","","","","","","","","","","","","","","","","","","","","","","","","","","","",""
"967","<p style=""color:rgb(150, 250, 100); font-size: 35px;"">自己</p>","e","categorize-html","60","181615","0.0-6.0-1.0-6.0-1.0","3","3","4","3","2","3","3","3","4","4","4","2","2","3","2","4","2","3","4","4","4","4","3","2","2","2","4","3","4","1","1","1","0","1","1","1","1","0","1","1","0","1","0","1","3","4","4","2","4","4","4","4","5","4","730025585505734658","陈","349","","","","","","","","","","","","","","","","","","","true","13","3","moral","967","self","自己","","","","","","","","","","","","","","",""
"null","","null","html-keyboard-response","61","181866","0.0-6.0-1.0-6.0-0.1","3","3","4","3","2","3","3","3","4","4","4","2","2","3","2","4","2","3","4","4","4","4","3","2","2","2","4","3","4","1","1","1","0","1","1","1","1","0","1","1","0","1","0","1","3","4","4","2","4","4","4","4","5","4","730025585505734658","陈","349","","","","","","","","","","","","","","","","","","","","","","","","","","","","","","","","","","","","","","","",""
"728","<p style=""color:white; font-size: 35px;"">廉正</p>","i","categorize-html","62","182596","0.0-6.0-1.0-6.0-1.1","3","3","4","3","2","3","3","3","4","4","4","2","2","3","2","4","2","3","4","4","4","4","3","2","2","2","4","3","4","1","1","1","0","1","1","1","1","0","1","1","0","1","0","1","3","4","4","2","4","4","4","4","5","4","730025585505734658","陈","349","","","","","","","","","","","","","","","","","","","true","13","3","moral","728","positive","廉正","","","","","","","","","","","","","","",""
"null","","null","html-keyboard-response","63","182848","0.0-6.0-1.0-6.0-0.2","3","3","4","3","2","3","3","3","4","4","4","2","2","3","2","4","2","3","4","4","4","4","3","2","2","2","4","3","4","1","1","1","0","1","1","1","1","0","1","1","0","1","0","1","3","4","4","2","4","4","4","4","5","4","730025585505734658","陈","349","","","","","","","","","","","","","","","","","","","","","","","","","","","","","","","","","","","","","","","",""
"1011","<p style=""color:rgb(150, 250, 100); font-size: 35px;"">他</p>","i","categorize-html","64","183861","0.0-6.0-1.0-6.0-1.2","3","3","4","3","2","3","3","3","4","4","4","2","2","3","2","4","2","3","4","4","4","4","3","2","2","2","4","3","4","1","1","1","0","1","1","1","1","0","1","1","0","1","0","1","3","4","4","2","4","4","4","4","5","4","730025585505734658","陈","349","","","","","","","","","","","","","","","","","","","true","13","3","moral","1011","other","他","","","","","","","","","","","","","","",""
"null","","null","html-keyboard-response","65","184113","0.0-6.0-1.0-6.0-0.3","3","3","4","3","2","3","3","3","4","4","4","2","2","3","2","4","2","3","4","4","4","4","3","2","2","2","4","3","4","1","1","1","0","1","1","1","1","0","1","1","0","1","0","1","3","4","4","2","4","4","4","4","5","4","730025585505734658","陈","349","","","","","","","","","","","","","","","","","","","","","","","","","","","","","","","","","","","","","","","",""
"660","<p style=""color:white; font-size: 35px;"">缺德</p>","e","categorize-html","66","184774","0.0-6.0-1.0-6.0-1.3","3","3","4","3","2","3","3","3","4","4","4","2","2","3","2","4","2","3","4","4","4","4","3","2","2","2","4","3","4","1","1","1","0","1","1","1","1","0","1","1","0","1","0","1","3","4","4","2","4","4","4","4","5","4","730025585505734658","陈","349","","","","","","","","","","","","","","","","","","","true","13","3","moral","660","negative","缺德","","","","","","","","","","","","","","",""
"null","","null","html-keyboard-response","67","185025","0.0-6.0-1.0-6.0-0.4","3","3","4","3","2","3","3","3","4","4","4","2","2","3","2","4","2","3","4","4","4","4","3","2","2","2","4","3","4","1","1","1","0","1","1","1","1","0","1","1","0","1","0","1","3","4","4","2","4","4","4","4","5","4","730025585505734658","陈","349","","","","","","","","","","","","","","","","","","","","","","","","","","","","","","","","","","","","","","","",""
"649","<p style=""color:rgb(150, 250, 100); font-size: 35px;"">自己的</p>","e","categorize-html","68","185675","0.0-6.0-1.0-6.0-1.4","3","3","4","3","2","3","3","3","4","4","4","2","2","3","2","4","2","3","4","4","4","4","3","2","2","2","4","3","4","1","1","1","0","1","1","1","1","0","1","1","0","1","0","1","3","4","4","2","4","4","4","4","5","4","730025585505734658","陈","349","","","","","","","","","","","","","","","","","","","true","13","3","moral","649","self","自己的","","","","","","","","","","","","","","",""
"null","","null","html-keyboard-response","69","185926","0.0-6.0-1.0-6.0-0.5","3","3","4","3","2","3","3","3","4","4","4","2","2","3","2","4","2","3","4","4","4","4","3","2","2","2","4","3","4","1","1","1","0","1","1","1","1","0","1","1","0","1","0","1","3","4","4","2","4","4","4","4","5","4","730025585505734658","陈","349","","","","","","","","","","","","","","","","","","","","","","","","","","","","","","","","","","","","","","","",""
"816","<p style=""color:white; font-size: 35px;"">君子</p>","i","categorize-html","70","186743","0.0-6.0-1.0-6.0-1.5","3","3","4","3","2","3","3","3","4","4","4","2","2","3","2","4","2","3","4","4","4","4","3","2","2","2","4","3","4","1","1","1","0","1","1","1","1","0","1","1","0","1","0","1","3","4","4","2","4","4","4","4","5","4","730025585505734658","陈","349","","","","","","","","","","","","","","","","","","","true","13","3","moral","816","positive","君子","","","","","","","","","","","","","","",""
"null","","null","html-keyboard-response","71","186995","0.0-6.0-1.0-6.0-0.6","3","3","4","3","2","3","3","3","4","4","4","2","2","3","2","4","2","3","4","4","4","4","3","2","2","2","4","3","4","1","1","1","0","1","1","1","1","0","1","1","0","1","0","1","3","4","4","2","4","4","4","4","5","4","730025585505734658","陈","349","","","","","","","","","","","","","","","","","","","","","","","","","","","","","","","","","","","","","","","",""
"519","<p style=""color:rgb(150, 250, 100); font-size: 35px;"">他人的</p>","i","categorize-html","72","187515","0.0-6.0-1.0-6.0-1.6","3","3","4","3","2","3","3","3","4","4","4","2","2","3","2","4","2","3","4","4","4","4","3","2","2","2","4","3","4","1","1","1","0","1","1","1","1","0","1","1","0","1","0","1","3","4","4","2","4","4","4","4","5","4","730025585505734658","陈","349","","","","","","","","","","","","","","","","","","","true","13","3","moral","519","other","他人的","","","","","","","","","","","","","","",""
"null","","null","html-keyboard-response","73","187766","0.0-6.0-1.0-6.0-0.7","3","3","4","3","2","3","3","3","4","4","4","2","2","3","2","4","2","3","4","4","4","4","3","2","2","2","4","3","4","1","1","1","0","1","1","1","1","0","1","1","0","1","0","1","3","4","4","2","4","4","4","4","5","4","730025585505734658","陈","349","","","","","","","","","","","","","","","","","","","","","","","","","","","","","","","","","","","","","","","",""
"805","<p style=""color:white; font-size: 35px;"">卑鄙</p>","e","categorize-html","74","188572","0.0-6.0-1.0-6.0-1.7","3","3","4","3","2","3","3","3","4","4","4","2","2","3","2","4","2","3","4","4","4","4","3","2","2","2","4","3","4","1","1","1","0","1","1","1","1","0","1","1","0","1","0","1","3","4","4","2","4","4","4","4","5","4","730025585505734658","陈","349","","","","","","","","","","","","","","","","","","","true","13","3","moral","805","negative","卑鄙","","","","","","","","","","","","","","",""
"null","","null","html-keyboard-response","75","188824","0.0-6.0-1.0-6.0-0.8","3","3","4","3","2","3","3","3","4","4","4","2","2","3","2","4","2","3","4","4","4","4","3","2","2","2","4","3","4","1","1","1","0","1","1","1","1","0","1","1","0","1","0","1","3","4","4","2","4","4","4","4","5","4","730025585505734658","陈","349","","","","","","","","","","","","","","","","","","","","","","","","","","","","","","","","","","","","","","","",""
"620","<p style=""color:rgb(150, 250, 100); font-size: 35px;"">别人</p>","i","categorize-html","76","189445","0.0-6.0-1.0-6.0-1.8","3","3","4","3","2","3","3","3","4","4","4","2","2","3","2","4","2","3","4","4","4","4","3","2","2","2","4","3","4","1","1","1","0","1","1","1","1","0","1","1","0","1","0","1","3","4","4","2","4","4","4","4","5","4","730025585505734658","陈","349","","","","","","","","","","","","","","","","","","","true","13","3","moral","620","other","别人","","","","","","","","","","","","","","",""
"null","","null","html-keyboard-response","77","189696","0.0-6.0-1.0-6.0-0.9","3","3","4","3","2","3","3","3","4","4","4","2","2","3","2","4","2","3","4","4","4","4","3","2","2","2","4","3","4","1","1","1","0","1","1","1","1","0","1","1","0","1","0","1","3","4","4","2","4","4","4","4","5","4","730025585505734658","陈","349","","","","","","","","","","","","","","","","","","","","","","","","","","","","","","","","","","","","","","","",""
"1006","<p style=""color:white; font-size: 35px;"">不孝</p>","e","categorize-html","78","190704","0.0-6.0-1.0-6.0-1.9","3","3","4","3","2","3","3","3","4","4","4","2","2","3","2","4","2","3","4","4","4","4","3","2","2","2","4","3","4","1","1","1","0","1","1","1","1","0","1","1","0","1","0","1","3","4","4","2","4","4","4","4","5","4","730025585505734658","陈","349","","","","","","","","","","","","","","","","","","","true","13","3","moral","1006","negative","不孝","","","","","","","","","","","","","","",""
"null","","null","html-keyboard-response","79","190955","0.0-6.0-1.0-6.0-0.10","3","3","4","3","2","3","3","3","4","4","4","2","2","3","2","4","2","3","4","4","4","4","3","2","2","2","4","3","4","1","1","1","0","1","1","1","1","0","1","1","0","1","0","1","3","4","4","2","4","4","4","4","5","4","730025585505734658","陈","349","","","","","","","","","","","","","","","","","","","","","","","","","","","","","","","","","","","","","","","",""
"666","<p style=""color:rgb(150, 250, 100); font-size: 35px;"">本人的</p>","e","categorize-html","80","191622","0.0-6.0-1.0-6.0-1.10","3","3","4","3","2","3","3","3","4","4","4","2","2","3","2","4","2","3","4","4","4","4","3","2","2","2","4","3","4","1","1","1","0","1","1","1","1","0","1","1","0","1","0","1","3","4","4","2","4","4","4","4","5","4","730025585505734658","陈","349","","","","","","","","","","","","","","","","","","","true","13","3","moral","666","self","本人的","","","","","","","","","","","","","","",""
"null","","null","html-keyboard-response","81","191872","0.0-6.0-1.0-6.0-0.11","3","3","4","3","2","3","3","3","4","4","4","2","2","3","2","4","2","3","4","4","4","4","3","2","2","2","4","3","4","1","1","1","0","1","1","1","1","0","1","1","0","1","0","1","3","4","4","2","4","4","4","4","5","4","730025585505734658","陈","349","","","","","","","","","","","","","","","","","","","","","","","","","","","","","","","","","","","","","","","",""
"853","<p style=""color:white; font-size: 35px;"">善良</p>","i","categorize-html","82","192727","0.0-6.0-1.0-6.0-1.11","3","3","4","3","2","3","3","3","4","4","4","2","2","3","2","4","2","3","4","4","4","4","3","2","2","2","4","3","4","1","1","1","0","1","1","1","1","0","1","1","0","1","0","1","3","4","4","2","4","4","4","4","5","4","730025585505734658","陈","349","","","","","","","","","","","","","","","","","","","true","13","3","moral","853","positive","善良","","","","","","","","","","","","","","",""
"null","","null","html-keyboard-response","83","192978","0.0-6.0-1.0-6.0-0.12","3","3","4","3","2","3","3","3","4","4","4","2","2","3","2","4","2","3","4","4","4","4","3","2","2","2","4","3","4","1","1","1","0","1","1","1","1","0","1","1","0","1","0","1","3","4","4","2","4","4","4","4","5","4","730025585505734658","陈","349","","","","","","","","","","","","","","","","","","","","","","","","","","","","","","","","","","","","","","","",""
"1243","<p style=""color:rgb(150, 250, 100); font-size: 35px;"">他的</p>","i","categorize-html","84","194221","0.0-6.0-1.0-6.0-1.12","3","3","4","3","2","3","3","3","4","4","4","2","2","3","2","4","2","3","4","4","4","4","3","2","2","2","4","3","4","1","1","1","0","1","1","1","1","0","1","1","0","1","0","1","3","4","4","2","4","4","4","4","5","4","730025585505734658","陈","349","","","","","","","","","","","","","","","","","","","true","13","3","moral","1243","other","他的","","","","","","","","","","","","","","",""
"null","","null","html-keyboard-response","85","194473","0.0-6.0-1.0-6.0-0.13","3","3","4","3","2","3","3","3","4","4","4","2","2","3","2","4","2","3","4","4","4","4","3","2","2","2","4","3","4","1","1","1","0","1","1","1","1","0","1","1","0","1","0","1","3","4","4","2","4","4","4","4","5","4","730025585505734658","陈","349","","","","","","","","","","","","","","","","","","","","","","","","","","","","","","","","","","","","","","","",""
"1315","<p style=""color:white; font-size: 35px;"">小人</p>","e","categorize-html","86","195789","0.0-6.0-1.0-6.0-1.13","3","3","4","3","2","3","3","3","4","4","4","2","2","3","2","4","2","3","4","4","4","4","3","2","2","2","4","3","4","1","1","1","0","1","1","1","1","0","1","1","0","1","0","1","3","4","4","2","4","4","4","4","5","4","730025585505734658","陈","349","","","","","","","","","","","","","","","","","","","true","13","3","moral","1315","negative","小人","","","","","","","","","","","","","","",""
"null","","null","html-keyboard-response","87","196040","0.0-6.0-1.0-6.0-0.14","3","3","4","3","2","3","3","3","4","4","4","2","2","3","2","4","2","3","4","4","4","4","3","2","2","2","4","3","4","1","1","1","0","1","1","1","1","0","1","1","0","1","0","1","3","4","4","2","4","4","4","4","5","4","730025585505734658","陈","349","","","","","","","","","","","","","","","","","","","","","","","","","","","","","","","","","","","","","","","",""
"831","<p style=""color:rgb(150, 250, 100); font-size: 35px;"">我</p>","e","categorize-html","88","196872","0.0-6.0-1.0-6.0-1.14","3","3","4","3","2","3","3","3","4","4","4","2","2","3","2","4","2","3","4","4","4","4","3","2","2","2","4","3","4","1","1","1","0","1","1","1","1","0","1","1","0","1","0","1","3","4","4","2","4","4","4","4","5","4","730025585505734658","陈","349","","","","","","","","","","","","","","","","","","","true","13","3","moral","831","self","我","","","","","","","","","","","","","","",""
"null","","null","html-keyboard-response","89","197124","0.0-6.0-1.0-6.0-0.15","3","3","4","3","2","3","3","3","4","4","4","2","2","3","2","4","2","3","4","4","4","4","3","2","2","2","4","3","4","1","1","1","0","1","1","1","1","0","1","1","0","1","0","1","3","4","4","2","4","4","4","4","5","4","730025585505734658","陈","349","","","","","","","","","","","","","","","","","","","","","","","","","","","","","","","","","","","","","","","",""
"1005","<p style=""color:white; font-size: 35px;"">正直</p>","i","categorize-html","90","198131","0.0-6.0-1.0-6.0-1.15","3","3","4","3","2","3","3","3","4","4","4","2","2","3","2","4","2","3","4","4","4","4","3","2","2","2","4","3","4","1","1","1","0","1","1","1","1","0","1","1","0","1","0","1","3","4","4","2","4","4","4","4","5","4","730025585505734658","陈","349","","","","","","","","","","","","","","","","","","","true","13","3","moral","1005","positive","正直","","","","","","","","","","","","","","",""
"null","","null","html-keyboard-response","91","198383","0.0-6.0-1.0-6.0-0.16","3","3","4","3","2","3","3","3","4","4","4","2","2","3","2","4","2","3","4","4","4","4","3","2","2","2","4","3","4","1","1","1","0","1","1","1","1","0","1","1","0","1","0","1","3","4","4","2","4","4","4","4","5","4","730025585505734658","陈","349","","","","","","","","","","","","","","","","","","","","","","","","","","","","","","","","","","","","","","","",""
"547","<p style=""color:rgb(150, 250, 100); font-size: 35px;"">我的</p>","e","categorize-html","92","198931","0.0-6.0-1.0-6.0-1.16","3","3","4","3","2","3","3","3","4","4","4","2","2","3","2","4","2","3","4","4","4","4","3","2","2","2","4","3","4","1","1","1","0","1","1","1","1","0","1","1","0","1","0","1","3","4","4","2","4","4","4","4","5","4","730025585505734658","陈","349","","","","","","","","","","","","","","","","","","","true","13","3","moral","547","self","我的","","","","","","","","","","","","","","",""
"null","","null","html-keyboard-response","93","199182","0.0-6.0-1.0-6.0-0.17","3","3","4","3","2","3","3","3","4","4","4","2","2","3","2","4","2","3","4","4","4","4","3","2","2","2","4","3","4","1","1","1","0","1","1","1","1","0","1","1","0","1","0","1","3","4","4","2","4","4","4","4","5","4","730025585505734658","陈","349","","","","","","","","","","","","","","","","","","","","","","","","","","","","","","","","","","","","","","","",""
"1001","<p style=""color:white; font-size: 35px;"">诚信</p>","i","categorize-html","94","200184","0.0-6.0-1.0-6.0-1.17","3","3","4","3","2","3","3","3","4","4","4","2","2","3","2","4","2","3","4","4","4","4","3","2","2","2","4","3","4","1","1","1","0","1","1","1","1","0","1","1","0","1","0","1","3","4","4","2","4","4","4","4","5","4","730025585505734658","陈","349","","","","","","","","","","","","","","","","","","","true","13","3","moral","1001","positive","诚信","","","","","","","","","","","","","","",""
"null","","null","html-keyboard-response","95","200435","0.0-6.0-1.0-6.0-0.18","3","3","4","3","2","3","3","3","4","4","4","2","2","3","2","4","2","3","4","4","4","4","3","2","2","2","4","3","4","1","1","1","0","1","1","1","1","0","1","1","0","1","0","1","3","4","4","2","4","4","4","4","5","4","730025585505734658","陈","349","","","","","","","","","","","","","","","","","","","","","","","","","","","","","","","","","","","","","","","",""
"640","<p style=""color:rgb(150, 250, 100); font-size: 35px;"">他人</p>","i","categorize-html","96","201076","0.0-6.0-1.0-6.0-1.18","3","3","4","3","2","3","3","3","4","4","4","2","2","3","2","4","2","3","4","4","4","4","3","2","2","2","4","3","4","1","1","1","0","1","1","1","1","0","1","1","0","1","0","1","3","4","4","2","4","4","4","4","5","4","730025585505734658","陈","349","","","","","","","","","","","","","","","","","","","true","13","3","moral","640","other","他人","","","","","","","","","","","","","","",""
"null","","null","html-keyboard-response","97","201328","0.0-6.0-1.0-6.0-0.19","3","3","4","3","2","3","3","3","4","4","4","2","2","3","2","4","2","3","4","4","4","4","3","2","2","2","4","3","4","1","1","1","0","1","1","1","1","0","1","1","0","1","0","1","3","4","4","2","4","4","4","4","5","4","730025585505734658","陈","349","","","","","","","","","","","","","","","","","","","","","","","","","","","","","","","","","","","","","","","",""
"785","<p style=""color:white; font-size: 35px;"">不仁</p>","i","categorize-html","98","202682","0.0-6.0-1.0-6.0-1.19","3","3","4","3","2","3","3","3","4","4","4","2","2","3","2","4","2","3","4","4","4","4","3","2","2","2","4","3","4","1","1","1","0","1","1","1","1","0","1","1","0","1","0","1","3","4","4","2","4","4","4","4","5","4","730025585505734658","陈","349","","","","","","","","","","","","","","","","","","","false","13","3","moral","1456.818181818182","negative","不仁","","","","","","","","","","","","","","",""
"null","","null","html-keyboard-response","99","202935","0.0-6.0-1.0-6.0-0.20","3","3","4","3","2","3","3","3","4","4","4","2","2","3","2","4","2","3","4","4","4","4","3","2","2","2","4","3","4","1","1","1","0","1","1","1","1","0","1","1","0","1","0","1","3","4","4","2","4","4","4","4","5","4","730025585505734658","陈","349","","","","","","","","","","","","","","","","","","","","","","","","","","","","","","","","","","","","","","","",""
"1273","<p style=""color:rgb(150, 250, 100); font-size: 35px;"">本人</p>","e","categorize-html","100","204208","0.0-6.0-1.0-6.0-1.20","3","3","4","3","2","3","3","3","4","4","4","2","2","3","2","4","2","3","4","4","4","4","3","2","2","2","4","3","4","1","1","1","0","1","1","1","1","0","1","1","0","1","0","1","3","4","4","2","4","4","4","4","5","4","730025585505734658","陈","349","","","","","","","","","","","","","","","","","","","true","13","3","moral","1273","self","本人","","","","","","","","","","","","","","",""
"null","","null","html-keyboard-response","101","204467","0.0-6.0-1.0-6.0-0.21","3","3","4","3","2","3","3","3","4","4","4","2","2","3","2","4","2","3","4","4","4","4","3","2","2","2","4","3","4","1","1","1","0","1","1","1","1","0","1","1","0","1","0","1","3","4","4","2","4","4","4","4","5","4","730025585505734658","陈","349","","","","","","","","","","","","","","","","","","","","","","","","","","","","","","","","","","","","","","","",""
"1089","<p style=""color:white; font-size: 35px;"">高尚</p>","i","categorize-html","102","205557","0.0-6.0-1.0-6.0-1.21","3","3","4","3","2","3","3","3","4","4","4","2","2","3","2","4","2","3","4","4","4","4","3","2","2","2","4","3","4","1","1","1","0","1","1","1","1","0","1","1","0","1","0","1","3","4","4","2","4","4","4","4","5","4","730025585505734658","陈","349","","","","","","","","","","","","","","","","","","","true","13","3","moral","1089","positive","高尚","","","","","","","","","","","","","","",""
"null","","null","html-keyboard-response","103","205808","0.0-6.0-1.0-6.0-0.22","3","3","4","3","2","3","3","3","4","4","4","2","2","3","2","4","2","3","4","4","4","4","3","2","2","2","4","3","4","1","1","1","0","1","1","1","1","0","1","1","0","1","0","1","3","4","4","2","4","4","4","4","5","4","730025585505734658","陈","349","","","","","","","","","","","","","","","","","","","","","","","","","","","","","","","","","","","","","","","",""
"606","<p style=""color:rgb(150, 250, 100); font-size: 35px;"">别人的</p>","i","categorize-html","104","206415","0.0-6.0-1.0-6.0-1.22","3","3","4","3","2","3","3","3","4","4","4","2","2","3","2","4","2","3","4","4","4","4","3","2","2","2","4","3","4","1","1","1","0","1","1","1","1","0","1","1","0","1","0","1","3","4","4","2","4","4","4","4","5","4","730025585505734658","陈","349","","","","","","","","","","","","","","","","","","","true","13","3","moral","606","other","别人的","","","","","","","","","","","","","","",""
"null","","null","html-keyboard-response","105","206666","0.0-6.0-1.0-6.0-0.23","3","3","4","3","2","3","3","3","4","4","4","2","2","3","2","4","2","3","4","4","4","4","3","2","2","2","4","3","4","1","1","1","0","1","1","1","1","0","1","1","0","1","0","1","3","4","4","2","4","4","4","4","5","4","730025585505734658","陈","349","","","","","","","","","","","","","","","","","","","","","","","","","","","","","","","","","","","","","","","",""
"788","<p style=""color:white; font-size: 35px;"">黑心</p>","i","categorize-html","106","207880","0.0-6.0-1.0-6.0-1.23","3","3","4","3","2","3","3","3","4","4","4","2","2","3","2","4","2","3","4","4","4","4","3","2","2","2","4","3","4","1","1","1","0","1","1","1","1","0","1","1","0","1","0","1","3","4","4","2","4","4","4","4","5","4","730025585505734658","陈","349","","","","","","","","","","","","","","","","","","","false","13","3","moral","1456.818181818182","negative","黑心","","","","","","","","","","","","","","",""
"4093","
    <div class=""tag-bottom""><p>
    —— 任务4：对“自我/消极”词和“他人/积极”词分类 ——<p/>
    <span style=""color:#78DCE8""><b>与刚才的任务完全相同，请再次对这四类词语分类</b></span><p/>
    <span style=""color:#FFD866""><b>请根据上方标签的提示，尽可能正确并且快速地做出按键反应</b></span><p/>
    当按键错误时屏幕中会出现<span style=""color:red""> X </span>，需要按另一个键纠正才能继续<br/><p/>
    请把双手食指分别放在键盘的“E”键和“I”键上<p/>
    按<空格键>开始
    </p></div>"," ","html-keyboard-response","107","211973","0.0-6.0-1.0-7.0","3","3","4","3","2","3","3","3","4","4","4","2","2","3","2","4","2","3","4","4","4","4","3","2","2","2","4","3","4","1","1","1","0","1","1","1","1","0","1","1","0","1","0","1","3","4","4","2","4","4","4","4","5","4","730025585505734658","陈","349","","","","","","","","","","","","","","","","","","","","","","","","","","","","","","","","","","","","","","","",""
"null","","null","html-keyboard-response","108","212224","0.0-6.0-1.0-8.0-0.0","3","3","4","3","2","3","3","3","4","4","4","2","2","3","2","4","2","3","4","4","4","4","3","2","2","2","4","3","4","1","1","1","0","1","1","1","1","0","1","1","0","1","0","1","3","4","4","2","4","4","4","4","5","4","730025585505734658","陈","349","","","","","","","","","","","","","","","","","","","","","","","","","","","","","","","","","","","","","","","",""
"744","<p style=""color:rgb(150, 250, 100); font-size: 35px;"">我的</p>","e","categorize-html","109","212970","0.0-6.0-1.0-8.0-1.0","3","3","4","3","2","3","3","3","4","4","4","2","2","3","2","4","2","3","4","4","4","4","3","2","2","2","4","3","4","1","1","1","0","1","1","1","1","0","1","1","0","1","0","1","3","4","4","2","4","4","4","4","5","4","730025585505734658","陈","349","","","","","","","","","","","","","","","","","","","true","14","4","moral","744","self","我的","","","","","","","","","","","","","","",""
"null","","null","html-keyboard-response","110","213221","0.0-6.0-1.0-8.0-0.1","3","3","4","3","2","3","3","3","4","4","4","2","2","3","2","4","2","3","4","4","4","4","3","2","2","2","4","3","4","1","1","1","0","1","1","1","1","0","1","1","0","1","0","1","3","4","4","2","4","4","4","4","5","4","730025585505734658","陈","349","","","","","","","","","","","","","","","","","","","","","","","","","","","","","","","","","","","","","","","",""
"609","<p style=""color:white; font-size: 35px;"">黑心</p>","e","categorize-html","111","213831","0.0-6.0-1.0-8.0-1.1","3","3","4","3","2","3","3","3","4","4","4","2","2","3","2","4","2","3","4","4","4","4","3","2","2","2","4","3","4","1","1","1","0","1","1","1","1","0","1","1","0","1","0","1","3","4","4","2","4","4","4","4","5","4","730025585505734658","陈","349","","","","","","","","","","","","","","","","","","","true","14","4","moral","609","negative","黑心","","","","","","","","","","","","","","",""
"null","","null","html-keyboard-response","112","214082","0.0-6.0-1.0-8.0-0.2","3","3","4","3","2","3","3","3","4","4","4","2","2","3","2","4","2","3","4","4","4","4","3","2","2","2","4","3","4","1","1","1","0","1","1","1","1","0","1","1","0","1","0","1","3","4","4","2","4","4","4","4","5","4","730025585505734658","陈","349","","","","","","","","","","","","","","","","","","","","","","","","","","","","","","","","","","","","","","","",""
"683","<p style=""color:rgb(150, 250, 100); font-size: 35px;"">他的</p>","i","categorize-html","113","214767","0.0-6.0-1.0-8.0-1.2","3","3","4","3","2","3","3","3","4","4","4","2","2","3","2","4","2","3","4","4","4","4","3","2","2","2","4","3","4","1","1","1","0","1","1","1","1","0","1","1","0","1","0","1","3","4","4","2","4","4","4","4","5","4","730025585505734658","陈","349","","","","","","","","","","","","","","","","","","","true","14","4","moral","683","other","他的","","","","","","","","","","","","","","",""
"null","","null","html-keyboard-response","114","215034","0.0-6.0-1.0-8.0-0.3","3","3","4","3","2","3","3","3","4","4","4","2","2","3","2","4","2","3","4","4","4","4","3","2","2","2","4","3","4","1","1","1","0","1","1","1","1","0","1","1","0","1","0","1","3","4","4","2","4","4","4","4","5","4","730025585505734658","陈","349","","","","","","","","","","","","","","","","","","","","","","","","","","","","","","","","","","","","","","","",""
"461","<p style=""color:white; font-size: 35px;"">善良</p>","i","categorize-html","115","215496","0.0-6.0-1.0-8.0-1.3","3","3","4","3","2","3","3","3","4","4","4","2","2","3","2","4","2","3","4","4","4","4","3","2","2","2","4","3","4","1","1","1","0","1","1","1","1","0","1","1","0","1","0","1","3","4","4","2","4","4","4","4","5","4","730025585505734658","陈","349","","","","","","","","","","","","","","","","","","","true","14","4","moral","461","positive","善良","","","","","","","","","","","","","","",""
"null","","null","html-keyboard-response","116","215747","0.0-6.0-1.0-8.0-0.4","3","3","4","3","2","3","3","3","4","4","4","2","2","3","2","4","2","3","4","4","4","4","3","2","2","2","4","3","4","1","1","1","0","1","1","1","1","0","1","1","0","1","0","1","3","4","4","2","4","4","4","4","5","4","730025585505734658","陈","349","","","","","","","","","","","","","","","","","","","","","","","","","","","","","","","","","","","","","","","",""
"1197","<p style=""color:rgb(150, 250, 100); font-size: 35px;"">他</p>","i","categorize-html","117","216945","0.0-6.0-1.0-8.0-1.4","3","3","4","3","2","3","3","3","4","4","4","2","2","3","2","4","2","3","4","4","4","4","3","2","2","2","4","3","4","1","1","1","0","1","1","1","1","0","1","1","0","1","0","1","3","4","4","2","4","4","4","4","5","4","730025585505734658","陈","349","","","","","","","","","","","","","","","","","","","true","14","4","moral","1197","other","他","","","","","","","","","","","","","","",""
"null","","null","html-keyboard-response","118","217197","0.0-6.0-1.0-8.0-0.5","3","3","4","3","2","3","3","3","4","4","4","2","2","3","2","4","2","3","4","4","4","4","3","2","2","2","4","3","4","1","1","1","0","1","1","1","1","0","1","1","0","1","0","1","3","4","4","2","4","4","4","4","5","4","730025585505734658","陈","349","","","","","","","","","","","","","","","","","","","","","","","","","","","","","","","","","","","","","","","",""
"817","<p style=""color:white; font-size: 35px;"">高尚</p>","i","categorize-html","119","218015","0.0-6.0-1.0-8.0-1.5","3","3","4","3","2","3","3","3","4","4","4","2","2","3","2","4","2","3","4","4","4","4","3","2","2","2","4","3","4","1","1","1","0","1","1","1","1","0","1","1","0","1","0","1","3","4","4","2","4","4","4","4","5","4","730025585505734658","陈","349","","","","","","","","","","","","","","","","","","","true","14","4","moral","817","positive","高尚","","","","","","","","","","","","","","",""
"null","","null","html-keyboard-response","120","218267","0.0-6.0-1.0-8.0-0.6","3","3","4","3","2","3","3","3","4","4","4","2","2","3","2","4","2","3","4","4","4","4","3","2","2","2","4","3","4","1","1","1","0","1","1","1","1","0","1","1","0","1","0","1","3","4","4","2","4","4","4","4","5","4","730025585505734658","陈","349","","","","","","","","","","","","","","","","","","","","","","","","","","","","","","","","","","","","","","","",""
"614","<p style=""color:rgb(150, 250, 100); font-size: 35px;"">本人</p>","e","categorize-html","121","218882","0.0-6.0-1.0-8.0-1.6","3","3","4","3","2","3","3","3","4","4","4","2","2","3","2","4","2","3","4","4","4","4","3","2","2","2","4","3","4","1","1","1","0","1","1","1","1","0","1","1","0","1","0","1","3","4","4","2","4","4","4","4","5","4","730025585505734658","陈","349","","","","","","","","","","","","","","","","","","","true","14","4","moral","614","self","本人","","","","","","","","","","","","","","",""
"null","","null","html-keyboard-response","122","219134","0.0-6.0-1.0-8.0-0.7","3","3","4","3","2","3","3","3","4","4","4","2","2","3","2","4","2","3","4","4","4","4","3","2","2","2","4","3","4","1","1","1","0","1","1","1","1","0","1","1","0","1","0","1","3","4","4","2","4","4","4","4","5","4","730025585505734658","陈","349","","","","","","","","","","","","","","","","","","","","","","","","","","","","","","","","","","","","","","","",""
"961","<p style=""color:white; font-size: 35px;"">小人</p>","i","categorize-html","123","221193","0.0-6.0-1.0-8.0-1.7","3","3","4","3","2","3","3","3","4","4","4","2","2","3","2","4","2","3","4","4","4","4","3","2","2","2","4","3","4","1","1","1","0","1","1","1","1","0","1","1","0","1","0","1","3","4","4","2","4","4","4","4","5","4","730025585505734658","陈","349","","","","","","","","","","","","","","","","","","","false","14","4","moral","1284.5777777777778","negative","小人","","","","","","","","","","","","","","",""
"null","","null","html-keyboard-response","124","221444","0.0-6.0-1.0-8.0-0.8","3","3","4","3","2","3","3","3","4","4","4","2","2","3","2","4","2","3","4","4","4","4","3","2","2","2","4","3","4","1","1","1","0","1","1","1","1","0","1","1","0","1","0","1","3","4","4","2","4","4","4","4","5","4","730025585505734658","陈","349","","","","","","","","","","","","","","","","","","","","","","","","","","","","","","","","","","","","","","","",""
"771","<p style=""color:rgb(150, 250, 100); font-size: 35px;"">我</p>","e","categorize-html","125","222217","0.0-6.0-1.0-8.0-1.8","3","3","4","3","2","3","3","3","4","4","4","2","2","3","2","4","2","3","4","4","4","4","3","2","2","2","4","3","4","1","1","1","0","1","1","1","1","0","1","1","0","1","0","1","3","4","4","2","4","4","4","4","5","4","730025585505734658","陈","349","","","","","","","","","","","","","","","","","","","true","14","4","moral","771","self","我","","","","","","","","","","","","","","",""
"null","","null","html-keyboard-response","126","222469","0.0-6.0-1.0-8.0-0.9","3","3","4","3","2","3","3","3","4","4","4","2","2","3","2","4","2","3","4","4","4","4","3","2","2","2","4","3","4","1","1","1","0","1","1","1","1","0","1","1","0","1","0","1","3","4","4","2","4","4","4","4","5","4","730025585505734658","陈","349","","","","","","","","","","","","","","","","","","","","","","","","","","","","","","","","","","","","","","","",""
"1215","<p style=""color:white; font-size: 35px;"">不仁</p>","e","categorize-html","127","223684","0.0-6.0-1.0-8.0-1.9","3","3","4","3","2","3","3","3","4","4","4","2","2","3","2","4","2","3","4","4","4","4","3","2","2","2","4","3","4","1","1","1","0","1","1","1","1","0","1","1","0","1","0","1","3","4","4","2","4","4","4","4","5","4","730025585505734658","陈","349","","","","","","","","","","","","","","","","","","","true","14","4","moral","1215","negative","不仁","","","","","","","","","","","","","","",""
"null","","null","html-keyboard-response","128","223935","0.0-6.0-1.0-8.0-0.10","3","3","4","3","2","3","3","3","4","4","4","2","2","3","2","4","2","3","4","4","4","4","3","2","2","2","4","3","4","1","1","1","0","1","1","1","1","0","1","1","0","1","0","1","3","4","4","2","4","4","4","4","5","4","730025585505734658","陈","349","","","","","","","","","","","","","","","","","","","","","","","","","","","","","","","","","","","","","","","",""
"690","<p style=""color:rgb(150, 250, 100); font-size: 35px;"">他人的</p>","i","categorize-html","129","224627","0.0-6.0-1.0-8.0-1.10","3","3","4","3","2","3","3","3","4","4","4","2","2","3","2","4","2","3","4","4","4","4","3","2","2","2","4","3","4","1","1","1","0","1","1","1","1","0","1","1","0","1","0","1","3","4","4","2","4","4","4","4","5","4","730025585505734658","陈","349","","","","","","","","","","","","","","","","","","","true","14","4","moral","690","other","他人的","","","","","","","","","","","","","","",""
"null","","null","html-keyboard-response","130","224878","0.0-6.0-1.0-8.0-0.11","3","3","4","3","2","3","3","3","4","4","4","2","2","3","2","4","2","3","4","4","4","4","3","2","2","2","4","3","4","1","1","1","0","1","1","1","1","0","1","1","0","1","0","1","3","4","4","2","4","4","4","4","5","4","730025585505734658","陈","349","","","","","","","","","","","","","","","","","","","","","","","","","","","","","","","","","","","","","","","",""
"787","<p style=""color:white; font-size: 35px;"">诚信</p>","i","categorize-html","131","225666","0.0-6.0-1.0-8.0-1.11","3","3","4","3","2","3","3","3","4","4","4","2","2","3","2","4","2","3","4","4","4","4","3","2","2","2","4","3","4","1","1","1","0","1","1","1","1","0","1","1","0","1","0","1","3","4","4","2","4","4","4","4","5","4","730025585505734658","陈","349","","","","","","","","","","","","","","","","","","","true","14","4","moral","787","positive","诚信","","","","","","","","","","","","","","",""
"null","","null","html-keyboard-response","132","225918","0.0-6.0-1.0-8.0-0.12","3","3","4","3","2","3","3","3","4","4","4","2","2","3","2","4","2","3","4","4","4","4","3","2","2","2","4","3","4","1","1","1","0","1","1","1","1","0","1","1","0","1","0","1","3","4","4","2","4","4","4","4","5","4","730025585505734658","陈","349","","","","","","","","","","","","","","","","","","","","","","","","","","","","","","","","","","","","","","","",""
"634","<p style=""color:rgb(150, 250, 100); font-size: 35px;"">他</p>","i","categorize-html","133","226553","0.0-6.0-1.0-8.0-1.12","3","3","4","3","2","3","3","3","4","4","4","2","2","3","2","4","2","3","4","4","4","4","3","2","2","2","4","3","4","1","1","1","0","1","1","1","1","0","1","1","0","1","0","1","3","4","4","2","4","4","4","4","5","4","730025585505734658","陈","349","","","","","","","","","","","","","","","","","","","true","14","4","moral","634","other","他","","","","","","","","","","","","","","",""
"null","","null","html-keyboard-response","134","226804","0.0-6.0-1.0-8.0-0.13","3","3","4","3","2","3","3","3","4","4","4","2","2","3","2","4","2","3","4","4","4","4","3","2","2","2","4","3","4","1","1","1","0","1","1","1","1","0","1","1","0","1","0","1","3","4","4","2","4","4","4","4","5","4","730025585505734658","陈","349","","","","","","","","","","","","","","","","","","","","","","","","","","","","","","","","","","","","","","","",""
"696","<p style=""color:white; font-size: 35px;"">黑心</p>","i","categorize-html","135","227826","0.0-6.0-1.0-8.0-1.13","3","3","4","3","2","3","3","3","4","4","4","2","2","3","2","4","2","3","4","4","4","4","3","2","2","2","4","3","4","1","1","1","0","1","1","1","1","0","1","1","0","1","0","1","3","4","4","2","4","4","4","4","5","4","730025585505734658","陈","349","","","","","","","","","","","","","","","","","","","false","14","4","moral","1284.5777777777778","negative","黑心","","","","","","","","","","","","","","",""
"null","","null","html-keyboard-response","136","228077","0.0-6.0-1.0-8.0-0.14","3","3","4","3","2","3","3","3","4","4","4","2","2","3","2","4","2","3","4","4","4","4","3","2","2","2","4","3","4","1","1","1","0","1","1","1","1","0","1","1","0","1","0","1","3","4","4","2","4","4","4","4","5","4","730025585505734658","陈","349","","","","","","","","","","","","","","","","","","","","","","","","","","","","","","","","","","","","","","","",""
"676","<p style=""color:rgb(150, 250, 100); font-size: 35px;"">本人的</p>","e","categorize-html","137","228754","0.0-6.0-1.0-8.0-1.14","3","3","4","3","2","3","3","3","4","4","4","2","2","3","2","4","2","3","4","4","4","4","3","2","2","2","4","3","4","1","1","1","0","1","1","1","1","0","1","1","0","1","0","1","3","4","4","2","4","4","4","4","5","4","730025585505734658","陈","349","","","","","","","","","","","","","","","","","","","true","14","4","moral","676","self","本人的","","","","","","","","","","","","","","",""
"null","","null","html-keyboard-response","138","229006","0.0-6.0-1.0-8.0-0.15","3","3","4","3","2","3","3","3","4","4","4","2","2","3","2","4","2","3","4","4","4","4","3","2","2","2","4","3","4","1","1","1","0","1","1","1","1","0","1","1","0","1","0","1","3","4","4","2","4","4","4","4","5","4","730025585505734658","陈","349","","","","","","","","","","","","","","","","","","","","","","","","","","","","","","","","","","","","","","","",""
"759","<p style=""color:white; font-size: 35px;"">正直</p>","i","categorize-html","139","229766","0.0-6.0-1.0-8.0-1.15","3","3","4","3","2","3","3","3","4","4","4","2","2","3","2","4","2","3","4","4","4","4","3","2","2","2","4","3","4","1","1","1","0","1","1","1","1","0","1","1","0","1","0","1","3","4","4","2","4","4","4","4","5","4","730025585505734658","陈","349","","","","","","","","","","","","","","","","","","","true","14","4","moral","759","positive","正直","","","","","","","","","","","","","","",""
"null","","null","html-keyboard-response","140","230018","0.0-6.0-1.0-8.0-0.16","3","3","4","3","2","3","3","3","4","4","4","2","2","3","2","4","2","3","4","4","4","4","3","2","2","2","4","3","4","1","1","1","0","1","1","1","1","0","1","1","0","1","0","1","3","4","4","2","4","4","4","4","5","4","730025585505734658","陈","349","","","","","","","","","","","","","","","","","","","","","","","","","","","","","","","","","","","","","","","",""
"691","<p style=""color:rgb(150, 250, 100); font-size: 35px;"">他的</p>","i","categorize-html","141","230710","0.0-6.0-1.0-8.0-1.16","3","3","4","3","2","3","3","3","4","4","4","2","2","3","2","4","2","3","4","4","4","4","3","2","2","2","4","3","4","1","1","1","0","1","1","1","1","0","1","1","0","1","0","1","3","4","4","2","4","4","4","4","5","4","730025585505734658","陈","349","","","","","","","","","","","","","","","","","","","true","14","4","moral","691","other","他的","","","","","","","","","","","","","","",""
"null","","null","html-keyboard-response","142","230963","0.0-6.0-1.0-8.0-0.17","3","3","4","3","2","3","3","3","4","4","4","2","2","3","2","4","2","3","4","4","4","4","3","2","2","2","4","3","4","1","1","1","0","1","1","1","1","0","1","1","0","1","0","1","3","4","4","2","4","4","4","4","5","4","730025585505734658","陈","349","","","","","","","","","","","","","","","","","","","","","","","","","","","","","","","","","","","","","","","",""
"778","<p style=""color:white; font-size: 35px;"">善良</p>","i","categorize-html","143","231742","0.0-6.0-1.0-8.0-1.17","3","3","4","3","2","3","3","3","4","4","4","2","2","3","2","4","2","3","4","4","4","4","3","2","2","2","4","3","4","1","1","1","0","1","1","1","1","0","1","1","0","1","0","1","3","4","4","2","4","4","4","4","5","4","730025585505734658","陈","349","","","","","","","","","","","","","","","","","","","true","14","4","moral","778","positive","善良","","","","","","","","","","","","","","",""
"null","","null","html-keyboard-response","144","231993","0.0-6.0-1.0-8.0-0.18","3","3","4","3","2","3","3","3","4","4","4","2","2","3","2","4","2","3","4","4","4","4","3","2","2","2","4","3","4","1","1","1","0","1","1","1","1","0","1","1","0","1","0","1","3","4","4","2","4","4","4","4","5","4","730025585505734658","陈","349","","","","","","","","","","","","","","","","","","","","","","","","","","","","","","","","","","","","","","","",""
"648","<p style=""color:rgb(150, 250, 100); font-size: 35px;"">本人</p>","e","categorize-html","145","232642","0.0-6.0-1.0-8.0-1.18","3","3","4","3","2","3","3","3","4","4","4","2","2","3","2","4","2","3","4","4","4","4","3","2","2","2","4","3","4","1","1","1","0","1","1","1","1","0","1","1","0","1","0","1","3","4","4","2","4","4","4","4","5","4","730025585505734658","陈","349","","","","","","","","","","","","","","","","","","","true","14","4","moral","648","self","本人","","","","","","","","","","","","","","",""
"null","","null","html-keyboard-response","146","232895","0.0-6.0-1.0-8.0-0.19","3","3","4","3","2","3","3","3","4","4","4","2","2","3","2","4","2","3","4","4","4","4","3","2","2","2","4","3","4","1","1","1","0","1","1","1","1","0","1","1","0","1","0","1","3","4","4","2","4","4","4","4","5","4","730025585505734658","陈","349","","","","","","","","","","","","","","","","","","","","","","","","","","","","","","","","","","","","","","","",""
"682","<p style=""color:white; font-size: 35px;"">卑鄙</p>","e","categorize-html","147","233578","0.0-6.0-1.0-8.0-1.19","3","3","4","3","2","3","3","3","4","4","4","2","2","3","2","4","2","3","4","4","4","4","3","2","2","2","4","3","4","1","1","1","0","1","1","1","1","0","1","1","0","1","0","1","3","4","4","2","4","4","4","4","5","4","730025585505734658","陈","349","","","","","","","","","","","","","","","","","","","true","14","4","moral","682","negative","卑鄙","","","","","","","","","","","","","","",""
"null","","null","html-keyboard-response","148","233830","0.0-6.0-1.0-8.0-0.20","3","3","4","3","2","3","3","3","4","4","4","2","2","3","2","4","2","3","4","4","4","4","3","2","2","2","4","3","4","1","1","1","0","1","1","1","1","0","1","1","0","1","0","1","3","4","4","2","4","4","4","4","5","4","730025585505734658","陈","349","","","","","","","","","","","","","","","","","","","","","","","","","","","","","","","","","","","","","","","",""
"613","<p style=""color:rgb(150, 250, 100); font-size: 35px;"">本人的</p>","e","categorize-html","149","234443","0.0-6.0-1.0-8.0-1.20","3","3","4","3","2","3","3","3","4","4","4","2","2","3","2","4","2","3","4","4","4","4","3","2","2","2","4","3","4","1","1","1","0","1","1","1","1","0","1","1","0","1","0","1","3","4","4","2","4","4","4","4","5","4","730025585505734658","陈","349","","","","","","","","","","","","","","","","","","","true","14","4","moral","613","self","本人的","","","","","","","","","","","","","","",""
"null","","null","html-keyboard-response","150","234695","0.0-6.0-1.0-8.0-0.21","3","3","4","3","2","3","3","3","4","4","4","2","2","3","2","4","2","3","4","4","4","4","3","2","2","2","4","3","4","1","1","1","0","1","1","1","1","0","1","1","0","1","0","1","3","4","4","2","4","4","4","4","5","4","730025585505734658","陈","349","","","","","","","","","","","","","","","","","","","","","","","","","","","","","","","","","","","","","","","",""
"502","<p style=""color:white; font-size: 35px;"">小人</p>","e","categorize-html","151","235198","0.0-6.0-1.0-8.0-1.21","3","3","4","3","2","3","3","3","4","4","4","2","2","3","2","4","2","3","4","4","4","4","3","2","2","2","4","3","4","1","1","1","0","1","1","1","1","0","1","1","0","1","0","1","3","4","4","2","4","4","4","4","5","4","730025585505734658","陈","349","","","","","","","","","","","","","","","","","","","true","14","4","moral","502","negative","小人","","","","","","","","","","","","","","",""
"null","","null","html-keyboard-response","152","235449","0.0-6.0-1.0-8.0-0.22","3","3","4","3","2","3","3","3","4","4","4","2","2","3","2","4","2","3","4","4","4","4","3","2","2","2","4","3","4","1","1","1","0","1","1","1","1","0","1","1","0","1","0","1","3","4","4","2","4","4","4","4","5","4","730025585505734658","陈","349","","","","","","","","","","","","","","","","","","","","","","","","","","","","","","","","","","","","","","","",""
"742","<p style=""color:rgb(150, 250, 100); font-size: 35px;"">他人</p>","i","categorize-html","153","236192","0.0-6.0-1.0-8.0-1.22","3","3","4","3","2","3","3","3","4","4","4","2","2","3","2","4","2","3","4","4","4","4","3","2","2","2","4","3","4","1","1","1","0","1","1","1","1","0","1","1","0","1","0","1","3","4","4","2","4","4","4","4","5","4","730025585505734658","陈","349","","","","","","","","","","","","","","","","","","","true","14","4","moral","742","other","他人","","","","","","","","","","","","","","",""
"null","","null","html-keyboard-response","154","236455","0.0-6.0-1.0-8.0-0.23","3","3","4","3","2","3","3","3","4","4","4","2","2","3","2","4","2","3","4","4","4","4","3","2","2","2","4","3","4","1","1","1","0","1","1","1","1","0","1","1","0","1","0","1","3","4","4","2","4","4","4","4","5","4","730025585505734658","陈","349","","","","","","","","","","","","","","","","","","","","","","","","","","","","","","","","","","","","","","","",""
"578","<p style=""color:white; font-size: 35px;"">君子</p>","i","categorize-html","155","237034","0.0-6.0-1.0-8.0-1.23","3","3","4","3","2","3","3","3","4","4","4","2","2","3","2","4","2","3","4","4","4","4","3","2","2","2","4","3","4","1","1","1","0","1","1","1","1","0","1","1","0","1","0","1","3","4","4","2","4","4","4","4","5","4","730025585505734658","陈","349","","","","","","","","","","","","","","","","","","","true","14","4","moral","578","positive","君子","","","","","","","","","","","","","","",""
"null","","null","html-keyboard-response","156","237286","0.0-6.0-1.0-8.0-0.24","3","3","4","3","2","3","3","3","4","4","4","2","2","3","2","4","2","3","4","4","4","4","3","2","2","2","4","3","4","1","1","1","0","1","1","1","1","0","1","1","0","1","0","1","3","4","4","2","4","4","4","4","5","4","730025585505734658","陈","349","","","","","","","","","","","","","","","","","","","","","","","","","","","","","","","","","","","","","","","",""
"436","<p style=""color:rgb(150, 250, 100); font-size: 35px;"">自己</p>","e","categorize-html","157","237722","0.0-6.0-1.0-8.0-1.24","3","3","4","3","2","3","3","3","4","4","4","2","2","3","2","4","2","3","4","4","4","4","3","2","2","2","4","3","4","1","1","1","0","1","1","1","1","0","1","1","0","1","0","1","3","4","4","2","4","4","4","4","5","4","730025585505734658","陈","349","","","","","","","","","","","","","","","","","","","true","14","4","moral","436","self","自己","","","","","","","","","","","","","","",""
"null","","null","html-keyboard-response","158","237975","0.0-6.0-1.0-8.0-0.25","3","3","4","3","2","3","3","3","4","4","4","2","2","3","2","4","2","3","4","4","4","4","3","2","2","2","4","3","4","1","1","1","0","1","1","1","1","0","1","1","0","1","0","1","3","4","4","2","4","4","4","4","5","4","730025585505734658","陈","349","","","","","","","","","","","","","","","","","","","","","","","","","","","","","","","","","","","","","","","",""
"523","<p style=""color:white; font-size: 35px;"">卑鄙</p>","e","categorize-html","159","238501","0.0-6.0-1.0-8.0-1.25","3","3","4","3","2","3","3","3","4","4","4","2","2","3","2","4","2","3","4","4","4","4","3","2","2","2","4","3","4","1","1","1","0","1","1","1","1","0","1","1","0","1","0","1","3","4","4","2","4","4","4","4","5","4","730025585505734658","陈","349","","","","","","","","","","","","","","","","","","","true","14","4","moral","523","negative","卑鄙","","","","","","","","","","","","","","",""
"null","","null","html-keyboard-response","160","238752","0.0-6.0-1.0-8.0-0.26","3","3","4","3","2","3","3","3","4","4","4","2","2","3","2","4","2","3","4","4","4","4","3","2","2","2","4","3","4","1","1","1","0","1","1","1","1","0","1","1","0","1","0","1","3","4","4","2","4","4","4","4","5","4","730025585505734658","陈","349","","","","","","","","","","","","","","","","","","","","","","","","","","","","","","","","","","","","","","","",""
"602","<p style=""color:rgb(150, 250, 100); font-size: 35px;"">他人</p>","i","categorize-html","161","239356","0.0-6.0-1.0-8.0-1.26","3","3","4","3","2","3","3","3","4","4","4","2","2","3","2","4","2","3","4","4","4","4","3","2","2","2","4","3","4","1","1","1","0","1","1","1","1","0","1","1","0","1","0","1","3","4","4","2","4","4","4","4","5","4","730025585505734658","陈","349","","","","","","","","","","","","","","","","","","","true","14","4","moral","602","other","他人","","","","","","","","","","","","","","",""
"null","","null","html-keyboard-response","162","239608","0.0-6.0-1.0-8.0-0.27","3","3","4","3","2","3","3","3","4","4","4","2","2","3","2","4","2","3","4","4","4","4","3","2","2","2","4","3","4","1","1","1","0","1","1","1","1","0","1","1","0","1","0","1","3","4","4","2","4","4","4","4","5","4","730025585505734658","陈","349","","","","","","","","","","","","","","","","","","","","","","","","","","","","","","","","","","","","","","","",""
"638","<p style=""color:white; font-size: 35px;"">廉正</p>","i","categorize-html","163","240247","0.0-6.0-1.0-8.0-1.27","3","3","4","3","2","3","3","3","4","4","4","2","2","3","2","4","2","3","4","4","4","4","3","2","2","2","4","3","4","1","1","1","0","1","1","1","1","0","1","1","0","1","0","1","3","4","4","2","4","4","4","4","5","4","730025585505734658","陈","349","","","","","","","","","","","","","","","","","","","true","14","4","moral","638","positive","廉正","","","","","","","","","","","","","","",""
"null","","null","html-keyboard-response","164","240498","0.0-6.0-1.0-8.0-0.28","3","3","4","3","2","3","3","3","4","4","4","2","2","3","2","4","2","3","4","4","4","4","3","2","2","2","4","3","4","1","1","1","0","1","1","1","1","0","1","1","0","1","0","1","3","4","4","2","4","4","4","4","5","4","730025585505734658","陈","349","","","","","","","","","","","","","","","","","","","","","","","","","","","","","","","","","","","","","","","",""
"360","<p style=""color:rgb(150, 250, 100); font-size: 35px;"">我的</p>","e","categorize-html","165","240859","0.0-6.0-1.0-8.0-1.28","3","3","4","3","2","3","3","3","4","4","4","2","2","3","2","4","2","3","4","4","4","4","3","2","2","2","4","3","4","1","1","1","0","1","1","1","1","0","1","1","0","1","0","1","3","4","4","2","4","4","4","4","5","4","730025585505734658","陈","349","","","","","","","","","","","","","","","","","","","true","14","4","moral","360","self","我的","","","","","","","","","","","","","","",""
"null","","null","html-keyboard-response","166","241110","0.0-6.0-1.0-8.0-0.29","3","3","4","3","2","3","3","3","4","4","4","2","2","3","2","4","2","3","4","4","4","4","3","2","2","2","4","3","4","1","1","1","0","1","1","1","1","0","1","1","0","1","0","1","3","4","4","2","4","4","4","4","5","4","730025585505734658","陈","349","","","","","","","","","","","","","","","","","","","","","","","","","","","","","","","","","","","","","","","",""
"666","<p style=""color:white; font-size: 35px;"">高尚</p>","i","categorize-html","167","241778","0.0-6.0-1.0-8.0-1.29","3","3","4","3","2","3","3","3","4","4","4","2","2","3","2","4","2","3","4","4","4","4","3","2","2","2","4","3","4","1","1","1","0","1","1","1","1","0","1","1","0","1","0","1","3","4","4","2","4","4","4","4","5","4","730025585505734658","陈","349","","","","","","","","","","","","","","","","","","","true","14","4","moral","666","positive","高尚","","","","","","","","","","","","","","",""
"null","","null","html-keyboard-response","168","242029","0.0-6.0-1.0-8.0-0.30","3","3","4","3","2","3","3","3","4","4","4","2","2","3","2","4","2","3","4","4","4","4","3","2","2","2","4","3","4","1","1","1","0","1","1","1","1","0","1","1","0","1","0","1","3","4","4","2","4","4","4","4","5","4","730025585505734658","陈","349","","","","","","","","","","","","","","","","","","","","","","","","","","","","","","","","","","","","","","","",""
"826","<p style=""color:rgb(150, 250, 100); font-size: 35px;"">他人的</p>","i","categorize-html","169","242858","0.0-6.0-1.0-8.0-1.30","3","3","4","3","2","3","3","3","4","4","4","2","2","3","2","4","2","3","4","4","4","4","3","2","2","2","4","3","4","1","1","1","0","1","1","1","1","0","1","1","0","1","0","1","3","4","4","2","4","4","4","4","5","4","730025585505734658","陈","349","","","","","","","","","","","","","","","","","","","true","14","4","moral","826","other","他人的","","","","","","","","","","","","","","",""
"null","","null","html-keyboard-response","170","243110","0.0-6.0-1.0-8.0-0.31","3","3","4","3","2","3","3","3","4","4","4","2","2","3","2","4","2","3","4","4","4","4","3","2","2","2","4","3","4","1","1","1","0","1","1","1","1","0","1","1","0","1","0","1","3","4","4","2","4","4","4","4","5","4","730025585505734658","陈","349","","","","","","","","","","","","","","","","","","","","","","","","","","","","","","","","","","","","","","","",""
"691","<p style=""color:white; font-size: 35px;"">缺德</p>","i","categorize-html","171","244146","0.0-6.0-1.0-8.0-1.31","3","3","4","3","2","3","3","3","4","4","4","2","2","3","2","4","2","3","4","4","4","4","3","2","2","2","4","3","4","1","1","1","0","1","1","1","1","0","1","1","0","1","0","1","3","4","4","2","4","4","4","4","5","4","730025585505734658","陈","349","","","","","","","","","","","","","","","","","","","false","14","4","moral","1284.5777777777778","negative","缺德","","","","","","","","","","","","","","",""
"null","","null","html-keyboard-response","172","244398","0.0-6.0-1.0-8.0-0.32","3","3","4","3","2","3","3","3","4","4","4","2","2","3","2","4","2","3","4","4","4","4","3","2","2","2","4","3","4","1","1","1","0","1","1","1","1","0","1","1","0","1","0","1","3","4","4","2","4","4","4","4","5","4","730025585505734658","陈","349","","","","","","","","","","","","","","","","","","","","","","","","","","","","","","","","","","","","","","","",""
"1308","<p style=""color:rgb(150, 250, 100); font-size: 35px;"">别人的</p>","i","categorize-html","173","245706","0.0-6.0-1.0-8.0-1.32","3","3","4","3","2","3","3","3","4","4","4","2","2","3","2","4","2","3","4","4","4","4","3","2","2","2","4","3","4","1","1","1","0","1","1","1","1","0","1","1","0","1","0","1","3","4","4","2","4","4","4","4","5","4","730025585505734658","陈","349","","","","","","","","","","","","","","","","","","","true","14","4","moral","1308","other","别人的","","","","","","","","","","","","","","",""
"null","","null","html-keyboard-response","174","245958","0.0-6.0-1.0-8.0-0.33","3","3","4","3","2","3","3","3","4","4","4","2","2","3","2","4","2","3","4","4","4","4","3","2","2","2","4","3","4","1","1","1","0","1","1","1","1","0","1","1","0","1","0","1","3","4","4","2","4","4","4","4","5","4","730025585505734658","陈","349","","","","","","","","","","","","","","","","","","","","","","","","","","","","","","","","","","","","","","","",""
"703","<p style=""color:white; font-size: 35px;"">不孝</p>","e","categorize-html","175","246663","0.0-6.0-1.0-8.0-1.33","3","3","4","3","2","3","3","3","4","4","4","2","2","3","2","4","2","3","4","4","4","4","3","2","2","2","4","3","4","1","1","1","0","1","1","1","1","0","1","1","0","1","0","1","3","4","4","2","4","4","4","4","5","4","730025585505734658","陈","349","","","","","","","","","","","","","","","","","","","true","14","4","moral","703","negative","不孝","","","","","","","","","","","","","","",""
"null","","null","html-keyboard-response","176","246915","0.0-6.0-1.0-8.0-0.34","3","3","4","3","2","3","3","3","4","4","4","2","2","3","2","4","2","3","4","4","4","4","3","2","2","2","4","3","4","1","1","1","0","1","1","1","1","0","1","1","0","1","0","1","3","4","4","2","4","4","4","4","5","4","730025585505734658","陈","349","","","","","","","","","","","","","","","","","","","","","","","","","","","","","","","","","","","","","","","",""
"664","<p style=""color:rgb(150, 250, 100); font-size: 35px;"">自己</p>","e","categorize-html","177","247580","0.0-6.0-1.0-8.0-1.34","3","3","4","3","2","3","3","3","4","4","4","2","2","3","2","4","2","3","4","4","4","4","3","2","2","2","4","3","4","1","1","1","0","1","1","1","1","0","1","1","0","1","0","1","3","4","4","2","4","4","4","4","5","4","730025585505734658","陈","349","","","","","","","","","","","","","","","","","","","true","14","4","moral","664","self","自己","","","","","","","","","","","","","","",""
"null","","null","html-keyboard-response","178","247832","0.0-6.0-1.0-8.0-0.35","3","3","4","3","2","3","3","3","4","4","4","2","2","3","2","4","2","3","4","4","4","4","3","2","2","2","4","3","4","1","1","1","0","1","1","1","1","0","1","1","0","1","0","1","3","4","4","2","4","4","4","4","5","4","730025585505734658","陈","349","","","","","","","","","","","","","","","","","","","","","","","","","","","","","","","","","","","","","","","",""
"643","<p style=""color:white; font-size: 35px;"">君子</p>","i","categorize-html","179","248476","0.0-6.0-1.0-8.0-1.35","3","3","4","3","2","3","3","3","4","4","4","2","2","3","2","4","2","3","4","4","4","4","3","2","2","2","4","3","4","1","1","1","0","1","1","1","1","0","1","1","0","1","0","1","3","4","4","2","4","4","4","4","5","4","730025585505734658","陈","349","","","","","","","","","","","","","","","","","","","true","14","4","moral","643","positive","君子","","","","","","","","","","","","","","",""
"null","","null","html-keyboard-response","180","248727","0.0-6.0-1.0-8.0-0.36","3","3","4","3","2","3","3","3","4","4","4","2","2","3","2","4","2","3","4","4","4","4","3","2","2","2","4","3","4","1","1","1","0","1","1","1","1","0","1","1","0","1","0","1","3","4","4","2","4","4","4","4","5","4","730025585505734658","陈","349","","","","","","","","","","","","","","","","","","","","","","","","","","","","","","","","","","","","","","","",""
"672","<p style=""color:rgb(150, 250, 100); font-size: 35px;"">我</p>","e","categorize-html","181","249400","0.0-6.0-1.0-8.0-1.36","3","3","4","3","2","3","3","3","4","4","4","2","2","3","2","4","2","3","4","4","4","4","3","2","2","2","4","3","4","1","1","1","0","1","1","1","1","0","1","1","0","1","0","1","3","4","4","2","4","4","4","4","5","4","730025585505734658","陈","349","","","","","","","","","","","","","","","","","","","true","14","4","moral","672","self","我","","","","","","","","","","","","","","",""
"null","","null","html-keyboard-response","182","249651","0.0-6.0-1.0-8.0-0.37","3","3","4","3","2","3","3","3","4","4","4","2","2","3","2","4","2","3","4","4","4","4","3","2","2","2","4","3","4","1","1","1","0","1","1","1","1","0","1","1","0","1","0","1","3","4","4","2","4","4","4","4","5","4","730025585505734658","陈","349","","","","","","","","","","","","","","","","","","","","","","","","","","","","","","","","","","","","","","","",""
"762","<p style=""color:white; font-size: 35px;"">诚信</p>","i","categorize-html","183","250413","0.0-6.0-1.0-8.0-1.37","3","3","4","3","2","3","3","3","4","4","4","2","2","3","2","4","2","3","4","4","4","4","3","2","2","2","4","3","4","1","1","1","0","1","1","1","1","0","1","1","0","1","0","1","3","4","4","2","4","4","4","4","5","4","730025585505734658","陈","349","","","","","","","","","","","","","","","","","","","true","14","4","moral","762","positive","诚信","","","","","","","","","","","","","","",""
"null","","null","html-keyboard-response","184","250665","0.0-6.0-1.0-8.0-0.38","3","3","4","3","2","3","3","3","4","4","4","2","2","3","2","4","2","3","4","4","4","4","3","2","2","2","4","3","4","1","1","1","0","1","1","1","1","0","1","1","0","1","0","1","3","4","4","2","4","4","4","4","5","4","730025585505734658","陈","349","","","","","","","","","","","","","","","","","","","","","","","","","","","","","","","","","","","","","","","",""
"726","<p style=""color:rgb(150, 250, 100); font-size: 35px;"">别人</p>","i","categorize-html","185","251392","0.0-6.0-1.0-8.0-1.38","3","3","4","3","2","3","3","3","4","4","4","2","2","3","2","4","2","3","4","4","4","4","3","2","2","2","4","3","4","1","1","1","0","1","1","1","1","0","1","1","0","1","0","1","3","4","4","2","4","4","4","4","5","4","730025585505734658","陈","349","","","","","","","","","","","","","","","","","","","true","14","4","moral","726","other","别人","","","","","","","","","","","","","","",""
"null","","null","html-keyboard-response","186","251643","0.0-6.0-1.0-8.0-0.39","3","3","4","3","2","3","3","3","4","4","4","2","2","3","2","4","2","3","4","4","4","4","3","2","2","2","4","3","4","1","1","1","0","1","1","1","1","0","1","1","0","1","0","1","3","4","4","2","4","4","4","4","5","4","730025585505734658","陈","349","","","","","","","","","","","","","","","","","","","","","","","","","","","","","","","","","","","","","","","",""
"962","<p style=""color:white; font-size: 35px;"">不孝</p>","e","categorize-html","187","252606","0.0-6.0-1.0-8.0-1.39","3","3","4","3","2","3","3","3","4","4","4","2","2","3","2","4","2","3","4","4","4","4","3","2","2","2","4","3","4","1","1","1","0","1","1","1","1","0","1","1","0","1","0","1","3","4","4","2","4","4","4","4","5","4","730025585505734658","陈","349","","","","","","","","","","","","","","","","","","","true","14","4","moral","962","negative","不孝","","","","","","","","","","","","","","",""
"null","","null","html-keyboard-response","188","252858","0.0-6.0-1.0-8.0-0.40","3","3","4","3","2","3","3","3","4","4","4","2","2","3","2","4","2","3","4","4","4","4","3","2","2","2","4","3","4","1","1","1","0","1","1","1","1","0","1","1","0","1","0","1","3","4","4","2","4","4","4","4","5","4","730025585505734658","陈","349","","","","","","","","","","","","","","","","","","","","","","","","","","","","","","","","","","","","","","","",""
"545","<p style=""color:rgb(150, 250, 100); font-size: 35px;"">自己的</p>","e","categorize-html","189","253405","0.0-6.0-1.0-8.0-1.40","3","3","4","3","2","3","3","3","4","4","4","2","2","3","2","4","2","3","4","4","4","4","3","2","2","2","4","3","4","1","1","1","0","1","1","1","1","0","1","1","0","1","0","1","3","4","4","2","4","4","4","4","5","4","730025585505734658","陈","349","","","","","","","","","","","","","","","","","","","true","14","4","moral","545","self","自己的","","","","","","","","","","","","","","",""
"null","","null","html-keyboard-response","190","253656","0.0-6.0-1.0-8.0-0.41","3","3","4","3","2","3","3","3","4","4","4","2","2","3","2","4","2","3","4","4","4","4","3","2","2","2","4","3","4","1","1","1","0","1","1","1","1","0","1","1","0","1","0","1","3","4","4","2","4","4","4","4","5","4","730025585505734658","陈","349","","","","","","","","","","","","","","","","","","","","","","","","","","","","","","","","","","","","","","","",""
"523","<p style=""color:white; font-size: 35px;"">不仁</p>","e","categorize-html","191","254179","0.0-6.0-1.0-8.0-1.41","3","3","4","3","2","3","3","3","4","4","4","2","2","3","2","4","2","3","4","4","4","4","3","2","2","2","4","3","4","1","1","1","0","1","1","1","1","0","1","1","0","1","0","1","3","4","4","2","4","4","4","4","5","4","730025585505734658","陈","349","","","","","","","","","","","","","","","","","","","true","14","4","moral","523","negative","不仁","","","","","","","","","","","","","","",""
"null","","null","html-keyboard-response","192","254430","0.0-6.0-1.0-8.0-0.42","3","3","4","3","2","3","3","3","4","4","4","2","2","3","2","4","2","3","4","4","4","4","3","2","2","2","4","3","4","1","1","1","0","1","1","1","1","0","1","1","0","1","0","1","3","4","4","2","4","4","4","4","5","4","730025585505734658","陈","349","","","","","","","","","","","","","","","","","","","","","","","","","","","","","","","","","","","","","","","",""
"505","<p style=""color:rgb(150, 250, 100); font-size: 35px;"">别人的</p>","i","categorize-html","193","254936","0.0-6.0-1.0-8.0-1.42","3","3","4","3","2","3","3","3","4","4","4","2","2","3","2","4","2","3","4","4","4","4","3","2","2","2","4","3","4","1","1","1","0","1","1","1","1","0","1","1","0","1","0","1","3","4","4","2","4","4","4","4","5","4","730025585505734658","陈","349","","","","","","","","","","","","","","","","","","","true","14","4","moral","505","other","别人的","","","","","","","","","","","","","","",""
"null","","null","html-keyboard-response","194","255187","0.0-6.0-1.0-8.0-0.43","3","3","4","3","2","3","3","3","4","4","4","2","2","3","2","4","2","3","4","4","4","4","3","2","2","2","4","3","4","1","1","1","0","1","1","1","1","0","1","1","0","1","0","1","3","4","4","2","4","4","4","4","5","4","730025585505734658","陈","349","","","","","","","","","","","","","","","","","","","","","","","","","","","","","","","","","","","","","","","",""
"611","<p style=""color:white; font-size: 35px;"">廉正</p>","i","categorize-html","195","255799","0.0-6.0-1.0-8.0-1.43","3","3","4","3","2","3","3","3","4","4","4","2","2","3","2","4","2","3","4","4","4","4","3","2","2","2","4","3","4","1","1","1","0","1","1","1","1","0","1","1","0","1","0","1","3","4","4","2","4","4","4","4","5","4","730025585505734658","陈","349","","","","","","","","","","","","","","","","","","","true","14","4","moral","611","positive","廉正","","","","","","","","","","","","","","",""
"null","","null","html-keyboard-response","196","256050","0.0-6.0-1.0-8.0-0.44","3","3","4","3","2","3","3","3","4","4","4","2","2","3","2","4","2","3","4","4","4","4","3","2","2","2","4","3","4","1","1","1","0","1","1","1","1","0","1","1","0","1","0","1","3","4","4","2","4","4","4","4","5","4","730025585505734658","陈","349","","","","","","","","","","","","","","","","","","","","","","","","","","","","","","","","","","","","","","","",""
"508","<p style=""color:rgb(150, 250, 100); font-size: 35px;"">自己的</p>","e","categorize-html","197","256559","0.0-6.0-1.0-8.0-1.44","3","3","4","3","2","3","3","3","4","4","4","2","2","3","2","4","2","3","4","4","4","4","3","2","2","2","4","3","4","1","1","1","0","1","1","1","1","0","1","1","0","1","0","1","3","4","4","2","4","4","4","4","5","4","730025585505734658","陈","349","","","","","","","","","","","","","","","","","","","true","14","4","moral","508","self","自己的","","","","","","","","","","","","","","",""
