"rt","stimulus","response","trial_type","trial_index","time_elapsed","internal_node_id","ses_1","ses_2","ses_3","ses_4","ses_5","ses_6","ses_7","ses_8","ses_9","ses_10","coreself_1","coreself_2","coreself_3","coreself_4","coreself_5","coreself_6","coreself_7","coreself_8","coreself_9","coreself_10","SGPS_1","SGPS_2","SGPS_3","SGPS_4","SGPS_5","SGPS_6","SGPS_7","SGPS_8","SGPS_9","NPI1","NPI2","NPI3","NPI4","NPI5","NPI6","NPI7","NPI8","NPI9","NPI10","NPI11","NPI12","NPI13","NPI14","NPI15","hsns_1","hsns_2","hsns_3","hsns_4","hsns_5","hsns_6","hsns_7","hsns_8","hsns_9","hsns_10","subj_idx","friend_name","ParticipantID","value","success","user_agent","responses","item_order","radio_event_ids","radio_event_times","key_event_times","mouse_event_times","straightlining","zigzagging","honeypot","timeout","failed_images","failed_audio","failed_video","version_attrib","version_target","correct","IAT","screen_id","task_id","RT","condition","word","varname","summary","version_attrib2","version_target2","time_stamp","view_history","response_type","key_press","avg_frame_time","center_x","center_y","correct_response","identity","Image","question_order"
"10989","
   <p><div style = ""color: white;font-size:25px;"">您好，欢迎参加本次实验。</div> </p>
   <p><div style = ""color: white;font-size:25px;"">为充分保障您的权利，请确保您已经知晓并同意《参与实验同意书》以及《数据公开知情同意书》。</div></p>
   <p><div style = ""color: white;font-size:25px;"">如果您未见过上述内容，请咨询实验员。</div></p>
   <p><div style = ""color: white;font-size:25px;"">如果您选择继续实验，则表示您已经清楚两份知情同意书的内容并同意。</div></p>
   <p><div style = ""color: red;font-size:30px;"">请确保您记得day0的实验编号，您将在本次实验输入该编号，若您忘记，请咨询实验员后作答。</div></p>
   <p> <div style = ""color: green;font-size:25px;""><按空格键至下页></div> </p>
   "," ","html-keyboard-response","0","10991","0.0-0.0","4","3","4","3","3","4","3","4","3","3","5","4","4","4","5","4","4","4","5","5","2","4","3","2","2","2","2","4","1","1","0","1","1","0","1","1","1","0","1","1","0","1","0","1","5","2","4","1","2","3","4","4","2","1","767772447134191618","吴","112","","","","","","","","","","","","","","","","","","","","","","","","","","","","","","","","","","","","","","","",""
"","","","call-function","1","10994","0.0-1.0-0.0","4","3","4","3","3","4","3","4","3","3","5","4","4","4","5","4","4","4","5","5","2","4","3","2","2","2","2","4","1","1","0","1","1","0","1","1","1","0","1","1","0","1","0","1","5","2","4","1","2","3","4","4","2","1","767772447134191618","吴","112","","","","","","","","","","","","","","","","","","","","","","","","","","","","","","","","","","","","","","","",""
"19944","","{""friend_name"":""吴"",""ParticipantID"":""112""}","survey-html-form","2","30939","0.0-1.0-1.0","4","3","4","3","3","4","3","4","3","3","5","4","4","4","5","4","4","4","5","5","2","4","3","2","2","2","2","4","1","1","0","1","1","0","1","1","1","0","1","1","0","1","0","1","5","2","4","1","2","3","4","4","2","1","767772447134191618","吴","112","","","","","","","","","","","","","","","","","","","","","","","","","","","","","","","","","","","","","","","",""
"","","","fullscreen","3","49951","0.0-2.0","4","3","4","3","3","4","3","4","3","3","5","4","4","4","5","4","4","4","5","5","2","4","3","2","2","2","2","4","1","1","0","1","1","0","1","1","1","0","1","1","0","1","0","1","5","2","4","1","2","3","4","4","2","1","767772447134191618","吴","112","","true","{}","","","","","","","","","","","","","","","","","","","","","","","","","","","","","","","","","","","","",""
"26748.599999904633","","{""Q01"":""4"",""Q02"":""3"",""Q03"":""4"",""Q04"":""3"",""Q05"":""3"",""Q06"":""4"",""Q07"":""3"",""Q08"":""4"",""Q09"":""3"",""Q10"":""3""}","survey-template","4","76704","0.0-3.0","4","3","4","3","3","4","3","4","3","3","5","4","4","4","5","4","4","4","5","5","2","4","3","2","2","2","2","4","1","1","0","1","1","0","1","1","1","0","1","1","0","1","0","1","5","2","4","1","2","3","4","4","2","1","767772447134191618","吴","112","","","","{""Q01"":""4"",""Q02"":""3"",""Q03"":""4"",""Q04"":""3"",""Q05"":""3"",""Q06"":""4"",""Q07"":""3"",""Q08"":""4"",""Q09"":""3"",""Q10"":""3""}","[0,1,2,3,4,5,6,7,8,9]","[""Q01"",""Q02"",""Q03"",""Q04"",""Q05"",""Q06"",""Q07"",""Q08"",""Q09"",""Q10""]","[7633.200000286102,10026.200000286102,11494.5,13103,16270.200000286102,17970.300000190735,19734.200000286102,21935.900000095367,23755.900000095367,24664.5]","[]","[7633.200000286102,10026.200000286102,11494.5,13103,16270.200000286102,17970.300000190735,19734.200000286102,21935.900000095367,23755.900000095367,24664.5,26747.099999904633]","0.3","0.4444444444444444","0","","","","","","","","","","","","","","","","","","","","","","","","","","","",""
"32840.09999990463","","{""Q01"":""5"",""Q02"":""4"",""Q03"":""4"",""Q04"":""4"",""Q05"":""5"",""Q06"":""4"",""Q07"":""4"",""Q08"":""4"",""Q09"":""5"",""Q10"":""5""}","survey-template","5","109551","0.0-4.0","4","3","4","3","3","4","3","4","3","3","5","4","4","4","5","4","4","4","5","5","2","4","3","2","2","2","2","4","1","1","0","1","1","0","1","1","1","0","1","1","0","1","0","1","5","2","4","1","2","3","4","4","2","1","767772447134191618","吴","112","","","","{""Q01"":""5"",""Q02"":""4"",""Q03"":""4"",""Q04"":""4"",""Q05"":""5"",""Q06"":""4"",""Q07"":""4"",""Q08"":""4"",""Q09"":""5"",""Q10"":""5""}","[0,1,2,3,4,5,6,7,8,9]","[""Q01"",""Q03"",""Q02"",""Q04"",""Q05"",""Q06"",""Q07"",""Q08"",""Q09"",""Q10""]","[3244.4000000953674,12063.599999904633,17512.5,20376.199999809265,21676.400000095367,23451.199999809265,24897.299999713898,27174,28894,30459.299999713898]","[]","[3244.4000000953674,12063.599999904633,17512.5,20376.199999809265,21676.400000095367,23451.199999809265,24897.299999713898,27174,28894,30459.299999713898,32838.59999990463]","0.4","0.1111111111111111","0","","","","","","","","","","","","","","","","","","","","","","","","","","","",""
"","","","preload","6","109808","0.0-5.0","4","3","4","3","3","4","3","4","3","3","5","4","4","4","5","4","4","4","5","5","2","4","3","2","2","2","2","4","1","1","0","1","1","0","1","1","1","0","1","1","0","1","0","1","5","2","4","1","2","3","4","4","2","1","767772447134191618","吴","112","","true","","","","","","","","","","","false","[]","[]","[]","","","","","","","","","","","","","","","","","","","","","","","",""
"32111","
    <h3>词语分类任务</h3>
    <p>在接下来的任务中，你需要对一系列词语进行分类。</p>
    <p>请先熟悉这些词语，这有利于你完成接下来的任务。</p>
    <table align=""center"" border=1 cellpadding=3 cellspacing=0>
    <tr> <th>类别</th> <th>词语</th> </tr>
    <tr> <td>&emsp;积极&emsp;</td> <td>&emsp;能干、全能、全才、高效、精干、天才&emsp;</td> </tr>
    <tr> <td>&emsp;消极&emsp;</td> <td>&emsp;无能、低能、废物、拙笨、愚钝、蠢笨&emsp;</td> </tr>
    <tr> <td>&emsp;自我&emsp;</td> <td>&emsp;我、我的、自己、自己的、本人、本人的&emsp;</td> </tr>
    <tr> <td>&emsp;他人&emsp;</td> <td>&emsp;他、他的、别人、别人的、他人、他人的&emsp;</td> </tr>
    </table><br/>","0","html-button-response","7","141920","0.0-6.0-0.0-0.0","4","3","4","3","3","4","3","4","3","3","5","4","4","4","5","4","4","4","5","5","2","4","3","2","2","2","2","4","1","1","0","1","1","0","1","1","1","0","1","1","0","1","0","1","5","2","4","1","2","3","4","4","2","1","767772447134191618","吴","112","","","","","","","","","","","","","","","","","2","2","","","","","","","","","","","","","","","","","","","","","",""
"15861","
    <div class=""tag-bottom"">
    <p> —— 任务1：对“他人”词和“自我”词分类 ——<p/>
    不同词语会出现在屏幕中央，类别标签将始终显示在屏幕上方<p/>   
    <span style=""color:#FFD866""><b>请根据上方标签的提示，尽可能正确并且快速地做出按键反应</b></span><p/>
    当按键错误时屏幕中会出现<span style=""color:red""> X </span>，需要按另一个键纠正才能继续<br/><p/>
    请把双手食指分别放在键盘的“E”键和“I”键上<p/>
    按<空格键>开始
    </p></div>"," ","html-keyboard-response","8","157785","0.0-6.0-0.0-1.0","4","3","4","3","3","4","3","4","3","3","5","4","4","4","5","4","4","4","5","5","2","4","3","2","2","2","2","4","1","1","0","1","1","0","1","1","1","0","1","1","0","1","0","1","5","2","4","1","2","3","4","4","2","1","767772447134191618","吴","112","","","","","","","","","","","","","","","","","","","","","","","","","","","","","","","","","","","","","","","",""
"null","","null","html-keyboard-response","9","158045","0.0-6.0-0.0-2.0-0.0","4","3","4","3","3","4","3","4","3","3","5","4","4","4","5","4","4","4","5","5","2","4","3","2","2","2","2","4","1","1","0","1","1","0","1","1","1","0","1","1","0","1","0","1","5","2","4","1","2","3","4","4","2","1","767772447134191618","吴","112","","","","","","","","","","","","","","","","","","","","","","","","","","","","","","","","","","","","","","","",""
"1126","<p style=""color:rgb(150, 250, 100); font-size: 35px;"">他人的</p>","e","categorize-html","10","159180","0.0-6.0-0.0-2.0-1.0","4","3","4","3","3","4","3","4","3","3","5","4","4","4","5","4","4","4","5","5","2","4","3","2","2","2","2","4","1","1","0","1","1","0","1","1","1","0","1","1","0","1","0","1","5","2","4","1","2","3","4","4","2","1","767772447134191618","吴","112","","","","","","","","","","","","","","","","","","","true","1","1","ability","1126","other","他人的","","","","","","","","","","","","","","",""
"null","","null","html-keyboard-response","11","159439","0.0-6.0-0.0-2.0-0.1","4","3","4","3","3","4","3","4","3","3","5","4","4","4","5","4","4","4","5","5","2","4","3","2","2","2","2","4","1","1","0","1","1","0","1","1","1","0","1","1","0","1","0","1","5","2","4","1","2","3","4","4","2","1","767772447134191618","吴","112","","","","","","","","","","","","","","","","","","","","","","","","","","","","","","","","","","","","","","","",""
"962","<p style=""color:rgb(150, 250, 100); font-size: 35px;"">我</p>","i","categorize-html","12","160410","0.0-6.0-0.0-2.0-1.1","4","3","4","3","3","4","3","4","3","3","5","4","4","4","5","4","4","4","5","5","2","4","3","2","2","2","2","4","1","1","0","1","1","0","1","1","1","0","1","1","0","1","0","1","5","2","4","1","2","3","4","4","2","1","767772447134191618","吴","112","","","","","","","","","","","","","","","","","","","true","1","1","ability","962","self","我","","","","","","","","","","","","","","",""
"null","","null","html-keyboard-response","13","160668","0.0-6.0-0.0-2.0-0.2","4","3","4","3","3","4","3","4","3","3","5","4","4","4","5","4","4","4","5","5","2","4","3","2","2","2","2","4","1","1","0","1","1","0","1","1","1","0","1","1","0","1","0","1","5","2","4","1","2","3","4","4","2","1","767772447134191618","吴","112","","","","","","","","","","","","","","","","","","","","","","","","","","","","","","","","","","","","","","","",""
"783","<p style=""color:rgb(150, 250, 100); font-size: 35px;"">本人</p>","i","categorize-html","14","161459","0.0-6.0-0.0-2.0-1.2","4","3","4","3","3","4","3","4","3","3","5","4","4","4","5","4","4","4","5","5","2","4","3","2","2","2","2","4","1","1","0","1","1","0","1","1","1","0","1","1","0","1","0","1","5","2","4","1","2","3","4","4","2","1","767772447134191618","吴","112","","","","","","","","","","","","","","","","","","","true","1","1","ability","783","self","本人","","","","","","","","","","","","","","",""
"null","","null","html-keyboard-response","15","161717","0.0-6.0-0.0-2.0-0.3","4","3","4","3","3","4","3","4","3","3","5","4","4","4","5","4","4","4","5","5","2","4","3","2","2","2","2","4","1","1","0","1","1","0","1","1","1","0","1","1","0","1","0","1","5","2","4","1","2","3","4","4","2","1","767772447134191618","吴","112","","","","","","","","","","","","","","","","","","","","","","","","","","","","","","","","","","","","","","","",""
"563","<p style=""color:rgb(150, 250, 100); font-size: 35px;"">他的</p>","e","categorize-html","16","162289","0.0-6.0-0.0-2.0-1.3","4","3","4","3","3","4","3","4","3","3","5","4","4","4","5","4","4","4","5","5","2","4","3","2","2","2","2","4","1","1","0","1","1","0","1","1","1","0","1","1","0","1","0","1","5","2","4","1","2","3","4","4","2","1","767772447134191618","吴","112","","","","","","","","","","","","","","","","","","","true","1","1","ability","563","other","他的","","","","","","","","","","","","","","",""
"null","","null","html-keyboard-response","17","162547","0.0-6.0-0.0-2.0-0.4","4","3","4","3","3","4","3","4","3","3","5","4","4","4","5","4","4","4","5","5","2","4","3","2","2","2","2","4","1","1","0","1","1","0","1","1","1","0","1","1","0","1","0","1","5","2","4","1","2","3","4","4","2","1","767772447134191618","吴","112","","","","","","","","","","","","","","","","","","","","","","","","","","","","","","","","","","","","","","","",""
"644","<p style=""color:rgb(150, 250, 100); font-size: 35px;"">他</p>","e","categorize-html","18","163199","0.0-6.0-0.0-2.0-1.4","4","3","4","3","3","4","3","4","3","3","5","4","4","4","5","4","4","4","5","5","2","4","3","2","2","2","2","4","1","1","0","1","1","0","1","1","1","0","1","1","0","1","0","1","5","2","4","1","2","3","4","4","2","1","767772447134191618","吴","112","","","","","","","","","","","","","","","","","","","true","1","1","ability","644","other","他","","","","","","","","","","","","","","",""
"null","","null","html-keyboard-response","19","163457","0.0-6.0-0.0-2.0-0.5","4","3","4","3","3","4","3","4","3","3","5","4","4","4","5","4","4","4","5","5","2","4","3","2","2","2","2","4","1","1","0","1","1","0","1","1","1","0","1","1","0","1","0","1","5","2","4","1","2","3","4","4","2","1","767772447134191618","吴","112","","","","","","","","","","","","","","","","","","","","","","","","","","","","","","","","","","","","","","","",""
"715","<p style=""color:rgb(150, 250, 100); font-size: 35px;"">本人的</p>","i","categorize-html","20","164181","0.0-6.0-0.0-2.0-1.5","4","3","4","3","3","4","3","4","3","3","5","4","4","4","5","4","4","4","5","5","2","4","3","2","2","2","2","4","1","1","0","1","1","0","1","1","1","0","1","1","0","1","0","1","5","2","4","1","2","3","4","4","2","1","767772447134191618","吴","112","","","","","","","","","","","","","","","","","","","true","1","1","ability","715","self","本人的","","","","","","","","","","","","","","",""
"null","","null","html-keyboard-response","21","164440","0.0-6.0-0.0-2.0-0.6","4","3","4","3","3","4","3","4","3","3","5","4","4","4","5","4","4","4","5","5","2","4","3","2","2","2","2","4","1","1","0","1","1","0","1","1","1","0","1","1","0","1","0","1","5","2","4","1","2","3","4","4","2","1","767772447134191618","吴","112","","","","","","","","","","","","","","","","","","","","","","","","","","","","","","","","","","","","","","","",""
"473","<p style=""color:rgb(150, 250, 100); font-size: 35px;"">我的</p>","i","categorize-html","22","164921","0.0-6.0-0.0-2.0-1.6","4","3","4","3","3","4","3","4","3","3","5","4","4","4","5","4","4","4","5","5","2","4","3","2","2","2","2","4","1","1","0","1","1","0","1","1","1","0","1","1","0","1","0","1","5","2","4","1","2","3","4","4","2","1","767772447134191618","吴","112","","","","","","","","","","","","","","","","","","","true","1","1","ability","473","self","我的","","","","","","","","","","","","","","",""
"null","","null","html-keyboard-response","23","165179","0.0-6.0-0.0-2.0-0.7","4","3","4","3","3","4","3","4","3","3","5","4","4","4","5","4","4","4","5","5","2","4","3","2","2","2","2","4","1","1","0","1","1","0","1","1","1","0","1","1","0","1","0","1","5","2","4","1","2","3","4","4","2","1","767772447134191618","吴","112","","","","","","","","","","","","","","","","","","","","","","","","","","","","","","","","","","","","","","","",""
"532","<p style=""color:rgb(150, 250, 100); font-size: 35px;"">自己</p>","i","categorize-html","24","165715","0.0-6.0-0.0-2.0-1.7","4","3","4","3","3","4","3","4","3","3","5","4","4","4","5","4","4","4","5","5","2","4","3","2","2","2","2","4","1","1","0","1","1","0","1","1","1","0","1","1","0","1","0","1","5","2","4","1","2","3","4","4","2","1","767772447134191618","吴","112","","","","","","","","","","","","","","","","","","","true","1","1","ability","532","self","自己","","","","","","","","","","","","","","",""
"null","","null","html-keyboard-response","25","165967","0.0-6.0-0.0-2.0-0.8","4","3","4","3","3","4","3","4","3","3","5","4","4","4","5","4","4","4","5","5","2","4","3","2","2","2","2","4","1","1","0","1","1","0","1","1","1","0","1","1","0","1","0","1","5","2","4","1","2","3","4","4","2","1","767772447134191618","吴","112","","","","","","","","","","","","","","","","","","","","","","","","","","","","","","","","","","","","","","","",""
"424","<p style=""color:rgb(150, 250, 100); font-size: 35px;"">自己的</p>","i","categorize-html","26","166397","0.0-6.0-0.0-2.0-1.8","4","3","4","3","3","4","3","4","3","3","5","4","4","4","5","4","4","4","5","5","2","4","3","2","2","2","2","4","1","1","0","1","1","0","1","1","1","0","1","1","0","1","0","1","5","2","4","1","2","3","4","4","2","1","767772447134191618","吴","112","","","","","","","","","","","","","","","","","","","true","1","1","ability","424","self","自己的","","","","","","","","","","","","","","",""
"null","","null","html-keyboard-response","27","166656","0.0-6.0-0.0-2.0-0.9","4","3","4","3","3","4","3","4","3","3","5","4","4","4","5","4","4","4","5","5","2","4","3","2","2","2","2","4","1","1","0","1","1","0","1","1","1","0","1","1","0","1","0","1","5","2","4","1","2","3","4","4","2","1","767772447134191618","吴","112","","","","","","","","","","","","","","","","","","","","","","","","","","","","","","","","","","","","","","","",""
"506","<p style=""color:rgb(150, 250, 100); font-size: 35px;"">别人</p>","e","categorize-html","28","167169","0.0-6.0-0.0-2.0-1.9","4","3","4","3","3","4","3","4","3","3","5","4","4","4","5","4","4","4","5","5","2","4","3","2","2","2","2","4","1","1","0","1","1","0","1","1","1","0","1","1","0","1","0","1","5","2","4","1","2","3","4","4","2","1","767772447134191618","吴","112","","","","","","","","","","","","","","","","","","","true","1","1","ability","506","other","别人","","","","","","","","","","","","","","",""
"null","","null","html-keyboard-response","29","167428","0.0-6.0-0.0-2.0-0.10","4","3","4","3","3","4","3","4","3","3","5","4","4","4","5","4","4","4","5","5","2","4","3","2","2","2","2","4","1","1","0","1","1","0","1","1","1","0","1","1","0","1","0","1","5","2","4","1","2","3","4","4","2","1","767772447134191618","吴","112","","","","","","","","","","","","","","","","","","","","","","","","","","","","","","","","","","","","","","","",""
"542","<p style=""color:rgb(150, 250, 100); font-size: 35px;"">他人</p>","e","categorize-html","30","167978","0.0-6.0-0.0-2.0-1.10","4","3","4","3","3","4","3","4","3","3","5","4","4","4","5","4","4","4","5","5","2","4","3","2","2","2","2","4","1","1","0","1","1","0","1","1","1","0","1","1","0","1","0","1","5","2","4","1","2","3","4","4","2","1","767772447134191618","吴","112","","","","","","","","","","","","","","","","","","","true","1","1","ability","542","other","他人","","","","","","","","","","","","","","",""
"null","","null","html-keyboard-response","31","168236","0.0-6.0-0.0-2.0-0.11","4","3","4","3","3","4","3","4","3","3","5","4","4","4","5","4","4","4","5","5","2","4","3","2","2","2","2","4","1","1","0","1","1","0","1","1","1","0","1","1","0","1","0","1","5","2","4","1","2","3","4","4","2","1","767772447134191618","吴","112","","","","","","","","","","","","","","","","","","","","","","","","","","","","","","","","","","","","","","","",""
"595","<p style=""color:rgb(150, 250, 100); font-size: 35px;"">别人的</p>","e","categorize-html","32","168838","0.0-6.0-0.0-2.0-1.11","4","3","4","3","3","4","3","4","3","3","5","4","4","4","5","4","4","4","5","5","2","4","3","2","2","2","2","4","1","1","0","1","1","0","1","1","1","0","1","1","0","1","0","1","5","2","4","1","2","3","4","4","2","1","767772447134191618","吴","112","","","","","","","","","","","","","","","","","","","true","1","1","ability","595","other","别人的","","","","","","","","","","","","","","",""
"9383","
    <div class=""tag-bottom""><p>
    —— 任务2：对“消极”词和“积极”词分类 ——<p/>   
    <span style=""color:#78DCE8""><b>注意上方，类别标签和需要分类的词语都已经改变</b></span><p/>
    <span style=""color:#FFD866""><b>请根据上方标签的提示，尽可能正确并且快速地做出按键反应</b></span><p/>
    当按键错误时屏幕中会出现<span style=""color:red""> X </span>，需要按另一个键纠正才能继续<br/><p/>
    请把双手食指分别放在键盘的“E”键和“I”键上<p/>
    按<空格键>开始
    </p></div>"," ","html-keyboard-response","33","178228","0.0-6.0-0.0-3.0","4","3","4","3","3","4","3","4","3","3","5","4","4","4","5","4","4","4","5","5","2","4","3","2","2","2","2","4","1","1","0","1","1","0","1","1","1","0","1","1","0","1","0","1","5","2","4","1","2","3","4","4","2","1","767772447134191618","吴","112","","","","","","","","","","","","","","","","","","","","","","","","","","","","","","","","","","","","","","","",""
"null","","null","html-keyboard-response","34","178487","0.0-6.0-0.0-4.0-0.0","4","3","4","3","3","4","3","4","3","3","5","4","4","4","5","4","4","4","5","5","2","4","3","2","2","2","2","4","1","1","0","1","1","0","1","1","1","0","1","1","0","1","0","1","5","2","4","1","2","3","4","4","2","1","767772447134191618","吴","112","","","","","","","","","","","","","","","","","","","","","","","","","","","","","","","","","","","","","","","",""
"1833","<p style=""color:white; font-size: 35px;"">低能</p>","e","categorize-html","35","180328","0.0-6.0-0.0-4.0-1.0","4","3","4","3","3","4","3","4","3","3","5","4","4","4","5","4","4","4","5","5","2","4","3","2","2","2","2","4","1","1","0","1","1","0","1","1","1","0","1","1","0","1","0","1","5","2","4","1","2","3","4","4","2","1","767772447134191618","吴","112","","","","","","","","","","","","","","","","","","","true","2","2","ability","1833","negative","低能","","","","","","","","","","","","","","",""
"null","","null","html-keyboard-response","36","180582","0.0-6.0-0.0-4.0-0.1","4","3","4","3","3","4","3","4","3","3","5","4","4","4","5","4","4","4","5","5","2","4","3","2","2","2","2","4","1","1","0","1","1","0","1","1","1","0","1","1","0","1","0","1","5","2","4","1","2","3","4","4","2","1","767772447134191618","吴","112","","","","","","","","","","","","","","","","","","","","","","","","","","","","","","","","","","","","","","","",""
"688","<p style=""color:white; font-size: 35px;"">精干</p>","i","categorize-html","37","181278","0.0-6.0-0.0-4.0-1.1","4","3","4","3","3","4","3","4","3","3","5","4","4","4","5","4","4","4","5","5","2","4","3","2","2","2","2","4","1","1","0","1","1","0","1","1","1","0","1","1","0","1","0","1","5","2","4","1","2","3","4","4","2","1","767772447134191618","吴","112","","","","","","","","","","","","","","","","","","","true","2","2","ability","688","positive","精干","","","","","","","","","","","","","","",""
"null","","null","html-keyboard-response","38","181547","0.0-6.0-0.0-4.0-0.2","4","3","4","3","3","4","3","4","3","3","5","4","4","4","5","4","4","4","5","5","2","4","3","2","2","2","2","4","1","1","0","1","1","0","1","1","1","0","1","1","0","1","0","1","5","2","4","1","2","3","4","4","2","1","767772447134191618","吴","112","","","","","","","","","","","","","","","","","","","","","","","","","","","","","","","","","","","","","","","",""
"633","<p style=""color:white; font-size: 35px;"">无能</p>","e","categorize-html","39","182189","0.0-6.0-0.0-4.0-1.2","4","3","4","3","3","4","3","4","3","3","5","4","4","4","5","4","4","4","5","5","2","4","3","2","2","2","2","4","1","1","0","1","1","0","1","1","1","0","1","1","0","1","0","1","5","2","4","1","2","3","4","4","2","1","767772447134191618","吴","112","","","","","","","","","","","","","","","","","","","true","2","2","ability","633","negative","无能","","","","","","","","","","","","","","",""
"null","","null","html-keyboard-response","40","182448","0.0-6.0-0.0-4.0-0.3","4","3","4","3","3","4","3","4","3","3","5","4","4","4","5","4","4","4","5","5","2","4","3","2","2","2","2","4","1","1","0","1","1","0","1","1","1","0","1","1","0","1","0","1","5","2","4","1","2","3","4","4","2","1","767772447134191618","吴","112","","","","","","","","","","","","","","","","","","","","","","","","","","","","","","","","","","","","","","","",""
"553","<p style=""color:white; font-size: 35px;"">愚钝</p>","e","categorize-html","41","183009","0.0-6.0-0.0-4.0-1.3","4","3","4","3","3","4","3","4","3","3","5","4","4","4","5","4","4","4","5","5","2","4","3","2","2","2","2","4","1","1","0","1","1","0","1","1","1","0","1","1","0","1","0","1","5","2","4","1","2","3","4","4","2","1","767772447134191618","吴","112","","","","","","","","","","","","","","","","","","","true","2","2","ability","553","negative","愚钝","","","","","","","","","","","","","","",""
"null","","null","html-keyboard-response","42","183267","0.0-6.0-0.0-4.0-0.4","4","3","4","3","3","4","3","4","3","3","5","4","4","4","5","4","4","4","5","5","2","4","3","2","2","2","2","4","1","1","0","1","1","0","1","1","1","0","1","1","0","1","0","1","5","2","4","1","2","3","4","4","2","1","767772447134191618","吴","112","","","","","","","","","","","","","","","","","","","","","","","","","","","","","","","","","","","","","","","",""
"593","<p style=""color:white; font-size: 35px;"">高效</p>","i","categorize-html","43","183868","0.0-6.0-0.0-4.0-1.4","4","3","4","3","3","4","3","4","3","3","5","4","4","4","5","4","4","4","5","5","2","4","3","2","2","2","2","4","1","1","0","1","1","0","1","1","1","0","1","1","0","1","0","1","5","2","4","1","2","3","4","4","2","1","767772447134191618","吴","112","","","","","","","","","","","","","","","","","","","true","2","2","ability","593","positive","高效","","","","","","","","","","","","","","",""
"null","","null","html-keyboard-response","44","184120","0.0-6.0-0.0-4.0-0.5","4","3","4","3","3","4","3","4","3","3","5","4","4","4","5","4","4","4","5","5","2","4","3","2","2","2","2","4","1","1","0","1","1","0","1","1","1","0","1","1","0","1","0","1","5","2","4","1","2","3","4","4","2","1","767772447134191618","吴","112","","","","","","","","","","","","","","","","","","","","","","","","","","","","","","","","","","","","","","","",""
"481","<p style=""color:white; font-size: 35px;"">天才</p>","i","categorize-html","45","184605","0.0-6.0-0.0-4.0-1.5","4","3","4","3","3","4","3","4","3","3","5","4","4","4","5","4","4","4","5","5","2","4","3","2","2","2","2","4","1","1","0","1","1","0","1","1","1","0","1","1","0","1","0","1","5","2","4","1","2","3","4","4","2","1","767772447134191618","吴","112","","","","","","","","","","","","","","","","","","","true","2","2","ability","481","positive","天才","","","","","","","","","","","","","","",""
"null","","null","html-keyboard-response","46","184863","0.0-6.0-0.0-4.0-0.6","4","3","4","3","3","4","3","4","3","3","5","4","4","4","5","4","4","4","5","5","2","4","3","2","2","2","2","4","1","1","0","1","1","0","1","1","1","0","1","1","0","1","0","1","5","2","4","1","2","3","4","4","2","1","767772447134191618","吴","112","","","","","","","","","","","","","","","","","","","","","","","","","","","","","","","","","","","","","","","",""
"808","<p style=""color:white; font-size: 35px;"">全能</p>","i","categorize-html","47","185675","0.0-6.0-0.0-4.0-1.6","4","3","4","3","3","4","3","4","3","3","5","4","4","4","5","4","4","4","5","5","2","4","3","2","2","2","2","4","1","1","0","1","1","0","1","1","1","0","1","1","0","1","0","1","5","2","4","1","2","3","4","4","2","1","767772447134191618","吴","112","","","","","","","","","","","","","","","","","","","true","2","2","ability","808","positive","全能","","","","","","","","","","","","","","",""
"null","","null","html-keyboard-response","48","185933","0.0-6.0-0.0-4.0-0.7","4","3","4","3","3","4","3","4","3","3","5","4","4","4","5","4","4","4","5","5","2","4","3","2","2","2","2","4","1","1","0","1","1","0","1","1","1","0","1","1","0","1","0","1","5","2","4","1","2","3","4","4","2","1","767772447134191618","吴","112","","","","","","","","","","","","","","","","","","","","","","","","","","","","","","","","","","","","","","","",""
"707","<p style=""color:white; font-size: 35px;"">废物</p>","e","categorize-html","49","186648","0.0-6.0-0.0-4.0-1.7","4","3","4","3","3","4","3","4","3","3","5","4","4","4","5","4","4","4","5","5","2","4","3","2","2","2","2","4","1","1","0","1","1","0","1","1","1","0","1","1","0","1","0","1","5","2","4","1","2","3","4","4","2","1","767772447134191618","吴","112","","","","","","","","","","","","","","","","","","","true","2","2","ability","707","negative","废物","","","","","","","","","","","","","","",""
"null","","null","html-keyboard-response","50","186906","0.0-6.0-0.0-4.0-0.8","4","3","4","3","3","4","3","4","3","3","5","4","4","4","5","4","4","4","5","5","2","4","3","2","2","2","2","4","1","1","0","1","1","0","1","1","1","0","1","1","0","1","0","1","5","2","4","1","2","3","4","4","2","1","767772447134191618","吴","112","","","","","","","","","","","","","","","","","","","","","","","","","","","","","","","","","","","","","","","",""
"574","<p style=""color:white; font-size: 35px;"">蠢笨</p>","e","categorize-html","51","187488","0.0-6.0-0.0-4.0-1.8","4","3","4","3","3","4","3","4","3","3","5","4","4","4","5","4","4","4","5","5","2","4","3","2","2","2","2","4","1","1","0","1","1","0","1","1","1","0","1","1","0","1","0","1","5","2","4","1","2","3","4","4","2","1","767772447134191618","吴","112","","","","","","","","","","","","","","","","","","","true","2","2","ability","574","negative","蠢笨","","","","","","","","","","","","","","",""
"null","","null","html-keyboard-response","52","187746","0.0-6.0-0.0-4.0-0.9","4","3","4","3","3","4","3","4","3","3","5","4","4","4","5","4","4","4","5","5","2","4","3","2","2","2","2","4","1","1","0","1","1","0","1","1","1","0","1","1","0","1","0","1","5","2","4","1","2","3","4","4","2","1","767772447134191618","吴","112","","","","","","","","","","","","","","","","","","","","","","","","","","","","","","","","","","","","","","","",""
"504","<p style=""color:white; font-size: 35px;"">拙笨</p>","e","categorize-html","53","188258","0.0-6.0-0.0-4.0-1.9","4","3","4","3","3","4","3","4","3","3","5","4","4","4","5","4","4","4","5","5","2","4","3","2","2","2","2","4","1","1","0","1","1","0","1","1","1","0","1","1","0","1","0","1","5","2","4","1","2","3","4","4","2","1","767772447134191618","吴","112","","","","","","","","","","","","","","","","","","","true","2","2","ability","504","negative","拙笨","","","","","","","","","","","","","","",""
"null","","null","html-keyboard-response","54","188516","0.0-6.0-0.0-4.0-0.10","4","3","4","3","3","4","3","4","3","3","5","4","4","4","5","4","4","4","5","5","2","4","3","2","2","2","2","4","1","1","0","1","1","0","1","1","1","0","1","1","0","1","0","1","5","2","4","1","2","3","4","4","2","1","767772447134191618","吴","112","","","","","","","","","","","","","","","","","","","","","","","","","","","","","","","","","","","","","","","",""
"584","<p style=""color:white; font-size: 35px;"">能干</p>","i","categorize-html","55","189104","0.0-6.0-0.0-4.0-1.10","4","3","4","3","3","4","3","4","3","3","5","4","4","4","5","4","4","4","5","5","2","4","3","2","2","2","2","4","1","1","0","1","1","0","1","1","1","0","1","1","0","1","0","1","5","2","4","1","2","3","4","4","2","1","767772447134191618","吴","112","","","","","","","","","","","","","","","","","","","true","2","2","ability","584","positive","能干","","","","","","","","","","","","","","",""
"null","","null","html-keyboard-response","56","189362","0.0-6.0-0.0-4.0-0.11","4","3","4","3","3","4","3","4","3","3","5","4","4","4","5","4","4","4","5","5","2","4","3","2","2","2","2","4","1","1","0","1","1","0","1","1","1","0","1","1","0","1","0","1","5","2","4","1","2","3","4","4","2","1","767772447134191618","吴","112","","","","","","","","","","","","","","","","","","","","","","","","","","","","","","","","","","","","","","","",""
"599","<p style=""color:white; font-size: 35px;"">全才</p>","i","categorize-html","57","189969","0.0-6.0-0.0-4.0-1.11","4","3","4","3","3","4","3","4","3","3","5","4","4","4","5","4","4","4","5","5","2","4","3","2","2","2","2","4","1","1","0","1","1","0","1","1","1","0","1","1","0","1","0","1","5","2","4","1","2","3","4","4","2","1","767772447134191618","吴","112","","","","","","","","","","","","","","","","","","","true","2","2","ability","599","positive","全才","","","","","","","","","","","","","","",""
"14631","
    <div class=""tag-bottom""><p>
    —— 任务3：对“他人/消极”词和“自我/积极”词分类 ——<p/>
    <span style=""color:#78DCE8""><b>注意上方，之前的四类词语将混合在一起交替呈现</b></span><p/>
    <span style=""color:#FFD866""><b>请根据上方标签的提示，尽可能正确并且快速地做出按键反应</b></span><p/>
    当按键错误时屏幕中会出现<span style=""color:red""> X </span>，需要按另一个键纠正才能继续<br/><p/>
    请把双手食指分别放在键盘的“E”键和“I”键上<p/>
    按<空格键>开始
    </p></div>"," ","html-keyboard-response","58","204601","0.0-6.0-0.0-5.0","4","3","4","3","3","4","3","4","3","3","5","4","4","4","5","4","4","4","5","5","2","4","3","2","2","2","2","4","1","1","0","1","1","0","1","1","1","0","1","1","0","1","0","1","5","2","4","1","2","3","4","4","2","1","767772447134191618","吴","112","","","","","","","","","","","","","","","","","","","","","","","","","","","","","","","","","","","","","","","",""
"null","","null","html-keyboard-response","59","204860","0.0-6.0-0.0-6.0-0.0","4","3","4","3","3","4","3","4","3","3","5","4","4","4","5","4","4","4","5","5","2","4","3","2","2","2","2","4","1","1","0","1","1","0","1","1","1","0","1","1","0","1","0","1","5","2","4","1","2","3","4","4","2","1","767772447134191618","吴","112","","","","","","","","","","","","","","","","","","","","","","","","","","","","","","","","","","","","","","","",""
"1000","<p style=""color:rgb(150, 250, 100); font-size: 35px;"">本人的</p>","i","categorize-html","60","205870","0.0-6.0-0.0-6.0-1.0","4","3","4","3","3","4","3","4","3","3","5","4","4","4","5","4","4","4","5","5","2","4","3","2","2","2","2","4","1","1","0","1","1","0","1","1","1","0","1","1","0","1","0","1","5","2","4","1","2","3","4","4","2","1","767772447134191618","吴","112","","","","","","","","","","","","","","","","","","","true","3","3","ability","1000","self","本人的","","","","","","","","","","","","","","",""
"null","","null","html-keyboard-response","61","206128","0.0-6.0-0.0-6.0-0.1","4","3","4","3","3","4","3","4","3","3","5","4","4","4","5","4","4","4","5","5","2","4","3","2","2","2","2","4","1","1","0","1","1","0","1","1","1","0","1","1","0","1","0","1","5","2","4","1","2","3","4","4","2","1","767772447134191618","吴","112","","","","","","","","","","","","","","","","","","","","","","","","","","","","","","","","","","","","","","","",""
"593","<p style=""color:white; font-size: 35px;"">蠢笨</p>","e","categorize-html","62","206728","0.0-6.0-0.0-6.0-1.1","4","3","4","3","3","4","3","4","3","3","5","4","4","4","5","4","4","4","5","5","2","4","3","2","2","2","2","4","1","1","0","1","1","0","1","1","1","0","1","1","0","1","0","1","5","2","4","1","2","3","4","4","2","1","767772447134191618","吴","112","","","","","","","","","","","","","","","","","","","true","3","3","ability","593","negative","蠢笨","","","","","","","","","","","","","","",""
"null","","null","html-keyboard-response","63","206987","0.0-6.0-0.0-6.0-0.2","4","3","4","3","3","4","3","4","3","3","5","4","4","4","5","4","4","4","5","5","2","4","3","2","2","2","2","4","1","1","0","1","1","0","1","1","1","0","1","1","0","1","0","1","5","2","4","1","2","3","4","4","2","1","767772447134191618","吴","112","","","","","","","","","","","","","","","","","","","","","","","","","","","","","","","","","","","","","","","",""
"1113","<p style=""color:rgb(150, 250, 100); font-size: 35px;"">他人的</p>","e","categorize-html","64","208104","0.0-6.0-0.0-6.0-1.2","4","3","4","3","3","4","3","4","3","3","5","4","4","4","5","4","4","4","5","5","2","4","3","2","2","2","2","4","1","1","0","1","1","0","1","1","1","0","1","1","0","1","0","1","5","2","4","1","2","3","4","4","2","1","767772447134191618","吴","112","","","","","","","","","","","","","","","","","","","true","3","3","ability","1113","other","他人的","","","","","","","","","","","","","","",""
"null","","null","html-keyboard-response","65","208363","0.0-6.0-0.0-6.0-0.3","4","3","4","3","3","4","3","4","3","3","5","4","4","4","5","4","4","4","5","5","2","4","3","2","2","2","2","4","1","1","0","1","1","0","1","1","1","0","1","1","0","1","0","1","5","2","4","1","2","3","4","4","2","1","767772447134191618","吴","112","","","","","","","","","","","","","","","","","","","","","","","","","","","","","","","","","","","","","","","",""
"736","<p style=""color:white; font-size: 35px;"">全能</p>","i","categorize-html","66","209104","0.0-6.0-0.0-6.0-1.3","4","3","4","3","3","4","3","4","3","3","5","4","4","4","5","4","4","4","5","5","2","4","3","2","2","2","2","4","1","1","0","1","1","0","1","1","1","0","1","1","0","1","0","1","5","2","4","1","2","3","4","4","2","1","767772447134191618","吴","112","","","","","","","","","","","","","","","","","","","true","3","3","ability","736","positive","全能","","","","","","","","","","","","","","",""
"null","","null","html-keyboard-response","67","209362","0.0-6.0-0.0-6.0-0.4","4","3","4","3","3","4","3","4","3","3","5","4","4","4","5","4","4","4","5","5","2","4","3","2","2","2","2","4","1","1","0","1","1","0","1","1","1","0","1","1","0","1","0","1","5","2","4","1","2","3","4","4","2","1","767772447134191618","吴","112","","","","","","","","","","","","","","","","","","","","","","","","","","","","","","","","","","","","","","","",""
"518","<p style=""color:rgb(150, 250, 100); font-size: 35px;"">自己的</p>","i","categorize-html","68","209882","0.0-6.0-0.0-6.0-1.4","4","3","4","3","3","4","3","4","3","3","5","4","4","4","5","4","4","4","5","5","2","4","3","2","2","2","2","4","1","1","0","1","1","0","1","1","1","0","1","1","0","1","0","1","5","2","4","1","2","3","4","4","2","1","767772447134191618","吴","112","","","","","","","","","","","","","","","","","","","true","3","3","ability","518","self","自己的","","","","","","","","","","","","","","",""
"null","","null","html-keyboard-response","69","210140","0.0-6.0-0.0-6.0-0.5","4","3","4","3","3","4","3","4","3","3","5","4","4","4","5","4","4","4","5","5","2","4","3","2","2","2","2","4","1","1","0","1","1","0","1","1","1","0","1","1","0","1","0","1","5","2","4","1","2","3","4","4","2","1","767772447134191618","吴","112","","","","","","","","","","","","","","","","","","","","","","","","","","","","","","","","","","","","","","","",""
"560","<p style=""color:white; font-size: 35px;"">精干</p>","i","categorize-html","70","210709","0.0-6.0-0.0-6.0-1.5","4","3","4","3","3","4","3","4","3","3","5","4","4","4","5","4","4","4","5","5","2","4","3","2","2","2","2","4","1","1","0","1","1","0","1","1","1","0","1","1","0","1","0","1","5","2","4","1","2","3","4","4","2","1","767772447134191618","吴","112","","","","","","","","","","","","","","","","","","","true","3","3","ability","560","positive","精干","","","","","","","","","","","","","","",""
"null","","null","html-keyboard-response","71","210967","0.0-6.0-0.0-6.0-0.6","4","3","4","3","3","4","3","4","3","3","5","4","4","4","5","4","4","4","5","5","2","4","3","2","2","2","2","4","1","1","0","1","1","0","1","1","1","0","1","1","0","1","0","1","5","2","4","1","2","3","4","4","2","1","767772447134191618","吴","112","","","","","","","","","","","","","","","","","","","","","","","","","","","","","","","","","","","","","","","",""
"565","<p style=""color:rgb(150, 250, 100); font-size: 35px;"">别人的</p>","e","categorize-html","72","211540","0.0-6.0-0.0-6.0-1.6","4","3","4","3","3","4","3","4","3","3","5","4","4","4","5","4","4","4","5","5","2","4","3","2","2","2","2","4","1","1","0","1","1","0","1","1","1","0","1","1","0","1","0","1","5","2","4","1","2","3","4","4","2","1","767772447134191618","吴","112","","","","","","","","","","","","","","","","","","","true","3","3","ability","565","other","别人的","","","","","","","","","","","","","","",""
"null","","null","html-keyboard-response","73","211798","0.0-6.0-0.0-6.0-0.7","4","3","4","3","3","4","3","4","3","3","5","4","4","4","5","4","4","4","5","5","2","4","3","2","2","2","2","4","1","1","0","1","1","0","1","1","1","0","1","1","0","1","0","1","5","2","4","1","2","3","4","4","2","1","767772447134191618","吴","112","","","","","","","","","","","","","","","","","","","","","","","","","","","","","","","","","","","","","","","",""
"572","<p style=""color:white; font-size: 35px;"">无能</p>","e","categorize-html","74","212379","0.0-6.0-0.0-6.0-1.7","4","3","4","3","3","4","3","4","3","3","5","4","4","4","5","4","4","4","5","5","2","4","3","2","2","2","2","4","1","1","0","1","1","0","1","1","1","0","1","1","0","1","0","1","5","2","4","1","2","3","4","4","2","1","767772447134191618","吴","112","","","","","","","","","","","","","","","","","","","true","3","3","ability","572","negative","无能","","","","","","","","","","","","","","",""
"null","","null","html-keyboard-response","75","212631","0.0-6.0-0.0-6.0-0.8","4","3","4","3","3","4","3","4","3","3","5","4","4","4","5","4","4","4","5","5","2","4","3","2","2","2","2","4","1","1","0","1","1","0","1","1","1","0","1","1","0","1","0","1","5","2","4","1","2","3","4","4","2","1","767772447134191618","吴","112","","","","","","","","","","","","","","","","","","","","","","","","","","","","","","","","","","","","","","","",""
"507","<p style=""color:rgb(150, 250, 100); font-size: 35px;"">自己</p>","i","categorize-html","76","213144","0.0-6.0-0.0-6.0-1.8","4","3","4","3","3","4","3","4","3","3","5","4","4","4","5","4","4","4","5","5","2","4","3","2","2","2","2","4","1","1","0","1","1","0","1","1","1","0","1","1","0","1","0","1","5","2","4","1","2","3","4","4","2","1","767772447134191618","吴","112","","","","","","","","","","","","","","","","","","","true","3","3","ability","507","self","自己","","","","","","","","","","","","","","",""
"null","","null","html-keyboard-response","77","213402","0.0-6.0-0.0-6.0-0.9","4","3","4","3","3","4","3","4","3","3","5","4","4","4","5","4","4","4","5","5","2","4","3","2","2","2","2","4","1","1","0","1","1","0","1","1","1","0","1","1","0","1","0","1","5","2","4","1","2","3","4","4","2","1","767772447134191618","吴","112","","","","","","","","","","","","","","","","","","","","","","","","","","","","","","","","","","","","","","","",""
"408","<p style=""color:white; font-size: 35px;"">能干</p>","i","categorize-html","78","213818","0.0-6.0-0.0-6.0-1.9","4","3","4","3","3","4","3","4","3","3","5","4","4","4","5","4","4","4","5","5","2","4","3","2","2","2","2","4","1","1","0","1","1","0","1","1","1","0","1","1","0","1","0","1","5","2","4","1","2","3","4","4","2","1","767772447134191618","吴","112","","","","","","","","","","","","","","","","","","","true","3","3","ability","408","positive","能干","","","","","","","","","","","","","","",""
"null","","null","html-keyboard-response","79","214076","0.0-6.0-0.0-6.0-0.10","4","3","4","3","3","4","3","4","3","3","5","4","4","4","5","4","4","4","5","5","2","4","3","2","2","2","2","4","1","1","0","1","1","0","1","1","1","0","1","1","0","1","0","1","5","2","4","1","2","3","4","4","2","1","767772447134191618","吴","112","","","","","","","","","","","","","","","","","","","","","","","","","","","","","","","","","","","","","","","",""
"550","<p style=""color:rgb(150, 250, 100); font-size: 35px;"">他</p>","e","categorize-html","80","214629","0.0-6.0-0.0-6.0-1.10","4","3","4","3","3","4","3","4","3","3","5","4","4","4","5","4","4","4","5","5","2","4","3","2","2","2","2","4","1","1","0","1","1","0","1","1","1","0","1","1","0","1","0","1","5","2","4","1","2","3","4","4","2","1","767772447134191618","吴","112","","","","","","","","","","","","","","","","","","","true","3","3","ability","550","other","他","","","","","","","","","","","","","","",""
"null","","null","html-keyboard-response","81","214888","0.0-6.0-0.0-6.0-0.11","4","3","4","3","3","4","3","4","3","3","5","4","4","4","5","4","4","4","5","5","2","4","3","2","2","2","2","4","1","1","0","1","1","0","1","1","1","0","1","1","0","1","0","1","5","2","4","1","2","3","4","4","2","1","767772447134191618","吴","112","","","","","","","","","","","","","","","","","","","","","","","","","","","","","","","","","","","","","","","",""
"612","<p style=""color:white; font-size: 35px;"">废物</p>","e","categorize-html","82","215508","0.0-6.0-0.0-6.0-1.11","4","3","4","3","3","4","3","4","3","3","5","4","4","4","5","4","4","4","5","5","2","4","3","2","2","2","2","4","1","1","0","1","1","0","1","1","1","0","1","1","0","1","0","1","5","2","4","1","2","3","4","4","2","1","767772447134191618","吴","112","","","","","","","","","","","","","","","","","","","true","3","3","ability","612","negative","废物","","","","","","","","","","","","","","",""
"null","","null","html-keyboard-response","83","215767","0.0-6.0-0.0-6.0-0.12","4","3","4","3","3","4","3","4","3","3","5","4","4","4","5","4","4","4","5","5","2","4","3","2","2","2","2","4","1","1","0","1","1","0","1","1","1","0","1","1","0","1","0","1","5","2","4","1","2","3","4","4","2","1","767772447134191618","吴","112","","","","","","","","","","","","","","","","","","","","","","","","","","","","","","","","","","","","","","","",""
"443","<p style=""color:rgb(150, 250, 100); font-size: 35px;"">他人</p>","e","categorize-html","84","216218","0.0-6.0-0.0-6.0-1.12","4","3","4","3","3","4","3","4","3","3","5","4","4","4","5","4","4","4","5","5","2","4","3","2","2","2","2","4","1","1","0","1","1","0","1","1","1","0","1","1","0","1","0","1","5","2","4","1","2","3","4","4","2","1","767772447134191618","吴","112","","","","","","","","","","","","","","","","","","","true","3","3","ability","443","other","他人","","","","","","","","","","","","","","",""
"null","","null","html-keyboard-response","85","216477","0.0-6.0-0.0-6.0-0.13","4","3","4","3","3","4","3","4","3","3","5","4","4","4","5","4","4","4","5","5","2","4","3","2","2","2","2","4","1","1","0","1","1","0","1","1","1","0","1","1","0","1","0","1","5","2","4","1","2","3","4","4","2","1","767772447134191618","吴","112","","","","","","","","","","","","","","","","","","","","","","","","","","","","","","","","","","","","","","","",""
"622","<p style=""color:white; font-size: 35px;"">拙笨</p>","e","categorize-html","86","217104","0.0-6.0-0.0-6.0-1.13","4","3","4","3","3","4","3","4","3","3","5","4","4","4","5","4","4","4","5","5","2","4","3","2","2","2","2","4","1","1","0","1","1","0","1","1","1","0","1","1","0","1","0","1","5","2","4","1","2","3","4","4","2","1","767772447134191618","吴","112","","","","","","","","","","","","","","","","","","","true","3","3","ability","622","negative","拙笨","","","","","","","","","","","","","","",""
"null","","null","html-keyboard-response","87","217362","0.0-6.0-0.0-6.0-0.14","4","3","4","3","3","4","3","4","3","3","5","4","4","4","5","4","4","4","5","5","2","4","3","2","2","2","2","4","1","1","0","1","1","0","1","1","1","0","1","1","0","1","0","1","5","2","4","1","2","3","4","4","2","1","767772447134191618","吴","112","","","","","","","","","","","","","","","","","","","","","","","","","","","","","","","","","","","","","","","",""
"619","<p style=""color:rgb(150, 250, 100); font-size: 35px;"">我</p>","i","categorize-html","88","217989","0.0-6.0-0.0-6.0-1.14","4","3","4","3","3","4","3","4","3","3","5","4","4","4","5","4","4","4","5","5","2","4","3","2","2","2","2","4","1","1","0","1","1","0","1","1","1","0","1","1","0","1","0","1","5","2","4","1","2","3","4","4","2","1","767772447134191618","吴","112","","","","","","","","","","","","","","","","","","","true","3","3","ability","619","self","我","","","","","","","","","","","","","","",""
"null","","null","html-keyboard-response","89","218247","0.0-6.0-0.0-6.0-0.15","4","3","4","3","3","4","3","4","3","3","5","4","4","4","5","4","4","4","5","5","2","4","3","2","2","2","2","4","1","1","0","1","1","0","1","1","1","0","1","1","0","1","0","1","5","2","4","1","2","3","4","4","2","1","767772447134191618","吴","112","","","","","","","","","","","","","","","","","","","","","","","","","","","","","","","","","","","","","","","",""
"514","<p style=""color:white; font-size: 35px;"">天才</p>","i","categorize-html","90","218771","0.0-6.0-0.0-6.0-1.15","4","3","4","3","3","4","3","4","3","3","5","4","4","4","5","4","4","4","5","5","2","4","3","2","2","2","2","4","1","1","0","1","1","0","1","1","1","0","1","1","0","1","0","1","5","2","4","1","2","3","4","4","2","1","767772447134191618","吴","112","","","","","","","","","","","","","","","","","","","true","3","3","ability","514","positive","天才","","","","","","","","","","","","","","",""
"null","","null","html-keyboard-response","91","219024","0.0-6.0-0.0-6.0-0.16","4","3","4","3","3","4","3","4","3","3","5","4","4","4","5","4","4","4","5","5","2","4","3","2","2","2","2","4","1","1","0","1","1","0","1","1","1","0","1","1","0","1","0","1","5","2","4","1","2","3","4","4","2","1","767772447134191618","吴","112","","","","","","","","","","","","","","","","","","","","","","","","","","","","","","","","","","","","","","","",""
"626","<p style=""color:rgb(150, 250, 100); font-size: 35px;"">本人</p>","i","categorize-html","92","219654","0.0-6.0-0.0-6.0-1.16","4","3","4","3","3","4","3","4","3","3","5","4","4","4","5","4","4","4","5","5","2","4","3","2","2","2","2","4","1","1","0","1","1","0","1","1","1","0","1","1","0","1","0","1","5","2","4","1","2","3","4","4","2","1","767772447134191618","吴","112","","","","","","","","","","","","","","","","","","","true","3","3","ability","626","self","本人","","","","","","","","","","","","","","",""
"null","","null","html-keyboard-response","93","219908","0.0-6.0-0.0-6.0-0.17","4","3","4","3","3","4","3","4","3","3","5","4","4","4","5","4","4","4","5","5","2","4","3","2","2","2","2","4","1","1","0","1","1","0","1","1","1","0","1","1","0","1","0","1","5","2","4","1","2","3","4","4","2","1","767772447134191618","吴","112","","","","","","","","","","","","","","","","","","","","","","","","","","","","","","","","","","","","","","","",""
"435","<p style=""color:white; font-size: 35px;"">全才</p>","i","categorize-html","94","220351","0.0-6.0-0.0-6.0-1.17","4","3","4","3","3","4","3","4","3","3","5","4","4","4","5","4","4","4","5","5","2","4","3","2","2","2","2","4","1","1","0","1","1","0","1","1","1","0","1","1","0","1","0","1","5","2","4","1","2","3","4","4","2","1","767772447134191618","吴","112","","","","","","","","","","","","","","","","","","","true","3","3","ability","435","positive","全才","","","","","","","","","","","","","","",""
"null","","null","html-keyboard-response","95","220603","0.0-6.0-0.0-6.0-0.18","4","3","4","3","3","4","3","4","3","3","5","4","4","4","5","4","4","4","5","5","2","4","3","2","2","2","2","4","1","1","0","1","1","0","1","1","1","0","1","1","0","1","0","1","5","2","4","1","2","3","4","4","2","1","767772447134191618","吴","112","","","","","","","","","","","","","","","","","","","","","","","","","","","","","","","","","","","","","","","",""
"557","<p style=""color:rgb(150, 250, 100); font-size: 35px;"">他的</p>","e","categorize-html","96","221170","0.0-6.0-0.0-6.0-1.18","4","3","4","3","3","4","3","4","3","3","5","4","4","4","5","4","4","4","5","5","2","4","3","2","2","2","2","4","1","1","0","1","1","0","1","1","1","0","1","1","0","1","0","1","5","2","4","1","2","3","4","4","2","1","767772447134191618","吴","112","","","","","","","","","","","","","","","","","","","true","3","3","ability","557","other","他的","","","","","","","","","","","","","","",""
"null","","null","html-keyboard-response","97","221428","0.0-6.0-0.0-6.0-0.19","4","3","4","3","3","4","3","4","3","3","5","4","4","4","5","4","4","4","5","5","2","4","3","2","2","2","2","4","1","1","0","1","1","0","1","1","1","0","1","1","0","1","0","1","5","2","4","1","2","3","4","4","2","1","767772447134191618","吴","112","","","","","","","","","","","","","","","","","","","","","","","","","","","","","","","","","","","","","","","",""
"592","<p style=""color:white; font-size: 35px;"">低能</p>","e","categorize-html","98","222029","0.0-6.0-0.0-6.0-1.19","4","3","4","3","3","4","3","4","3","3","5","4","4","4","5","4","4","4","5","5","2","4","3","2","2","2","2","4","1","1","0","1","1","0","1","1","1","0","1","1","0","1","0","1","5","2","4","1","2","3","4","4","2","1","767772447134191618","吴","112","","","","","","","","","","","","","","","","","","","true","3","3","ability","592","negative","低能","","","","","","","","","","","","","","",""
"null","","null","html-keyboard-response","99","222287","0.0-6.0-0.0-6.0-0.20","4","3","4","3","3","4","3","4","3","3","5","4","4","4","5","4","4","4","5","5","2","4","3","2","2","2","2","4","1","1","0","1","1","0","1","1","1","0","1","1","0","1","0","1","5","2","4","1","2","3","4","4","2","1","767772447134191618","吴","112","","","","","","","","","","","","","","","","","","","","","","","","","","","","","","","","","","","","","","","",""
"684","<p style=""color:rgb(150, 250, 100); font-size: 35px;"">别人</p>","e","categorize-html","100","222979","0.0-6.0-0.0-6.0-1.20","4","3","4","3","3","4","3","4","3","3","5","4","4","4","5","4","4","4","5","5","2","4","3","2","2","2","2","4","1","1","0","1","1","0","1","1","1","0","1","1","0","1","0","1","5","2","4","1","2","3","4","4","2","1","767772447134191618","吴","112","","","","","","","","","","","","","","","","","","","true","3","3","ability","684","other","别人","","","","","","","","","","","","","","",""
"null","","null","html-keyboard-response","101","223238","0.0-6.0-0.0-6.0-0.21","4","3","4","3","3","4","3","4","3","3","5","4","4","4","5","4","4","4","5","5","2","4","3","2","2","2","2","4","1","1","0","1","1","0","1","1","1","0","1","1","0","1","0","1","5","2","4","1","2","3","4","4","2","1","767772447134191618","吴","112","","","","","","","","","","","","","","","","","","","","","","","","","","","","","","","","","","","","","","","",""
"512","<p style=""color:white; font-size: 35px;"">高效</p>","i","categorize-html","102","223758","0.0-6.0-0.0-6.0-1.21","4","3","4","3","3","4","3","4","3","3","5","4","4","4","5","4","4","4","5","5","2","4","3","2","2","2","2","4","1","1","0","1","1","0","1","1","1","0","1","1","0","1","0","1","5","2","4","1","2","3","4","4","2","1","767772447134191618","吴","112","","","","","","","","","","","","","","","","","","","true","3","3","ability","512","positive","高效","","","","","","","","","","","","","","",""
"null","","null","html-keyboard-response","103","224016","0.0-6.0-0.0-6.0-0.22","4","3","4","3","3","4","3","4","3","3","5","4","4","4","5","4","4","4","5","5","2","4","3","2","2","2","2","4","1","1","0","1","1","0","1","1","1","0","1","1","0","1","0","1","5","2","4","1","2","3","4","4","2","1","767772447134191618","吴","112","","","","","","","","","","","","","","","","","","","","","","","","","","","","","","","","","","","","","","","",""
"484","<p style=""color:rgb(150, 250, 100); font-size: 35px;"">我的</p>","i","categorize-html","104","224508","0.0-6.0-0.0-6.0-1.22","4","3","4","3","3","4","3","4","3","3","5","4","4","4","5","4","4","4","5","5","2","4","3","2","2","2","2","4","1","1","0","1","1","0","1","1","1","0","1","1","0","1","0","1","5","2","4","1","2","3","4","4","2","1","767772447134191618","吴","112","","","","","","","","","","","","","","","","","","","true","3","3","ability","484","self","我的","","","","","","","","","","","","","","",""
"null","","null","html-keyboard-response","105","224765","0.0-6.0-0.0-6.0-0.23","4","3","4","3","3","4","3","4","3","3","5","4","4","4","5","4","4","4","5","5","2","4","3","2","2","2","2","4","1","1","0","1","1","0","1","1","1","0","1","1","0","1","0","1","5","2","4","1","2","3","4","4","2","1","767772447134191618","吴","112","","","","","","","","","","","","","","","","","","","","","","","","","","","","","","","","","","","","","","","",""
"576","<p style=""color:white; font-size: 35px;"">愚钝</p>","e","categorize-html","106","225348","0.0-6.0-0.0-6.0-1.23","4","3","4","3","3","4","3","4","3","3","5","4","4","4","5","4","4","4","5","5","2","4","3","2","2","2","2","4","1","1","0","1","1","0","1","1","1","0","1","1","0","1","0","1","5","2","4","1","2","3","4","4","2","1","767772447134191618","吴","112","","","","","","","","","","","","","","","","","","","true","3","3","ability","576","negative","愚钝","","","","","","","","","","","","","","",""
"2994","
    <div class=""tag-bottom""><p>
    —— 任务4：对“他人/消极”词和“自我/积极”词分类 ——<p/>
    <span style=""color:#78DCE8""><b>与刚才的任务完全相同，请再次对这四类词语分类</b></span><p/>
    <span style=""color:#FFD866""><b>请根据上方标签的提示，尽可能正确并且快速地做出按键反应</b></span><p/>
    当按键错误时屏幕中会出现<span style=""color:red""> X </span>，需要按另一个键纠正才能继续<br/><p/>
    请把双手食指分别放在键盘的“E”键和“I”键上<p/>
    按<空格键>开始
    </p></div>"," ","html-keyboard-response","107","228350","0.0-6.0-0.0-7.0","4","3","4","3","3","4","3","4","3","3","5","4","4","4","5","4","4","4","5","5","2","4","3","2","2","2","2","4","1","1","0","1","1","0","1","1","1","0","1","1","0","1","0","1","5","2","4","1","2","3","4","4","2","1","767772447134191618","吴","112","","","","","","","","","","","","","","","","","","","","","","","","","","","","","","","","","","","","","","","",""
"null","","null","html-keyboard-response","108","228601","0.0-6.0-0.0-8.0-0.0","4","3","4","3","3","4","3","4","3","3","5","4","4","4","5","4","4","4","5","5","2","4","3","2","2","2","2","4","1","1","0","1","1","0","1","1","1","0","1","1","0","1","0","1","5","2","4","1","2","3","4","4","2","1","767772447134191618","吴","112","","","","","","","","","","","","","","","","","","","","","","","","","","","","","","","","","","","","","","","",""
"899","<p style=""color:rgb(150, 250, 100); font-size: 35px;"">本人</p>","i","categorize-html","109","229509","0.0-6.0-0.0-8.0-1.0","4","3","4","3","3","4","3","4","3","3","5","4","4","4","5","4","4","4","5","5","2","4","3","2","2","2","2","4","1","1","0","1","1","0","1","1","1","0","1","1","0","1","0","1","5","2","4","1","2","3","4","4","2","1","767772447134191618","吴","112","","","","","","","","","","","","","","","","","","","true","4","4","ability","899","self","本人","","","","","","","","","","","","","","",""
"null","","null","html-keyboard-response","110","229767","0.0-6.0-0.0-8.0-0.1","4","3","4","3","3","4","3","4","3","3","5","4","4","4","5","4","4","4","5","5","2","4","3","2","2","2","2","4","1","1","0","1","1","0","1","1","1","0","1","1","0","1","0","1","5","2","4","1","2","3","4","4","2","1","767772447134191618","吴","112","","","","","","","","","","","","","","","","","","","","","","","","","","","","","","","","","","","","","","","",""
"553","<p style=""color:white; font-size: 35px;"">愚钝</p>","e","categorize-html","111","230329","0.0-6.0-0.0-8.0-1.1","4","3","4","3","3","4","3","4","3","3","5","4","4","4","5","4","4","4","5","5","2","4","3","2","2","2","2","4","1","1","0","1","1","0","1","1","1","0","1","1","0","1","0","1","5","2","4","1","2","3","4","4","2","1","767772447134191618","吴","112","","","","","","","","","","","","","","","","","","","true","4","4","ability","553","negative","愚钝","","","","","","","","","","","","","","",""
"null","","null","html-keyboard-response","112","230583","0.0-6.0-0.0-8.0-0.2","4","3","4","3","3","4","3","4","3","3","5","4","4","4","5","4","4","4","5","5","2","4","3","2","2","2","2","4","1","1","0","1","1","0","1","1","1","0","1","1","0","1","0","1","5","2","4","1","2","3","4","4","2","1","767772447134191618","吴","112","","","","","","","","","","","","","","","","","","","","","","","","","","","","","","","","","","","","","","","",""
"528","<p style=""color:rgb(150, 250, 100); font-size: 35px;"">他</p>","e","categorize-html","113","231114","0.0-6.0-0.0-8.0-1.2","4","3","4","3","3","4","3","4","3","3","5","4","4","4","5","4","4","4","5","5","2","4","3","2","2","2","2","4","1","1","0","1","1","0","1","1","1","0","1","1","0","1","0","1","5","2","4","1","2","3","4","4","2","1","767772447134191618","吴","112","","","","","","","","","","","","","","","","","","","true","4","4","ability","528","other","他","","","","","","","","","","","","","","",""
"null","","null","html-keyboard-response","114","231373","0.0-6.0-0.0-8.0-0.3","4","3","4","3","3","4","3","4","3","3","5","4","4","4","5","4","4","4","5","5","2","4","3","2","2","2","2","4","1","1","0","1","1","0","1","1","1","0","1","1","0","1","0","1","5","2","4","1","2","3","4","4","2","1","767772447134191618","吴","112","","","","","","","","","","","","","","","","","","","","","","","","","","","","","","","","","","","","","","","",""
"735","<p style=""color:white; font-size: 35px;"">能干</p>","i","categorize-html","115","232111","0.0-6.0-0.0-8.0-1.3","4","3","4","3","3","4","3","4","3","3","5","4","4","4","5","4","4","4","5","5","2","4","3","2","2","2","2","4","1","1","0","1","1","0","1","1","1","0","1","1","0","1","0","1","5","2","4","1","2","3","4","4","2","1","767772447134191618","吴","112","","","","","","","","","","","","","","","","","","","true","4","4","ability","735","positive","能干","","","","","","","","","","","","","","",""
"null","","null","html-keyboard-response","116","232368","0.0-6.0-0.0-8.0-0.4","4","3","4","3","3","4","3","4","3","3","5","4","4","4","5","4","4","4","5","5","2","4","3","2","2","2","2","4","1","1","0","1","1","0","1","1","1","0","1","1","0","1","0","1","5","2","4","1","2","3","4","4","2","1","767772447134191618","吴","112","","","","","","","","","","","","","","","","","","","","","","","","","","","","","","","","","","","","","","","",""
"613","<p style=""color:rgb(150, 250, 100); font-size: 35px;"">他的</p>","e","categorize-html","117","232989","0.0-6.0-0.0-8.0-1.4","4","3","4","3","3","4","3","4","3","3","5","4","4","4","5","4","4","4","5","5","2","4","3","2","2","2","2","4","1","1","0","1","1","0","1","1","1","0","1","1","0","1","0","1","5","2","4","1","2","3","4","4","2","1","767772447134191618","吴","112","","","","","","","","","","","","","","","","","","","true","4","4","ability","613","other","他的","","","","","","","","","","","","","","",""
"null","","null","html-keyboard-response","118","233241","0.0-6.0-0.0-8.0-0.5","4","3","4","3","3","4","3","4","3","3","5","4","4","4","5","4","4","4","5","5","2","4","3","2","2","2","2","4","1","1","0","1","1","0","1","1","1","0","1","1","0","1","0","1","5","2","4","1","2","3","4","4","2","1","767772447134191618","吴","112","","","","","","","","","","","","","","","","","","","","","","","","","","","","","","","","","","","","","","","",""
"499","<p style=""color:white; font-size: 35px;"">低能</p>","e","categorize-html","119","233749","0.0-6.0-0.0-8.0-1.5","4","3","4","3","3","4","3","4","3","3","5","4","4","4","5","4","4","4","5","5","2","4","3","2","2","2","2","4","1","1","0","1","1","0","1","1","1","0","1","1","0","1","0","1","5","2","4","1","2","3","4","4","2","1","767772447134191618","吴","112","","","","","","","","","","","","","","","","","","","true","4","4","ability","499","negative","低能","","","","","","","","","","","","","","",""
"null","","null","html-keyboard-response","120","234007","0.0-6.0-0.0-8.0-0.6","4","3","4","3","3","4","3","4","3","3","5","4","4","4","5","4","4","4","5","5","2","4","3","2","2","2","2","4","1","1","0","1","1","0","1","1","1","0","1","1","0","1","0","1","5","2","4","1","2","3","4","4","2","1","767772447134191618","吴","112","","","","","","","","","","","","","","","","","","","","","","","","","","","","","","","","","","","","","","","",""
"515","<p style=""color:rgb(150, 250, 100); font-size: 35px;"">我的</p>","i","categorize-html","121","234530","0.0-6.0-0.0-8.0-1.6","4","3","4","3","3","4","3","4","3","3","5","4","4","4","5","4","4","4","5","5","2","4","3","2","2","2","2","4","1","1","0","1","1","0","1","1","1","0","1","1","0","1","0","1","5","2","4","1","2","3","4","4","2","1","767772447134191618","吴","112","","","","","","","","","","","","","","","","","","","true","4","4","ability","515","self","我的","","","","","","","","","","","","","","",""
"null","","null","html-keyboard-response","122","234788","0.0-6.0-0.0-8.0-0.7","4","3","4","3","3","4","3","4","3","3","5","4","4","4","5","4","4","4","5","5","2","4","3","2","2","2","2","4","1","1","0","1","1","0","1","1","1","0","1","1","0","1","0","1","5","2","4","1","2","3","4","4","2","1","767772447134191618","吴","112","","","","","","","","","","","","","","","","","","","","","","","","","","","","","","","","","","","","","","","",""
"1443","<p style=""color:white; font-size: 35px;"">全能</p>","i","categorize-html","123","236235","0.0-6.0-0.0-8.0-1.7","4","3","4","3","3","4","3","4","3","3","5","4","4","4","5","4","4","4","5","5","2","4","3","2","2","2","2","4","1","1","0","1","1","0","1","1","1","0","1","1","0","1","0","1","5","2","4","1","2","3","4","4","2","1","767772447134191618","吴","112","","","","","","","","","","","","","","","","","","","true","4","4","ability","1443","positive","全能","","","","","","","","","","","","","","",""
"null","","null","html-keyboard-response","124","236494","0.0-6.0-0.0-8.0-0.8","4","3","4","3","3","4","3","4","3","3","5","4","4","4","5","4","4","4","5","5","2","4","3","2","2","2","2","4","1","1","0","1","1","0","1","1","1","0","1","1","0","1","0","1","5","2","4","1","2","3","4","4","2","1","767772447134191618","吴","112","","","","","","","","","","","","","","","","","","","","","","","","","","","","","","","","","","","","","","","",""
"557","<p style=""color:rgb(150, 250, 100); font-size: 35px;"">自己的</p>","i","categorize-html","125","237058","0.0-6.0-0.0-8.0-1.8","4","3","4","3","3","4","3","4","3","3","5","4","4","4","5","4","4","4","5","5","2","4","3","2","2","2","2","4","1","1","0","1","1","0","1","1","1","0","1","1","0","1","0","1","5","2","4","1","2","3","4","4","2","1","767772447134191618","吴","112","","","","","","","","","","","","","","","","","","","true","4","4","ability","557","self","自己的","","","","","","","","","","","","","","",""
"null","","null","html-keyboard-response","126","237316","0.0-6.0-0.0-8.0-0.9","4","3","4","3","3","4","3","4","3","3","5","4","4","4","5","4","4","4","5","5","2","4","3","2","2","2","2","4","1","1","0","1","1","0","1","1","1","0","1","1","0","1","0","1","5","2","4","1","2","3","4","4","2","1","767772447134191618","吴","112","","","","","","","","","","","","","","","","","","","","","","","","","","","","","","","","","","","","","","","",""
"455","<p style=""color:white; font-size: 35px;"">能干</p>","i","categorize-html","127","237779","0.0-6.0-0.0-8.0-1.9","4","3","4","3","3","4","3","4","3","3","5","4","4","4","5","4","4","4","5","5","2","4","3","2","2","2","2","4","1","1","0","1","1","0","1","1","1","0","1","1","0","1","0","1","5","2","4","1","2","3","4","4","2","1","767772447134191618","吴","112","","","","","","","","","","","","","","","","","","","true","4","4","ability","455","positive","能干","","","","","","","","","","","","","","",""
"null","","null","html-keyboard-response","128","238037","0.0-6.0-0.0-8.0-0.10","4","3","4","3","3","4","3","4","3","3","5","4","4","4","5","4","4","4","5","5","2","4","3","2","2","2","2","4","1","1","0","1","1","0","1","1","1","0","1","1","0","1","0","1","5","2","4","1","2","3","4","4","2","1","767772447134191618","吴","112","","","","","","","","","","","","","","","","","","","","","","","","","","","","","","","","","","","","","","","",""
"1004","<p style=""color:rgb(150, 250, 100); font-size: 35px;"">他人</p>","e","categorize-html","129","239049","0.0-6.0-0.0-8.0-1.10","4","3","4","3","3","4","3","4","3","3","5","4","4","4","5","4","4","4","5","5","2","4","3","2","2","2","2","4","1","1","0","1","1","0","1","1","1","0","1","1","0","1","0","1","5","2","4","1","2","3","4","4","2","1","767772447134191618","吴","112","","","","","","","","","","","","","","","","","","","true","4","4","ability","1004","other","他人","","","","","","","","","","","","","","",""
"null","","null","html-keyboard-response","130","239307","0.0-6.0-0.0-8.0-0.11","4","3","4","3","3","4","3","4","3","3","5","4","4","4","5","4","4","4","5","5","2","4","3","2","2","2","2","4","1","1","0","1","1","0","1","1","1","0","1","1","0","1","0","1","5","2","4","1","2","3","4","4","2","1","767772447134191618","吴","112","","","","","","","","","","","","","","","","","","","","","","","","","","","","","","","","","","","","","","","",""
"545","<p style=""color:white; font-size: 35px;"">蠢笨</p>","e","categorize-html","131","239858","0.0-6.0-0.0-8.0-1.11","4","3","4","3","3","4","3","4","3","3","5","4","4","4","5","4","4","4","5","5","2","4","3","2","2","2","2","4","1","1","0","1","1","0","1","1","1","0","1","1","0","1","0","1","5","2","4","1","2","3","4","4","2","1","767772447134191618","吴","112","","","","","","","","","","","","","","","","","","","true","4","4","ability","545","negative","蠢笨","","","","","","","","","","","","","","",""
"null","","null","html-keyboard-response","132","240117","0.0-6.0-0.0-8.0-0.12","4","3","4","3","3","4","3","4","3","3","5","4","4","4","5","4","4","4","5","5","2","4","3","2","2","2","2","4","1","1","0","1","1","0","1","1","1","0","1","1","0","1","0","1","5","2","4","1","2","3","4","4","2","1","767772447134191618","吴","112","","","","","","","","","","","","","","","","","","","","","","","","","","","","","","","","","","","","","","","",""
"735","<p style=""color:rgb(150, 250, 100); font-size: 35px;"">本人的</p>","i","categorize-html","133","240858","0.0-6.0-0.0-8.0-1.12","4","3","4","3","3","4","3","4","3","3","5","4","4","4","5","4","4","4","5","5","2","4","3","2","2","2","2","4","1","1","0","1","1","0","1","1","1","0","1","1","0","1","0","1","5","2","4","1","2","3","4","4","2","1","767772447134191618","吴","112","","","","","","","","","","","","","","","","","","","true","4","4","ability","735","self","本人的","","","","","","","","","","","","","","",""
"null","","null","html-keyboard-response","134","241116","0.0-6.0-0.0-8.0-0.13","4","3","4","3","3","4","3","4","3","3","5","4","4","4","5","4","4","4","5","5","2","4","3","2","2","2","2","4","1","1","0","1","1","0","1","1","1","0","1","1","0","1","0","1","5","2","4","1","2","3","4","4","2","1","767772447134191618","吴","112","","","","","","","","","","","","","","","","","","","","","","","","","","","","","","","","","","","","","","","",""
"576","<p style=""color:white; font-size: 35px;"">低能</p>","e","categorize-html","135","241694","0.0-6.0-0.0-8.0-1.13","4","3","4","3","3","4","3","4","3","3","5","4","4","4","5","4","4","4","5","5","2","4","3","2","2","2","2","4","1","1","0","1","1","0","1","1","1","0","1","1","0","1","0","1","5","2","4","1","2","3","4","4","2","1","767772447134191618","吴","112","","","","","","","","","","","","","","","","","","","true","4","4","ability","576","negative","低能","","","","","","","","","","","","","","",""
"null","","null","html-keyboard-response","136","241953","0.0-6.0-0.0-8.0-0.14","4","3","4","3","3","4","3","4","3","3","5","4","4","4","5","4","4","4","5","5","2","4","3","2","2","2","2","4","1","1","0","1","1","0","1","1","1","0","1","1","0","1","0","1","5","2","4","1","2","3","4","4","2","1","767772447134191618","吴","112","","","","","","","","","","","","","","","","","","","","","","","","","","","","","","","","","","","","","","","",""
"798","<p style=""color:rgb(150, 250, 100); font-size: 35px;"">别人的</p>","e","categorize-html","137","242759","0.0-6.0-0.0-8.0-1.14","4","3","4","3","3","4","3","4","3","3","5","4","4","4","5","4","4","4","5","5","2","4","3","2","2","2","2","4","1","1","0","1","1","0","1","1","1","0","1","1","0","1","0","1","5","2","4","1","2","3","4","4","2","1","767772447134191618","吴","112","","","","","","","","","","","","","","","","","","","true","4","4","ability","798","other","别人的","","","","","","","","","","","","","","",""
"null","","null","html-keyboard-response","138","243017","0.0-6.0-0.0-8.0-0.15","4","3","4","3","3","4","3","4","3","3","5","4","4","4","5","4","4","4","5","5","2","4","3","2","2","2","2","4","1","1","0","1","1","0","1","1","1","0","1","1","0","1","0","1","5","2","4","1","2","3","4","4","2","1","767772447134191618","吴","112","","","","","","","","","","","","","","","","","","","","","","","","","","","","","","","","","","","","","","","",""
"554","<p style=""color:white; font-size: 35px;"">全才</p>","i","categorize-html","139","243580","0.0-6.0-0.0-8.0-1.15","4","3","4","3","3","4","3","4","3","3","5","4","4","4","5","4","4","4","5","5","2","4","3","2","2","2","2","4","1","1","0","1","1","0","1","1","1","0","1","1","0","1","0","1","5","2","4","1","2","3","4","4","2","1","767772447134191618","吴","112","","","","","","","","","","","","","","","","","","","true","4","4","ability","554","positive","全才","","","","","","","","","","","","","","",""
"null","","null","html-keyboard-response","140","243837","0.0-6.0-0.0-8.0-0.16","4","3","4","3","3","4","3","4","3","3","5","4","4","4","5","4","4","4","5","5","2","4","3","2","2","2","2","4","1","1","0","1","1","0","1","1","1","0","1","1","0","1","0","1","5","2","4","1","2","3","4","4","2","1","767772447134191618","吴","112","","","","","","","","","","","","","","","","","","","","","","","","","","","","","","","","","","","","","","","",""
"514","<p style=""color:rgb(150, 250, 100); font-size: 35px;"">本人的</p>","i","categorize-html","141","244360","0.0-6.0-0.0-8.0-1.16","4","3","4","3","3","4","3","4","3","3","5","4","4","4","5","4","4","4","5","5","2","4","3","2","2","2","2","4","1","1","0","1","1","0","1","1","1","0","1","1","0","1","0","1","5","2","4","1","2","3","4","4","2","1","767772447134191618","吴","112","","","","","","","","","","","","","","","","","","","true","4","4","ability","514","self","本人的","","","","","","","","","","","","","","",""
"null","","null","html-keyboard-response","142","244618","0.0-6.0-0.0-8.0-0.17","4","3","4","3","3","4","3","4","3","3","5","4","4","4","5","4","4","4","5","5","2","4","3","2","2","2","2","4","1","1","0","1","1","0","1","1","1","0","1","1","0","1","0","1","5","2","4","1","2","3","4","4","2","1","767772447134191618","吴","112","","","","","","","","","","","","","","","","","","","","","","","","","","","","","","","","","","","","","","","",""
"603","<p style=""color:white; font-size: 35px;"">拙笨</p>","e","categorize-html","143","245229","0.0-6.0-0.0-8.0-1.17","4","3","4","3","3","4","3","4","3","3","5","4","4","4","5","4","4","4","5","5","2","4","3","2","2","2","2","4","1","1","0","1","1","0","1","1","1","0","1","1","0","1","0","1","5","2","4","1","2","3","4","4","2","1","767772447134191618","吴","112","","","","","","","","","","","","","","","","","","","true","4","4","ability","603","negative","拙笨","","","","","","","","","","","","","","",""
"null","","null","html-keyboard-response","144","245488","0.0-6.0-0.0-8.0-0.18","4","3","4","3","3","4","3","4","3","3","5","4","4","4","5","4","4","4","5","5","2","4","3","2","2","2","2","4","1","1","0","1","1","0","1","1","1","0","1","1","0","1","0","1","5","2","4","1","2","3","4","4","2","1","767772447134191618","吴","112","","","","","","","","","","","","","","","","","","","","","","","","","","","","","","","","","","","","","","","",""
"573","<p style=""color:rgb(150, 250, 100); font-size: 35px;"">别人</p>","e","categorize-html","145","246068","0.0-6.0-0.0-8.0-1.18","4","3","4","3","3","4","3","4","3","3","5","4","4","4","5","4","4","4","5","5","2","4","3","2","2","2","2","4","1","1","0","1","1","0","1","1","1","0","1","1","0","1","0","1","5","2","4","1","2","3","4","4","2","1","767772447134191618","吴","112","","","","","","","","","","","","","","","","","","","true","4","4","ability","573","other","别人","","","","","","","","","","","","","","",""
"null","","null","html-keyboard-response","146","246327","0.0-6.0-0.0-8.0-0.19","4","3","4","3","3","4","3","4","3","3","5","4","4","4","5","4","4","4","5","5","2","4","3","2","2","2","2","4","1","1","0","1","1","0","1","1","1","0","1","1","0","1","0","1","5","2","4","1","2","3","4","4","2","1","767772447134191618","吴","112","","","","","","","","","","","","","","","","","","","","","","","","","","","","","","","","","","","","","","","",""
"694","<p style=""color:white; font-size: 35px;"">全才</p>","i","categorize-html","147","247029","0.0-6.0-0.0-8.0-1.19","4","3","4","3","3","4","3","4","3","3","5","4","4","4","5","4","4","4","5","5","2","4","3","2","2","2","2","4","1","1","0","1","1","0","1","1","1","0","1","1","0","1","0","1","5","2","4","1","2","3","4","4","2","1","767772447134191618","吴","112","","","","","","","","","","","","","","","","","","","true","4","4","ability","694","positive","全才","","","","","","","","","","","","","","",""
"null","","null","html-keyboard-response","148","247288","0.0-6.0-0.0-8.0-0.20","4","3","4","3","3","4","3","4","3","3","5","4","4","4","5","4","4","4","5","5","2","4","3","2","2","2","2","4","1","1","0","1","1","0","1","1","1","0","1","1","0","1","0","1","5","2","4","1","2","3","4","4","2","1","767772447134191618","吴","112","","","","","","","","","","","","","","","","","","","","","","","","","","","","","","","","","","","","","","","",""
"643","<p style=""color:rgb(150, 250, 100); font-size: 35px;"">他</p>","e","categorize-html","149","247938","0.0-6.0-0.0-8.0-1.20","4","3","4","3","3","4","3","4","3","3","5","4","4","4","5","4","4","4","5","5","2","4","3","2","2","2","2","4","1","1","0","1","1","0","1","1","1","0","1","1","0","1","0","1","5","2","4","1","2","3","4","4","2","1","767772447134191618","吴","112","","","","","","","","","","","","","","","","","","","true","4","4","ability","643","other","他","","","","","","","","","","","","","","",""
"null","","null","html-keyboard-response","150","248196","0.0-6.0-0.0-8.0-0.21","4","3","4","3","3","4","3","4","3","3","5","4","4","4","5","4","4","4","5","5","2","4","3","2","2","2","2","4","1","1","0","1","1","0","1","1","1","0","1","1","0","1","0","1","5","2","4","1","2","3","4","4","2","1","767772447134191618","吴","112","","","","","","","","","","","","","","","","","","","","","","","","","","","","","","","","","","","","","","","",""
"556","<p style=""color:white; font-size: 35px;"">废物</p>","e","categorize-html","151","248760","0.0-6.0-0.0-8.0-1.21","4","3","4","3","3","4","3","4","3","3","5","4","4","4","5","4","4","4","5","5","2","4","3","2","2","2","2","4","1","1","0","1","1","0","1","1","1","0","1","1","0","1","0","1","5","2","4","1","2","3","4","4","2","1","767772447134191618","吴","112","","","","","","","","","","","","","","","","","","","true","4","4","ability","556","negative","废物","","","","","","","","","","","","","","",""
"null","","null","html-keyboard-response","152","249019","0.0-6.0-0.0-8.0-0.22","4","3","4","3","3","4","3","4","3","3","5","4","4","4","5","4","4","4","5","5","2","4","3","2","2","2","2","4","1","1","0","1","1","0","1","1","1","0","1","1","0","1","0","1","5","2","4","1","2","3","4","4","2","1","767772447134191618","吴","112","","","","","","","","","","","","","","","","","","","","","","","","","","","","","","","","","","","","","","","",""
"552","<p style=""color:rgb(150, 250, 100); font-size: 35px;"">本人</p>","i","categorize-html","153","249579","0.0-6.0-0.0-8.0-1.22","4","3","4","3","3","4","3","4","3","3","5","4","4","4","5","4","4","4","5","5","2","4","3","2","2","2","2","4","1","1","0","1","1","0","1","1","1","0","1","1","0","1","0","1","5","2","4","1","2","3","4","4","2","1","767772447134191618","吴","112","","","","","","","","","","","","","","","","","","","true","4","4","ability","552","self","本人","","","","","","","","","","","","","","",""
"null","","null","html-keyboard-response","154","249838","0.0-6.0-0.0-8.0-0.23","4","3","4","3","3","4","3","4","3","3","5","4","4","4","5","4","4","4","5","5","2","4","3","2","2","2","2","4","1","1","0","1","1","0","1","1","1","0","1","1","0","1","0","1","5","2","4","1","2","3","4","4","2","1","767772447134191618","吴","112","","","","","","","","","","","","","","","","","","","","","","","","","","","","","","","","","","","","","","","",""
"563","<p style=""color:white; font-size: 35px;"">天才</p>","i","categorize-html","155","250409","0.0-6.0-0.0-8.0-1.23","4","3","4","3","3","4","3","4","3","3","5","4","4","4","5","4","4","4","5","5","2","4","3","2","2","2","2","4","1","1","0","1","1","0","1","1","1","0","1","1","0","1","0","1","5","2","4","1","2","3","4","4","2","1","767772447134191618","吴","112","","","","","","","","","","","","","","","","","","","true","4","4","ability","563","positive","天才","","","","","","","","","","","","","","",""
"null","","null","html-keyboard-response","156","250661","0.0-6.0-0.0-8.0-0.24","4","3","4","3","3","4","3","4","3","3","5","4","4","4","5","4","4","4","5","5","2","4","3","2","2","2","2","4","1","1","0","1","1","0","1","1","1","0","1","1","0","1","0","1","5","2","4","1","2","3","4","4","2","1","767772447134191618","吴","112","","","","","","","","","","","","","","","","","","","","","","","","","","","","","","","","","","","","","","","",""
"530","<p style=""color:rgb(150, 250, 100); font-size: 35px;"">自己的</p>","i","categorize-html","157","251196","0.0-6.0-0.0-8.0-1.24","4","3","4","3","3","4","3","4","3","3","5","4","4","4","5","4","4","4","5","5","2","4","3","2","2","2","2","4","1","1","0","1","1","0","1","1","1","0","1","1","0","1","0","1","5","2","4","1","2","3","4","4","2","1","767772447134191618","吴","112","","","","","","","","","","","","","","","","","","","true","4","4","ability","530","self","自己的","","","","","","","","","","","","","","",""
"null","","null","html-keyboard-response","158","251453","0.0-6.0-0.0-8.0-0.25","4","3","4","3","3","4","3","4","3","3","5","4","4","4","5","4","4","4","5","5","2","4","3","2","2","2","2","4","1","1","0","1","1","0","1","1","1","0","1","1","0","1","0","1","5","2","4","1","2","3","4","4","2","1","767772447134191618","吴","112","","","","","","","","","","","","","","","","","","","","","","","","","","","","","","","","","","","","","","","",""
"537","<p style=""color:white; font-size: 35px;"">蠢笨</p>","e","categorize-html","159","251999","0.0-6.0-0.0-8.0-1.25","4","3","4","3","3","4","3","4","3","3","5","4","4","4","5","4","4","4","5","5","2","4","3","2","2","2","2","4","1","1","0","1","1","0","1","1","1","0","1","1","0","1","0","1","5","2","4","1","2","3","4","4","2","1","767772447134191618","吴","112","","","","","","","","","","","","","","","","","","","true","4","4","ability","537","negative","蠢笨","","","","","","","","","","","","","","",""
"null","","null","html-keyboard-response","160","252257","0.0-6.0-0.0-8.0-0.26","4","3","4","3","3","4","3","4","3","3","5","4","4","4","5","4","4","4","5","5","2","4","3","2","2","2","2","4","1","1","0","1","1","0","1","1","1","0","1","1","0","1","0","1","5","2","4","1","2","3","4","4","2","1","767772447134191618","吴","112","","","","","","","","","","","","","","","","","","","","","","","","","","","","","","","","","","","","","","","",""
"724","<p style=""color:rgb(150, 250, 100); font-size: 35px;"">他人</p>","e","categorize-html","161","252989","0.0-6.0-0.0-8.0-1.26","4","3","4","3","3","4","3","4","3","3","5","4","4","4","5","4","4","4","5","5","2","4","3","2","2","2","2","4","1","1","0","1","1","0","1","1","1","0","1","1","0","1","0","1","5","2","4","1","2","3","4","4","2","1","767772447134191618","吴","112","","","","","","","","","","","","","","","","","","","true","4","4","ability","724","other","他人","","","","","","","","","","","","","","",""
"null","","null","html-keyboard-response","162","253246","0.0-6.0-0.0-8.0-0.27","4","3","4","3","3","4","3","4","3","3","5","4","4","4","5","4","4","4","5","5","2","4","3","2","2","2","2","4","1","1","0","1","1","0","1","1","1","0","1","1","0","1","0","1","5","2","4","1","2","3","4","4","2","1","767772447134191618","吴","112","","","","","","","","","","","","","","","","","","","","","","","","","","","","","","","","","","","","","","","",""
"604","<p style=""color:white; font-size: 35px;"">天才</p>","i","categorize-html","163","253859","0.0-6.0-0.0-8.0-1.27","4","3","4","3","3","4","3","4","3","3","5","4","4","4","5","4","4","4","5","5","2","4","3","2","2","2","2","4","1","1","0","1","1","0","1","1","1","0","1","1","0","1","0","1","5","2","4","1","2","3","4","4","2","1","767772447134191618","吴","112","","","","","","","","","","","","","","","","","","","true","4","4","ability","604","positive","天才","","","","","","","","","","","","","","",""
"null","","null","html-keyboard-response","164","254117","0.0-6.0-0.0-8.0-0.28","4","3","4","3","3","4","3","4","3","3","5","4","4","4","5","4","4","4","5","5","2","4","3","2","2","2","2","4","1","1","0","1","1","0","1","1","1","0","1","1","0","1","0","1","5","2","4","1","2","3","4","4","2","1","767772447134191618","吴","112","","","","","","","","","","","","","","","","","","","","","","","","","","","","","","","","","","","","","","","",""
"535","<p style=""color:rgb(150, 250, 100); font-size: 35px;"">我的</p>","i","categorize-html","165","254655","0.0-6.0-0.0-8.0-1.28","4","3","4","3","3","4","3","4","3","3","5","4","4","4","5","4","4","4","5","5","2","4","3","2","2","2","2","4","1","1","0","1","1","0","1","1","1","0","1","1","0","1","0","1","5","2","4","1","2","3","4","4","2","1","767772447134191618","吴","112","","","","","","","","","","","","","","","","","","","true","4","4","ability","535","self","我的","","","","","","","","","","","","","","",""
"null","","null","html-keyboard-response","166","254914","0.0-6.0-0.0-8.0-0.29","4","3","4","3","3","4","3","4","3","3","5","4","4","4","5","4","4","4","5","5","2","4","3","2","2","2","2","4","1","1","0","1","1","0","1","1","1","0","1","1","0","1","0","1","5","2","4","1","2","3","4","4","2","1","767772447134191618","吴","112","","","","","","","","","","","","","","","","","","","","","","","","","","","","","","","","","","","","","","","",""
"617","<p style=""color:white; font-size: 35px;"">全能</p>","i","categorize-html","167","255539","0.0-6.0-0.0-8.0-1.29","4","3","4","3","3","4","3","4","3","3","5","4","4","4","5","4","4","4","5","5","2","4","3","2","2","2","2","4","1","1","0","1","1","0","1","1","1","0","1","1","0","1","0","1","5","2","4","1","2","3","4","4","2","1","767772447134191618","吴","112","","","","","","","","","","","","","","","","","","","true","4","4","ability","617","positive","全能","","","","","","","","","","","","","","",""
"null","","null","html-keyboard-response","168","255797","0.0-6.0-0.0-8.0-0.30","4","3","4","3","3","4","3","4","3","3","5","4","4","4","5","4","4","4","5","5","2","4","3","2","2","2","2","4","1","1","0","1","1","0","1","1","1","0","1","1","0","1","0","1","5","2","4","1","2","3","4","4","2","1","767772447134191618","吴","112","","","","","","","","","","","","","","","","","","","","","","","","","","","","","","","","","","","","","","","",""
"563","<p style=""color:rgb(150, 250, 100); font-size: 35px;"">别人</p>","e","categorize-html","169","256369","0.0-6.0-0.0-8.0-1.30","4","3","4","3","3","4","3","4","3","3","5","4","4","4","5","4","4","4","5","5","2","4","3","2","2","2","2","4","1","1","0","1","1","0","1","1","1","0","1","1","0","1","0","1","5","2","4","1","2","3","4","4","2","1","767772447134191618","吴","112","","","","","","","","","","","","","","","","","","","true","4","4","ability","563","other","别人","","","","","","","","","","","","","","",""
"null","","null","html-keyboard-response","170","256626","0.0-6.0-0.0-8.0-0.31","4","3","4","3","3","4","3","4","3","3","5","4","4","4","5","4","4","4","5","5","2","4","3","2","2","2","2","4","1","1","0","1","1","0","1","1","1","0","1","1","0","1","0","1","5","2","4","1","2","3","4","4","2","1","767772447134191618","吴","112","","","","","","","","","","","","","","","","","","","","","","","","","","","","","","","","","","","","","","","",""
"473","<p style=""color:white; font-size: 35px;"">拙笨</p>","e","categorize-html","171","257102","0.0-6.0-0.0-8.0-1.31","4","3","4","3","3","4","3","4","3","3","5","4","4","4","5","4","4","4","5","5","2","4","3","2","2","2","2","4","1","1","0","1","1","0","1","1","1","0","1","1","0","1","0","1","5","2","4","1","2","3","4","4","2","1","767772447134191618","吴","112","","","","","","","","","","","","","","","","","","","true","4","4","ability","473","negative","拙笨","","","","","","","","","","","","","","",""
"null","","null","html-keyboard-response","172","257354","0.0-6.0-0.0-8.0-0.32","4","3","4","3","3","4","3","4","3","3","5","4","4","4","5","4","4","4","5","5","2","4","3","2","2","2","2","4","1","1","0","1","1","0","1","1","1","0","1","1","0","1","0","1","5","2","4","1","2","3","4","4","2","1","767772447134191618","吴","112","","","","","","","","","","","","","","","","","","","","","","","","","","","","","","","","","","","","","","","",""
"506","<p style=""color:rgb(150, 250, 100); font-size: 35px;"">我</p>","i","categorize-html","173","257869","0.0-6.0-0.0-8.0-1.32","4","3","4","3","3","4","3","4","3","3","5","4","4","4","5","4","4","4","5","5","2","4","3","2","2","2","2","4","1","1","0","1","1","0","1","1","1","0","1","1","0","1","0","1","5","2","4","1","2","3","4","4","2","1","767772447134191618","吴","112","","","","","","","","","","","","","","","","","","","true","4","4","ability","506","self","我","","","","","","","","","","","","","","",""
"null","","null","html-keyboard-response","174","258127","0.0-6.0-0.0-8.0-0.33","4","3","4","3","3","4","3","4","3","3","5","4","4","4","5","4","4","4","5","5","2","4","3","2","2","2","2","4","1","1","0","1","1","0","1","1","1","0","1","1","0","1","0","1","5","2","4","1","2","3","4","4","2","1","767772447134191618","吴","112","","","","","","","","","","","","","","","","","","","","","","","","","","","","","","","","","","","","","","","",""
"545","<p style=""color:white; font-size: 35px;"">高效</p>","i","categorize-html","175","258677","0.0-6.0-0.0-8.0-1.33","4","3","4","3","3","4","3","4","3","3","5","4","4","4","5","4","4","4","5","5","2","4","3","2","2","2","2","4","1","1","0","1","1","0","1","1","1","0","1","1","0","1","0","1","5","2","4","1","2","3","4","4","2","1","767772447134191618","吴","112","","","","","","","","","","","","","","","","","","","true","4","4","ability","545","positive","高效","","","","","","","","","","","","","","",""
"null","","null","html-keyboard-response","176","258934","0.0-6.0-0.0-8.0-0.34","4","3","4","3","3","4","3","4","3","3","5","4","4","4","5","4","4","4","5","5","2","4","3","2","2","2","2","4","1","1","0","1","1","0","1","1","1","0","1","1","0","1","0","1","5","2","4","1","2","3","4","4","2","1","767772447134191618","吴","112","","","","","","","","","","","","","","","","","","","","","","","","","","","","","","","","","","","","","","","",""
"467","<p style=""color:rgb(150, 250, 100); font-size: 35px;"">他人的</p>","e","categorize-html","177","259409","0.0-6.0-0.0-8.0-1.34","4","3","4","3","3","4","3","4","3","3","5","4","4","4","5","4","4","4","5","5","2","4","3","2","2","2","2","4","1","1","0","1","1","0","1","1","1","0","1","1","0","1","0","1","5","2","4","1","2","3","4","4","2","1","767772447134191618","吴","112","","","","","","","","","","","","","","","","","","","true","4","4","ability","467","other","他人的","","","","","","","","","","","","","","",""
"null","","null","html-keyboard-response","178","259661","0.0-6.0-0.0-8.0-0.35","4","3","4","3","3","4","3","4","3","3","5","4","4","4","5","4","4","4","5","5","2","4","3","2","2","2","2","4","1","1","0","1","1","0","1","1","1","0","1","1","0","1","0","1","5","2","4","1","2","3","4","4","2","1","767772447134191618","吴","112","","","","","","","","","","","","","","","","","","","","","","","","","","","","","","","","","","","","","","","",""
"511","<p style=""color:white; font-size: 35px;"">愚钝</p>","e","categorize-html","179","260179","0.0-6.0-0.0-8.0-1.35","4","3","4","3","3","4","3","4","3","3","5","4","4","4","5","4","4","4","5","5","2","4","3","2","2","2","2","4","1","1","0","1","1","0","1","1","1","0","1","1","0","1","0","1","5","2","4","1","2","3","4","4","2","1","767772447134191618","吴","112","","","","","","","","","","","","","","","","","","","true","4","4","ability","511","negative","愚钝","","","","","","","","","","","","","","",""
"null","","null","html-keyboard-response","180","260437","0.0-6.0-0.0-8.0-0.36","4","3","4","3","3","4","3","4","3","3","5","4","4","4","5","4","4","4","5","5","2","4","3","2","2","2","2","4","1","1","0","1","1","0","1","1","1","0","1","1","0","1","0","1","5","2","4","1","2","3","4","4","2","1","767772447134191618","吴","112","","","","","","","","","","","","","","","","","","","","","","","","","","","","","","","","","","","","","","","",""
"483","<p style=""color:rgb(150, 250, 100); font-size: 35px;"">我</p>","i","categorize-html","181","260930","0.0-6.0-0.0-8.0-1.36","4","3","4","3","3","4","3","4","3","3","5","4","4","4","5","4","4","4","5","5","2","4","3","2","2","2","2","4","1","1","0","1","1","0","1","1","1","0","1","1","0","1","0","1","5","2","4","1","2","3","4","4","2","1","767772447134191618","吴","112","","","","","","","","","","","","","","","","","","","true","4","4","ability","483","self","我","","","","","","","","","","","","","","",""
"null","","null","html-keyboard-response","182","261182","0.0-6.0-0.0-8.0-0.37","4","3","4","3","3","4","3","4","3","3","5","4","4","4","5","4","4","4","5","5","2","4","3","2","2","2","2","4","1","1","0","1","1","0","1","1","1","0","1","1","0","1","0","1","5","2","4","1","2","3","4","4","2","1","767772447134191618","吴","112","","","","","","","","","","","","","","","","","","","","","","","","","","","","","","","","","","","","","","","",""
"452","<p style=""color:white; font-size: 35px;"">高效</p>","i","categorize-html","183","261637","0.0-6.0-0.0-8.0-1.37","4","3","4","3","3","4","3","4","3","3","5","4","4","4","5","4","4","4","5","5","2","4","3","2","2","2","2","4","1","1","0","1","1","0","1","1","1","0","1","1","0","1","0","1","5","2","4","1","2","3","4","4","2","1","767772447134191618","吴","112","","","","","","","","","","","","","","","","","","","true","4","4","ability","452","positive","高效","","","","","","","","","","","","","","",""
"null","","null","html-keyboard-response","184","261895","0.0-6.0-0.0-8.0-0.38","4","3","4","3","3","4","3","4","3","3","5","4","4","4","5","4","4","4","5","5","2","4","3","2","2","2","2","4","1","1","0","1","1","0","1","1","1","0","1","1","0","1","0","1","5","2","4","1","2","3","4","4","2","1","767772447134191618","吴","112","","","","","","","","","","","","","","","","","","","","","","","","","","","","","","","","","","","","","","","",""
"496","<p style=""color:rgb(150, 250, 100); font-size: 35px;"">他人的</p>","e","categorize-html","185","262399","0.0-6.0-0.0-8.0-1.38","4","3","4","3","3","4","3","4","3","3","5","4","4","4","5","4","4","4","5","5","2","4","3","2","2","2","2","4","1","1","0","1","1","0","1","1","1","0","1","1","0","1","0","1","5","2","4","1","2","3","4","4","2","1","767772447134191618","吴","112","","","","","","","","","","","","","","","","","","","true","4","4","ability","496","other","他人的","","","","","","","","","","","","","","",""
"null","","null","html-keyboard-response","186","262651","0.0-6.0-0.0-8.0-0.39","4","3","4","3","3","4","3","4","3","3","5","4","4","4","5","4","4","4","5","5","2","4","3","2","2","2","2","4","1","1","0","1","1","0","1","1","1","0","1","1","0","1","0","1","5","2","4","1","2","3","4","4","2","1","767772447134191618","吴","112","","","","","","","","","","","","","","","","","","","","","","","","","","","","","","","","","","","","","","","",""
"519","<p style=""color:white; font-size: 35px;"">无能</p>","e","categorize-html","187","263174","0.0-6.0-0.0-8.0-1.39","4","3","4","3","3","4","3","4","3","3","5","4","4","4","5","4","4","4","5","5","2","4","3","2","2","2","2","4","1","1","0","1","1","0","1","1","1","0","1","1","0","1","0","1","5","2","4","1","2","3","4","4","2","1","767772447134191618","吴","112","","","","","","","","","","","","","","","","","","","true","4","4","ability","519","negative","无能","","","","","","","","","","","","","","",""
"null","","null","html-keyboard-response","188","263432","0.0-6.0-0.0-8.0-0.40","4","3","4","3","3","4","3","4","3","3","5","4","4","4","5","4","4","4","5","5","2","4","3","2","2","2","2","4","1","1","0","1","1","0","1","1","1","0","1","1","0","1","0","1","5","2","4","1","2","3","4","4","2","1","767772447134191618","吴","112","","","","","","","","","","","","","","","","","","","","","","","","","","","","","","","","","","","","","","","",""
"499","<p style=""color:rgb(150, 250, 100); font-size: 35px;"">自己</p>","i","categorize-html","189","263939","0.0-6.0-0.0-8.0-1.40","4","3","4","3","3","4","3","4","3","3","5","4","4","4","5","4","4","4","5","5","2","4","3","2","2","2","2","4","1","1","0","1","1","0","1","1","1","0","1","1","0","1","0","1","5","2","4","1","2","3","4","4","2","1","767772447134191618","吴","112","","","","","","","","","","","","","","","","","","","true","4","4","ability","499","self","自己","","","","","","","","","","","","","","",""
"null","","null","html-keyboard-response","190","264197","0.0-6.0-0.0-8.0-0.41","4","3","4","3","3","4","3","4","3","3","5","4","4","4","5","4","4","4","5","5","2","4","3","2","2","2","2","4","1","1","0","1","1","0","1","1","1","0","1","1","0","1","0","1","5","2","4","1","2","3","4","4","2","1","767772447134191618","吴","112","","","","","","","","","","","","","","","","","","","","","","","","","","","","","","","","","","","","","","","",""
"594","<p style=""color:white; font-size: 35px;"">废物</p>","e","categorize-html","191","264799","0.0-6.0-0.0-8.0-1.41","4","3","4","3","3","4","3","4","3","3","5","4","4","4","5","4","4","4","5","5","2","4","3","2","2","2","2","4","1","1","0","1","1","0","1","1","1","0","1","1","0","1","0","1","5","2","4","1","2","3","4","4","2","1","767772447134191618","吴","112","","","","","","","","","","","","","","","","","","","true","4","4","ability","594","negative","废物","","","","","","","","","","","","","","",""
"null","","null","html-keyboard-response","192","265056","0.0-6.0-0.0-8.0-0.42","4","3","4","3","3","4","3","4","3","3","5","4","4","4","5","4","4","4","5","5","2","4","3","2","2","2","2","4","1","1","0","1","1","0","1","1","1","0","1","1","0","1","0","1","5","2","4","1","2","3","4","4","2","1","767772447134191618","吴","112","","","","","","","","","","","","","","","","","","","","","","","","","","","","","","","","","","","","","","","",""
"545","<p style=""color:rgb(150, 250, 100); font-size: 35px;"">他的</p>","e","categorize-html","193","265609","0.0-6.0-0.0-8.0-1.42","4","3","4","3","3","4","3","4","3","3","5","4","4","4","5","4","4","4","5","5","2","4","3","2","2","2","2","4","1","1","0","1","1","0","1","1","1","0","1","1","0","1","0","1","5","2","4","1","2","3","4","4","2","1","767772447134191618","吴","112","","","","","","","","","","","","","","","","","","","true","4","4","ability","545","other","他的","","","","","","","","","","","","","","",""
"null","","null","html-keyboard-response","194","265869","0.0-6.0-0.0-8.0-0.43","4","3","4","3","3","4","3","4","3","3","5","4","4","4","5","4","4","4","5","5","2","4","3","2","2","2","2","4","1","1","0","1","1","0","1","1","1","0","1","1","0","1","0","1","5","2","4","1","2","3","4","4","2","1","767772447134191618","吴","112","","","","","","","","","","","","","","","","","","","","","","","","","","","","","","","","","","","","","","","",""
"513","<p style=""color:white; font-size: 35px;"">精干</p>","i","categorize-html","195","266391","0.0-6.0-0.0-8.0-1.43","4","3","4","3","3","4","3","4","3","3","5","4","4","4","5","4","4","4","5","5","2","4","3","2","2","2","2","4","1","1","0","1","1","0","1","1","1","0","1","1","0","1","0","1","5","2","4","1","2","3","4","4","2","1","767772447134191618","吴","112","","","","","","","","","","","","","","","","","","","true","4","4","ability","513","positive","精干","","","","","","","","","","","","","","",""
"null","","null","html-keyboard-response","196","266649","0.0-6.0-0.0-8.0-0.44","4","3","4","3","3","4","3","4","3","3","5","4","4","4","5","4","4","4","5","5","2","4","3","2","2","2","2","4","1","1","0","1","1","0","1","1","1","0","1","1","0","1","0","1","5","2","4","1","2","3","4","4","2","1","767772447134191618","吴","112","","","","","","","","","","","","","","","","","","","","","","","","","","","","","","","","","","","","","","","",""
"673","<p style=""color:rgb(150, 250, 100); font-size: 35px;"">别人的</p>","e","categorize-html","197","267332","0.0-6.0-0.0-8.0-1.44","4","3","4","3","3","4","3","4","3","3","5","4","4","4","5","4","4","4","5","5","2","4","3","2","2","2","2","4","1","1","0","1","1","0","1","1","1","0","1","1","0","1","0","1","5","2","4","1","2","3","4","4","2","1","767772447134191618","吴","112","","","","","","","","","","","","","","","","","","","true","4","4","ability","673","other","别人的","","","","","","","","","","","","","","",""
