"rt","stimulus","response","trial_type","trial_index","time_elapsed","internal_node_id","ses_1","ses_2","ses_3","ses_4","ses_5","ses_6","ses_7","ses_8","ses_9","ses_10","coreself_1","coreself_2","coreself_3","coreself_4","coreself_5","coreself_6","coreself_7","coreself_8","coreself_9","coreself_10","SGPS_1","SGPS_2","SGPS_3","SGPS_4","SGPS_5","SGPS_6","SGPS_7","SGPS_8","SGPS_9","NPI1","NPI2","NPI3","NPI4","NPI5","NPI6","NPI7","NPI8","NPI9","NPI10","NPI11","NPI12","NPI13","NPI14","NPI15","hsns_1","hsns_2","hsns_3","hsns_4","hsns_5","hsns_6","hsns_7","hsns_8","hsns_9","hsns_10","subj_idx","friend_name","ParticipantID","value","success","user_agent","responses","item_order","radio_event_ids","radio_event_times","key_event_times","mouse_event_times","straightlining","zigzagging","honeypot","timeout","failed_images","failed_audio","failed_video","view_history","response_type","key_press","avg_frame_time","center_x","center_y","correct_response","correct","identity","Image","word","condition","task_id","screen_id","time_stamp","version_attrib2","version_target2","IAT","RT","varname","summary","version_attrib","version_target","question_order"
"2794","
   <p><div style = ""color: white;font-size:25px;"">您好，欢迎参加本次实验。</div> </p>
   <p><div style = ""color: white;font-size:25px;"">为充分保障您的权利，请确保您已经知晓并同意《参与实验同意书》以及《数据公开知情同意书》。</div></p>
   <p><div style = ""color: white;font-size:25px;"">如果您未见过上述内容，请咨询实验员。</div></p>
   <p><div style = ""color: white;font-size:25px;"">如果您选择继续实验，则表示您已经清楚两份知情同意书的内容并同意。</div></p>
   <p><div style = ""color: red;font-size:30px;"">请确保您记得day0的实验编号，您将在本次实验输入该编号，若您忘记，请咨询实验员后作答。</div></p>
   <p> <div style = ""color: green;font-size:25px;""><按空格键至下页></div> </p>
   "," ","html-keyboard-response","0","2795","0.0-0.0","3","4","3","3","4","4","3","2","4","4","4","4","5","4","4","4","5","4","4","4","2","1","2","2","2","1","2","1","2","1","0","1","1","0","0","1","1","0","1","1","0","1","0","1","4","2","1","2","2","1","3","2","4","2","578883788969345024","杨","436","","","","","","","","","","","","","","","","","","","","","","","","","","","","","","","","","","","","","","","",""
"","","","call-function","1","2796","0.0-1.0-0.0","3","4","3","3","4","4","3","2","4","4","4","4","5","4","4","4","5","4","4","4","2","1","2","2","2","1","2","1","2","1","0","1","1","0","0","1","1","0","1","1","0","1","0","1","4","2","1","2","2","1","3","2","4","2","578883788969345024","杨","436","","","","","","","","","","","","","","","","","","","","","","","","","","","","","","","","","","","","","","","",""
"35462","","{""friend_name"":""杨"",""ParticipantID"":""436""}","survey-html-form","2","38258","0.0-1.0-1.0","3","4","3","3","4","4","3","2","4","4","4","4","5","4","4","4","5","4","4","4","2","1","2","2","2","1","2","1","2","1","0","1","1","0","0","1","1","0","1","1","0","1","0","1","4","2","1","2","2","1","3","2","4","2","578883788969345024","杨","436","","","","","","","","","","","","","","","","","","","","","","","","","","","","","","","","","","","","","","","",""
"","","","fullscreen","3","44119","0.0-2.0","3","4","3","3","4","4","3","2","4","4","4","4","5","4","4","4","5","4","4","4","2","1","2","2","2","1","2","1","2","1","0","1","1","0","0","1","1","0","1","1","0","1","0","1","4","2","1","2","2","1","3","2","4","2","578883788969345024","杨","436","","true","{}","","","","","","","","","","","","","","","","","","","","","","","","","","","","","","","","","","","","",""
"25314.799999952316","","{""Q01"":""3"",""Q02"":""4"",""Q03"":""3"",""Q04"":""3"",""Q05"":""4"",""Q06"":""4"",""Q07"":""3"",""Q08"":""2"",""Q09"":""4"",""Q10"":""4""}","survey-template","4","69435","0.0-3.0","3","4","3","3","4","4","3","2","4","4","4","4","5","4","4","4","5","4","4","4","2","1","2","2","2","1","2","1","2","1","0","1","1","0","0","1","1","0","1","1","0","1","0","1","4","2","1","2","2","1","3","2","4","2","578883788969345024","杨","436","","","","{""Q01"":""3"",""Q02"":""4"",""Q03"":""3"",""Q04"":""3"",""Q05"":""4"",""Q06"":""4"",""Q07"":""3"",""Q08"":""2"",""Q09"":""4"",""Q10"":""4""}","[0,1,2,3,4,5,6,7,8,9]","[""Q01"",""Q02"",""Q03"",""Q04"",""Q05"",""Q06"",""Q07"",""Q08"",""Q09"",""Q10""]","[11906,13346.200000047684,14658.200000047684,15978.200000047684,17562.299999952316,18745.700000047684,20418,22194.099999904633,23898.200000047684,24490.099999904633]","[]","[11906,13346.200000047684,14658.200000047684,15978.200000047684,17562.299999952316,18745.700000047684,20418,22194.099999904633,23274,23898.200000047684,24490.099999904633,25314.200000047684]","0.4","0.4444444444444444","0","","","","","","","","","","","","","","","","","","","","","","","","","","","",""
"14341.099999904633","","{""Q01"":""4"",""Q02"":""4"",""Q03"":""5"",""Q04"":""4"",""Q05"":""4"",""Q06"":""4"",""Q07"":""5"",""Q08"":""4"",""Q09"":""4"",""Q10"":""4""}","survey-template","5","83779","0.0-4.0","3","4","3","3","4","4","3","2","4","4","4","4","5","4","4","4","5","4","4","4","2","1","2","2","2","1","2","1","2","1","0","1","1","0","0","1","1","0","1","1","0","1","0","1","4","2","1","2","2","1","3","2","4","2","578883788969345024","杨","436","","","","{""Q01"":""4"",""Q02"":""4"",""Q03"":""5"",""Q04"":""4"",""Q05"":""4"",""Q06"":""4"",""Q07"":""5"",""Q08"":""4"",""Q09"":""4"",""Q10"":""4""}","[0,1,2,3,4,5,6,7,8,9]","[""Q01"",""Q02"",""Q03"",""Q04"",""Q05"",""Q06"",""Q07"",""Q08"",""Q09"",""Q10""]","[1908.3999998569489,2868.5,3836.399999856949,5020.399999856949,6044.5,7228.5,8492.5,9492.399999856949,10796.399999856949,12964.399999856949]","[]","[1908.3999998569489,2868.5,3836.399999856949,5020.399999856949,6044.5,7228.5,8492.5,9492.399999856949,10796.399999856949,11812.199999809265,12964.399999856949,14340.5]","0.4","0.2222222222222222","0","","","","","","","","","","","","","","","","","","","","","","","","","","","",""
"","","","preload","6","84146","0.0-5.0","3","4","3","3","4","4","3","2","4","4","4","4","5","4","4","4","5","4","4","4","2","1","2","2","2","1","2","1","2","1","0","1","1","0","0","1","1","0","1","1","0","1","0","1","4","2","1","2","2","1","3","2","4","2","578883788969345024","杨","436","","true","","","","","","","","","","","false","[]","[]","[]","","","","","","","","","","","","","","","","","","","","","","","",""
"10584","","","instructions","7","94730","0.0-6.0","3","4","3","3","4","4","3","2","4","4","4","4","5","4","4","4","5","4","4","4","2","1","2","2","2","1","2","1","2","1","0","1","1","0","0","1","1","0","1","1","0","1","0","1","4","2","1","2","2","1","3","2","4","2","578883788969345024","杨","436","","","","","","","","","","","","","","","","","[{""page_index"":0,""viewing_time"":10584}]","","","","","","","","","","","","","","","","","","","","","","",""
"55407","","","instructions","8","150138","0.0-7.0-1.0-0.0","3","4","3","3","4","4","3","2","4","4","4","4","5","4","4","4","5","4","4","4","2","1","2","2","2","1","2","1","2","1","0","1","1","0","0","1","1","0","1","1","0","1","0","1","4","2","1","2","2","1","3","2","4","2","578883788969345024","杨","436","","","","","","","","","","","","","","","","","[{""page_index"":0,""viewing_time"":42887},{""page_index"":1,""viewing_time"":10689},{""page_index"":2,""viewing_time"":1832}]","","","","","","","","","","","","","","","","","","","","","","",""
"957","","f","psychophysics","9","152098","0.0-7.0-1.0-1.0-0.0-0.0","3","4","3","3","4","4","3","2","4","4","4","4","5","4","4","4","5","4","4","4","2","1","2","2","2","1","2","1","2","1","0","1","1","0","0","1","1","0","1","1","0","1","0","1","4","2","1","2","2","1","3","2","4","2","578883788969345024","杨","436","","","","match","","","","","","","","","","","","","","key","f","16.66800862068967","960","536","f","true","match","img/hexagon.png","六边","六边","ALT1_2","prac_ALT1_2","","","","","","","","","",""
"null","<span style='color:GreenYellow; font-size: 70px;'>正确! </span>","null","html-keyboard-response","10","152599","0.0-7.0-1.0-1.0-0.0-1.0","3","4","3","3","4","4","3","2","4","4","4","4","5","4","4","4","5","4","4","4","2","1","2","2","2","1","2","1","2","1","0","1","1","0","0","1","1","0","1","1","0","1","0","1","4","2","1","2","2","1","3","2","4","2","578883788969345024","杨","436","","","","","","","","","","","","","","","","","","","","","","","","","","","","","","feedback_test","","","","","","","","","",""
"817","","f","psychophysics","11","154418","0.0-7.0-1.0-1.0-0.0-0.1","3","4","3","3","4","4","3","2","4","4","4","4","5","4","4","4","5","4","4","4","2","1","2","2","2","1","2","1","2","1","0","1","1","0","0","1","1","0","1","1","0","1","0","1","4","2","1","2","2","1","3","2","4","2","578883788969345024","杨","436","","","","match","","","","","","","","","","","","","","key","f","16.66692592592611","960","536","f","true","match","img/ellipse.png","椭圆","椭圆","ALT1_2","prac_ALT1_2","","","","","","","","","",""
"null","<span style='color:GreenYellow; font-size: 70px;'>正确! </span>","null","html-keyboard-response","12","154918","0.0-7.0-1.0-1.0-0.0-1.1","3","4","3","3","4","4","3","2","4","4","4","4","5","4","4","4","5","4","4","4","2","1","2","2","2","1","2","1","2","1","0","1","1","0","0","1","1","0","1","1","0","1","0","1","4","2","1","2","2","1","3","2","4","2","578883788969345024","杨","436","","","","","","","","","","","","","","","","","","","","","","","","","","","","","","feedback_test","","","","","","","","","",""
"834","","j","psychophysics","13","156754","0.0-7.0-1.0-1.0-0.0-0.2","3","4","3","3","4","4","3","2","4","4","4","4","5","4","4","4","5","4","4","4","2","1","2","2","2","1","2","1","2","1","0","1","1","0","0","1","1","0","1","1","0","1","0","1","4","2","1","2","2","1","3","2","4","2","578883788969345024","杨","436","","","","nonmatch","","","","","","","","","","","","","","key","j","16.66574311926598","960","536","j","true","nonmatch","img/ellipse.png","六边","椭圆","ALT1_2","prac_ALT1_2","","","","","","","","","",""
"null","<span style='color:GreenYellow; font-size: 70px;'>正确! </span>","null","html-keyboard-response","14","157255","0.0-7.0-1.0-1.0-0.0-1.2","3","4","3","3","4","4","3","2","4","4","4","4","5","4","4","4","5","4","4","4","2","1","2","2","2","1","2","1","2","1","0","1","1","0","0","1","1","0","1","1","0","1","0","1","4","2","1","2","2","1","3","2","4","2","578883788969345024","杨","436","","","","","","","","","","","","","","","","","","","","","","","","","","","","","","feedback_test","","","","","","","","","",""
"794","","j","psychophysics","15","159050","0.0-7.0-1.0-1.0-0.0-0.3","3","4","3","3","4","4","3","2","4","4","4","4","5","4","4","4","5","4","4","4","2","1","2","2","2","1","2","1","2","1","0","1","1","0","0","1","1","0","1","1","0","1","0","1","4","2","1","2","2","1","3","2","4","2","578883788969345024","杨","436","","","","nonmatch","","","","","","","","","","","","","","key","j","16.66306603773588","960","536","j","true","nonmatch","img/ellipse.png","三角","椭圆","ALT1_2","prac_ALT1_2","","","","","","","","","",""
"null","<span style='color:GreenYellow; font-size: 70px;'>正确! </span>","null","html-keyboard-response","16","159551","0.0-7.0-1.0-1.0-0.0-1.3","3","4","3","3","4","4","3","2","4","4","4","4","5","4","4","4","5","4","4","4","2","1","2","2","2","1","2","1","2","1","0","1","1","0","0","1","1","0","1","1","0","1","0","1","4","2","1","2","2","1","3","2","4","2","578883788969345024","杨","436","","","","","","","","","","","","","","","","","","","","","","","","","","","","","","feedback_test","","","","","","","","","",""
"667","","f","psychophysics","17","161218","0.0-7.0-1.0-1.0-0.0-0.4","3","4","3","3","4","4","3","2","4","4","4","4","5","4","4","4","5","4","4","4","2","1","2","2","2","1","2","1","2","1","0","1","1","0","0","1","1","0","1","1","0","1","0","1","4","2","1","2","2","1","3","2","4","2","578883788969345024","杨","436","","","","match","","","","","","","","","","","","","","key","f","16.665434343434608","960","536","f","true","match","img/triangle.png","三角","三角","ALT1_2","prac_ALT1_2","","","","","","","","","",""
"null","<span style='color:GreenYellow; font-size: 70px;'>正确! </span>","null","html-keyboard-response","18","161719","0.0-7.0-1.0-1.0-0.0-1.4","3","4","3","3","4","4","3","2","4","4","4","4","5","4","4","4","5","4","4","4","2","1","2","2","2","1","2","1","2","1","0","1","1","0","0","1","1","0","1","1","0","1","0","1","4","2","1","2","2","1","3","2","4","2","578883788969345024","杨","436","","","","","","","","","","","","","","","","","","","","","","","","","","","","","","feedback_test","","","","","","","","","",""
"944","","f","psychophysics","19","163666","0.0-7.0-1.0-1.0-0.0-0.5","3","4","3","3","4","4","3","2","4","4","4","4","5","4","4","4","5","4","4","4","2","1","2","2","2","1","2","1","2","1","0","1","1","0","0","1","1","0","1","1","0","1","0","1","4","2","1","2","2","1","3","2","4","2","578883788969345024","杨","436","","","","match","","","","","","","","","","","","","","key","f","16.665086956521616","960","536","j","false","nonmatch","img/hexagon.png","菱形","六边","ALT1_2","prac_ALT1_2","","","","","","","","","",""
"null","<span style='color:red; font-size: 70px;'>错误! </span>","null","html-keyboard-response","20","164172","0.0-7.0-1.0-1.0-0.0-1.5","3","4","3","3","4","4","3","2","4","4","4","4","5","4","4","4","5","4","4","4","2","1","2","2","2","1","2","1","2","1","0","1","1","0","0","1","1","0","1","1","0","1","0","1","4","2","1","2","2","1","3","2","4","2","578883788969345024","杨","436","","","","","","","","","","","","","","","","","","","","","","","","","","","","","","feedback_test","","","","","","","","","",""
"797","","f","psychophysics","21","165970","0.0-7.0-1.0-1.0-0.0-0.6","3","4","3","3","4","4","3","2","4","4","4","4","5","4","4","4","5","4","4","4","2","1","2","2","2","1","2","1","2","1","0","1","1","0","0","1","1","0","1","1","0","1","0","1","4","2","1","2","2","1","3","2","4","2","578883788969345024","杨","436","","","","match","","","","","","","","","","","","","","key","f","16.665457943925215","960","536","f","true","match","img/ellipse.png","椭圆","椭圆","ALT1_2","prac_ALT1_2","","","","","","","","","",""
"null","<span style='color:GreenYellow; font-size: 70px;'>正确! </span>","null","html-keyboard-response","22","166471","0.0-7.0-1.0-1.0-0.0-1.6","3","4","3","3","4","4","3","2","4","4","4","4","5","4","4","4","5","4","4","4","2","1","2","2","2","1","2","1","2","1","0","1","1","0","0","1","1","0","1","1","0","1","0","1","4","2","1","2","2","1","3","2","4","2","578883788969345024","杨","436","","","","","","","","","","","","","","","","","","","","","","","","","","","","","","feedback_test","","","","","","","","","",""
"713","","f","psychophysics","23","168185","0.0-7.0-1.0-1.0-0.0-0.7","3","4","3","3","4","4","3","2","4","4","4","4","5","4","4","4","5","4","4","4","2","1","2","2","2","1","2","1","2","1","0","1","1","0","0","1","1","0","1","1","0","1","0","1","4","2","1","2","2","1","3","2","4","2","578883788969345024","杨","436","","","","match","","","","","","","","","","","","","","key","f","16.665931372548904","960","536","f","true","match","img/triangle.png","三角","三角","ALT1_2","prac_ALT1_2","","","","","","","","","",""
"null","<span style='color:GreenYellow; font-size: 70px;'>正确! </span>","null","html-keyboard-response","24","168687","0.0-7.0-1.0-1.0-0.0-1.7","3","4","3","3","4","4","3","2","4","4","4","4","5","4","4","4","5","4","4","4","2","1","2","2","2","1","2","1","2","1","0","1","1","0","0","1","1","0","1","1","0","1","0","1","4","2","1","2","2","1","3","2","4","2","578883788969345024","杨","436","","","","","","","","","","","","","","","","","","","","","","","","","","","","","","feedback_test","","","","","","","","","",""
"729","","j","psychophysics","25","170418","0.0-7.0-1.0-1.0-0.0-0.8","3","4","3","3","4","4","3","2","4","4","4","4","5","4","4","4","5","4","4","4","2","1","2","2","2","1","2","1","2","1","0","1","1","0","0","1","1","0","1","1","0","1","0","1","4","2","1","2","2","1","3","2","4","2","578883788969345024","杨","436","","","","nonmatch","","","","","","","","","","","","","","key","j","16.667058252427136","960","536","j","true","nonmatch","img/triangle.png","六边","三角","ALT1_2","prac_ALT1_2","","","","","","","","","",""
"null","<span style='color:GreenYellow; font-size: 70px;'>正确! </span>","null","html-keyboard-response","26","170918","0.0-7.0-1.0-1.0-0.0-1.8","3","4","3","3","4","4","3","2","4","4","4","4","5","4","4","4","5","4","4","4","2","1","2","2","2","1","2","1","2","1","0","1","1","0","0","1","1","0","1","1","0","1","0","1","4","2","1","2","2","1","3","2","4","2","578883788969345024","杨","436","","","","","","","","","","","","","","","","","","","","","","","","","","","","","","feedback_test","","","","","","","","","",""
"705","","f","psychophysics","27","172626","0.0-7.0-1.0-1.0-0.0-0.9","3","4","3","3","4","4","3","2","4","4","4","4","5","4","4","4","5","4","4","4","2","1","2","2","2","1","2","1","2","1","0","1","1","0","0","1","1","0","1","1","0","1","0","1","4","2","1","2","2","1","3","2","4","2","578883788969345024","杨","436","","","","match","","","","","","","","","","","","","","key","f","16.664920792079272","960","536","f","true","match","img/triangle.png","三角","三角","ALT1_2","prac_ALT1_2","","","","","","","","","",""
"null","<span style='color:GreenYellow; font-size: 70px;'>正确! </span>","null","html-keyboard-response","28","173126","0.0-7.0-1.0-1.0-0.0-1.9","3","4","3","3","4","4","3","2","4","4","4","4","5","4","4","4","5","4","4","4","2","1","2","2","2","1","2","1","2","1","0","1","1","0","0","1","1","0","1","1","0","1","0","1","4","2","1","2","2","1","3","2","4","2","578883788969345024","杨","436","","","","","","","","","","","","","","","","","","","","","","","","","","","","","","feedback_test","","","","","","","","","",""
"715","","j","psychophysics","29","174842","0.0-7.0-1.0-1.0-0.0-0.10","3","4","3","3","4","4","3","2","4","4","4","4","5","4","4","4","5","4","4","4","2","1","2","2","2","1","2","1","2","1","0","1","1","0","0","1","1","0","1","1","0","1","0","1","4","2","1","2","2","1","3","2","4","2","578883788969345024","杨","436","","","","nonmatch","","","","","","","","","","","","","","key","j","16.66796078431356","960","536","j","true","nonmatch","img/triangle.png","椭圆","三角","ALT1_2","prac_ALT1_2","","","","","","","","","",""
"null","<span style='color:GreenYellow; font-size: 70px;'>正确! </span>","null","html-keyboard-response","30","175343","0.0-7.0-1.0-1.0-0.0-1.10","3","4","3","3","4","4","3","2","4","4","4","4","5","4","4","4","5","4","4","4","2","1","2","2","2","1","2","1","2","1","0","1","1","0","0","1","1","0","1","1","0","1","0","1","4","2","1","2","2","1","3","2","4","2","578883788969345024","杨","436","","","","","","","","","","","","","","","","","","","","","","","","","","","","","","feedback_test","","","","","","","","","",""
"925","","f","psychophysics","31","177273","0.0-7.0-1.0-1.0-0.0-0.11","3","4","3","3","4","4","3","2","4","4","4","4","5","4","4","4","5","4","4","4","2","1","2","2","2","1","2","1","2","1","0","1","1","0","0","1","1","0","1","1","0","1","0","1","4","2","1","2","2","1","3","2","4","2","578883788969345024","杨","436","","","","match","","","","","","","","","","","","","","key","f","16.667469565217313","960","536","f","true","match","img/diamond.png","菱形","菱形","ALT1_2","prac_ALT1_2","","","","","","","","","",""
"null","<span style='color:GreenYellow; font-size: 70px;'>正确! </span>","null","html-keyboard-response","32","177775","0.0-7.0-1.0-1.0-0.0-1.11","3","4","3","3","4","4","3","2","4","4","4","4","5","4","4","4","5","4","4","4","2","1","2","2","2","1","2","1","2","1","0","1","1","0","0","1","1","0","1","1","0","1","0","1","4","2","1","2","2","1","3","2","4","2","578883788969345024","杨","436","","","","","","","","","","","","","","","","","","","","","","","","","","","","","","feedback_test","","","","","","","","","",""
"730","","j","psychophysics","33","179506","0.0-7.0-1.0-1.0-0.0-0.12","3","4","3","3","4","4","3","2","4","4","4","4","5","4","4","4","5","4","4","4","2","1","2","2","2","1","2","1","2","1","0","1","1","0","0","1","1","0","1","1","0","1","0","1","4","2","1","2","2","1","3","2","4","2","578883788969345024","杨","436","","","","nonmatch","","","","","","","","","","","","","","key","j","16.66730097087368","960","536","j","true","nonmatch","img/triangle.png","菱形","三角","ALT1_2","prac_ALT1_2","","","","","","","","","",""
"null","<span style='color:GreenYellow; font-size: 70px;'>正确! </span>","null","html-keyboard-response","34","180006","0.0-7.0-1.0-1.0-0.0-1.12","3","4","3","3","4","4","3","2","4","4","4","4","5","4","4","4","5","4","4","4","2","1","2","2","2","1","2","1","2","1","0","1","1","0","0","1","1","0","1","1","0","1","0","1","4","2","1","2","2","1","3","2","4","2","578883788969345024","杨","436","","","","","","","","","","","","","","","","","","","","","","","","","","","","","","feedback_test","","","","","","","","","",""
"922","","j","psychophysics","35","181930","0.0-7.0-1.0-1.0-0.0-0.13","3","4","3","3","4","4","3","2","4","4","4","4","5","4","4","4","5","4","4","4","2","1","2","2","2","1","2","1","2","1","0","1","1","0","0","1","1","0","1","1","0","1","0","1","4","2","1","2","2","1","3","2","4","2","578883788969345024","杨","436","","","","nonmatch","","","","","","","","","","","","","","key","j","16.66578947368416","960","536","j","true","nonmatch","img/diamond.png","三角","菱形","ALT1_2","prac_ALT1_2","","","","","","","","","",""
"null","<span style='color:GreenYellow; font-size: 70px;'>正确! </span>","null","html-keyboard-response","36","182431","0.0-7.0-1.0-1.0-0.0-1.13","3","4","3","3","4","4","3","2","4","4","4","4","5","4","4","4","5","4","4","4","2","1","2","2","2","1","2","1","2","1","0","1","1","0","0","1","1","0","1","1","0","1","0","1","4","2","1","2","2","1","3","2","4","2","578883788969345024","杨","436","","","","","","","","","","","","","","","","","","","","","","","","","","","","","","feedback_test","","","","","","","","","",""
"null","","null","psychophysics","37","184633","0.0-7.0-1.0-1.0-0.0-0.14","3","4","3","3","4","4","3","2","4","4","4","4","5","4","4","4","5","4","4","4","2","1","2","2","2","1","2","1","2","1","0","1","1","0","0","1","1","0","1","1","0","1","0","1","4","2","1","2","2","1","3","2","4","2","578883788969345024","杨","436","","","","null","","","","","","","","","","","","","","key","null","16.664458015267353","960","536","f","false","match","img/diamond.png","菱形","菱形","ALT1_2","prac_ALT1_2","","","","","","","","","",""
"null","<span class='add_' style='color:yellow; font-size: 70px;'> 太慢! </span>","null","html-keyboard-response","38","185135","0.0-7.0-1.0-1.0-0.0-1.14","3","4","3","3","4","4","3","2","4","4","4","4","5","4","4","4","5","4","4","4","2","1","2","2","2","1","2","1","2","1","0","1","1","0","0","1","1","0","1","1","0","1","0","1","4","2","1","2","2","1","3","2","4","2","578883788969345024","杨","436","","","","","","","","","","","","","","","","","","","","","","","","","","","","","","feedback_test","","","","","","","","","",""
"1121","","j","psychophysics","39","187258","0.0-7.0-1.0-1.0-0.0-0.15","3","4","3","3","4","4","3","2","4","4","4","4","5","4","4","4","5","4","4","4","2","1","2","2","2","1","2","1","2","1","0","1","1","0","0","1","1","0","1","1","0","1","0","1","4","2","1","2","2","1","3","2","4","2","578883788969345024","杨","436","","","","nonmatch","","","","","","","","","","","","","","key","j","16.66570634920624","960","536","j","true","nonmatch","img/diamond.png","六边","菱形","ALT1_2","prac_ALT1_2","","","","","","","","","",""
"null","<span style='color:GreenYellow; font-size: 70px;'>正确! </span>","null","html-keyboard-response","40","187758","0.0-7.0-1.0-1.0-0.0-1.15","3","4","3","3","4","4","3","2","4","4","4","4","5","4","4","4","5","4","4","4","2","1","2","2","2","1","2","1","2","1","0","1","1","0","0","1","1","0","1","1","0","1","0","1","4","2","1","2","2","1","3","2","4","2","578883788969345024","杨","436","","","","","","","","","","","","","","","","","","","","","","","","","","","","","","feedback_test","","","","","","","","","",""
"754","","f","psychophysics","41","189513","0.0-7.0-1.0-1.0-0.0-0.16","3","4","3","3","4","4","3","2","4","4","4","4","5","4","4","4","5","4","4","4","2","1","2","2","2","1","2","1","2","1","0","1","1","0","0","1","1","0","1","1","0","1","0","1","4","2","1","2","2","1","3","2","4","2","578883788969345024","杨","436","","","","match","","","","","","","","","","","","","","key","f","16.665509615384508","960","536","f","true","match","img/ellipse.png","椭圆","椭圆","ALT1_2","prac_ALT1_2","","","","","","","","","",""
"null","<span style='color:GreenYellow; font-size: 70px;'>正确! </span>","null","html-keyboard-response","42","190014","0.0-7.0-1.0-1.0-0.0-1.16","3","4","3","3","4","4","3","2","4","4","4","4","5","4","4","4","5","4","4","4","2","1","2","2","2","1","2","1","2","1","0","1","1","0","0","1","1","0","1","1","0","1","0","1","4","2","1","2","2","1","3","2","4","2","578883788969345024","杨","436","","","","","","","","","","","","","","","","","","","","","","","","","","","","","","feedback_test","","","","","","","","","",""
"786","","f","psychophysics","43","191801","0.0-7.0-1.0-1.0-0.0-0.17","3","4","3","3","4","4","3","2","4","4","4","4","5","4","4","4","5","4","4","4","2","1","2","2","2","1","2","1","2","1","0","1","1","0","0","1","1","0","1","1","0","1","0","1","4","2","1","2","2","1","3","2","4","2","578883788969345024","杨","436","","","","match","","","","","","","","","","","","","","key","f","16.650150943396202","960","536","f","true","match","img/hexagon.png","六边","六边","ALT1_2","prac_ALT1_2","","","","","","","","","",""
"null","<span style='color:GreenYellow; font-size: 70px;'>正确! </span>","null","html-keyboard-response","44","192302","0.0-7.0-1.0-1.0-0.0-1.17","3","4","3","3","4","4","3","2","4","4","4","4","5","4","4","4","5","4","4","4","2","1","2","2","2","1","2","1","2","1","0","1","1","0","0","1","1","0","1","1","0","1","0","1","4","2","1","2","2","1","3","2","4","2","578883788969345024","杨","436","","","","","","","","","","","","","","","","","","","","","","","","","","","","","","feedback_test","","","","","","","","","",""
"818","","j","psychophysics","45","194121","0.0-7.0-1.0-1.0-0.0-0.18","3","4","3","3","4","4","3","2","4","4","4","4","5","4","4","4","5","4","4","4","2","1","2","2","2","1","2","1","2","1","0","1","1","0","0","1","1","0","1","1","0","1","0","1","4","2","1","2","2","1","3","2","4","2","578883788969345024","杨","436","","","","nonmatch","","","","","","","","","","","","","","key","j","16.665870370370545","960","536","j","true","nonmatch","img/hexagon.png","三角","六边","ALT1_2","prac_ALT1_2","","","","","","","","","",""
"null","<span style='color:GreenYellow; font-size: 70px;'>正确! </span>","null","html-keyboard-response","46","194622","0.0-7.0-1.0-1.0-0.0-1.18","3","4","3","3","4","4","3","2","4","4","4","4","5","4","4","4","5","4","4","4","2","1","2","2","2","1","2","1","2","1","0","1","1","0","0","1","1","0","1","1","0","1","0","1","4","2","1","2","2","1","3","2","4","2","578883788969345024","杨","436","","","","","","","","","","","","","","","","","","","","","","","","","","","","","","feedback_test","","","","","","","","","",""
"938","","f","psychophysics","47","196561","0.0-7.0-1.0-1.0-0.0-0.19","3","4","3","3","4","4","3","2","4","4","4","4","5","4","4","4","5","4","4","4","2","1","2","2","2","1","2","1","2","1","0","1","1","0","0","1","1","0","1","1","0","1","0","1","4","2","1","2","2","1","3","2","4","2","578883788969345024","杨","436","","","","match","","","","","","","","","","","","","","key","f","16.66550434782605","960","536","f","true","match","img/hexagon.png","六边","六边","ALT1_2","prac_ALT1_2","","","","","","","","","",""
"null","<span style='color:GreenYellow; font-size: 70px;'>正确! </span>","null","html-keyboard-response","48","197062","0.0-7.0-1.0-1.0-0.0-1.19","3","4","3","3","4","4","3","2","4","4","4","4","5","4","4","4","5","4","4","4","2","1","2","2","2","1","2","1","2","1","0","1","1","0","0","1","1","0","1","1","0","1","0","1","4","2","1","2","2","1","3","2","4","2","578883788969345024","杨","436","","","","","","","","","","","","","","","","","","","","","","","","","","","","","","feedback_test","","","","","","","","","",""
"794","","j","psychophysics","49","198857","0.0-7.0-1.0-1.0-0.0-0.20","3","4","3","3","4","4","3","2","4","4","4","4","5","4","4","4","5","4","4","4","2","1","2","2","2","1","2","1","2","1","0","1","1","0","0","1","1","0","1","1","0","1","0","1","4","2","1","2","2","1","3","2","4","2","578883788969345024","杨","436","","","","nonmatch","","","","","","","","","","","","","","key","j","16.66613084112134","960","536","j","true","nonmatch","img/ellipse.png","菱形","椭圆","ALT1_2","prac_ALT1_2","","","","","","","","","",""
"null","<span style='color:GreenYellow; font-size: 70px;'>正确! </span>","null","html-keyboard-response","50","199359","0.0-7.0-1.0-1.0-0.0-1.20","3","4","3","3","4","4","3","2","4","4","4","4","5","4","4","4","5","4","4","4","2","1","2","2","2","1","2","1","2","1","0","1","1","0","0","1","1","0","1","1","0","1","0","1","4","2","1","2","2","1","3","2","4","2","578883788969345024","杨","436","","","","","","","","","","","","","","","","","","","","","","","","","","","","","","feedback_test","","","","","","","","","",""
"1025","","j","psychophysics","51","201385","0.0-7.0-1.0-1.0-0.0-0.21","3","4","3","3","4","4","3","2","4","4","4","4","5","4","4","4","5","4","4","4","2","1","2","2","2","1","2","1","2","1","0","1","1","0","0","1","1","0","1","1","0","1","0","1","4","2","1","2","2","1","3","2","4","2","578883788969345024","杨","436","","","","nonmatch","","","","","","","","","","","","","","key","j","16.6677355371901","960","536","f","false","match","img/diamond.png","菱形","菱形","ALT1_2","prac_ALT1_2","","","","","","","","","",""
"null","<span style='color:red; font-size: 70px;'>错误! </span>","null","html-keyboard-response","52","201886","0.0-7.0-1.0-1.0-0.0-1.21","3","4","3","3","4","4","3","2","4","4","4","4","5","4","4","4","5","4","4","4","2","1","2","2","2","1","2","1","2","1","0","1","1","0","0","1","1","0","1","1","0","1","0","1","4","2","1","2","2","1","3","2","4","2","578883788969345024","杨","436","","","","","","","","","","","","","","","","","","","","","","","","","","","","","","feedback_test","","","","","","","","","",""
"915","","j","psychophysics","53","203801","0.0-7.0-1.0-1.0-0.0-0.22","3","4","3","3","4","4","3","2","4","4","4","4","5","4","4","4","5","4","4","4","2","1","2","2","2","1","2","1","2","1","0","1","1","0","0","1","1","0","1","1","0","1","0","1","4","2","1","2","2","1","3","2","4","2","578883788969345024","杨","436","","","","nonmatch","","","","","","","","","","","","","","key","j","16.665526315789432","960","536","j","true","nonmatch","img/hexagon.png","椭圆","六边","ALT1_2","prac_ALT1_2","","","","","","","","","",""
"null","<span style='color:GreenYellow; font-size: 70px;'>正确! </span>","null","html-keyboard-response","54","204302","0.0-7.0-1.0-1.0-0.0-1.22","3","4","3","3","4","4","3","2","4","4","4","4","5","4","4","4","5","4","4","4","2","1","2","2","2","1","2","1","2","1","0","1","1","0","0","1","1","0","1","1","0","1","0","1","4","2","1","2","2","1","3","2","4","2","578883788969345024","杨","436","","","","","","","","","","","","","","","","","","","","","","","","","","","","","","feedback_test","","","","","","","","","",""
"858","","j","psychophysics","55","206161","0.0-7.0-1.0-1.0-0.0-0.23","3","4","3","3","4","4","3","2","4","4","4","4","5","4","4","4","5","4","4","4","2","1","2","2","2","1","2","1","2","1","0","1","1","0","0","1","1","0","1","1","0","1","0","1","4","2","1","2","2","1","3","2","4","2","578883788969345024","杨","436","","","","nonmatch","","","","","","","","","","","","","","key","j","16.6650545454547","960","536","j","true","nonmatch","img/diamond.png","椭圆","菱形","ALT1_2","prac_ALT1_2","","","","","","","","","",""
"null","<span style='color:GreenYellow; font-size: 70px;'>正确! </span>","null","html-keyboard-response","56","206662","0.0-7.0-1.0-1.0-0.0-1.23","3","4","3","3","4","4","3","2","4","4","4","4","5","4","4","4","5","4","4","4","2","1","2","2","2","1","2","1","2","1","0","1","1","0","0","1","1","0","1","1","0","1","0","1","4","2","1","2","2","1","3","2","4","2","578883788969345024","杨","436","","","","","","","","","","","","","","","","","","","","","","","","","","","","","","feedback_test","","","","","","","","","",""
"1057","","j","psychophysics","57","208721","0.0-7.0-1.0-1.0-0.0-0.24","3","4","3","3","4","4","3","2","4","4","4","4","5","4","4","4","5","4","4","4","2","1","2","2","2","1","2","1","2","1","0","1","1","0","0","1","1","0","1","1","0","1","0","1","4","2","1","2","2","1","3","2","4","2","578883788969345024","杨","436","","","","nonmatch","","","","","","","","","","","","","","key","j","16.665487804878133","960","536","j","true","nonmatch","img/diamond.png","三角","菱形","ALT1_2","prac_ALT1_2","","","","","","","","","",""
"null","<span style='color:GreenYellow; font-size: 70px;'>正确! </span>","null","html-keyboard-response","58","209222","0.0-7.0-1.0-1.0-0.0-1.24","3","4","3","3","4","4","3","2","4","4","4","4","5","4","4","4","5","4","4","4","2","1","2","2","2","1","2","1","2","1","0","1","1","0","0","1","1","0","1","1","0","1","0","1","4","2","1","2","2","1","3","2","4","2","578883788969345024","杨","436","","","","","","","","","","","","","","","","","","","","","","","","","","","","","","feedback_test","","","","","","","","","",""
"970","","f","psychophysics","59","211193","0.0-7.0-1.0-1.0-0.0-0.25","3","4","3","3","4","4","3","2","4","4","4","4","5","4","4","4","5","4","4","4","2","1","2","2","2","1","2","1","2","1","0","1","1","0","0","1","1","0","1","1","0","1","0","1","4","2","1","2","2","1","3","2","4","2","578883788969345024","杨","436","","","","match","","","","","","","","","","","","","","key","f","16.66488034188032","960","536","f","true","match","img/hexagon.png","六边","六边","ALT1_2","prac_ALT1_2","","","","","","","","","",""
"null","<span style='color:GreenYellow; font-size: 70px;'>正确! </span>","null","html-keyboard-response","60","211693","0.0-7.0-1.0-1.0-0.0-1.25","3","4","3","3","4","4","3","2","4","4","4","4","5","4","4","4","5","4","4","4","2","1","2","2","2","1","2","1","2","1","0","1","1","0","0","1","1","0","1","1","0","1","0","1","4","2","1","2","2","1","3","2","4","2","578883788969345024","杨","436","","","","","","","","","","","","","","","","","","","","","","","","","","","","","","feedback_test","","","","","","","","","",""
"931","","j","psychophysics","61","213625","0.0-7.0-1.0-1.0-0.0-0.26","3","4","3","3","4","4","3","2","4","4","4","4","5","4","4","4","5","4","4","4","2","1","2","2","2","1","2","1","2","1","0","1","1","0","0","1","1","0","1","1","0","1","0","1","4","2","1","2","2","1","3","2","4","2","578883788969345024","杨","436","","","","nonmatch","","","","","","","","","","","","","","key","j","16.667469565217313","960","536","j","true","nonmatch","img/triangle.png","六边","三角","ALT1_2","prac_ALT1_2","","","","","","","","","",""
"null","<span style='color:GreenYellow; font-size: 70px;'>正确! </span>","null","html-keyboard-response","62","214126","0.0-7.0-1.0-1.0-0.0-1.26","3","4","3","3","4","4","3","2","4","4","4","4","5","4","4","4","5","4","4","4","2","1","2","2","2","1","2","1","2","1","0","1","1","0","0","1","1","0","1","1","0","1","0","1","4","2","1","2","2","1","3","2","4","2","578883788969345024","杨","436","","","","","","","","","","","","","","","","","","","","","","","","","","","","","","feedback_test","","","","","","","","","",""
"802","","j","psychophysics","63","215929","0.0-7.0-1.0-1.0-0.0-0.27","3","4","3","3","4","4","3","2","4","4","4","4","5","4","4","4","5","4","4","4","2","1","2","2","2","1","2","1","2","1","0","1","1","0","0","1","1","0","1","1","0","1","0","1","4","2","1","2","2","1","3","2","4","2","578883788969345024","杨","436","","","","nonmatch","","","","","","","","","","","","","","key","j","16.668177570093416","960","536","j","true","nonmatch","img/diamond.png","椭圆","菱形","ALT1_2","prac_ALT1_2","","","","","","","","","",""
"null","<span style='color:GreenYellow; font-size: 70px;'>正确! </span>","null","html-keyboard-response","64","216431","0.0-7.0-1.0-1.0-0.0-1.27","3","4","3","3","4","4","3","2","4","4","4","4","5","4","4","4","5","4","4","4","2","1","2","2","2","1","2","1","2","1","0","1","1","0","0","1","1","0","1","1","0","1","0","1","4","2","1","2","2","1","3","2","4","2","578883788969345024","杨","436","","","","","","","","","","","","","","","","","","","","","","","","","","","","","","feedback_test","","","","","","","","","",""
"889","","j","psychophysics","65","218321","0.0-7.0-1.0-1.0-0.0-0.28","3","4","3","3","4","4","3","2","4","4","4","4","5","4","4","4","5","4","4","4","2","1","2","2","2","1","2","1","2","1","0","1","1","0","0","1","1","0","1","1","0","1","0","1","4","2","1","2","2","1","3","2","4","2","578883788969345024","杨","436","","","","nonmatch","","","","","","","","","","","","","","key","j","16.66359821428575","960","536","j","true","nonmatch","img/ellipse.png","六边","椭圆","ALT1_2","prac_ALT1_2","","","","","","","","","",""
"null","<span style='color:GreenYellow; font-size: 70px;'>正确! </span>","null","html-keyboard-response","66","218822","0.0-7.0-1.0-1.0-0.0-1.28","3","4","3","3","4","4","3","2","4","4","4","4","5","4","4","4","5","4","4","4","2","1","2","2","2","1","2","1","2","1","0","1","1","0","0","1","1","0","1","1","0","1","0","1","4","2","1","2","2","1","3","2","4","2","578883788969345024","杨","436","","","","","","","","","","","","","","","","","","","","","","","","","","","","","","feedback_test","","","","","","","","","",""
"994","","j","psychophysics","67","220817","0.0-7.0-1.0-1.0-0.0-0.29","3","4","3","3","4","4","3","2","4","4","4","4","5","4","4","4","5","4","4","4","2","1","2","2","2","1","2","1","2","1","0","1","1","0","0","1","1","0","1","1","0","1","0","1","4","2","1","2","2","1","3","2","4","2","578883788969345024","杨","436","","","","nonmatch","","","","","","","","","","","","","","key","j","16.667655462184882","960","536","j","true","nonmatch","img/hexagon.png","三角","六边","ALT1_2","prac_ALT1_2","","","","","","","","","",""
"null","<span style='color:GreenYellow; font-size: 70px;'>正确! </span>","null","html-keyboard-response","68","221318","0.0-7.0-1.0-1.0-0.0-1.29","3","4","3","3","4","4","3","2","4","4","4","4","5","4","4","4","5","4","4","4","2","1","2","2","2","1","2","1","2","1","0","1","1","0","0","1","1","0","1","1","0","1","0","1","4","2","1","2","2","1","3","2","4","2","578883788969345024","杨","436","","","","","","","","","","","","","","","","","","","","","","","","","","","","","","feedback_test","","","","","","","","","",""
"850","","f","psychophysics","69","223169","0.0-7.0-1.0-1.0-0.0-0.30","3","4","3","3","4","4","3","2","4","4","4","4","5","4","4","4","5","4","4","4","2","1","2","2","2","1","2","1","2","1","0","1","1","0","0","1","1","0","1","1","0","1","0","1","4","2","1","2","2","1","3","2","4","2","578883788969345024","杨","436","","","","match","","","","","","","","","","","","","","key","f","16.665081818181946","960","536","f","true","match","img/ellipse.png","椭圆","椭圆","ALT1_2","prac_ALT1_2","","","","","","","","","",""
"null","<span style='color:GreenYellow; font-size: 70px;'>正确! </span>","null","html-keyboard-response","70","223670","0.0-7.0-1.0-1.0-0.0-1.30","3","4","3","3","4","4","3","2","4","4","4","4","5","4","4","4","5","4","4","4","2","1","2","2","2","1","2","1","2","1","0","1","1","0","0","1","1","0","1","1","0","1","0","1","4","2","1","2","2","1","3","2","4","2","578883788969345024","杨","436","","","","","","","","","","","","","","","","","","","","","","","","","","","","","","feedback_test","","","","","","","","","",""
"875","","f","psychophysics","71","225545","0.0-7.0-1.0-1.0-0.0-0.31","3","4","3","3","4","4","3","2","4","4","4","4","5","4","4","4","5","4","4","4","2","1","2","2","2","1","2","1","2","1","0","1","1","0","0","1","1","0","1","1","0","1","0","1","4","2","1","2","2","1","3","2","4","2","578883788969345024","杨","436","","","","match","","","","","","","","","","","","","","key","f","16.665738738738714","960","536","f","true","match","img/hexagon.png","六边","六边","ALT1_2","prac_ALT1_2","","","","","","","","","",""
"null","<span style='color:GreenYellow; font-size: 70px;'>正确! </span>","null","html-keyboard-response","72","226046","0.0-7.0-1.0-1.0-0.0-1.31","3","4","3","3","4","4","3","2","4","4","4","4","5","4","4","4","5","4","4","4","2","1","2","2","2","1","2","1","2","1","0","1","1","0","0","1","1","0","1","1","0","1","0","1","4","2","1","2","2","1","3","2","4","2","578883788969345024","杨","436","","","","","","","","","","","","","","","","","","","","","","","","","","","","","","feedback_test","","","","","","","","","",""
"834","","j","psychophysics","73","227881","0.0-7.0-1.0-1.0-0.0-0.32","3","4","3","3","4","4","3","2","4","4","4","4","5","4","4","4","5","4","4","4","2","1","2","2","2","1","2","1","2","1","0","1","1","0","0","1","1","0","1","1","0","1","0","1","4","2","1","2","2","1","3","2","4","2","578883788969345024","杨","436","","","","nonmatch","","","","","","","","","","","","","","key","j","16.65222018348628","960","536","j","true","nonmatch","img/diamond.png","六边","菱形","ALT1_2","prac_ALT1_2","","","","","","","","","",""
"null","<span style='color:GreenYellow; font-size: 70px;'>正确! </span>","null","html-keyboard-response","74","228382","0.0-7.0-1.0-1.0-0.0-1.32","3","4","3","3","4","4","3","2","4","4","4","4","5","4","4","4","5","4","4","4","2","1","2","2","2","1","2","1","2","1","0","1","1","0","0","1","1","0","1","1","0","1","0","1","4","2","1","2","2","1","3","2","4","2","578883788969345024","杨","436","","","","","","","","","","","","","","","","","","","","","","","","","","","","","","feedback_test","","","","","","","","","",""
"898","","j","psychophysics","75","230281","0.0-7.0-1.0-1.0-0.0-0.33","3","4","3","3","4","4","3","2","4","4","4","4","5","4","4","4","5","4","4","4","2","1","2","2","2","1","2","1","2","1","0","1","1","0","0","1","1","0","1","1","0","1","0","1","4","2","1","2","2","1","3","2","4","2","578883788969345024","杨","436","","","","nonmatch","","","","","","","","","","","","","","key","j","16.665796460177123","960","536","f","false","match","img/diamond.png","菱形","菱形","ALT1_2","prac_ALT1_2","","","","","","","","","",""
"null","<span style='color:red; font-size: 70px;'>错误! </span>","null","html-keyboard-response","76","230782","0.0-7.0-1.0-1.0-0.0-1.33","3","4","3","3","4","4","3","2","4","4","4","4","5","4","4","4","5","4","4","4","2","1","2","2","2","1","2","1","2","1","0","1","1","0","0","1","1","0","1","1","0","1","0","1","4","2","1","2","2","1","3","2","4","2","578883788969345024","杨","436","","","","","","","","","","","","","","","","","","","","","","","","","","","","","","feedback_test","","","","","","","","","",""
"819","","f","psychophysics","77","232602","0.0-7.0-1.0-1.0-0.0-0.34","3","4","3","3","4","4","3","2","4","4","4","4","5","4","4","4","5","4","4","4","2","1","2","2","2","1","2","1","2","1","0","1","1","0","0","1","1","0","1","1","0","1","0","1","4","2","1","2","2","1","3","2","4","2","578883788969345024","杨","436","","","","match","","","","","","","","","","","","","","key","f","16.6652129629629","960","536","f","true","match","img/hexagon.png","六边","六边","ALT1_2","prac_ALT1_2","","","","","","","","","",""
"null","<span style='color:GreenYellow; font-size: 70px;'>正确! </span>","null","html-keyboard-response","78","233103","0.0-7.0-1.0-1.0-0.0-1.34","3","4","3","3","4","4","3","2","4","4","4","4","5","4","4","4","5","4","4","4","2","1","2","2","2","1","2","1","2","1","0","1","1","0","0","1","1","0","1","1","0","1","0","1","4","2","1","2","2","1","3","2","4","2","578883788969345024","杨","436","","","","","","","","","","","","","","","","","","","","","","","","","","","","","","feedback_test","","","","","","","","","",""
"817","","f","psychophysics","79","234921","0.0-7.0-1.0-1.0-0.0-0.35","3","4","3","3","4","4","3","2","4","4","4","4","5","4","4","4","5","4","4","4","2","1","2","2","2","1","2","1","2","1","0","1","1","0","0","1","1","0","1","1","0","1","0","1","4","2","1","2","2","1","3","2","4","2","578883788969345024","杨","436","","","","match","","","","","","","","","","","","","","key","f","16.666018518518722","960","536","f","true","match","img/triangle.png","三角","三角","ALT1_2","prac_ALT1_2","","","","","","","","","",""
"null","<span style='color:GreenYellow; font-size: 70px;'>正确! </span>","null","html-keyboard-response","80","235422","0.0-7.0-1.0-1.0-0.0-1.35","3","4","3","3","4","4","3","2","4","4","4","4","5","4","4","4","5","4","4","4","2","1","2","2","2","1","2","1","2","1","0","1","1","0","0","1","1","0","1","1","0","1","0","1","4","2","1","2","2","1","3","2","4","2","578883788969345024","杨","436","","","","","","","","","","","","","","","","","","","","","","","","","","","","","","feedback_test","","","","","","","","","",""
"746","","j","psychophysics","81","237169","0.0-7.0-1.0-1.0-0.0-0.36","3","4","3","3","4","4","3","2","4","4","4","4","5","4","4","4","5","4","4","4","2","1","2","2","2","1","2","1","2","1","0","1","1","0","0","1","1","0","1","1","0","1","0","1","4","2","1","2","2","1","3","2","4","2","578883788969345024","杨","436","","","","nonmatch","","","","","","","","","","","","","","key","j","16.666355769230833","960","536","j","true","nonmatch","img/ellipse.png","菱形","椭圆","ALT1_2","prac_ALT1_2","","","","","","","","","",""
"null","<span style='color:GreenYellow; font-size: 70px;'>正确! </span>","null","html-keyboard-response","82","237670","0.0-7.0-1.0-1.0-0.0-1.36","3","4","3","3","4","4","3","2","4","4","4","4","5","4","4","4","5","4","4","4","2","1","2","2","2","1","2","1","2","1","0","1","1","0","0","1","1","0","1","1","0","1","0","1","4","2","1","2","2","1","3","2","4","2","578883788969345024","杨","436","","","","","","","","","","","","","","","","","","","","","","","","","","","","","","feedback_test","","","","","","","","","",""
"1018","","j","psychophysics","83","239689","0.0-7.0-1.0-1.0-0.0-0.37","3","4","3","3","4","4","3","2","4","4","4","4","5","4","4","4","5","4","4","4","2","1","2","2","2","1","2","1","2","1","0","1","1","0","0","1","1","0","1","1","0","1","0","1","4","2","1","2","2","1","3","2","4","2","578883788969345024","杨","436","","","","nonmatch","","","","","","","","","","","","","","key","j","16.667333333333225","960","536","f","false","match","img/diamond.png","菱形","菱形","ALT1_2","prac_ALT1_2","","","","","","","","","",""
"null","<span style='color:red; font-size: 70px;'>错误! </span>","null","html-keyboard-response","84","240190","0.0-7.0-1.0-1.0-0.0-1.37","3","4","3","3","4","4","3","2","4","4","4","4","5","4","4","4","5","4","4","4","2","1","2","2","2","1","2","1","2","1","0","1","1","0","0","1","1","0","1","1","0","1","0","1","4","2","1","2","2","1","3","2","4","2","578883788969345024","杨","436","","","","","","","","","","","","","","","","","","","","","","","","","","","","","","feedback_test","","","","","","","","","",""
"770","","f","psychophysics","85","241961","0.0-7.0-1.0-1.0-0.0-0.38","3","4","3","3","4","4","3","2","4","4","4","4","5","4","4","4","5","4","4","4","2","1","2","2","2","1","2","1","2","1","0","1","1","0","0","1","1","0","1","1","0","1","0","1","4","2","1","2","2","1","3","2","4","2","578883788969345024","杨","436","","","","match","","","","","","","","","","","","","","key","f","16.66718095238099","960","536","f","true","match","img/triangle.png","三角","三角","ALT1_2","prac_ALT1_2","","","","","","","","","",""
"null","<span style='color:GreenYellow; font-size: 70px;'>正确! </span>","null","html-keyboard-response","86","242462","0.0-7.0-1.0-1.0-0.0-1.38","3","4","3","3","4","4","3","2","4","4","4","4","5","4","4","4","5","4","4","4","2","1","2","2","2","1","2","1","2","1","0","1","1","0","0","1","1","0","1","1","0","1","0","1","4","2","1","2","2","1","3","2","4","2","578883788969345024","杨","436","","","","","","","","","","","","","","","","","","","","","","","","","","","","","","feedback_test","","","","","","","","","",""
"739","","f","psychophysics","87","244201","0.0-7.0-1.0-1.0-0.0-0.39","3","4","3","3","4","4","3","2","4","4","4","4","5","4","4","4","5","4","4","4","2","1","2","2","2","1","2","1","2","1","0","1","1","0","0","1","1","0","1","1","0","1","0","1","4","2","1","2","2","1","3","2","4","2","578883788969345024","杨","436","","","","match","","","","","","","","","","","","","","key","f","16.666669902912492","960","536","f","true","match","img/triangle.png","三角","三角","ALT1_2","prac_ALT1_2","","","","","","","","","",""
"null","<span style='color:GreenYellow; font-size: 70px;'>正确! </span>","null","html-keyboard-response","88","244702","0.0-7.0-1.0-1.0-0.0-1.39","3","4","3","3","4","4","3","2","4","4","4","4","5","4","4","4","5","4","4","4","2","1","2","2","2","1","2","1","2","1","0","1","1","0","0","1","1","0","1","1","0","1","0","1","4","2","1","2","2","1","3","2","4","2","578883788969345024","杨","436","","","","","","","","","","","","","","","","","","","","","","","","","","","","","","feedback_test","","","","","","","","","",""
"690","","j","psychophysics","89","246393","0.0-7.0-1.0-1.0-0.0-0.40","3","4","3","3","4","4","3","2","4","4","4","4","5","4","4","4","5","4","4","4","2","1","2","2","2","1","2","1","2","1","0","1","1","0","0","1","1","0","1","1","0","1","0","1","4","2","1","2","2","1","3","2","4","2","578883788969345024","杨","436","","","","nonmatch","","","","","","","","","","","","","","key","j","16.66459999999992","960","536","j","true","nonmatch","img/triangle.png","椭圆","三角","ALT1_2","prac_ALT1_2","","","","","","","","","",""
"null","<span style='color:GreenYellow; font-size: 70px;'>正确! </span>","null","html-keyboard-response","90","246894","0.0-7.0-1.0-1.0-0.0-1.40","3","4","3","3","4","4","3","2","4","4","4","4","5","4","4","4","5","4","4","4","2","1","2","2","2","1","2","1","2","1","0","1","1","0","0","1","1","0","1","1","0","1","0","1","4","2","1","2","2","1","3","2","4","2","578883788969345024","杨","436","","","","","","","","","","","","","","","","","","","","","","","","","","","","","","feedback_test","","","","","","","","","",""
"null","","null","psychophysics","91","249096","0.0-7.0-1.0-1.0-0.0-0.41","3","4","3","3","4","4","3","2","4","4","4","4","5","4","4","4","5","4","4","4","2","1","2","2","2","1","2","1","2","1","0","1","1","0","0","1","1","0","1","1","0","1","0","1","4","2","1","2","2","1","3","2","4","2","578883788969345024","杨","436","","","","null","","","","","","","","","","","","","","key","null","16.665458015267088","960","536","j","false","nonmatch","img/triangle.png","菱形","三角","ALT1_2","prac_ALT1_2","","","","","","","","","",""
"null","<span class='add_' style='color:yellow; font-size: 70px;'> 太慢! </span>","null","html-keyboard-response","92","249597","0.0-7.0-1.0-1.0-0.0-1.41","3","4","3","3","4","4","3","2","4","4","4","4","5","4","4","4","5","4","4","4","2","1","2","2","2","1","2","1","2","1","0","1","1","0","0","1","1","0","1","1","0","1","0","1","4","2","1","2","2","1","3","2","4","2","578883788969345024","杨","436","","","","","","","","","","","","","","","","","","","","","","","","","","","","","","feedback_test","","","","","","","","","",""
"924","","j","psychophysics","93","251522","0.0-7.0-1.0-1.0-0.0-0.42","3","4","3","3","4","4","3","2","4","4","4","4","5","4","4","4","5","4","4","4","2","1","2","2","2","1","2","1","2","1","0","1","1","0","0","1","1","0","1","1","0","1","0","1","4","2","1","2","2","1","3","2","4","2","578883788969345024","杨","436","","","","nonmatch","","","","","","","","","","","","","","key","j","16.66653508771943","960","536","j","true","nonmatch","img/hexagon.png","菱形","六边","ALT1_2","prac_ALT1_2","","","","","","","","","",""
"null","<span style='color:GreenYellow; font-size: 70px;'>正确! </span>","null","html-keyboard-response","94","252023","0.0-7.0-1.0-1.0-0.0-1.42","3","4","3","3","4","4","3","2","4","4","4","4","5","4","4","4","5","4","4","4","2","1","2","2","2","1","2","1","2","1","0","1","1","0","0","1","1","0","1","1","0","1","0","1","4","2","1","2","2","1","3","2","4","2","578883788969345024","杨","436","","","","","","","","","","","","","","","","","","","","","","","","","","","","","","feedback_test","","","","","","","","","",""
"834","","j","psychophysics","95","253858","0.0-7.0-1.0-1.0-0.0-0.43","3","4","3","3","4","4","3","2","4","4","4","4","5","4","4","4","5","4","4","4","2","1","2","2","2","1","2","1","2","1","0","1","1","0","0","1","1","0","1","1","0","1","0","1","4","2","1","2","2","1","3","2","4","2","578883788969345024","杨","436","","","","nonmatch","","","","","","","","","","","","","","key","j","16.665587155963294","960","536","j","true","nonmatch","img/hexagon.png","椭圆","六边","ALT1_2","prac_ALT1_2","","","","","","","","","",""
"null","<span style='color:GreenYellow; font-size: 70px;'>正确! </span>","null","html-keyboard-response","96","254358","0.0-7.0-1.0-1.0-0.0-1.43","3","4","3","3","4","4","3","2","4","4","4","4","5","4","4","4","5","4","4","4","2","1","2","2","2","1","2","1","2","1","0","1","1","0","0","1","1","0","1","1","0","1","0","1","4","2","1","2","2","1","3","2","4","2","578883788969345024","杨","436","","","","","","","","","","","","","","","","","","","","","","","","","","","","","","feedback_test","","","","","","","","","",""
"947","","f","psychophysics","97","256306","0.0-7.0-1.0-1.0-0.0-0.44","3","4","3","3","4","4","3","2","4","4","4","4","5","4","4","4","5","4","4","4","2","1","2","2","2","1","2","1","2","1","0","1","1","0","0","1","1","0","1","1","0","1","0","1","4","2","1","2","2","1","3","2","4","2","578883788969345024","杨","436","","","","match","","","","","","","","","","","","","","key","f","16.667267241379236","960","536","f","true","match","img/diamond.png","菱形","菱形","ALT1_2","prac_ALT1_2","","","","","","","","","",""
"null","<span style='color:GreenYellow; font-size: 70px;'>正确! </span>","null","html-keyboard-response","98","256806","0.0-7.0-1.0-1.0-0.0-1.44","3","4","3","3","4","4","3","2","4","4","4","4","5","4","4","4","5","4","4","4","2","1","2","2","2","1","2","1","2","1","0","1","1","0","0","1","1","0","1","1","0","1","0","1","4","2","1","2","2","1","3","2","4","2","578883788969345024","杨","436","","","","","","","","","","","","","","","","","","","","","","","","","","","","","","feedback_test","","","","","","","","","",""
"755","","f","psychophysics","99","258562","0.0-7.0-1.0-1.0-0.0-0.45","3","4","3","3","4","4","3","2","4","4","4","4","5","4","4","4","5","4","4","4","2","1","2","2","2","1","2","1","2","1","0","1","1","0","0","1","1","0","1","1","0","1","0","1","4","2","1","2","2","1","3","2","4","2","578883788969345024","杨","436","","","","match","","","","","","","","","","","","","","key","f","16.667866666666843","960","536","f","true","match","img/ellipse.png","椭圆","椭圆","ALT1_2","prac_ALT1_2","","","","","","","","","",""
"null","<span style='color:GreenYellow; font-size: 70px;'>正确! </span>","null","html-keyboard-response","100","259064","0.0-7.0-1.0-1.0-0.0-1.45","3","4","3","3","4","4","3","2","4","4","4","4","5","4","4","4","5","4","4","4","2","1","2","2","2","1","2","1","2","1","0","1","1","0","0","1","1","0","1","1","0","1","0","1","4","2","1","2","2","1","3","2","4","2","578883788969345024","杨","436","","","","","","","","","","","","","","","","","","","","","","","","","","","","","","feedback_test","","","","","","","","","",""
"761","","j","psychophysics","101","260825","0.0-7.0-1.0-1.0-0.0-0.46","3","4","3","3","4","4","3","2","4","4","4","4","5","4","4","4","5","4","4","4","2","1","2","2","2","1","2","1","2","1","0","1","1","0","0","1","1","0","1","1","0","1","0","1","4","2","1","2","2","1","3","2","4","2","578883788969345024","杨","436","","","","nonmatch","","","","","","","","","","","","","","key","j","16.6651153846153","960","536","j","true","nonmatch","img/ellipse.png","三角","椭圆","ALT1_2","prac_ALT1_2","","","","","","","","","",""
"null","<span style='color:GreenYellow; font-size: 70px;'>正确! </span>","null","html-keyboard-response","102","261326","0.0-7.0-1.0-1.0-0.0-1.46","3","4","3","3","4","4","3","2","4","4","4","4","5","4","4","4","5","4","4","4","2","1","2","2","2","1","2","1","2","1","0","1","1","0","0","1","1","0","1","1","0","1","0","1","4","2","1","2","2","1","3","2","4","2","578883788969345024","杨","436","","","","","","","","","","","","","","","","","","","","","","","","","","","","","","feedback_test","","","","","","","","","",""
"795","","f","psychophysics","103","263122","0.0-7.0-1.0-1.0-0.0-0.47","3","4","3","3","4","4","3","2","4","4","4","4","5","4","4","4","5","4","4","4","2","1","2","2","2","1","2","1","2","1","0","1","1","0","0","1","1","0","1","1","0","1","0","1","4","2","1","2","2","1","3","2","4","2","578883788969345024","杨","436","","","","match","","","","","","","","","","","","","","key","f","16.665644859812968","960","536","f","true","match","img/ellipse.png","椭圆","椭圆","ALT1_2","prac_ALT1_2","","","","","","","","","",""
"null","<span style='color:GreenYellow; font-size: 70px;'>正确! </span>","null","html-keyboard-response","104","263623","0.0-7.0-1.0-1.0-0.0-1.47","3","4","3","3","4","4","3","2","4","4","4","4","5","4","4","4","5","4","4","4","2","1","2","2","2","1","2","1","2","1","0","1","1","0","0","1","1","0","1","1","0","1","0","1","4","2","1","2","2","1","3","2","4","2","578883788969345024","杨","436","","","","","","","","","","","","","","","","","","","","","","","","","","","","","","feedback_test","","","","","","","","","",""
"17497","<style>.context{color:white; font-size: 35px; line-height:40px}</style>                          <div><p class='context'>您正确回答了88% 的试次。</p><p class='context'>您的平均反应时为835毫秒。</p><p class='context'>恭喜您完成练习。按空格键进入正式实验。</p><p class='footer' style='font-size: 35px; line-height:40px;'>请在进入正式实验实验之前将您的<span style='color: lightgreen;'>食指</span>放在电脑键盘的相应键位上进行按键。</p>","f","html-keyboard-response","105","281122","0.0-7.0-1.0-2.0","3","4","3","3","4","4","3","2","4","4","4","4","5","4","4","4","5","4","4","4","2","1","2","2","2","1","2","1","2","1","0","1","1","0","0","1","1","0","1","1","0","1","0","1","4","2","1","2","2","1","3","2","4","2","578883788969345024","杨","436","","","","","","","","","","","","","","","","","","","","","","","","","","","","","","","","","","","","","","","",""
"2718","
  <p style='color: white; font-size: 22px'>请您将手指放在按键上，准备进入正式的匹配任务。</p>
  <p> <div style = ""color: green""><按空格键进入下一阶段的匹配任务></div></p>
  "," ","html-keyboard-response","106","283842","0.0-7.0-1.0-3.0","3","4","3","3","4","4","3","2","4","4","4","4","5","4","4","4","5","4","4","4","2","1","2","2","2","1","2","1","2","1","0","1","1","0","0","1","1","0","1","1","0","1","0","1","4","2","1","2","2","1","3","2","4","2","578883788969345024","杨","436","","","","","","","","","","","","","","","","","","","","","","","","","","","","","","","","","","","","","","","",""
"703","","f","psychophysics","107","285545","0.0-7.0-1.0-4.0-0.0-0.0","3","4","3","3","4","4","3","2","4","4","4","4","5","4","4","4","5","4","4","4","2","1","2","2","2","1","2","1","2","1","0","1","1","0","0","1","1","0","1","1","0","1","0","1","4","2","1","2","2","1","3","2","4","2","578883788969345024","杨","436","","","","match","","","","","","","","","","","","","","key","f","16.665176470588218","960","536","f","true","match","img/triangle.png","三角","三角","ALT1","formal_ALT1_2","","","","","","","","","",""
"null","<span style='color:GreenYellow; font-size: 70px;'>正确! </span>","null","html-keyboard-response","108","286047","0.0-7.0-1.0-4.0-0.0-1.0","3","4","3","3","4","4","3","2","4","4","4","4","5","4","4","4","5","4","4","4","2","1","2","2","2","1","2","1","2","1","0","1","1","0","0","1","1","0","1","1","0","1","0","1","4","2","1","2","2","1","3","2","4","2","578883788969345024","杨","436","","","","","","","","","","","","","","","","","","","","","","","","","","","","","","feedback_test","","","","","","","","","",""
"769","","j","psychophysics","109","287817","0.0-7.0-1.0-4.0-0.0-0.1","3","4","3","3","4","4","3","2","4","4","4","4","5","4","4","4","5","4","4","4","2","1","2","2","2","1","2","1","2","1","0","1","1","0","0","1","1","0","1","1","0","1","0","1","4","2","1","2","2","1","3","2","4","2","578883788969345024","杨","436","","","","nonmatch","","","","","","","","","","","","","","key","j","16.66500000000011","960","536","j","true","nonmatch","img/triangle.png","菱形","三角","ALT1","formal_ALT1_2","","","","","","","","","",""
"null","<span style='color:GreenYellow; font-size: 70px;'>正确! </span>","null","html-keyboard-response","110","288318","0.0-7.0-1.0-4.0-0.0-1.1","3","4","3","3","4","4","3","2","4","4","4","4","5","4","4","4","5","4","4","4","2","1","2","2","2","1","2","1","2","1","0","1","1","0","0","1","1","0","1","1","0","1","0","1","4","2","1","2","2","1","3","2","4","2","578883788969345024","杨","436","","","","","","","","","","","","","","","","","","","","","","","","","","","","","","feedback_test","","","","","","","","","",""
"729","","j","psychophysics","111","290050","0.0-7.0-1.0-4.0-0.0-0.2","3","4","3","3","4","4","3","2","4","4","4","4","5","4","4","4","5","4","4","4","2","1","2","2","2","1","2","1","2","1","0","1","1","0","0","1","1","0","1","1","0","1","0","1","4","2","1","2","2","1","3","2","4","2","578883788969345024","杨","436","","","","nonmatch","","","","","","","","","","","","","","key","j","16.669048543689428","960","536","j","true","nonmatch","img/ellipse.png","三角","椭圆","ALT1","formal_ALT1_2","","","","","","","","","",""
"null","<span style='color:GreenYellow; font-size: 70px;'>正确! </span>","null","html-keyboard-response","112","290551","0.0-7.0-1.0-4.0-0.0-1.2","3","4","3","3","4","4","3","2","4","4","4","4","5","4","4","4","5","4","4","4","2","1","2","2","2","1","2","1","2","1","0","1","1","0","0","1","1","0","1","1","0","1","0","1","4","2","1","2","2","1","3","2","4","2","578883788969345024","杨","436","","","","","","","","","","","","","","","","","","","","","","","","","","","","","","feedback_test","","","","","","","","","",""
"658","","f","psychophysics","113","292210","0.0-7.0-1.0-4.0-0.0-0.3","3","4","3","3","4","4","3","2","4","4","4","4","5","4","4","4","5","4","4","4","2","1","2","2","2","1","2","1","2","1","0","1","1","0","0","1","1","0","1","1","0","1","0","1","4","2","1","2","2","1","3","2","4","2","578883788969345024","杨","436","","","","match","","","","","","","","","","","","","","key","f","16.665717171717347","960","536","f","true","match","img/ellipse.png","椭圆","椭圆","ALT1","formal_ALT1_2","","","","","","","","","",""
"null","<span style='color:GreenYellow; font-size: 70px;'>正确! </span>","null","html-keyboard-response","114","292712","0.0-7.0-1.0-4.0-0.0-1.3","3","4","3","3","4","4","3","2","4","4","4","4","5","4","4","4","5","4","4","4","2","1","2","2","2","1","2","1","2","1","0","1","1","0","0","1","1","0","1","1","0","1","0","1","4","2","1","2","2","1","3","2","4","2","578883788969345024","杨","436","","","","","","","","","","","","","","","","","","","","","","","","","","","","","","feedback_test","","","","","","","","","",""
"904","","f","psychophysics","115","294618","0.0-7.0-1.0-4.0-0.0-0.4","3","4","3","3","4","4","3","2","4","4","4","4","5","4","4","4","5","4","4","4","2","1","2","2","2","1","2","1","2","1","0","1","1","0","0","1","1","0","1","1","0","1","0","1","4","2","1","2","2","1","3","2","4","2","578883788969345024","杨","436","","","","match","","","","","","","","","","","","","","key","f","16.665398230088517","960","536","f","true","match","img/ellipse.png","椭圆","椭圆","ALT1","formal_ALT1_2","","","","","","","","","",""
"null","<span style='color:GreenYellow; font-size: 70px;'>正确! </span>","null","html-keyboard-response","116","295118","0.0-7.0-1.0-4.0-0.0-1.4","3","4","3","3","4","4","3","2","4","4","4","4","5","4","4","4","5","4","4","4","2","1","2","2","2","1","2","1","2","1","0","1","1","0","0","1","1","0","1","1","0","1","0","1","4","2","1","2","2","1","3","2","4","2","578883788969345024","杨","436","","","","","","","","","","","","","","","","","","","","","","","","","","","","","","feedback_test","","","","","","","","","",""
"891","","f","psychophysics","117","297010","0.0-7.0-1.0-4.0-0.0-0.5","3","4","3","3","4","4","3","2","4","4","4","4","5","4","4","4","5","4","4","4","2","1","2","2","2","1","2","1","2","1","0","1","1","0","0","1","1","0","1","1","0","1","0","1","4","2","1","2","2","1","3","2","4","2","578883788969345024","杨","436","","","","match","","","","","","","","","","","","","","key","f","16.666221238938014","960","536","f","true","match","img/hexagon.png","六边","六边","ALT1","formal_ALT1_2","","","","","","","","","",""
"null","<span style='color:GreenYellow; font-size: 70px;'>正确! </span>","null","html-keyboard-response","118","297511","0.0-7.0-1.0-4.0-0.0-1.5","3","4","3","3","4","4","3","2","4","4","4","4","5","4","4","4","5","4","4","4","2","1","2","2","2","1","2","1","2","1","0","1","1","0","0","1","1","0","1","1","0","1","0","1","4","2","1","2","2","1","3","2","4","2","578883788969345024","杨","436","","","","","","","","","","","","","","","","","","","","","","","","","","","","","","feedback_test","","","","","","","","","",""
"986","","f","psychophysics","119","299497","0.0-7.0-1.0-4.0-0.0-0.6","3","4","3","3","4","4","3","2","4","4","4","4","5","4","4","4","5","4","4","4","2","1","2","2","2","1","2","1","2","1","0","1","1","0","0","1","1","0","1","1","0","1","0","1","4","2","1","2","2","1","3","2","4","2","578883788969345024","杨","436","","","","match","","","","","","","","","","","","","","key","f","16.66519491525438","960","536","j","false","nonmatch","img/hexagon.png","菱形","六边","ALT1","formal_ALT1_2","","","","","","","","","",""
"null","<span style='color:red; font-size: 70px;'>错误! </span>","null","html-keyboard-response","120","299998","0.0-7.0-1.0-4.0-0.0-1.6","3","4","3","3","4","4","3","2","4","4","4","4","5","4","4","4","5","4","4","4","2","1","2","2","2","1","2","1","2","1","0","1","1","0","0","1","1","0","1","1","0","1","0","1","4","2","1","2","2","1","3","2","4","2","578883788969345024","杨","436","","","","","","","","","","","","","","","","","","","","","","","","","","","","","","feedback_test","","","","","","","","","",""
"834","","j","psychophysics","121","301833","0.0-7.0-1.0-4.0-0.0-0.7","3","4","3","3","4","4","3","2","4","4","4","4","5","4","4","4","5","4","4","4","2","1","2","2","2","1","2","1","2","1","0","1","1","0","0","1","1","0","1","1","0","1","0","1","4","2","1","2","2","1","3","2","4","2","578883788969345024","杨","436","","","","nonmatch","","","","","","","","","","","","","","key","j","16.664660550458485","960","536","j","true","nonmatch","img/triangle.png","六边","三角","ALT1","formal_ALT1_2","","","","","","","","","",""
"null","<span style='color:GreenYellow; font-size: 70px;'>正确! </span>","null","html-keyboard-response","122","302334","0.0-7.0-1.0-4.0-0.0-1.7","3","4","3","3","4","4","3","2","4","4","4","4","5","4","4","4","5","4","4","4","2","1","2","2","2","1","2","1","2","1","0","1","1","0","0","1","1","0","1","1","0","1","0","1","4","2","1","2","2","1","3","2","4","2","578883788969345024","杨","436","","","","","","","","","","","","","","","","","","","","","","","","","","","","","","feedback_test","","","","","","","","","",""
"818","","j","psychophysics","123","304153","0.0-7.0-1.0-4.0-0.0-0.8","3","4","3","3","4","4","3","2","4","4","4","4","5","4","4","4","5","4","4","4","2","1","2","2","2","1","2","1","2","1","0","1","1","0","0","1","1","0","1","1","0","1","0","1","4","2","1","2","2","1","3","2","4","2","578883788969345024","杨","436","","","","nonmatch","","","","","","","","","","","","","","key","j","16.668092592592412","960","536","j","true","nonmatch","img/ellipse.png","六边","椭圆","ALT1","formal_ALT1_2","","","","","","","","","",""
"null","<span style='color:GreenYellow; font-size: 70px;'>正确! </span>","null","html-keyboard-response","124","304654","0.0-7.0-1.0-4.0-0.0-1.8","3","4","3","3","4","4","3","2","4","4","4","4","5","4","4","4","5","4","4","4","2","1","2","2","2","1","2","1","2","1","0","1","1","0","0","1","1","0","1","1","0","1","0","1","4","2","1","2","2","1","3","2","4","2","578883788969345024","杨","436","","","","","","","","","","","","","","","","","","","","","","","","","","","","","","feedback_test","","","","","","","","","",""
"771","","j","psychophysics","125","306426","0.0-7.0-1.0-4.0-0.0-0.9","3","4","3","3","4","4","3","2","4","4","4","4","5","4","4","4","5","4","4","4","2","1","2","2","2","1","2","1","2","1","0","1","1","0","0","1","1","0","1","1","0","1","0","1","4","2","1","2","2","1","3","2","4","2","578883788969345024","杨","436","","","","nonmatch","","","","","","","","","","","","","","key","j","16.668500000000318","960","536","j","true","nonmatch","img/hexagon.png","三角","六边","ALT1","formal_ALT1_2","","","","","","","","","",""
"null","<span style='color:GreenYellow; font-size: 70px;'>正确! </span>","null","html-keyboard-response","126","306927","0.0-7.0-1.0-4.0-0.0-1.9","3","4","3","3","4","4","3","2","4","4","4","4","5","4","4","4","5","4","4","4","2","1","2","2","2","1","2","1","2","1","0","1","1","0","0","1","1","0","1","1","0","1","0","1","4","2","1","2","2","1","3","2","4","2","578883788969345024","杨","436","","","","","","","","","","","","","","","","","","","","","","","","","","","","","","feedback_test","","","","","","","","","",""
"768","","j","psychophysics","127","308697","0.0-7.0-1.0-4.0-0.0-0.10","3","4","3","3","4","4","3","2","4","4","4","4","5","4","4","4","5","4","4","4","2","1","2","2","2","1","2","1","2","1","0","1","1","0","0","1","1","0","1","1","0","1","0","1","4","2","1","2","2","1","3","2","4","2","578883788969345024","杨","436","","","","nonmatch","","","","","","","","","","","","","","key","j","16.66620952380943","960","536","j","true","nonmatch","img/hexagon.png","椭圆","六边","ALT1","formal_ALT1_2","","","","","","","","","",""
"null","<span style='color:GreenYellow; font-size: 70px;'>正确! </span>","null","html-keyboard-response","128","309198","0.0-7.0-1.0-4.0-0.0-1.10","3","4","3","3","4","4","3","2","4","4","4","4","5","4","4","4","5","4","4","4","2","1","2","2","2","1","2","1","2","1","0","1","1","0","0","1","1","0","1","1","0","1","0","1","4","2","1","2","2","1","3","2","4","2","578883788969345024","杨","436","","","","","","","","","","","","","","","","","","","","","","","","","","","","","","feedback_test","","","","","","","","","",""
"810","","j","psychophysics","129","311009","0.0-7.0-1.0-4.0-0.0-0.11","3","4","3","3","4","4","3","2","4","4","4","4","5","4","4","4","5","4","4","4","2","1","2","2","2","1","2","1","2","1","0","1","1","0","0","1","1","0","1","1","0","1","0","1","4","2","1","2","2","1","3","2","4","2","578883788969345024","杨","436","","","","nonmatch","","","","","","","","","","","","","","key","j","16.664018518518315","960","536","j","true","nonmatch","img/diamond.png","椭圆","菱形","ALT1","formal_ALT1_2","","","","","","","","","",""
"null","<span style='color:GreenYellow; font-size: 70px;'>正确! </span>","null","html-keyboard-response","130","311510","0.0-7.0-1.0-4.0-0.0-1.11","3","4","3","3","4","4","3","2","4","4","4","4","5","4","4","4","5","4","4","4","2","1","2","2","2","1","2","1","2","1","0","1","1","0","0","1","1","0","1","1","0","1","0","1","4","2","1","2","2","1","3","2","4","2","578883788969345024","杨","436","","","","","","","","","","","","","","","","","","","","","","","","","","","","","","feedback_test","","","","","","","","","",""
"906","","f","psychophysics","131","313417","0.0-7.0-1.0-4.0-0.0-0.12","3","4","3","3","4","4","3","2","4","4","4","4","5","4","4","4","5","4","4","4","2","1","2","2","2","1","2","1","2","1","0","1","1","0","0","1","1","0","1","1","0","1","0","1","4","2","1","2","2","1","3","2","4","2","578883788969345024","杨","436","","","","match","","","","","","","","","","","","","","key","f","16.66559292035398","960","536","f","true","match","img/hexagon.png","六边","六边","ALT1","formal_ALT1_2","","","","","","","","","",""
"null","<span style='color:GreenYellow; font-size: 70px;'>正确! </span>","null","html-keyboard-response","132","313918","0.0-7.0-1.0-4.0-0.0-1.12","3","4","3","3","4","4","3","2","4","4","4","4","5","4","4","4","5","4","4","4","2","1","2","2","2","1","2","1","2","1","0","1","1","0","0","1","1","0","1","1","0","1","0","1","4","2","1","2","2","1","3","2","4","2","578883788969345024","杨","436","","","","","","","","","","","","","","","","","","","","","","","","","","","","","","feedback_test","","","","","","","","","",""
"891","","f","psychophysics","133","315809","0.0-7.0-1.0-4.0-0.0-0.13","3","4","3","3","4","4","3","2","4","4","4","4","5","4","4","4","5","4","4","4","2","1","2","2","2","1","2","1","2","1","0","1","1","0","0","1","1","0","1","1","0","1","0","1","4","2","1","2","2","1","3","2","4","2","578883788969345024","杨","436","","","","match","","","","","","","","","","","","","","key","f","16.66769026548641","960","536","f","true","match","img/diamond.png","菱形","菱形","ALT1","formal_ALT1_2","","","","","","","","","",""
"null","<span style='color:GreenYellow; font-size: 70px;'>正确! </span>","null","html-keyboard-response","134","316310","0.0-7.0-1.0-4.0-0.0-1.13","3","4","3","3","4","4","3","2","4","4","4","4","5","4","4","4","5","4","4","4","2","1","2","2","2","1","2","1","2","1","0","1","1","0","0","1","1","0","1","1","0","1","0","1","4","2","1","2","2","1","3","2","4","2","578883788969345024","杨","436","","","","","","","","","","","","","","","","","","","","","","","","","","","","","","feedback_test","","","","","","","","","",""
"697","","j","psychophysics","135","318009","0.0-7.0-1.0-4.0-0.0-0.14","3","4","3","3","4","4","3","2","4","4","4","4","5","4","4","4","5","4","4","4","2","1","2","2","2","1","2","1","2","1","0","1","1","0","0","1","1","0","1","1","0","1","0","1","4","2","1","2","2","1","3","2","4","2","578883788969345024","杨","436","","","","nonmatch","","","","","","","","","","","","","","key","j","16.667940594059402","960","536","j","true","nonmatch","img/triangle.png","椭圆","三角","ALT1","formal_ALT1_2","","","","","","","","","",""
"null","<span style='color:GreenYellow; font-size: 70px;'>正确! </span>","null","html-keyboard-response","136","318510","0.0-7.0-1.0-4.0-0.0-1.14","3","4","3","3","4","4","3","2","4","4","4","4","5","4","4","4","5","4","4","4","2","1","2","2","2","1","2","1","2","1","0","1","1","0","0","1","1","0","1","1","0","1","0","1","4","2","1","2","2","1","3","2","4","2","578883788969345024","杨","436","","","","","","","","","","","","","","","","","","","","","","","","","","","","","","feedback_test","","","","","","","","","",""
"1065","","j","psychophysics","137","320577","0.0-7.0-1.0-4.0-0.0-0.15","3","4","3","3","4","4","3","2","4","4","4","4","5","4","4","4","5","4","4","4","2","1","2","2","2","1","2","1","2","1","0","1","1","0","0","1","1","0","1","1","0","1","0","1","4","2","1","2","2","1","3","2","4","2","578883788969345024","杨","436","","","","nonmatch","","","","","","","","","","","","","","key","j","16.665325203252202","960","536","j","true","nonmatch","img/diamond.png","六边","菱形","ALT1","formal_ALT1_2","","","","","","","","","",""
"null","<span style='color:GreenYellow; font-size: 70px;'>正确! </span>","null","html-keyboard-response","138","321078","0.0-7.0-1.0-4.0-0.0-1.15","3","4","3","3","4","4","3","2","4","4","4","4","5","4","4","4","5","4","4","4","2","1","2","2","2","1","2","1","2","1","0","1","1","0","0","1","1","0","1","1","0","1","0","1","4","2","1","2","2","1","3","2","4","2","578883788969345024","杨","436","","","","","","","","","","","","","","","","","","","","","","","","","","","","","","feedback_test","","","","","","","","","",""
"833","","f","psychophysics","139","322913","0.0-7.0-1.0-4.0-0.0-0.16","3","4","3","3","4","4","3","2","4","4","4","4","5","4","4","4","5","4","4","4","2","1","2","2","2","1","2","1","2","1","0","1","1","0","0","1","1","0","1","1","0","1","0","1","4","2","1","2","2","1","3","2","4","2","578883788969345024","杨","436","","","","match","","","","","","","","","","","","","","key","f","16.66744036697238","960","536","f","true","match","img/hexagon.png","六边","六边","ALT1","formal_ALT1_2","","","","","","","","","",""
"null","<span style='color:GreenYellow; font-size: 70px;'>正确! </span>","null","html-keyboard-response","140","323415","0.0-7.0-1.0-4.0-0.0-1.16","3","4","3","3","4","4","3","2","4","4","4","4","5","4","4","4","5","4","4","4","2","1","2","2","2","1","2","1","2","1","0","1","1","0","0","1","1","0","1","1","0","1","0","1","4","2","1","2","2","1","3","2","4","2","578883788969345024","杨","436","","","","","","","","","","","","","","","","","","","","","","","","","","","","","","feedback_test","","","","","","","","","",""
"746","","f","psychophysics","141","325162","0.0-7.0-1.0-4.0-0.0-0.17","3","4","3","3","4","4","3","2","4","4","4","4","5","4","4","4","5","4","4","4","2","1","2","2","2","1","2","1","2","1","0","1","1","0","0","1","1","0","1","1","0","1","0","1","4","2","1","2","2","1","3","2","4","2","578883788969345024","杨","436","","","","match","","","","","","","","","","","","","","key","f","16.667951923076963","960","536","f","true","match","img/triangle.png","三角","三角","ALT1","formal_ALT1_2","","","","","","","","","",""
"null","<span style='color:GreenYellow; font-size: 70px;'>正确! </span>","null","html-keyboard-response","142","325663","0.0-7.0-1.0-4.0-0.0-1.17","3","4","3","3","4","4","3","2","4","4","4","4","5","4","4","4","5","4","4","4","2","1","2","2","2","1","2","1","2","1","0","1","1","0","0","1","1","0","1","1","0","1","0","1","4","2","1","2","2","1","3","2","4","2","578883788969345024","杨","436","","","","","","","","","","","","","","","","","","","","","","","","","","","","","","feedback_test","","","","","","","","","",""
"649","","f","psychophysics","143","327313","0.0-7.0-1.0-4.0-0.0-0.18","3","4","3","3","4","4","3","2","4","4","4","4","5","4","4","4","5","4","4","4","2","1","2","2","2","1","2","1","2","1","0","1","1","0","0","1","1","0","1","1","0","1","0","1","4","2","1","2","2","1","3","2","4","2","578883788969345024","杨","436","","","","match","","","","","","","","","","","","","","key","f","16.665551020408035","960","536","f","true","match","img/triangle.png","三角","三角","ALT1","formal_ALT1_2","","","","","","","","","",""
"null","<span style='color:GreenYellow; font-size: 70px;'>正确! </span>","null","html-keyboard-response","144","327814","0.0-7.0-1.0-4.0-0.0-1.18","3","4","3","3","4","4","3","2","4","4","4","4","5","4","4","4","5","4","4","4","2","1","2","2","2","1","2","1","2","1","0","1","1","0","0","1","1","0","1","1","0","1","0","1","4","2","1","2","2","1","3","2","4","2","578883788969345024","杨","436","","","","","","","","","","","","","","","","","","","","","","","","","","","","","","feedback_test","","","","","","","","","",""
"618","","f","psychophysics","145","329442","0.0-7.0-1.0-4.0-0.0-0.19","3","4","3","3","4","4","3","2","4","4","4","4","5","4","4","4","5","4","4","4","2","1","2","2","2","1","2","1","2","1","0","1","1","0","0","1","1","0","1","1","0","1","0","1","4","2","1","2","2","1","3","2","4","2","578883788969345024","杨","436","","","","match","","","","","","","","","","","","","","key","f","16.665804123711776","960","536","f","true","match","img/ellipse.png","椭圆","椭圆","ALT1","formal_ALT1_2","","","","","","","","","",""
"null","<span style='color:GreenYellow; font-size: 70px;'>正确! </span>","null","html-keyboard-response","146","329943","0.0-7.0-1.0-4.0-0.0-1.19","3","4","3","3","4","4","3","2","4","4","4","4","5","4","4","4","5","4","4","4","2","1","2","2","2","1","2","1","2","1","0","1","1","0","0","1","1","0","1","1","0","1","0","1","4","2","1","2","2","1","3","2","4","2","578883788969345024","杨","436","","","","","","","","","","","","","","","","","","","","","","","","","","","","","","feedback_test","","","","","","","","","",""
"825","","f","psychophysics","147","331769","0.0-7.0-1.0-4.0-0.0-0.20","3","4","3","3","4","4","3","2","4","4","4","4","5","4","4","4","5","4","4","4","2","1","2","2","2","1","2","1","2","1","0","1","1","0","0","1","1","0","1","1","0","1","0","1","4","2","1","2","2","1","3","2","4","2","578883788969345024","杨","436","","","","match","","","","","","","","","","","","","","key","f","16.665675925925758","960","536","f","true","match","img/diamond.png","菱形","菱形","ALT1","formal_ALT1_2","","","","","","","","","",""
"null","<span style='color:GreenYellow; font-size: 70px;'>正确! </span>","null","html-keyboard-response","148","332270","0.0-7.0-1.0-4.0-0.0-1.20","3","4","3","3","4","4","3","2","4","4","4","4","5","4","4","4","5","4","4","4","2","1","2","2","2","1","2","1","2","1","0","1","1","0","0","1","1","0","1","1","0","1","0","1","4","2","1","2","2","1","3","2","4","2","578883788969345024","杨","436","","","","","","","","","","","","","","","","","","","","","","","","","","","","","","feedback_test","","","","","","","","","",""
"770","","j","psychophysics","149","334041","0.0-7.0-1.0-4.0-0.0-0.21","3","4","3","3","4","4","3","2","4","4","4","4","5","4","4","4","5","4","4","4","2","1","2","2","2","1","2","1","2","1","0","1","1","0","0","1","1","0","1","1","0","1","0","1","4","2","1","2","2","1","3","2","4","2","578883788969345024","杨","436","","","","nonmatch","","","","","","","","","","","","","","key","j","16.66749056603788","960","536","j","true","nonmatch","img/ellipse.png","菱形","椭圆","ALT1","formal_ALT1_2","","","","","","","","","",""
"null","<span style='color:GreenYellow; font-size: 70px;'>正确! </span>","null","html-keyboard-response","150","334543","0.0-7.0-1.0-4.0-0.0-1.21","3","4","3","3","4","4","3","2","4","4","4","4","5","4","4","4","5","4","4","4","2","1","2","2","2","1","2","1","2","1","0","1","1","0","0","1","1","0","1","1","0","1","0","1","4","2","1","2","2","1","3","2","4","2","578883788969345024","杨","436","","","","","","","","","","","","","","","","","","","","","","","","","","","","","","feedback_test","","","","","","","","","",""
"905","","j","psychophysics","151","336449","0.0-7.0-1.0-4.0-0.0-0.22","3","4","3","3","4","4","3","2","4","4","4","4","5","4","4","4","5","4","4","4","2","1","2","2","2","1","2","1","2","1","0","1","1","0","0","1","1","0","1","1","0","1","0","1","4","2","1","2","2","1","3","2","4","2","578883788969345024","杨","436","","","","nonmatch","","","","","","","","","","","","","","key","j","16.66500884955759","960","536","j","true","nonmatch","img/diamond.png","三角","菱形","ALT1","formal_ALT1_2","","","","","","","","","",""
"null","<span style='color:GreenYellow; font-size: 70px;'>正确! </span>","null","html-keyboard-response","152","336950","0.0-7.0-1.0-4.0-0.0-1.22","3","4","3","3","4","4","3","2","4","4","4","4","5","4","4","4","5","4","4","4","2","1","2","2","2","1","2","1","2","1","0","1","1","0","0","1","1","0","1","1","0","1","0","1","4","2","1","2","2","1","3","2","4","2","578883788969345024","杨","436","","","","","","","","","","","","","","","","","","","","","","","","","","","","","","feedback_test","","","","","","","","","",""
"1083","","f","psychophysics","153","339034","0.0-7.0-1.0-4.0-0.0-0.23","3","4","3","3","4","4","3","2","4","4","4","4","5","4","4","4","5","4","4","4","2","1","2","2","2","1","2","1","2","1","0","1","1","0","0","1","1","0","1","1","0","1","0","1","4","2","1","2","2","1","3","2","4","2","578883788969345024","杨","436","","","","match","","","","","","","","","","","","","","key","f","16.668008064516002","960","536","f","true","match","img/diamond.png","菱形","菱形","ALT1","formal_ALT1_2","","","","","","","","","",""
"null","<span style='color:GreenYellow; font-size: 70px;'>正确! </span>","null","html-keyboard-response","154","339534","0.0-7.0-1.0-4.0-0.0-1.23","3","4","3","3","4","4","3","2","4","4","4","4","5","4","4","4","5","4","4","4","2","1","2","2","2","1","2","1","2","1","0","1","1","0","0","1","1","0","1","1","0","1","0","1","4","2","1","2","2","1","3","2","4","2","578883788969345024","杨","436","","","","","","","","","","","","","","","","","","","","","","","","","","","","","","feedback_test","","","","","","","","","",""
"898","","f","psychophysics","155","341433","0.0-7.0-1.0-4.0-0.0-0.24","3","4","3","3","4","4","3","2","4","4","4","4","5","4","4","4","5","4","4","4","2","1","2","2","2","1","2","1","2","1","0","1","1","0","0","1","1","0","1","1","0","1","0","1","4","2","1","2","2","1","3","2","4","2","578883788969345024","杨","436","","","","match","","","","","","","","","","","","","","key","f","16.66769911504435","960","536","f","true","match","img/diamond.png","菱形","菱形","ALT1","formal_ALT1_2","","","","","","","","","",""
"null","<span style='color:GreenYellow; font-size: 70px;'>正确! </span>","null","html-keyboard-response","156","341934","0.0-7.0-1.0-4.0-0.0-1.24","3","4","3","3","4","4","3","2","4","4","4","4","5","4","4","4","5","4","4","4","2","1","2","2","2","1","2","1","2","1","0","1","1","0","0","1","1","0","1","1","0","1","0","1","4","2","1","2","2","1","3","2","4","2","578883788969345024","杨","436","","","","","","","","","","","","","","","","","","","","","","","","","","","","","","feedback_test","","","","","","","","","",""
"754","","j","psychophysics","157","343690","0.0-7.0-1.0-4.0-0.0-0.25","3","4","3","3","4","4","3","2","4","4","4","4","5","4","4","4","5","4","4","4","2","1","2","2","2","1","2","1","2","1","0","1","1","0","0","1","1","0","1","1","0","1","0","1","4","2","1","2","2","1","3","2","4","2","578883788969345024","杨","436","","","","nonmatch","","","","","","","","","","","","","","key","j","16.66609615384592","960","536","j","true","nonmatch","img/ellipse.png","六边","椭圆","ALT1","formal_ALT1_2","","","","","","","","","",""
"null","<span style='color:GreenYellow; font-size: 70px;'>正确! </span>","null","html-keyboard-response","158","344191","0.0-7.0-1.0-4.0-0.0-1.25","3","4","3","3","4","4","3","2","4","4","4","4","5","4","4","4","5","4","4","4","2","1","2","2","2","1","2","1","2","1","0","1","1","0","0","1","1","0","1","1","0","1","0","1","4","2","1","2","2","1","3","2","4","2","578883788969345024","杨","436","","","","","","","","","","","","","","","","","","","","","","","","","","","","","","feedback_test","","","","","","","","","",""
"1025","","j","psychophysics","159","346217","0.0-7.0-1.0-4.0-0.0-0.26","3","4","3","3","4","4","3","2","4","4","4","4","5","4","4","4","5","4","4","4","2","1","2","2","2","1","2","1","2","1","0","1","1","0","0","1","1","0","1","1","0","1","0","1","4","2","1","2","2","1","3","2","4","2","578883788969345024","杨","436","","","","nonmatch","","","","","","","","","","","","","","key","j","16.666091666667004","960","536","j","true","nonmatch","img/hexagon.png","三角","六边","ALT1","formal_ALT1_2","","","","","","","","","",""
"null","<span style='color:GreenYellow; font-size: 70px;'>正确! </span>","null","html-keyboard-response","160","346718","0.0-7.0-1.0-4.0-0.0-1.26","3","4","3","3","4","4","3","2","4","4","4","4","5","4","4","4","5","4","4","4","2","1","2","2","2","1","2","1","2","1","0","1","1","0","0","1","1","0","1","1","0","1","0","1","4","2","1","2","2","1","3","2","4","2","578883788969345024","杨","436","","","","","","","","","","","","","","","","","","","","","","","","","","","","","","feedback_test","","","","","","","","","",""
"771","","j","psychophysics","161","348490","0.0-7.0-1.0-4.0-0.0-0.27","3","4","3","3","4","4","3","2","4","4","4","4","5","4","4","4","5","4","4","4","2","1","2","2","2","1","2","1","2","1","0","1","1","0","0","1","1","0","1","1","0","1","0","1","4","2","1","2","2","1","3","2","4","2","578883788969345024","杨","436","","","","nonmatch","","","","","","","","","","","","","","key","j","16.667216981132405","960","536","j","true","nonmatch","img/ellipse.png","三角","椭圆","ALT1","formal_ALT1_2","","","","","","","","","",""
"null","<span style='color:GreenYellow; font-size: 70px;'>正确! </span>","null","html-keyboard-response","162","348992","0.0-7.0-1.0-4.0-0.0-1.27","3","4","3","3","4","4","3","2","4","4","4","4","5","4","4","4","5","4","4","4","2","1","2","2","2","1","2","1","2","1","0","1","1","0","0","1","1","0","1","1","0","1","0","1","4","2","1","2","2","1","3","2","4","2","578883788969345024","杨","436","","","","","","","","","","","","","","","","","","","","","","","","","","","","","","feedback_test","","","","","","","","","",""
"809","","f","psychophysics","163","350802","0.0-7.0-1.0-4.0-0.0-0.28","3","4","3","3","4","4","3","2","4","4","4","4","5","4","4","4","5","4","4","4","2","1","2","2","2","1","2","1","2","1","0","1","1","0","0","1","1","0","1","1","0","1","0","1","4","2","1","2","2","1","3","2","4","2","578883788969345024","杨","436","","","","match","","","","","","","","","","","","","","key","f","16.665663551402094","960","536","j","false","nonmatch","img/hexagon.png","菱形","六边","ALT1","formal_ALT1_2","","","","","","","","","",""
"null","<span style='color:red; font-size: 70px;'>错误! </span>","null","html-keyboard-response","164","351303","0.0-7.0-1.0-4.0-0.0-1.28","3","4","3","3","4","4","3","2","4","4","4","4","5","4","4","4","5","4","4","4","2","1","2","2","2","1","2","1","2","1","0","1","1","0","0","1","1","0","1","1","0","1","0","1","4","2","1","2","2","1","3","2","4","2","578883788969345024","杨","436","","","","","","","","","","","","","","","","","","","","","","","","","","","","","","feedback_test","","","","","","","","","",""
"777","","f","psychophysics","165","353081","0.0-7.0-1.0-4.0-0.0-0.29","3","4","3","3","4","4","3","2","4","4","4","4","5","4","4","4","5","4","4","4","2","1","2","2","2","1","2","1","2","1","0","1","1","0","0","1","1","0","1","1","0","1","0","1","4","2","1","2","2","1","3","2","4","2","578883788969345024","杨","436","","","","match","","","","","","","","","","","","","","key","f","16.668188679245638","960","536","f","true","match","img/ellipse.png","椭圆","椭圆","ALT1","formal_ALT1_2","","","","","","","","","",""
"null","<span style='color:GreenYellow; font-size: 70px;'>正确! </span>","null","html-keyboard-response","166","353583","0.0-7.0-1.0-4.0-0.0-1.29","3","4","3","3","4","4","3","2","4","4","4","4","5","4","4","4","5","4","4","4","2","1","2","2","2","1","2","1","2","1","0","1","1","0","0","1","1","0","1","1","0","1","0","1","4","2","1","2","2","1","3","2","4","2","578883788969345024","杨","436","","","","","","","","","","","","","","","","","","","","","","","","","","","","","","feedback_test","","","","","","","","","",""
"682","","f","psychophysics","167","355266","0.0-7.0-1.0-4.0-0.0-0.30","3","4","3","3","4","4","3","2","4","4","4","4","5","4","4","4","5","4","4","4","2","1","2","2","2","1","2","1","2","1","0","1","1","0","0","1","1","0","1","1","0","1","0","1","4","2","1","2","2","1","3","2","4","2","578883788969345024","杨","436","","","","match","","","","","","","","","","","","","","key","f","16.667880000000004","960","536","f","true","match","img/triangle.png","三角","三角","ALT1","formal_ALT1_2","","","","","","","","","",""
"null","<span style='color:GreenYellow; font-size: 70px;'>正确! </span>","null","html-keyboard-response","168","355767","0.0-7.0-1.0-4.0-0.0-1.30","3","4","3","3","4","4","3","2","4","4","4","4","5","4","4","4","5","4","4","4","2","1","2","2","2","1","2","1","2","1","0","1","1","0","0","1","1","0","1","1","0","1","0","1","4","2","1","2","2","1","3","2","4","2","578883788969345024","杨","436","","","","","","","","","","","","","","","","","","","","","","","","","","","","","","feedback_test","","","","","","","","","",""
"841","","j","psychophysics","169","357609","0.0-7.0-1.0-4.0-0.0-0.31","3","4","3","3","4","4","3","2","4","4","4","4","5","4","4","4","5","4","4","4","2","1","2","2","2","1","2","1","2","1","0","1","1","0","0","1","1","0","1","1","0","1","0","1","4","2","1","2","2","1","3","2","4","2","578883788969345024","杨","436","","","","nonmatch","","","","","","","","","","","","","","key","j","16.667845454545354","960","536","j","true","nonmatch","img/diamond.png","三角","菱形","ALT1","formal_ALT1_2","","","","","","","","","",""
"null","<span style='color:GreenYellow; font-size: 70px;'>正确! </span>","null","html-keyboard-response","170","358110","0.0-7.0-1.0-4.0-0.0-1.31","3","4","3","3","4","4","3","2","4","4","4","4","5","4","4","4","5","4","4","4","2","1","2","2","2","1","2","1","2","1","0","1","1","0","0","1","1","0","1","1","0","1","0","1","4","2","1","2","2","1","3","2","4","2","578883788969345024","杨","436","","","","","","","","","","","","","","","","","","","","","","","","","","","","","","feedback_test","","","","","","","","","",""
"890","","f","psychophysics","171","360001","0.0-7.0-1.0-4.0-0.0-0.32","3","4","3","3","4","4","3","2","4","4","4","4","5","4","4","4","5","4","4","4","2","1","2","2","2","1","2","1","2","1","0","1","1","0","0","1","1","0","1","1","0","1","0","1","4","2","1","2","2","1","3","2","4","2","578883788969345024","杨","436","","","","match","","","","","","","","","","","","","","key","f","16.66600892857189","960","536","f","true","match","img/ellipse.png","椭圆","椭圆","ALT1","formal_ALT1_2","","","","","","","","","",""
"null","<span style='color:GreenYellow; font-size: 70px;'>正确! </span>","null","html-keyboard-response","172","360503","0.0-7.0-1.0-4.0-0.0-1.32","3","4","3","3","4","4","3","2","4","4","4","4","5","4","4","4","5","4","4","4","2","1","2","2","2","1","2","1","2","1","0","1","1","0","0","1","1","0","1","1","0","1","0","1","4","2","1","2","2","1","3","2","4","2","578883788969345024","杨","436","","","","","","","","","","","","","","","","","","","","","","","","","","","","","","feedback_test","","","","","","","","","",""
"1001","","j","psychophysics","173","362505","0.0-7.0-1.0-4.0-0.0-0.33","3","4","3","3","4","4","3","2","4","4","4","4","5","4","4","4","5","4","4","4","2","1","2","2","2","1","2","1","2","1","0","1","1","0","0","1","1","0","1","1","0","1","0","1","4","2","1","2","2","1","3","2","4","2","578883788969345024","杨","436","","","","nonmatch","","","","","","","","","","","","","","key","j","16.66727499999979","960","536","j","true","nonmatch","img/diamond.png","六边","菱形","ALT1","formal_ALT1_2","","","","","","","","","",""
"null","<span style='color:GreenYellow; font-size: 70px;'>正确! </span>","null","html-keyboard-response","174","363006","0.0-7.0-1.0-4.0-0.0-1.33","3","4","3","3","4","4","3","2","4","4","4","4","5","4","4","4","5","4","4","4","2","1","2","2","2","1","2","1","2","1","0","1","1","0","0","1","1","0","1","1","0","1","0","1","4","2","1","2","2","1","3","2","4","2","578883788969345024","杨","436","","","","","","","","","","","","","","","","","","","","","","","","","","","","","","feedback_test","","","","","","","","","",""
"1115","","j","psychophysics","175","365122","0.0-7.0-1.0-4.0-0.0-0.34","3","4","3","3","4","4","3","2","4","4","4","4","5","4","4","4","5","4","4","4","2","1","2","2","2","1","2","1","2","1","0","1","1","0","0","1","1","0","1","1","0","1","0","1","4","2","1","2","2","1","3","2","4","2","578883788969345024","杨","436","","","","nonmatch","","","","","","","","","","","","","","key","j","16.664783999999987","960","536","f","false","match","img/diamond.png","菱形","菱形","ALT1","formal_ALT1_2","","","","","","","","","",""
"null","<span style='color:red; font-size: 70px;'>错误! </span>","null","html-keyboard-response","176","365623","0.0-7.0-1.0-4.0-0.0-1.34","3","4","3","3","4","4","3","2","4","4","4","4","5","4","4","4","5","4","4","4","2","1","2","2","2","1","2","1","2","1","0","1","1","0","0","1","1","0","1","1","0","1","0","1","4","2","1","2","2","1","3","2","4","2","578883788969345024","杨","436","","","","","","","","","","","","","","","","","","","","","","","","","","","","","","feedback_test","","","","","","","","","",""
"681","","f","psychophysics","177","367305","0.0-7.0-1.0-4.0-0.0-0.35","3","4","3","3","4","4","3","2","4","4","4","4","5","4","4","4","5","4","4","4","2","1","2","2","2","1","2","1","2","1","0","1","1","0","0","1","1","0","1","1","0","1","0","1","4","2","1","2","2","1","3","2","4","2","578883788969345024","杨","436","","","","match","","","","","","","","","","","","","","key","f","16.665969999999508","960","536","f","true","match","img/hexagon.png","六边","六边","ALT1","formal_ALT1_2","","","","","","","","","",""
"null","<span style='color:GreenYellow; font-size: 70px;'>正确! </span>","null","html-keyboard-response","178","367808","0.0-7.0-1.0-4.0-0.0-1.35","3","4","3","3","4","4","3","2","4","4","4","4","5","4","4","4","5","4","4","4","2","1","2","2","2","1","2","1","2","1","0","1","1","0","0","1","1","0","1","1","0","1","0","1","4","2","1","2","2","1","3","2","4","2","578883788969345024","杨","436","","","","","","","","","","","","","","","","","","","","","","","","","","","","","","feedback_test","","","","","","","","","",""
"713","","f","psychophysics","179","369522","0.0-7.0-1.0-4.0-0.0-0.36","3","4","3","3","4","4","3","2","4","4","4","4","5","4","4","4","5","4","4","4","2","1","2","2","2","1","2","1","2","1","0","1","1","0","0","1","1","0","1","1","0","1","0","1","4","2","1","2","2","1","3","2","4","2","578883788969345024","杨","436","","","","match","","","","","","","","","","","","","","key","f","16.66493137254877","960","536","f","true","match","img/triangle.png","三角","三角","ALT1","formal_ALT1_2","","","","","","","","","",""
"null","<span style='color:GreenYellow; font-size: 70px;'>正确! </span>","null","html-keyboard-response","180","370023","0.0-7.0-1.0-4.0-0.0-1.36","3","4","3","3","4","4","3","2","4","4","4","4","5","4","4","4","5","4","4","4","2","1","2","2","2","1","2","1","2","1","0","1","1","0","0","1","1","0","1","1","0","1","0","1","4","2","1","2","2","1","3","2","4","2","578883788969345024","杨","436","","","","","","","","","","","","","","","","","","","","","","","","","","","","","","feedback_test","","","","","","","","","",""
"729","","j","psychophysics","181","371753","0.0-7.0-1.0-4.0-0.0-0.37","3","4","3","3","4","4","3","2","4","4","4","4","5","4","4","4","5","4","4","4","2","1","2","2","2","1","2","1","2","1","0","1","1","0","0","1","1","0","1","1","0","1","0","1","4","2","1","2","2","1","3","2","4","2","578883788969345024","杨","436","","","","nonmatch","","","","","","","","","","","","","","key","j","16.665117647058864","960","536","j","true","nonmatch","img/triangle.png","椭圆","三角","ALT1","formal_ALT1_2","","","","","","","","","",""
"null","<span style='color:GreenYellow; font-size: 70px;'>正确! </span>","null","html-keyboard-response","182","372255","0.0-7.0-1.0-4.0-0.0-1.37","3","4","3","3","4","4","3","2","4","4","4","4","5","4","4","4","5","4","4","4","2","1","2","2","2","1","2","1","2","1","0","1","1","0","0","1","1","0","1","1","0","1","0","1","4","2","1","2","2","1","3","2","4","2","578883788969345024","杨","436","","","","","","","","","","","","","","","","","","","","","","","","","","","","","","feedback_test","","","","","","","","","",""
"692","","f","psychophysics","183","373961","0.0-7.0-1.0-4.0-0.0-0.38","3","4","3","3","4","4","3","2","4","4","4","4","5","4","4","4","5","4","4","4","2","1","2","2","2","1","2","1","2","1","0","1","1","0","0","1","1","0","1","1","0","1","0","1","4","2","1","2","2","1","3","2","4","2","578883788969345024","杨","436","","","","match","","","","","","","","","","","","","","key","f","16.666049504950575","960","536","f","true","match","img/ellipse.png","椭圆","椭圆","ALT1","formal_ALT1_2","","","","","","","","","",""
"null","<span style='color:GreenYellow; font-size: 70px;'>正确! </span>","null","html-keyboard-response","184","374462","0.0-7.0-1.0-4.0-0.0-1.38","3","4","3","3","4","4","3","2","4","4","4","4","5","4","4","4","5","4","4","4","2","1","2","2","2","1","2","1","2","1","0","1","1","0","0","1","1","0","1","1","0","1","0","1","4","2","1","2","2","1","3","2","4","2","578883788969345024","杨","436","","","","","","","","","","","","","","","","","","","","","","","","","","","","","","feedback_test","","","","","","","","","",""
"809","","j","psychophysics","185","376273","0.0-7.0-1.0-4.0-0.0-0.39","3","4","3","3","4","4","3","2","4","4","4","4","5","4","4","4","5","4","4","4","2","1","2","2","2","1","2","1","2","1","0","1","1","0","0","1","1","0","1","1","0","1","0","1","4","2","1","2","2","1","3","2","4","2","578883788969345024","杨","436","","","","nonmatch","","","","","","","","","","","","","","key","j","16.66830555555525","960","536","j","true","nonmatch","img/diamond.png","椭圆","菱形","ALT1","formal_ALT1_2","","","","","","","","","",""
